date,sub_n,trial_type,trial_num,line_len,distribution,jnds,key_choice,yn_choice,correct,rt
20210928,100,learn,1,248.5424,in,10.35,u,YES,TRUE,4716
20210928,100,learn,2,233.9515,in,9.11,u,YES,TRUE,2761
20210928,100,learn,3,160.4473,out,1.38,u,YES,FALSE,1634
20210928,100,learn,4,381.2683,out,19.12,u,YES,FALSE,1633
20210928,100,learn,5,196.841,out,5.57,u,YES,FALSE,1441
20210928,100,learn,6,251.8382,in,10.62,u,YES,TRUE,897
20210928,100,learn,7,282.8474,out,13,u,YES,FALSE,1490
20210928,100,learn,8,245.4095,in,10.09,u,YES,TRUE,1032
20210928,100,learn,9,354.016,in,17.6,i,NO,FALSE,2400
20210928,100,learn,10,316.5916,out,15.31,u,YES,FALSE,1646
20210928,100,learn,11,282.5715,out,12.98,u,YES,FALSE,1103
20210928,100,learn,12,315.0507,in,15.21,u,YES,TRUE,5872
20210928,100,learn,13,431.9916,out,21.68,i,NO,TRUE,1233
20210928,100,learn,14,280.511,in,12.83,i,NO,FALSE,866
20210928,100,learn,15,286.1789,in,13.24,u,YES,TRUE,730
20210928,100,learn,16,237.6328,in,9.43,u,YES,TRUE,1075
20210928,100,learn,17,269.773,in,12.03,i,NO,FALSE,741
20210928,100,learn,18,193.6971,in,5.24,u,YES,TRUE,820
20210928,100,learn,19,372.443,in,18.64,u,YES,TRUE,364
20210928,100,learn,20,186.3733,out,4.45,u,YES,FALSE,400
20210928,100,learn,21,440.9352,out,22.1,u,YES,FALSE,1143
20210928,100,learn,22,383.8815,out,19.26,u,YES,FALSE,1259
20210928,100,learn,23,155.8185,out,0.78,u,YES,FALSE,3987
20210928,100,learn,24,169.8728,out,2.55,u,YES,FALSE,1176
20210928,100,learn,25,266.7626,out,11.8,u,YES,FALSE,570
20210928,100,learn,26,231.4537,in,8.89,i,NO,FALSE,474
20210928,100,learn,27,273.0837,out,12.28,u,YES,FALSE,1145
20210928,100,learn,28,319.0728,in,15.47,u,YES,TRUE,523
20210928,100,learn,29,370.2688,out,18.52,i,NO,TRUE,809
20210928,100,learn,30,356.0948,in,17.72,i,NO,FALSE,585
20210928,100,learn,31,309.2634,out,14.83,u,YES,FALSE,368
20210928,100,learn,32,259.5727,in,11.24,i,NO,FALSE,309
20210928,100,learn,33,150.8808,out,0.12,i,NO,TRUE,1537
20210928,100,learn,34,259.5727,in,11.24,i,NO,FALSE,816
20210928,100,learn,35,378.8576,out,18.99,i,NO,TRUE,577
20210928,100,learn,36,179.0641,in,3.63,u,YES,TRUE,1023
20210928,100,learn,37,314.8971,in,15.2,u,YES,TRUE,1120
20210928,100,learn,38,199.354,out,5.83,i,NO,TRUE,905
20210928,100,learn,39,219.1453,in,7.77,i,NO,FALSE,769
20210928,100,learn,40,215.1197,in,7.39,u,YES,TRUE,1616
20210928,100,learn,41,214.2817,out,7.31,u,YES,FALSE,827
20210928,100,learn,42,302.3998,out,14.37,i,NO,TRUE,260
20210928,100,learn,43,189.4907,out,4.79,i,NO,TRUE,988
20210928,100,learn,44,160.2908,out,1.36,u,YES,FALSE,1016
20210928,100,learn,45,235.555,in,9.25,i,NO,FALSE,350
20210928,100,learn,46,278.7375,in,12.7,i,NO,FALSE,307
20210928,100,learn,47,395.4783,out,19.87,u,YES,FALSE,717
20210928,100,learn,48,258.5615,in,11.16,u,YES,TRUE,297
20210928,100,learn,49,160.7608,out,1.42,u,YES,FALSE,269
20210928,100,learn,50,343.8027,out,17,i,NO,TRUE,472
20210928,100,learn,51,223.4641,out,8.17,i,NO,TRUE,747
20210928,100,learn,52,304.621,out,14.52,i,NO,TRUE,420
20210928,100,learn,53,185.4662,out,4.35,u,YES,FALSE,267
20210928,100,learn,54,264.3011,in,11.61,u,YES,TRUE,254
20210928,100,learn,55,269.5099,in,12.01,i,NO,FALSE,1120
20210928,100,learn,56,427.3794,out,21.46,u,YES,FALSE,406
20210928,100,learn,57,305.9616,in,14.61,i,NO,FALSE,241
20210928,100,learn,58,316.4372,in,15.3,i,NO,FALSE,402
20210928,100,learn,59,288.4217,in,13.4,i,NO,FALSE,284
20210928,100,learn,60,301.663,in,14.32,i,NO,FALSE,282
20210928,100,learn,61,157.5,out,1,i,NO,TRUE,271
20210928,100,learn,62,335.8447,out,16.52,u,YES,FALSE,263
20210928,100,learn,63,189.1213,out,4.75,i,NO,TRUE,280
20210928,100,learn,64,414.0384,out,20.81,u,YES,FALSE,738
20210928,100,learn,65,306.8586,out,14.67,i,NO,TRUE,297
20210928,100,learn,66,232.019,in,8.94,u,YES,TRUE,252
20210928,100,learn,67,228.0906,out,8.59,i,NO,TRUE,258
20210928,100,learn,68,287.8593,in,13.36,i,NO,FALSE,231
20210928,100,learn,69,234.2942,in,9.14,u,YES,TRUE,274
20210928,100,learn,71,242.6709,in,9.86,u,YES,TRUE,1389
20210928,100,learn,72,215.1197,in,7.39,u,YES,TRUE,236
20210928,100,learn,73,338.8071,out,16.7,u,YES,FALSE,225
20210928,100,learn,74,243.7389,in,9.95,i,NO,FALSE,285
20210928,100,learn,75,356.0948,in,17.72,u,YES,TRUE,1687
20210928,100,learn,76,281.4707,in,12.9,i,NO,FALSE,582
20210928,100,learn,77,244.931,out,10.05,u,YES,FALSE,288
20210928,100,learn,78,303.4343,in,14.44,i,NO,FALSE,342
20210928,100,learn,79,183.2177,out,4.1,i,NO,TRUE,1830
20210928,100,learn,80,176.8932,out,3.38,i,NO,TRUE,645
20210928,100,learn,81,228.4247,out,8.62,u,YES,FALSE,514
20210928,100,learn,82,272.5513,out,12.24,u,YES,FALSE,413
20210928,100,learn,83,268.8532,in,11.96,i,NO,FALSE,251
20210928,100,learn,84,426.7543,out,21.43,u,YES,FALSE,399
20210928,100,learn,85,197.4181,in,5.63,i,NO,FALSE,358
20210928,100,learn,86,302.2523,out,14.36,u,YES,FALSE,344
20210928,100,learn,87,157.3464,out,0.98,i,NO,TRUE,333
20210928,100,learn,88,318.7615,out,15.45,u,YES,FALSE,942
20210928,100,learn,89,261.0969,out,11.36,i,NO,TRUE,328
20210928,100,learn,90,205.4765,in,6.45,i,NO,FALSE,407
20210928,100,learn,91,198.8682,in,5.78,u,YES,TRUE,2438
20210928,100,learn,92,425.0919,out,21.35,u,YES,FALSE,1832
20210928,100,learn,93,325.361,out,15.87,i,NO,TRUE,273
20210928,100,learn,94,260.5878,in,11.32,i,NO,FALSE,785
20210928,100,learn,95,297.2797,in,14.02,i,NO,FALSE,369
20210928,100,learn,96,278.0583,in,12.65,i,NO,FALSE,289
20210928,100,learn,97,217.0172,out,7.57,i,NO,TRUE,142
20210928,100,learn,98,162.972,out,1.7,i,NO,TRUE,563
20210928,100,learn,99,328.3911,out,16.06,i,NO,TRUE,347
20210928,100,learn,100,270.9602,in,12.12,i,NO,FALSE,409
20210928,100,learn,101,219.6805,in,7.82,u,YES,TRUE,166
20210928,100,learn,102,351.2632,out,17.44,u,YES,FALSE,243
20210928,100,learn,103,261.6069,in,11.4,i,NO,FALSE,294
20210928,100,learn,104,354.5346,in,17.63,u,YES,TRUE,232
20210928,100,learn,105,397.6065,in,19.98,i,NO,FALSE,267
20210928,100,learn,106,389.5417,in,19.56,i,NO,FALSE,213
20210928,100,learn,107,246.0089,in,10.14,u,YES,TRUE,316
20210928,100,learn,108,319.8521,in,15.52,u,YES,TRUE,357
20210928,100,learn,109,433.4695,out,21.75,i,NO,TRUE,298
20210928,100,learn,110,346.6662,in,17.17,u,YES,TRUE,295
20210928,100,learn,111,228.6477,in,8.64,u,YES,TRUE,229
20210928,100,learn,113,213.0308,in,7.19,u,YES,TRUE,238
20210928,100,learn,114,255.801,out,10.94,u,YES,FALSE,350
20210928,100,learn,115,211.2711,out,7.02,i,NO,TRUE,152
20210928,100,learn,116,196.2656,in,5.51,u,YES,TRUE,1010
20210928,100,learn,117,235.0957,in,9.21,i,NO,FALSE,549
20210928,100,learn,118,304.3239,in,14.5,u,YES,TRUE,345
20210928,100,learn,119,340.7966,out,16.82,u,YES,FALSE,571
20210928,100,learn,120,249.3927,out,10.42,i,NO,TRUE,268
20210928,100,learn,121,308.8111,in,14.8,u,YES,TRUE,404
20210928,100,learn,122,177.9319,out,3.5,i,NO,TRUE,306
20210928,100,learn,123,274.6873,out,12.4,u,YES,FALSE,432
20210928,100,learn,124,367.7482,out,18.38,u,YES,FALSE,1131
20210928,100,learn,125,188.2927,out,4.66,i,NO,TRUE,426
20210928,100,learn,126,292.2463,in,13.67,i,NO,FALSE,247
20210928,100,learn,127,414.4426,out,20.83,i,NO,TRUE,292
20210928,100,learn,129,196.3614,in,5.52,i,NO,FALSE,1097
20210928,100,learn,130,262.5019,in,11.47,u,YES,TRUE,287
20210928,100,learn,131,235.4401,in,9.24,i,NO,FALSE,1033
20210928,100,learn,132,226.3169,out,8.43,u,YES,FALSE,541
20210928,100,learn,133,242.9078,in,9.88,u,YES,TRUE,3266
20210928,100,learn,134,197.1294,out,5.6,u,YES,FALSE,908
20210928,100,learn,135,226.0962,in,8.41,i,NO,FALSE,274
20210928,100,learn,136,300.928,out,14.27,u,YES,FALSE,454
20210928,100,learn,137,433.4695,out,21.75,u,YES,FALSE,572
20210928,100,learn,138,173.1362,out,2.94,u,YES,FALSE,360
20210928,100,learn,139,268.0673,out,11.9,u,YES,FALSE,369
20210928,100,learn,140,256.4258,out,10.99,u,YES,FALSE,205
20210928,100,learn,141,225.3253,in,8.34,u,YES,TRUE,163
20210928,100,learn,142,206.4815,out,6.55,i,NO,TRUE,127
20210928,100,learn,143,158.6569,out,1.15,u,YES,FALSE,221
20210928,100,learn,144,189.3983,in,4.78,i,NO,FALSE,208
20210928,100,learn,145,234.4085,out,9.15,u,YES,FALSE,101
20210928,100,learn,146,338.1466,out,16.66,i,NO,TRUE,171
20210928,100,learn,147,315.3583,out,15.23,i,NO,TRUE,1329
20210928,100,learn,148,241.7256,in,9.78,i,NO,FALSE,1788
20210928,100,learn,149,327.7509,in,16.02,u,YES,TRUE,390
20210928,100,learn,150,223.5732,in,8.18,u,YES,TRUE,435
20210928,100,learn,151,204.3767,out,6.34,i,NO,TRUE,1385
20210928,100,learn,152,240.0801,out,9.64,i,NO,TRUE,932
20210928,100,learn,153,324.5682,in,15.82,u,YES,TRUE,348
20210928,100,learn,154,215.6451,out,7.44,u,YES,FALSE,1985
20210928,100,learn,155,170.5372,in,2.63,u,YES,TRUE,751
20210928,100,learn,156,186.2824,in,4.44,u,YES,TRUE,1118
20210928,100,learn,157,259.6994,in,11.25,i,NO,FALSE,1080
20210928,100,learn,158,402.0934,out,20.21,u,YES,FALSE,433
20210928,100,learn,159,260.715,in,11.33,i,NO,FALSE,275
20210928,100,learn,160,212.3044,in,7.12,u,YES,TRUE,202
20210928,100,learn,161,302.5474,in,14.38,i,NO,FALSE,305
20210928,100,learn,162,219.1453,in,7.77,i,NO,FALSE,154
20210928,100,learn,163,243.0264,out,9.89,u,YES,FALSE,490
20210928,100,learn,164,242.9078,in,9.88,u,YES,TRUE,381
20210928,100,learn,165,188.2927,out,4.66,i,NO,TRUE,690
20210928,100,learn,166,391.0651,out,19.64,i,NO,TRUE,405
20210928,100,learn,167,275.2239,in,12.44,i,NO,FALSE,737
20210928,100,learn,168,223.5732,in,8.18,u,YES,TRUE,706
20210928,100,learn,169,284.5082,out,13.12,u,YES,FALSE,1675
20210928,100,learn,170,179.6767,out,3.7,i,NO,TRUE,315
20210928,100,learn,171,289.5496,in,13.48,u,YES,TRUE,649
20210928,100,learn,172,153.0308,out,0.41,i,NO,TRUE,434
20210928,100,learn,173,242.5526,in,9.85,u,YES,TRUE,433
20210928,100,learn,174,254.3077,in,10.82,u,YES,TRUE,405
20210928,100,learn,175,274.8213,out,12.41,i,NO,TRUE,329
20210928,100,learn,176,294.3929,in,13.82,u,YES,TRUE,376
20210928,100,learn,177,257.4286,out,11.07,u,YES,FALSE,334
20210928,100,learn,178,224.886,in,8.3,i,NO,FALSE,142
20210928,100,learn,179,217.0172,out,7.57,u,YES,FALSE,219
20210928,100,learn,180,380.8964,out,19.1,i,NO,TRUE,861
20210928,100,learn,181,351.4346,in,17.45,i,NO,FALSE,346
20210928,100,learn,182,271.7546,in,12.18,i,NO,FALSE,379
20210928,100,learn,183,235.3252,out,9.23,i,NO,TRUE,332
20210928,100,learn,184,352.1211,out,17.49,i,NO,TRUE,1929
20210928,100,learn,185,241.019,in,9.72,i,NO,FALSE,482
20210928,100,learn,186,214.9099,out,7.37,i,NO,TRUE,887
20210928,100,learn,187,290.1153,in,13.52,u,YES,TRUE,756
20210928,100,learn,188,306.8586,in,14.67,i,NO,FALSE,533
20210928,100,learn,190,238.6785,out,9.52,u,YES,FALSE,296
20210928,100,learn,191,219.6805,in,7.82,i,NO,FALSE,368
20210928,100,learn,192,260.715,in,11.33,i,NO,FALSE,431
20210928,100,learn,193,170.787,out,2.66,u,YES,FALSE,467
20210928,100,learn,194,367.2103,out,18.35,u,YES,FALSE,505
20210928,100,learn,195,204.8759,out,6.39,i,NO,TRUE,451
20210928,100,learn,196,348.1918,out,17.26,u,YES,FALSE,7483
20210928,100,learn,197,441.7966,out,22.14,i,NO,TRUE,425
20210928,100,learn,198,286.0393,in,13.23,u,YES,TRUE,2487
20210928,100,learn,199,258.8139,in,11.18,i,NO,FALSE,1734
20210928,100,learn,200,233.8373,in,9.1,u,YES,TRUE,592
20210928,101,learn,1,304.3239,in,14.5,u,YES,TRUE,4690
20210928,101,learn,2,270.9602,in,12.12,u,YES,TRUE,1946
20210928,101,learn,3,238.6785,out,9.52,u,YES,FALSE,804
20210928,101,learn,4,372.443,in,18.64,i,NO,FALSE,1140
20210928,101,learn,5,248.5424,in,10.35,u,YES,TRUE,612
20210928,101,learn,6,304.621,out,14.52,i,NO,TRUE,2208
20210928,101,learn,7,160.2908,out,1.36,i,NO,TRUE,1292
20210928,101,learn,8,217.0172,out,7.57,u,YES,FALSE,1318
20210928,101,learn,9,306.8586,out,14.67,u,YES,FALSE,892
20210928,101,learn,10,268.8532,in,11.96,u,YES,TRUE,706
20210928,101,learn,11,325.361,out,15.87,u,YES,FALSE,862
20210928,101,learn,12,294.3929,in,13.82,i,NO,FALSE,1090
20210928,101,learn,13,211.2711,out,7.02,i,NO,TRUE,1228
20210928,101,learn,14,206.4815,out,6.55,i,NO,TRUE,2388
20210928,101,learn,15,223.4641,out,8.17,u,YES,FALSE,1046
20210928,101,learn,16,214.9099,out,7.37,i,NO,TRUE,936
20210928,101,learn,17,314.8971,in,15.2,u,YES,TRUE,1620
20210928,101,learn,18,284.5082,out,13.12,u,YES,FALSE,1496
20210928,101,learn,19,281.4707,in,12.9,u,YES,TRUE,360
20210928,101,learn,20,249.3927,out,10.42,u,YES,FALSE,722
20210928,101,learn,21,233.9515,in,9.11,i,NO,FALSE,184
20210928,101,learn,22,414.4426,out,20.83,u,YES,FALSE,1034
20210928,101,learn,23,433.4695,out,21.75,i,NO,TRUE,1062
20210928,101,learn,24,269.773,in,12.03,u,YES,TRUE,2150
20210928,101,learn,25,378.8576,out,18.99,i,NO,TRUE,956
20210928,101,learn,26,214.2817,out,7.31,u,YES,FALSE,1332
20210928,101,learn,27,274.6873,out,12.4,u,YES,FALSE,2640
20210928,101,learn,28,242.9078,in,9.88,u,YES,TRUE,2582
20210928,101,learn,29,246.0089,in,10.14,u,YES,TRUE,614
20210928,101,learn,30,260.715,in,11.33,i,NO,FALSE,1152
20210928,101,learn,31,280.511,in,12.83,i,NO,FALSE,564
20210928,101,learn,32,160.7608,out,1.42,u,YES,FALSE,980
20210928,101,learn,33,262.5019,in,11.47,u,YES,TRUE,3746
20210928,101,learn,34,188.2927,out,4.66,u,YES,FALSE,924
20210928,101,learn,35,176.8932,out,3.38,i,NO,TRUE,954
20210928,101,learn,36,272.5513,out,12.24,u,YES,FALSE,508
20210928,101,learn,37,327.7509,in,16.02,i,NO,FALSE,988
20210928,101,learn,38,170.5372,in,2.63,u,YES,TRUE,1824
20210928,101,learn,39,346.6662,in,17.17,i,NO,FALSE,864
20210928,101,learn,40,356.0948,in,17.72,i,NO,FALSE,1186
20210928,101,learn,41,266.7626,out,11.8,u,YES,FALSE,900
20210928,101,learn,42,219.1453,in,7.77,u,YES,TRUE,706
20210928,101,learn,43,186.3733,out,4.45,i,NO,TRUE,3724
20210928,101,learn,44,286.0393,in,13.23,u,YES,TRUE,948
20210928,101,learn,45,173.1362,out,2.94,u,YES,FALSE,930
20210928,101,learn,46,370.2688,out,18.52,i,NO,TRUE,786
20210928,101,learn,47,233.8373,in,9.1,u,YES,TRUE,772
20210928,101,learn,48,286.8779,in,13.29,i,NO,FALSE,878
20210928,101,learn,49,426.7543,out,21.43,i,NO,TRUE,952
20210928,101,learn,50,199.354,out,5.83,i,NO,TRUE,1176
20210928,101,learn,51,183.2177,out,4.1,u,YES,FALSE,2546
20210928,101,learn,52,427.3794,out,21.46,i,NO,TRUE,944
20210928,101,learn,53,431.9916,out,21.68,i,NO,TRUE,806
20210928,101,learn,54,254.3077,in,10.82,u,YES,TRUE,746
20210928,101,learn,55,402.0934,out,20.21,i,NO,TRUE,736
20210928,101,learn,56,315.0507,in,15.21,u,YES,TRUE,1766
20210928,101,learn,57,160.4473,out,1.38,i,NO,TRUE,662
20210928,101,learn,58,157.3464,out,0.98,i,NO,TRUE,602
20210928,101,learn,59,338.1466,out,16.66,u,YES,FALSE,1290
20210928,101,learn,60,275.2239,in,12.44,i,NO,FALSE,1098
20210928,101,learn,61,169.8728,out,2.55,i,NO,TRUE,660
20210928,101,learn,62,251.8382,in,10.62,u,YES,TRUE,900
20210928,101,learn,63,189.3983,in,4.78,u,YES,TRUE,742
20210928,101,learn,64,261.6069,in,11.4,u,YES,TRUE,790
20210928,101,learn,65,155.8185,out,0.78,i,NO,TRUE,452
20210928,101,learn,66,286.1789,in,13.24,u,YES,TRUE,1978
20210928,101,learn,67,297.2797,in,14.02,i,NO,FALSE,718
20210928,101,learn,68,309.2634,out,14.83,i,NO,TRUE,568
20210928,101,learn,69,189.1213,out,4.75,i,NO,TRUE,2238
20210928,101,learn,70,240.0801,out,9.64,u,YES,FALSE,786
20210928,101,learn,71,150.8808,out,0.12,i,NO,TRUE,648
20210928,101,learn,72,301.663,in,14.32,u,YES,TRUE,1002
20210928,101,learn,73,338.8071,out,16.7,i,NO,TRUE,1036
20210928,101,learn,74,351.4346,in,17.45,i,NO,FALSE,584
20210928,101,learn,75,257.4286,out,11.07,u,YES,FALSE,964
20210928,101,learn,76,324.5682,in,15.82,u,YES,TRUE,1378
20210928,101,learn,77,380.8964,out,19.1,i,NO,TRUE,1178
20210928,101,learn,78,292.6743,out,13.7,u,YES,FALSE,766
20210928,101,learn,79,235.4401,in,9.24,u,YES,TRUE,566
20210928,101,learn,80,242.5526,in,9.85,u,YES,TRUE,940
20210928,101,learn,81,356.0948,in,17.72,u,YES,TRUE,1518
20210928,101,learn,82,319.0728,in,15.47,i,NO,FALSE,430
20210928,101,learn,83,185.4662,out,4.35,i,NO,TRUE,1146
20210928,101,learn,84,228.4247,out,8.62,u,YES,FALSE,622
20210928,101,learn,85,414.0384,out,20.81,i,NO,TRUE,762
20210928,101,learn,86,205.4765,in,6.45,i,NO,FALSE,1184
20210928,101,learn,87,223.5732,in,8.18,u,YES,TRUE,884
20210928,101,learn,88,241.019,in,9.72,u,YES,TRUE,644
20210928,101,learn,89,215.6451,out,7.44,i,NO,TRUE,808
20210928,101,learn,90,354.5346,in,17.63,i,NO,FALSE,996
20210928,101,learn,91,242.6709,in,9.86,u,YES,TRUE,2432
20210928,101,learn,92,316.4372,in,15.3,i,NO,FALSE,1210
20210928,101,learn,93,391.0651,out,19.64,i,NO,TRUE,646
20210928,101,learn,94,258.5615,in,11.16,u,YES,TRUE,592
20210928,101,learn,95,215.1197,in,7.39,u,YES,TRUE,1348
20210928,101,learn,96,425.0919,out,21.35,i,NO,TRUE,624
20210928,101,learn,97,340.7966,out,16.82,u,YES,FALSE,948
20210928,101,learn,98,226.0962,in,8.41,u,YES,TRUE,826
20210928,101,learn,99,193.6971,in,5.24,u,YES,TRUE,780
20210928,101,learn,100,440.9352,out,22.1,i,NO,TRUE,804
20210928,101,learn,101,189.4907,out,4.79,u,YES,FALSE,1260
20210928,101,learn,102,213.0308,in,7.19,u,YES,TRUE,848
20210928,101,learn,103,305.9616,in,14.61,u,YES,TRUE,810
20210928,101,learn,104,302.5474,in,14.38,i,NO,FALSE,740
20210928,101,learn,105,235.555,in,9.25,u,YES,TRUE,644
20210928,101,learn,106,198.8682,in,5.78,u,YES,TRUE,1066
20210928,101,learn,107,381.2683,out,19.12,i,NO,TRUE,904
20210928,101,learn,108,219.6805,in,7.82,u,YES,TRUE,870
20210928,101,learn,109,258.8139,in,11.18,u,YES,TRUE,750
20210928,101,learn,110,196.841,out,5.57,u,YES,FALSE,3326
20210928,101,learn,111,316.5916,out,15.31,u,YES,FALSE,690
20210928,101,learn,112,196.3614,in,5.52,u,YES,TRUE,1536
20210928,101,learn,113,274.8213,out,12.41,u,YES,FALSE,770
20210928,101,learn,114,256.4258,out,10.99,u,YES,FALSE,844
20210928,101,learn,115,273.0837,out,12.28,i,NO,TRUE,1362
20210928,101,learn,116,237.6328,in,9.43,i,NO,FALSE,1340
20210928,101,learn,117,219.1453,in,7.77,u,YES,TRUE,2306
20210928,101,learn,118,306.8586,in,14.67,i,NO,FALSE,2034
20210928,101,learn,119,243.0264,out,9.89,u,YES,FALSE,752
20210928,101,learn,120,278.0583,in,12.65,i,NO,FALSE,1232
20210928,101,learn,121,383.8815,out,19.26,i,NO,TRUE,664
20210928,101,learn,122,269.5099,in,12.01,u,YES,TRUE,710
20210928,101,learn,123,188.2927,out,4.66,i,NO,TRUE,1158
20210928,101,learn,124,217.0172,out,7.57,u,YES,FALSE,828
20210928,101,learn,125,153.0308,out,0.41,i,NO,TRUE,694
20210928,101,learn,126,196.2656,in,5.51,u,YES,TRUE,1882
20210928,101,learn,127,290.1153,in,13.52,i,NO,FALSE,734
20210928,101,learn,128,204.8759,out,6.39,u,YES,FALSE,674
20210928,101,learn,129,318.7615,out,15.45,i,NO,TRUE,726
20210928,101,learn,130,162.972,out,1.7,i,NO,TRUE,1012
20210928,101,learn,131,177.9319,out,3.5,u,YES,FALSE,814
20210928,101,learn,132,271.7546,in,12.18,i,NO,FALSE,1244
20210928,101,learn,133,302.3998,out,14.37,i,NO,TRUE,734
20210928,101,learn,134,232.019,in,8.94,u,YES,TRUE,844
20210928,101,learn,135,343.8027,out,17,i,NO,TRUE,624
20210928,101,learn,136,292.2463,in,13.67,u,YES,TRUE,680
20210928,101,learn,137,351.2632,out,17.44,i,NO,TRUE,594
20210928,101,learn,138,242.9078,in,9.88,u,YES,TRUE,640
20210928,101,learn,139,300.928,out,14.27,i,NO,TRUE,1090
20210928,101,learn,140,259.6994,in,11.25,u,YES,TRUE,620
20210928,101,learn,141,259.5727,in,11.24,u,YES,TRUE,702
20210928,101,learn,142,157.5,out,1,i,NO,TRUE,516
20210928,101,learn,143,186.2824,in,4.44,u,YES,TRUE,1656
20210928,101,learn,144,260.715,in,11.33,i,NO,FALSE,1564
20210928,101,learn,145,235.0957,in,9.21,u,YES,TRUE,932
20210928,101,learn,146,223.5732,in,8.18,u,YES,TRUE,782
20210928,101,learn,147,255.801,out,10.94,u,YES,FALSE,924
20210928,101,learn,148,228.0906,out,8.59,u,YES,FALSE,668
20210928,101,learn,149,303.4343,in,14.44,i,NO,FALSE,666
20210928,101,learn,150,287.8593,in,13.36,i,NO,FALSE,1028
20210928,101,learn,151,367.2103,out,18.35,i,NO,TRUE,592
20210928,101,learn,152,244.931,out,10.05,u,YES,FALSE,836
20210928,101,learn,153,179.0641,in,3.63,u,YES,TRUE,1324
20210928,101,learn,154,225.3253,in,8.34,u,YES,TRUE,568
20210928,101,learn,155,245.4095,in,10.09,u,YES,TRUE,780
20210928,101,learn,156,204.9759,in,6.4,u,YES,TRUE,1052
20210928,101,learn,157,264.3011,in,11.61,i,NO,FALSE,644
20210928,101,learn,158,204.3767,out,6.34,u,YES,FALSE,1044
20210928,101,learn,159,172.2094,out,2.83,i,NO,TRUE,740
20210928,101,learn,160,348.1918,out,17.26,i,NO,TRUE,734
20210928,101,learn,161,243.7389,in,9.95,i,NO,FALSE,1194
20210928,101,learn,162,367.7482,out,18.38,i,NO,TRUE,646
20210928,101,learn,163,335.8447,out,16.52,i,NO,TRUE,1336
20210928,101,learn,164,441.7966,out,22.14,i,NO,TRUE,5142
20210928,101,learn,165,158.6569,out,1.15,i,NO,TRUE,1630
20210928,101,learn,166,352.1211,out,17.49,i,NO,TRUE,958
20210928,101,learn,167,212.3044,in,7.12,u,YES,TRUE,474
20210928,101,learn,168,231.4537,in,8.89,u,YES,TRUE,572
20210928,101,learn,169,226.3169,out,8.43,u,YES,FALSE,834
20210928,101,learn,170,433.4695,out,21.75,i,NO,TRUE,504
20210928,101,learn,171,241.7256,in,9.78,u,YES,TRUE,618
20210928,101,learn,172,268.0673,out,11.9,u,YES,FALSE,736
20210928,101,learn,173,234.2942,in,9.14,u,YES,TRUE,682
20210928,101,learn,174,302.2523,out,14.36,i,NO,TRUE,790
20210928,101,learn,175,397.6065,in,19.98,i,NO,FALSE,766
20210928,101,learn,176,278.7375,in,12.7,u,YES,TRUE,710
20210928,101,learn,177,260.5878,in,11.32,u,YES,TRUE,618
20210928,101,learn,178,354.016,in,17.6,u,YES,TRUE,734
20210928,101,learn,179,224.886,in,8.3,u,YES,TRUE,4754
20210928,101,learn,180,328.3911,out,16.06,i,NO,TRUE,1938
20210928,101,learn,181,389.5417,in,19.56,i,NO,FALSE,756
20210928,101,learn,182,315.3583,out,15.23,u,YES,FALSE,774
20210928,101,learn,183,319.8521,in,15.52,u,YES,TRUE,3268
20210928,101,learn,184,282.8474,out,13,u,YES,FALSE,828
20210928,101,learn,185,235.3252,out,9.23,u,YES,FALSE,1478
20210928,101,learn,186,259.5727,in,11.24,u,YES,TRUE,1568
20210928,101,learn,187,197.1294,out,5.6,u,YES,FALSE,896
20210928,101,learn,188,219.6805,in,7.82,u,YES,TRUE,684
20210928,101,learn,189,282.5715,out,12.98,i,NO,TRUE,3334
20210928,101,learn,190,234.4085,out,9.15,u,YES,FALSE,738
20210928,101,learn,191,197.4181,in,5.63,u,YES,TRUE,2242
20210928,101,learn,192,308.8111,in,14.8,i,NO,FALSE,732
20210928,101,learn,193,289.5496,in,13.48,i,NO,FALSE,876
20210928,101,learn,194,261.0969,out,11.36,u,YES,FALSE,672
20210928,101,learn,195,395.4783,out,19.87,i,NO,TRUE,756
20210928,101,learn,196,228.6477,in,8.64,u,YES,TRUE,932
20210928,101,learn,197,288.4217,in,13.4,u,YES,TRUE,938
20210928,101,learn,198,170.787,out,2.66,i,NO,TRUE,968
20210928,101,learn,199,179.6767,out,3.7,u,YES,FALSE,1792
20210928,101,learn,200,215.1197,in,7.39,u,YES,TRUE,742
20210929,102,learn,1,324.5682,in,15.82,u,YES,TRUE,5824
20210929,102,learn,2,282.5715,out,12.98,u,YES,FALSE,1206
20210929,102,learn,3,150.8808,out,0.12,i,NO,TRUE,1788
20210929,102,learn,4,304.621,out,14.52,u,YES,FALSE,2198
20210929,102,learn,5,292.6743,out,13.7,u,YES,FALSE,2088
20210929,102,learn,6,274.8213,out,12.41,i,NO,TRUE,1954
20210929,102,learn,7,305.9616,in,14.61,i,NO,FALSE,1226
20210929,102,learn,8,157.5,out,1,i,NO,TRUE,2216
20210929,102,learn,9,284.5082,out,13.12,u,YES,FALSE,790
20210929,102,learn,10,328.3911,out,16.06,i,NO,TRUE,1356
20210929,102,learn,11,240.0801,out,9.64,i,NO,TRUE,1170
20210929,102,learn,12,319.8521,in,15.52,u,YES,TRUE,962
20210929,102,learn,13,389.5417,in,19.56,i,NO,FALSE,1068
20210929,102,learn,14,234.2942,in,9.14,i,NO,FALSE,1988
20210929,102,learn,15,306.8586,in,14.67,u,YES,TRUE,862
20210929,102,learn,16,348.1918,out,17.26,i,NO,TRUE,1216
20210929,102,learn,17,238.6785,out,9.52,i,NO,TRUE,880
20210929,102,learn,18,425.0919,out,21.35,i,NO,TRUE,1488
20210929,102,learn,19,301.663,in,14.32,u,YES,TRUE,704
20210929,102,learn,20,319.0728,in,15.47,u,YES,TRUE,790
20210929,102,learn,21,160.2908,out,1.36,i,NO,TRUE,1232
20210929,102,learn,22,215.1197,in,7.39,i,NO,FALSE,690
20210929,102,learn,23,169.8728,out,2.55,i,NO,TRUE,946
20210929,102,learn,24,367.2103,out,18.35,i,NO,TRUE,1220
20210929,102,learn,25,197.4181,in,5.63,i,NO,FALSE,1844
20210929,102,learn,26,287.8593,in,13.36,u,YES,TRUE,3044
20210929,102,learn,27,302.2523,out,14.36,u,YES,FALSE,812
20210929,102,learn,28,219.1453,in,7.77,i,NO,FALSE,852
20210929,102,learn,29,300.928,out,14.27,u,YES,FALSE,1682
20210929,102,learn,30,217.0172,out,7.57,u,YES,FALSE,1830
20210929,102,learn,31,268.0673,out,11.9,u,YES,FALSE,1718
20210929,102,learn,32,288.4217,in,13.4,u,YES,TRUE,1840
20210929,102,learn,33,315.0507,in,15.21,i,NO,FALSE,1078
20210929,102,learn,34,204.9759,in,6.4,u,YES,TRUE,1934
20210929,102,learn,35,185.4662,out,4.35,u,YES,FALSE,1000
20210929,102,learn,36,318.7615,out,15.45,i,NO,TRUE,3066
20210929,102,learn,37,211.2711,out,7.02,i,NO,TRUE,2612
20210929,102,learn,38,249.3927,out,10.42,u,YES,FALSE,800
20210929,102,learn,39,198.8682,in,5.78,i,NO,FALSE,1972
20210929,102,learn,40,228.6477,in,8.64,u,YES,TRUE,1068
20210929,102,learn,41,351.2632,out,17.44,i,NO,TRUE,2166
20210929,102,learn,42,242.9078,in,9.88,i,NO,FALSE,2038
20210929,102,learn,43,197.1294,out,5.6,i,NO,TRUE,1826
20210929,102,learn,44,219.6805,in,7.82,i,NO,FALSE,2046
20210929,102,learn,45,243.7389,in,9.95,u,YES,TRUE,2442
20210929,102,learn,46,440.9352,out,22.1,i,NO,TRUE,2306
20210929,102,learn,47,383.8815,out,19.26,u,YES,FALSE,2576
20210929,102,learn,48,228.4247,out,8.62,i,NO,TRUE,2148
20210929,102,learn,49,273.0837,out,12.28,i,NO,TRUE,1100
20210929,102,learn,50,224.886,in,8.3,u,YES,TRUE,1488
20210929,102,learn,51,397.6065,in,19.98,i,NO,FALSE,1604
20210929,102,learn,52,170.787,out,2.66,i,NO,TRUE,2562
20210929,102,learn,53,260.715,in,11.33,u,YES,TRUE,1090
20210929,102,learn,54,217.0172,out,7.57,i,NO,TRUE,934
20210929,102,learn,55,306.8586,out,14.67,u,YES,FALSE,1124
20210929,102,learn,56,204.8759,out,6.39,i,NO,TRUE,1538
20210929,102,learn,57,186.3733,out,4.45,i,NO,TRUE,2100
20210929,102,learn,58,391.0651,out,19.64,i,NO,TRUE,4066
20210929,102,learn,59,303.4343,in,14.44,u,YES,TRUE,2268
20210929,102,learn,60,433.4695,out,21.75,i,NO,TRUE,928
20210929,102,learn,61,223.5732,in,8.18,i,NO,FALSE,1042
20210929,102,learn,62,302.5474,in,14.38,i,NO,FALSE,2580
20210929,102,learn,63,269.5099,in,12.01,i,NO,FALSE,2408
20210929,102,learn,64,271.7546,in,12.18,u,YES,TRUE,1006
20210929,102,learn,65,243.0264,out,9.89,u,YES,FALSE,678
20210929,102,learn,66,158.6569,out,1.15,i,NO,TRUE,1084
20210929,102,learn,67,172.2094,out,2.83,u,YES,FALSE,1028
20210929,102,learn,68,258.5615,in,11.16,i,NO,FALSE,1426
20210929,102,learn,69,177.9319,out,3.5,i,NO,TRUE,1282
20210929,102,learn,70,254.3077,in,10.82,u,YES,TRUE,1244
20210929,102,learn,71,302.3998,out,14.37,i,NO,TRUE,2566
20210929,102,learn,72,431.9916,out,21.68,i,NO,TRUE,1484
20210929,102,learn,73,235.0957,in,9.21,i,NO,FALSE,1484
20210929,102,learn,74,205.4765,in,6.45,u,YES,TRUE,1036
20210929,102,learn,75,381.2683,out,19.12,i,NO,TRUE,3374
20210929,102,learn,76,157.3464,out,0.98,i,NO,TRUE,1746
20210929,102,learn,77,219.6805,in,7.82,u,YES,TRUE,1064
20210929,102,learn,78,212.3044,in,7.12,u,YES,TRUE,810
20210929,102,learn,79,188.2927,out,4.66,i,NO,TRUE,968
20210929,102,learn,80,237.6328,in,9.43,u,YES,TRUE,1542
20210929,102,learn,81,378.8576,out,18.99,i,NO,TRUE,974
20210929,102,learn,82,270.9602,in,12.12,u,YES,TRUE,952
20210929,102,learn,83,244.931,out,10.05,u,YES,FALSE,674
20210929,102,learn,84,354.016,in,17.6,u,YES,TRUE,2000
20210929,102,learn,85,257.4286,out,11.07,i,NO,TRUE,1114
20210929,102,learn,86,234.4085,out,9.15,i,NO,TRUE,658
20210929,102,learn,87,215.6451,out,7.44,i,NO,TRUE,892
20210929,102,learn,88,325.361,out,15.87,u,YES,FALSE,1886
20210929,102,learn,89,193.6971,in,5.24,i,NO,FALSE,2068
20210929,102,learn,90,354.5346,in,17.63,i,NO,FALSE,1052
20210929,102,learn,91,278.0583,in,12.65,u,YES,TRUE,774
20210929,102,learn,92,242.9078,in,9.88,u,YES,TRUE,668
20210929,102,learn,93,316.4372,in,15.3,i,NO,FALSE,740
20210929,102,learn,94,214.2817,out,7.31,u,YES,FALSE,2232
20210929,102,learn,95,226.0962,in,8.41,u,YES,TRUE,4404
20210929,102,learn,96,370.2688,out,18.52,i,NO,TRUE,2944
20210929,102,learn,97,414.4426,out,20.83,i,NO,TRUE,970
20210929,102,learn,98,286.8779,in,13.29,u,YES,TRUE,866
20210929,102,learn,99,340.7966,out,16.82,i,NO,TRUE,1224
20210929,102,learn,100,213.0308,in,7.19,i,NO,FALSE,1736
20210929,102,learn,101,260.715,in,11.33,i,NO,FALSE,936
20210929,102,learn,102,235.555,in,9.25,u,YES,TRUE,714
20210929,102,learn,103,233.9515,in,9.11,u,YES,TRUE,390
20210929,102,learn,104,343.8027,out,17,i,NO,TRUE,1100
20210929,102,learn,105,232.019,in,8.94,u,YES,TRUE,1630
20210929,102,learn,106,264.3011,in,11.61,i,NO,FALSE,1214
20210929,102,learn,107,433.4695,out,21.75,i,NO,TRUE,3944
20210929,102,learn,108,272.5513,out,12.24,u,YES,FALSE,1622
20210929,102,learn,109,189.4907,out,4.79,i,NO,TRUE,2204
20210929,102,learn,110,282.8474,out,13,u,YES,FALSE,1026
20210929,102,learn,111,179.6767,out,3.7,i,NO,TRUE,2374
20210929,102,learn,112,233.8373,in,9.1,u,YES,TRUE,876
20210929,102,learn,113,414.0384,out,20.81,i,NO,TRUE,2072
20210929,102,learn,114,286.1789,in,13.24,u,YES,TRUE,2494
20210929,102,learn,115,186.2824,in,4.44,i,NO,FALSE,1946
20210929,102,learn,116,189.3983,in,4.78,u,YES,TRUE,828
20210929,102,learn,117,372.443,in,18.64,i,NO,FALSE,3248
20210929,102,learn,118,259.6994,in,11.25,i,NO,FALSE,1866
20210929,102,learn,119,261.0969,out,11.36,u,YES,FALSE,758
20210929,102,learn,120,258.8139,in,11.18,u,YES,TRUE,592
20210929,102,learn,121,241.019,in,9.72,u,YES,TRUE,466
20210929,102,learn,122,274.6873,out,12.4,u,YES,FALSE,512
20210929,102,learn,123,215.1197,in,7.39,u,YES,TRUE,762
20210929,102,learn,124,256.4258,out,10.99,i,NO,TRUE,962
20210929,102,learn,125,206.4815,out,6.55,i,NO,TRUE,2292
20210929,102,learn,126,280.511,in,12.83,u,YES,TRUE,1022
20210929,102,learn,127,255.801,out,10.94,u,YES,FALSE,560
20210929,102,learn,128,199.354,out,5.83,i,NO,TRUE,1146
20210929,102,learn,129,246.0089,in,10.14,u,YES,TRUE,1028
20210929,102,learn,130,223.4641,out,8.17,u,YES,FALSE,640
20210929,102,learn,131,248.5424,in,10.35,i,NO,FALSE,2916
20210929,102,learn,132,294.3929,in,13.82,u,YES,TRUE,2794
20210929,102,learn,133,179.0641,in,3.63,i,NO,FALSE,3928
20210929,102,learn,134,395.4783,out,19.87,i,NO,TRUE,1654
20210929,102,learn,135,308.8111,in,14.8,u,YES,TRUE,1844
20210929,102,learn,136,327.7509,in,16.02,u,YES,TRUE,1844
20210929,102,learn,137,427.3794,out,21.46,i,NO,TRUE,1422
20210929,102,learn,138,278.7375,in,12.7,i,NO,FALSE,3368
20210929,102,learn,139,289.5496,in,13.48,i,NO,FALSE,1366
20210929,102,learn,140,356.0948,in,17.72,i,NO,FALSE,982
20210929,102,learn,141,297.2797,in,14.02,u,YES,TRUE,938
20210929,102,learn,142,188.2927,out,4.66,i,NO,TRUE,1070
20210929,102,learn,143,241.7256,in,9.78,u,YES,TRUE,3016
20210929,102,learn,144,259.5727,in,11.24,u,YES,TRUE,584
20210929,102,learn,145,231.4537,in,8.89,u,YES,TRUE,424
20210929,102,learn,146,214.9099,out,7.37,u,YES,FALSE,598
20210929,102,learn,147,183.2177,out,4.1,i,NO,TRUE,2482
20210929,102,learn,148,189.1213,out,4.75,i,NO,TRUE,4500
20210929,102,learn,149,380.8964,out,19.1,i,NO,TRUE,1134
20210929,102,learn,150,242.5526,in,9.85,u,YES,TRUE,910
20210929,102,learn,151,196.3614,in,5.52,i,NO,FALSE,3376
20210929,102,learn,152,228.0906,out,8.59,u,YES,FALSE,858
20210929,102,learn,153,226.3169,out,8.43,i,NO,TRUE,810
20210929,102,learn,154,441.7966,out,22.14,i,NO,TRUE,1260
20210929,102,learn,155,315.3583,out,15.23,u,YES,FALSE,1398
20210929,102,learn,156,346.6662,in,17.17,i,NO,FALSE,1172
20210929,102,learn,157,275.2239,in,12.44,i,NO,FALSE,968
20210929,102,learn,158,196.841,out,5.57,i,NO,TRUE,2466
20210929,102,learn,159,170.5372,in,2.63,i,NO,FALSE,676
20210929,102,learn,160,290.1153,in,13.52,i,NO,FALSE,6150
20210929,102,learn,161,245.4095,in,10.09,u,YES,TRUE,764
20210929,102,learn,162,153.0308,out,0.41,i,NO,TRUE,730
20210929,102,learn,163,223.5732,in,8.18,u,YES,TRUE,820
20210929,102,learn,164,352.1211,out,17.49,i,NO,TRUE,744
20210929,102,learn,165,316.5916,out,15.31,i,NO,TRUE,784
20210929,102,learn,166,281.4707,in,12.9,u,YES,TRUE,3140
20210929,102,learn,167,160.4473,out,1.38,i,NO,TRUE,936
20210929,102,learn,168,268.8532,in,11.96,u,YES,TRUE,1416
20210929,102,learn,169,261.6069,in,11.4,u,YES,TRUE,774
20210929,102,learn,170,266.7626,out,11.8,u,YES,FALSE,508
20210929,102,learn,171,402.0934,out,20.21,i,NO,TRUE,1242
20210929,102,learn,172,338.1466,out,16.66,i,NO,TRUE,768
20210929,102,learn,173,176.8932,out,3.38,i,NO,TRUE,762
20210929,102,learn,174,292.2463,in,13.67,u,YES,TRUE,1130
20210929,102,learn,175,338.8071,out,16.7,i,NO,TRUE,2098
20210929,102,learn,176,269.773,in,12.03,u,YES,TRUE,5934
20210929,102,learn,177,242.6709,in,9.86,u,YES,TRUE,546
20210929,102,learn,178,286.0393,in,13.23,u,YES,TRUE,594
20210929,102,learn,179,173.1362,out,2.94,i,NO,TRUE,740
20210929,102,learn,180,235.4401,in,9.24,u,YES,TRUE,2068
20210929,102,learn,181,426.7543,out,21.43,i,NO,TRUE,724
20210929,102,learn,182,304.3239,in,14.5,i,NO,FALSE,5740
20210929,102,learn,183,262.5019,in,11.47,u,YES,TRUE,834
20210929,102,learn,184,356.0948,in,17.72,i,NO,FALSE,1104
20210929,102,learn,185,225.3253,in,8.34,i,NO,FALSE,6374
20210929,102,learn,186,314.8971,in,15.2,i,NO,FALSE,910
20210929,102,learn,187,335.8447,out,16.52,u,YES,FALSE,956
20210929,102,learn,188,309.2634,out,14.83,i,NO,TRUE,1116
20210929,102,learn,189,196.2656,in,5.51,i,NO,FALSE,708
20210929,102,learn,190,367.7482,out,18.38,u,YES,FALSE,1268
20210929,102,learn,191,162.972,out,1.7,u,YES,FALSE,1334
20210929,102,learn,192,155.8185,out,0.78,i,NO,TRUE,486
20210929,102,learn,193,251.8382,in,10.62,i,NO,FALSE,1644
20210929,102,learn,194,219.1453,in,7.77,u,YES,TRUE,780
20210929,102,learn,195,160.7608,out,1.42,i,NO,TRUE,722
20210929,102,learn,196,351.4346,in,17.45,i,NO,FALSE,1976
20210929,102,learn,197,204.3767,out,6.34,u,YES,FALSE,2420
20210929,102,learn,198,260.5878,in,11.32,i,NO,FALSE,1840
20210929,102,learn,199,235.3252,out,9.23,i,NO,TRUE,1314
20210929,102,learn,200,259.5727,in,11.24,u,YES,TRUE,1008
20210930,103,learn,1,241.019,in,9.72,u,YES,TRUE,1514
20210930,103,learn,2,338.8071,out,16.7,u,YES,FALSE,1068
20210930,103,learn,3,268.0673,out,11.9,u,YES,FALSE,756
20210930,103,learn,4,383.8815,out,19.26,i,NO,TRUE,1266
20210930,103,learn,5,284.5082,out,13.12,u,YES,FALSE,804
20210930,103,learn,6,213.0308,in,7.19,u,YES,TRUE,720
20210930,103,learn,7,248.5424,in,10.35,i,NO,FALSE,818
20210930,103,learn,8,223.4641,out,8.17,u,YES,FALSE,874
20210930,103,learn,9,246.0089,in,10.14,i,NO,FALSE,1034
20210930,103,learn,10,238.6785,out,9.52,u,YES,FALSE,968
20210930,103,learn,11,315.0507,in,15.21,i,NO,FALSE,1940
20210930,103,learn,12,304.621,out,14.52,u,YES,FALSE,3128
20210930,103,learn,13,273.0837,out,12.28,u,YES,FALSE,1224
20210930,103,learn,14,352.1211,out,17.49,i,NO,TRUE,1368
20210930,103,learn,15,288.4217,in,13.4,i,NO,FALSE,1766
20210930,103,learn,16,186.2824,in,4.44,i,NO,FALSE,2244
20210930,103,learn,17,381.2683,out,19.12,i,NO,TRUE,910
20210930,103,learn,18,214.2817,out,7.31,u,YES,FALSE,922
20210930,103,learn,19,440.9352,out,22.1,i,NO,TRUE,796
20210930,103,learn,20,206.4815,out,6.55,i,NO,TRUE,1066
20210930,103,learn,21,297.2797,in,14.02,u,YES,TRUE,1288
20210930,103,learn,22,324.5682,in,15.82,i,NO,FALSE,1132
20210930,103,learn,23,173.1362,out,2.94,i,NO,TRUE,1792
20210930,103,learn,24,245.4095,in,10.09,u,YES,TRUE,1346
20210930,103,learn,25,378.8576,out,18.99,i,NO,TRUE,1174
20210930,103,learn,26,215.1197,in,7.39,u,YES,TRUE,916
20210930,103,learn,27,351.2632,out,17.44,i,NO,TRUE,1278
20210930,103,learn,28,179.6767,out,3.7,i,NO,TRUE,1604
20210930,103,learn,29,254.3077,in,10.82,u,YES,TRUE,1164
20210930,103,learn,30,278.7375,in,12.7,u,YES,TRUE,1052
20210930,103,learn,31,244.931,out,10.05,u,YES,FALSE,1246
20210930,103,learn,32,301.663,in,14.32,u,YES,TRUE,1168
20210930,103,learn,33,223.5732,in,8.18,i,NO,FALSE,1862
20210930,103,learn,34,427.3794,out,21.46,i,NO,TRUE,1004
20210930,103,learn,35,185.4662,out,4.35,i,NO,TRUE,1232
20210930,103,learn,36,302.5474,in,14.38,u,YES,TRUE,870
20210930,103,learn,37,226.3169,out,8.43,u,YES,FALSE,1444
20210930,103,learn,38,275.2239,in,12.44,u,YES,TRUE,1704
20210930,103,learn,39,225.3253,in,8.34,i,NO,FALSE,1528
20210930,103,learn,40,170.5372,in,2.63,i,NO,FALSE,1002
20210930,103,learn,41,204.8759,out,6.39,u,YES,FALSE,1214
20210930,103,learn,42,282.8474,out,13,u,YES,FALSE,926
20210930,103,learn,43,219.1453,in,7.77,i,NO,FALSE,1890
20210930,103,learn,44,224.886,in,8.3,u,YES,TRUE,1326
20210930,103,learn,45,348.1918,out,17.26,u,YES,FALSE,1228
20210930,103,learn,46,414.0384,out,20.81,i,NO,TRUE,2050
20210930,103,learn,47,223.5732,in,8.18,u,YES,TRUE,2474
20210930,103,learn,48,219.6805,in,7.82,i,NO,FALSE,1110
20210930,103,learn,49,233.8373,in,9.1,i,NO,FALSE,1428
20210930,103,learn,50,235.0957,in,9.21,u,YES,TRUE,982
20210930,103,learn,51,306.8586,in,14.67,u,YES,TRUE,1212
20210930,103,learn,52,260.715,in,11.33,u,YES,TRUE,706
20210930,103,learn,53,340.7966,out,16.82,u,YES,FALSE,2668
20210930,103,learn,54,290.1153,in,13.52,u,YES,TRUE,770
20210930,103,learn,55,212.3044,in,7.12,u,YES,TRUE,1642
20210930,103,learn,56,286.1789,in,13.24,u,YES,TRUE,850
20210930,103,learn,57,160.4473,out,1.38,i,NO,TRUE,1048
20210930,103,learn,58,242.9078,in,9.88,u,YES,TRUE,914
20210930,103,learn,59,232.019,in,8.94,u,YES,TRUE,736
20210930,103,learn,60,315.3583,out,15.23,u,YES,FALSE,1252
20210930,103,learn,61,162.972,out,1.7,i,NO,TRUE,1000
20210930,103,learn,62,280.511,in,12.83,u,YES,TRUE,1314
20210930,103,learn,63,199.354,out,5.83,i,NO,TRUE,780
20210930,103,learn,64,370.2688,out,18.52,i,NO,TRUE,730
20210930,103,learn,65,258.5615,in,11.16,u,YES,TRUE,436
20210930,103,learn,66,235.555,in,9.25,u,YES,TRUE,596
20210930,103,learn,67,269.773,in,12.03,u,YES,TRUE,572
20210930,103,learn,68,153.0308,out,0.41,i,NO,TRUE,634
20210930,103,learn,69,433.4695,out,21.75,i,NO,TRUE,808
20210930,103,learn,70,391.0651,out,19.64,i,NO,TRUE,626
20210930,103,learn,71,319.0728,in,15.47,i,NO,FALSE,648
20210930,103,learn,72,204.3767,out,6.34,u,YES,FALSE,1550
20210930,103,learn,73,292.2463,in,13.67,u,YES,TRUE,1814
20210930,103,learn,74,257.4286,out,11.07,u,YES,FALSE,1862
20210930,103,learn,75,215.6451,out,7.44,u,YES,FALSE,896
20210930,103,learn,76,170.787,out,2.66,i,NO,TRUE,1044
20210930,103,learn,77,356.0948,in,17.72,i,NO,FALSE,1186
20210930,103,learn,78,260.5878,in,11.32,u,YES,TRUE,2572
20210930,103,learn,79,193.6971,in,5.24,u,YES,TRUE,2026
20210930,103,learn,80,431.9916,out,21.68,i,NO,TRUE,1034
20210930,103,learn,81,372.443,in,18.64,i,NO,FALSE,1056
20210930,103,learn,82,260.715,in,11.33,u,YES,TRUE,1460
20210930,103,learn,83,183.2177,out,4.1,u,YES,FALSE,882
20210930,103,learn,84,397.6065,in,19.98,i,NO,FALSE,1030
20210930,103,learn,85,242.5526,in,9.85,u,YES,TRUE,1000
20210930,103,learn,86,433.4695,out,21.75,i,NO,TRUE,1048
20210930,103,learn,87,219.1453,in,7.77,u,YES,TRUE,1134
20210930,103,learn,88,155.8185,out,0.78,i,NO,TRUE,810
20210930,103,learn,89,338.1466,out,16.66,u,YES,FALSE,764
20210930,103,learn,90,157.5,out,1,i,NO,TRUE,938
20210930,103,learn,91,160.2908,out,1.36,i,NO,TRUE,938
20210930,103,learn,92,395.4783,out,19.87,u,YES,FALSE,978
20210930,103,learn,93,441.7966,out,22.14,u,YES,FALSE,1270
20210930,103,learn,94,303.4343,in,14.44,u,YES,TRUE,886
20210930,103,learn,95,402.0934,out,20.21,i,NO,TRUE,648
20210930,103,learn,96,306.8586,out,14.67,u,YES,FALSE,732
20210930,103,learn,97,294.3929,in,13.82,u,YES,TRUE,738
20210930,103,learn,98,316.5916,out,15.31,i,NO,TRUE,822
20210930,103,learn,99,150.8808,out,0.12,i,NO,TRUE,1022
20210930,103,learn,100,188.2927,out,4.66,i,NO,TRUE,656
20210930,103,learn,101,274.6873,out,12.4,u,YES,FALSE,1444
20210930,103,learn,102,302.2523,out,14.36,i,NO,TRUE,1104
20210930,103,learn,103,186.3733,out,4.45,u,YES,FALSE,866
20210930,103,learn,104,309.2634,out,14.83,i,NO,TRUE,1010
20210930,103,learn,105,177.9319,out,3.5,i,NO,TRUE,1446
20210930,103,learn,106,356.0948,in,17.72,i,NO,FALSE,696
20210930,103,learn,107,241.7256,in,9.78,u,YES,TRUE,1468
20210930,103,learn,108,211.2711,out,7.02,u,YES,FALSE,2240
20210930,103,learn,109,259.5727,in,11.24,u,YES,TRUE,1008
20210930,103,learn,110,219.6805,in,7.82,u,YES,TRUE,680
20210930,103,learn,111,234.4085,out,9.15,u,YES,FALSE,690
20210930,103,learn,112,343.8027,out,17,i,NO,TRUE,1344
20210930,103,learn,113,304.3239,in,14.5,i,NO,FALSE,1016
20210930,103,learn,114,261.0969,out,11.36,u,YES,FALSE,1282
20210930,103,learn,115,272.5513,out,12.24,i,NO,TRUE,1876
20210930,103,learn,116,259.6994,in,11.25,i,NO,FALSE,886
20210930,103,learn,117,292.6743,out,13.7,i,NO,TRUE,842
20210930,103,learn,118,197.1294,out,5.6,u,YES,FALSE,522
20210930,103,learn,119,346.6662,in,17.17,i,NO,FALSE,1024
20210930,103,learn,120,226.0962,in,8.41,u,YES,TRUE,950
20210930,103,learn,121,237.6328,in,9.43,u,YES,TRUE,802
20210930,103,learn,122,325.361,out,15.87,i,NO,TRUE,2464
20210930,103,learn,123,160.7608,out,1.42,i,NO,TRUE,1918
20210930,103,learn,124,278.0583,in,12.65,u,YES,TRUE,2504
20210930,103,learn,125,217.0172,out,7.57,u,YES,FALSE,1864
20210930,103,learn,126,196.2656,in,5.51,u,YES,TRUE,1786
20210930,103,learn,127,367.7482,out,18.38,i,NO,TRUE,864
20210930,103,learn,128,243.7389,in,9.95,i,NO,FALSE,1142
20210930,103,learn,129,389.5417,in,19.56,i,NO,FALSE,814
20210930,103,learn,130,328.3911,out,16.06,u,YES,FALSE,640
20210930,103,learn,131,282.5715,out,12.98,u,YES,FALSE,1196
20210930,103,learn,132,351.4346,in,17.45,i,NO,FALSE,812
20210930,103,learn,133,189.3983,in,4.78,u,YES,TRUE,1586
20210930,103,learn,134,235.4401,in,9.24,u,YES,TRUE,782
20210930,103,learn,135,196.841,out,5.57,u,YES,FALSE,532
20210930,103,learn,136,228.0906,out,8.59,u,YES,FALSE,948
20210930,103,learn,137,215.1197,in,7.39,i,NO,FALSE,558
20210930,103,learn,138,414.4426,out,20.83,u,YES,FALSE,962
20210930,103,learn,139,305.9616,in,14.61,u,YES,TRUE,846
20210930,103,learn,140,274.8213,out,12.41,u,YES,FALSE,674
20210930,103,learn,141,249.3927,out,10.42,u,YES,FALSE,826
20210930,103,learn,142,197.4181,in,5.63,i,NO,FALSE,1292
20210930,103,learn,143,289.5496,in,13.48,i,NO,FALSE,1158
20210930,103,learn,144,300.928,out,14.27,i,NO,TRUE,1158
20210930,103,learn,145,335.8447,out,16.52,i,NO,TRUE,1048
20210930,103,learn,146,261.6069,in,11.4,u,YES,TRUE,1824
20210930,103,learn,147,157.3464,out,0.98,i,NO,TRUE,1128
20210930,103,learn,148,286.8779,in,13.29,i,NO,FALSE,1286
20210930,103,learn,149,318.7615,out,15.45,u,YES,FALSE,1724
20210930,103,learn,150,179.0641,in,3.63,i,NO,FALSE,1068
20210930,103,learn,151,262.5019,in,11.47,i,NO,FALSE,960
20210930,103,learn,152,255.801,out,10.94,u,YES,FALSE,1168
20210930,103,learn,153,302.3998,out,14.37,i,NO,TRUE,868
20210930,103,learn,154,169.8728,out,2.55,i,NO,TRUE,1602
20210930,103,learn,155,228.4247,out,8.62,u,YES,FALSE,1592
20210930,103,learn,156,287.8593,in,13.36,i,NO,FALSE,1232
20210930,103,learn,157,242.9078,in,9.88,u,YES,TRUE,1268
20210930,103,learn,158,354.5346,in,17.63,i,NO,FALSE,806
20210930,103,learn,159,251.8382,in,10.62,u,YES,TRUE,880
20210930,103,learn,160,308.8111,in,14.8,u,YES,TRUE,1596
20210930,103,learn,161,214.9099,out,7.37,u,YES,FALSE,1072
20210930,103,learn,162,198.8682,in,5.78,u,YES,TRUE,1522
20210930,103,learn,163,204.9759,in,6.4,u,YES,TRUE,724
20210930,103,learn,164,271.7546,in,12.18,u,YES,TRUE,1198
20210930,103,learn,165,268.8532,in,11.96,i,NO,FALSE,1056
20210930,103,learn,166,367.2103,out,18.35,i,NO,TRUE,908
20210930,103,learn,167,266.7626,out,11.8,u,YES,FALSE,684
20210930,103,learn,168,327.7509,in,16.02,i,NO,FALSE,902
20210930,103,learn,169,189.1213,out,4.75,i,NO,TRUE,926
20210930,103,learn,170,228.6477,in,8.64,i,NO,FALSE,784
20210930,103,learn,171,217.0172,out,7.57,u,YES,FALSE,964
20210930,103,learn,172,269.5099,in,12.01,u,YES,TRUE,1894
20210930,103,learn,173,354.016,in,17.6,u,YES,TRUE,1042
20210930,103,learn,174,281.4707,in,12.9,u,YES,TRUE,1224
20210930,103,learn,175,172.2094,out,2.83,i,NO,TRUE,592
20210930,103,learn,176,158.6569,out,1.15,i,NO,TRUE,680
20210930,103,learn,177,270.9602,in,12.12,u,YES,TRUE,860
20210930,103,learn,178,314.8971,in,15.2,u,YES,TRUE,716
20210930,103,learn,179,240.0801,out,9.64,u,YES,FALSE,1252
20210930,103,learn,180,176.8932,out,3.38,i,NO,TRUE,1076
20210930,103,learn,181,235.3252,out,9.23,u,YES,FALSE,648
20210930,103,learn,182,188.2927,out,4.66,i,NO,TRUE,1058
20210930,103,learn,183,258.8139,in,11.18,u,YES,TRUE,930
20210930,103,learn,184,196.3614,in,5.52,i,NO,FALSE,824
20210930,103,learn,185,425.0919,out,21.35,i,NO,TRUE,964
20210930,103,learn,186,234.2942,in,9.14,u,YES,TRUE,642
20210930,103,learn,187,316.4372,in,15.3,u,YES,TRUE,894
20210930,103,learn,188,189.4907,out,4.79,i,NO,TRUE,1808
20210930,103,learn,189,243.0264,out,9.89,u,YES,FALSE,1356
20210930,103,learn,190,264.3011,in,11.61,u,YES,TRUE,776
20210930,103,learn,191,426.7543,out,21.43,i,NO,TRUE,1198
20210930,103,learn,192,319.8521,in,15.52,u,YES,TRUE,1758
20210930,103,learn,193,286.0393,in,13.23,u,YES,TRUE,776
20210930,103,learn,194,256.4258,out,10.99,i,NO,TRUE,1398
20210930,103,learn,195,242.6709,in,9.86,i,NO,FALSE,1124
20210930,103,learn,196,231.4537,in,8.89,i,NO,FALSE,1368
20210930,103,learn,197,205.4765,in,6.45,i,NO,FALSE,984
20210930,103,learn,198,380.8964,out,19.1,u,YES,FALSE,1346
20210930,103,learn,199,233.9515,in,9.11,u,YES,TRUE,816
20210930,103,learn,200,259.5727,in,11.24,u,YES,TRUE,788
20210930,104,learn,1,219.1453,in,7.77,u,YES,TRUE,2212
20210930,104,learn,2,325.361,out,15.87,i,NO,TRUE,1090
20210930,104,learn,3,370.2688,out,18.52,i,NO,TRUE,576
20210930,104,learn,4,237.6328,in,9.43,u,YES,TRUE,532
20210930,104,learn,5,328.3911,out,16.06,i,NO,TRUE,554
20210930,104,learn,6,217.0172,out,7.57,u,YES,FALSE,882
20210930,104,learn,7,367.7482,out,18.38,i,NO,TRUE,2204
20210930,104,learn,8,244.931,out,10.05,u,YES,FALSE,2132
20210930,104,learn,9,258.8139,in,11.18,i,NO,FALSE,1072
20210930,104,learn,10,269.5099,in,12.01,u,YES,TRUE,1046
20210930,104,learn,11,292.2463,in,13.67,u,YES,TRUE,656
20210930,104,learn,12,153.0308,out,0.41,i,NO,TRUE,618
20210930,104,learn,13,219.6805,in,7.82,u,YES,TRUE,810
20210930,104,learn,14,241.019,in,9.72,u,YES,TRUE,674
20210930,104,learn,15,383.8815,out,19.26,i,NO,TRUE,620
20210930,104,learn,16,170.5372,in,2.63,u,YES,TRUE,1006
20210930,104,learn,17,269.773,in,12.03,i,NO,FALSE,800
20210930,104,learn,18,335.8447,out,16.52,i,NO,TRUE,758
20210930,104,learn,19,433.4695,out,21.75,i,NO,TRUE,570
20210930,104,learn,20,150.8808,out,0.12,i,NO,TRUE,650
20210930,104,learn,21,380.8964,out,19.1,i,NO,TRUE,514
20210930,104,learn,22,305.9616,in,14.61,i,NO,FALSE,858
20210930,104,learn,23,223.4641,out,8.17,u,YES,FALSE,836
20210930,104,learn,24,215.1197,in,7.39,i,NO,FALSE,2002
20210930,104,learn,25,303.4343,in,14.44,i,NO,FALSE,1724
20210930,104,learn,26,160.7608,out,1.42,i,NO,TRUE,1154
20210930,104,learn,27,389.5417,in,19.56,u,YES,TRUE,612
20210930,104,learn,28,215.6451,out,7.44,u,YES,FALSE,1138
20210930,104,learn,29,173.1362,out,2.94,i,NO,TRUE,482
20210930,104,learn,30,177.9319,out,3.5,i,NO,TRUE,652
20210930,104,learn,31,431.9916,out,21.68,u,YES,FALSE,682
20210930,104,learn,32,274.8213,out,12.41,u,YES,FALSE,722
20210930,104,learn,33,268.0673,out,11.9,u,YES,FALSE,1328
20210930,104,learn,34,308.8111,in,14.8,i,NO,FALSE,722
20210930,104,learn,35,214.9099,out,7.37,u,YES,FALSE,1558
20210930,104,learn,36,224.886,in,8.3,i,NO,FALSE,2828
20210930,104,learn,37,338.8071,out,16.7,u,YES,FALSE,1076
20210930,104,learn,38,306.8586,out,14.67,i,NO,TRUE,1868
20210930,104,learn,39,258.5615,in,11.16,i,NO,FALSE,418
20210930,104,learn,40,301.663,in,14.32,u,YES,TRUE,1228
20210930,104,learn,41,297.2797,in,14.02,u,YES,TRUE,638
20210930,104,learn,42,185.4662,out,4.35,i,NO,TRUE,652
20210930,104,learn,43,306.8586,in,14.67,u,YES,TRUE,572
20210930,104,learn,44,427.3794,out,21.46,u,YES,FALSE,596
20210930,104,learn,45,433.4695,out,21.75,i,NO,TRUE,400
20210930,104,learn,46,372.443,in,18.64,i,NO,FALSE,540
20210930,104,learn,47,189.4907,out,4.79,i,NO,TRUE,782
20210930,104,learn,48,189.3983,in,4.78,i,NO,FALSE,668
20210930,104,learn,49,157.5,out,1,i,NO,TRUE,596
20210930,104,learn,50,183.2177,out,4.1,i,NO,TRUE,644
20210930,104,learn,51,282.5715,out,12.98,i,NO,TRUE,620
20210930,104,learn,52,242.5526,in,9.85,i,NO,FALSE,644
20210930,104,learn,53,278.0583,in,12.65,u,YES,TRUE,708
20210930,104,learn,54,309.2634,out,14.83,i,NO,TRUE,378
20210930,104,learn,55,367.2103,out,18.35,u,YES,FALSE,788
20210930,104,learn,56,271.7546,in,12.18,i,NO,FALSE,580
20210930,104,learn,57,179.6767,out,3.7,i,NO,TRUE,604
20210930,104,learn,58,414.4426,out,20.83,i,NO,TRUE,1300
20210930,104,learn,59,232.019,in,8.94,u,YES,TRUE,692
20210930,104,learn,60,223.5732,in,8.18,u,YES,TRUE,620
20210930,104,learn,61,248.5424,in,10.35,u,YES,TRUE,564
20210930,104,learn,62,158.6569,out,1.15,i,NO,TRUE,416
20210930,104,learn,63,264.3011,in,11.61,i,NO,FALSE,676
20210930,104,learn,64,260.715,in,11.33,i,NO,FALSE,420
20210930,104,learn,65,324.5682,in,15.82,u,YES,TRUE,614
20210930,104,learn,66,275.2239,in,12.44,u,YES,TRUE,476
20210930,104,learn,67,272.5513,out,12.24,u,YES,FALSE,412
20210930,104,learn,68,160.2908,out,1.36,i,NO,TRUE,430
20210930,104,learn,69,288.4217,in,13.4,i,NO,FALSE,454
20210930,104,learn,70,204.3767,out,6.34,i,NO,TRUE,676
20210930,104,learn,71,414.0384,out,20.81,i,NO,TRUE,780
20210930,104,learn,72,255.801,out,10.94,u,YES,FALSE,780
20210930,104,learn,73,226.3169,out,8.43,i,NO,TRUE,564
20210930,104,learn,74,282.8474,out,13,u,YES,FALSE,644
20210930,104,learn,75,231.4537,in,8.89,i,NO,FALSE,548
20210930,104,learn,76,160.4473,out,1.38,i,NO,TRUE,410
20210930,104,learn,77,425.0919,out,21.35,u,YES,FALSE,646
20210930,104,learn,78,242.9078,in,9.88,u,YES,TRUE,836
20210930,104,learn,79,319.0728,in,15.47,i,NO,FALSE,1020
20210930,104,learn,80,196.3614,in,5.52,u,YES,TRUE,802
20210930,104,learn,81,215.1197,in,7.39,u,YES,TRUE,596
20210930,104,learn,82,188.2927,out,4.66,i,NO,TRUE,732
20210930,104,learn,83,289.5496,in,13.48,u,YES,TRUE,660
20210930,104,learn,84,235.0957,in,9.21,i,NO,FALSE,672
20210930,104,learn,85,204.9759,in,6.4,u,YES,TRUE,946
20210930,104,learn,86,251.8382,in,10.62,u,YES,TRUE,666
20210930,104,learn,87,189.1213,out,4.75,i,NO,TRUE,742
20210930,104,learn,88,278.7375,in,12.7,i,NO,FALSE,710
20210930,104,learn,89,245.4095,in,10.09,i,NO,FALSE,650
20210930,104,learn,90,286.1789,in,13.24,u,YES,TRUE,882
20210930,104,learn,91,155.8185,out,0.78,i,NO,TRUE,562
20210930,104,learn,92,235.555,in,9.25,u,YES,TRUE,882
20210930,104,learn,93,316.4372,in,15.3,i,NO,FALSE,1084
20210930,104,learn,94,243.0264,out,9.89,u,YES,FALSE,666
20210930,104,learn,95,169.8728,out,2.55,i,NO,TRUE,642
20210930,104,learn,96,284.5082,out,13.12,u,YES,FALSE,756
20210930,104,learn,97,315.3583,out,15.23,u,YES,FALSE,634
20210930,104,learn,98,315.0507,in,15.21,u,YES,TRUE,714
20210930,104,learn,99,274.6873,out,12.4,i,NO,TRUE,878
20210930,104,learn,100,235.3252,out,9.23,i,NO,TRUE,626
20210930,104,learn,101,318.7615,out,15.45,u,YES,FALSE,730
20210930,104,learn,102,257.4286,out,11.07,u,YES,FALSE,682
20210930,104,learn,103,259.5727,in,11.24,i,NO,FALSE,724
20210930,104,learn,104,242.9078,in,9.88,u,YES,TRUE,730
20210930,104,learn,105,259.5727,in,11.24,u,YES,TRUE,658
20210930,104,learn,106,241.7256,in,9.78,u,YES,TRUE,588
20210930,104,learn,107,238.6785,out,9.52,u,YES,FALSE,756
20210930,104,learn,108,262.5019,in,11.47,i,NO,FALSE,620
20210930,104,learn,109,233.9515,in,9.11,u,YES,TRUE,938
20210930,104,learn,110,260.715,in,11.33,i,NO,FALSE,708
20210930,104,learn,111,302.2523,out,14.36,u,YES,FALSE,836
20210930,104,learn,112,249.3927,out,10.42,i,NO,TRUE,1124
20210930,104,learn,113,402.0934,out,20.21,i,NO,TRUE,436
20210930,104,learn,114,228.6477,in,8.64,u,YES,TRUE,724
20210930,104,learn,115,212.3044,in,7.12,u,YES,TRUE,1084
20210930,104,learn,116,228.4247,out,8.62,u,YES,FALSE,770
20210930,104,learn,117,223.5732,in,8.18,u,YES,TRUE,1186
20210930,104,learn,118,397.6065,in,19.98,i,NO,FALSE,796
20210930,104,learn,119,316.5916,out,15.31,u,YES,FALSE,700
20210930,104,learn,120,211.2711,out,7.02,u,YES,FALSE,978
20210930,104,learn,121,395.4783,out,19.87,i,NO,TRUE,604
20210930,104,learn,122,219.6805,in,7.82,u,YES,TRUE,1254
20210930,104,learn,123,340.7966,out,16.82,i,NO,TRUE,660
20210930,104,learn,124,440.9352,out,22.1,i,NO,TRUE,682
20210930,104,learn,125,234.2942,in,9.14,u,YES,TRUE,844
20210930,104,learn,126,206.4815,out,6.55,i,NO,TRUE,644
20210930,104,learn,127,351.2632,out,17.44,i,NO,TRUE,804
20210930,104,learn,128,356.0948,in,17.72,i,NO,FALSE,828
20210930,104,learn,129,197.4181,in,5.63,i,NO,FALSE,716
20210930,104,learn,130,314.8971,in,15.2,u,YES,TRUE,908
20210930,104,learn,131,290.1153,in,13.52,u,YES,TRUE,588
20210930,104,learn,132,346.6662,in,17.17,u,YES,TRUE,612
20210930,104,learn,133,172.2094,out,2.83,i,NO,TRUE,1308
20210930,104,learn,134,378.8576,out,18.99,i,NO,TRUE,732
20210930,104,learn,135,204.8759,out,6.39,i,NO,TRUE,684
20210930,104,learn,136,304.3239,in,14.5,i,NO,FALSE,692
20210930,104,learn,137,280.511,in,12.83,u,YES,TRUE,794
20210930,104,learn,138,281.4707,in,12.9,u,YES,TRUE,580
20210930,104,learn,139,226.0962,in,8.41,i,NO,FALSE,726
20210930,104,learn,140,292.6743,out,13.7,u,YES,FALSE,2354
20210930,104,learn,141,260.5878,in,11.32,u,YES,TRUE,1124
20210930,104,learn,142,199.354,out,5.83,i,NO,TRUE,694
20210930,104,learn,143,441.7966,out,22.14,i,NO,TRUE,882
20210930,104,learn,144,286.0393,in,13.23,i,NO,FALSE,1022
20210930,104,learn,145,188.2927,out,4.66,i,NO,TRUE,780
20210930,104,learn,146,391.0651,out,19.64,i,NO,TRUE,852
20210930,104,learn,147,240.0801,out,9.64,i,NO,TRUE,652
20210930,104,learn,148,273.0837,out,12.28,u,YES,FALSE,930
20210930,104,learn,149,242.6709,in,9.86,i,NO,FALSE,620
20210930,104,learn,150,356.0948,in,17.72,i,NO,FALSE,668
20210930,104,learn,151,302.3998,out,14.37,i,NO,TRUE,3044
20210930,104,learn,152,302.5474,in,14.38,i,NO,FALSE,836
20210930,104,learn,153,319.8521,in,15.52,u,YES,TRUE,438
20210930,104,learn,154,254.3077,in,10.82,u,YES,TRUE,964
20210930,104,learn,155,343.8027,out,17,u,YES,FALSE,636
20210930,104,learn,156,157.3464,out,0.98,i,NO,TRUE,780
20210930,104,learn,157,300.928,out,14.27,u,YES,FALSE,1668
20210930,104,learn,158,234.4085,out,9.15,u,YES,FALSE,1002
20210930,104,learn,159,352.1211,out,17.49,i,NO,TRUE,1746
20210930,104,learn,160,270.9602,in,12.12,i,NO,FALSE,1906
20210930,104,learn,161,259.6994,in,11.25,u,YES,TRUE,1610
20210930,104,learn,162,193.6971,in,5.24,u,YES,TRUE,544
20210930,104,learn,163,286.8779,in,13.29,u,YES,TRUE,658
20210930,104,learn,164,198.8682,in,5.78,u,YES,TRUE,1010
20210930,104,learn,165,196.2656,in,5.51,u,YES,TRUE,738
20210930,104,learn,166,196.841,out,5.57,u,YES,FALSE,788
20210930,104,learn,167,304.621,out,14.52,i,NO,TRUE,850
20210930,104,learn,168,162.972,out,1.7,u,YES,FALSE,944
20210930,104,learn,169,176.8932,out,3.38,i,NO,TRUE,744
20210930,104,learn,170,179.0641,in,3.63,i,NO,FALSE,2664
20210930,104,learn,171,213.0308,in,7.19,i,NO,FALSE,762
20210930,104,learn,172,327.7509,in,16.02,i,NO,FALSE,930
20210930,104,learn,173,266.7626,out,11.8,u,YES,FALSE,804
20210930,104,learn,174,186.3733,out,4.45,i,NO,TRUE,1210
20210930,104,learn,175,348.1918,out,17.26,i,NO,TRUE,714
20210930,104,learn,176,219.1453,in,7.77,u,YES,TRUE,746
20210930,104,learn,177,354.016,in,17.6,u,YES,TRUE,4770
20210930,104,learn,178,351.4346,in,17.45,i,NO,FALSE,576
20210930,104,learn,179,338.1466,out,16.66,i,NO,TRUE,1522
20210930,104,learn,180,268.8532,in,11.96,i,NO,FALSE,858
20210930,104,learn,181,205.4765,in,6.45,i,NO,FALSE,1224
20210930,104,learn,182,214.2817,out,7.31,u,YES,FALSE,2076
20210930,104,learn,183,246.0089,in,10.14,u,YES,TRUE,2498
20210930,104,learn,184,294.3929,in,13.82,u,YES,TRUE,566
20210930,104,learn,185,426.7543,out,21.43,i,NO,TRUE,884
20210930,104,learn,186,225.3253,in,8.34,i,NO,FALSE,956
20210930,104,learn,187,381.2683,out,19.12,i,NO,TRUE,692
20210930,104,learn,188,186.2824,in,4.44,u,YES,TRUE,2132
20210930,104,learn,189,235.4401,in,9.24,u,YES,TRUE,908
20210930,104,learn,190,287.8593,in,13.36,i,NO,FALSE,852
20210930,104,learn,191,217.0172,out,7.57,u,YES,FALSE,1650
20210930,104,learn,192,197.1294,out,5.6,i,NO,TRUE,690
20210930,104,learn,193,170.787,out,2.66,i,NO,TRUE,588
20210930,104,learn,194,243.7389,in,9.95,u,YES,TRUE,660
20210930,104,learn,195,256.4258,out,10.99,u,YES,FALSE,668
20210930,104,learn,196,233.8373,in,9.1,i,NO,FALSE,348
20210930,104,learn,197,354.5346,in,17.63,i,NO,FALSE,412
20210930,104,learn,198,228.0906,out,8.59,u,YES,FALSE,1222
20210930,104,learn,199,261.0969,out,11.36,u,YES,FALSE,892
20210930,104,learn,200,261.6069,in,11.4,i,NO,FALSE,380
20210930,105,learn,1,169.8728,out,2.55,i,NO,TRUE,5328
20210930,105,learn,2,356.0948,in,17.72,u,YES,TRUE,3370
20210930,105,learn,3,338.1466,out,16.66,u,YES,FALSE,1882
20210930,105,learn,4,354.016,in,17.6,u,YES,TRUE,1916
20210930,105,learn,5,273.0837,out,12.28,u,YES,FALSE,1616
20210930,105,learn,6,232.019,in,8.94,u,YES,TRUE,1200
20210930,105,learn,7,196.3614,in,5.52,i,NO,FALSE,1890
20210930,105,learn,8,433.4695,out,21.75,i,NO,TRUE,3518
20210930,105,learn,9,234.2942,in,9.14,u,YES,TRUE,1790
20210930,105,learn,10,189.4907,out,4.79,i,NO,TRUE,1304
20210930,105,learn,11,244.931,out,10.05,u,YES,FALSE,956
20210930,105,learn,12,338.8071,out,16.7,u,YES,FALSE,1118
20210930,105,learn,13,290.1153,in,13.52,u,YES,TRUE,1010
20210930,105,learn,14,441.7966,out,22.14,i,NO,TRUE,1134
20210930,105,learn,15,243.0264,out,9.89,u,YES,FALSE,828
20210930,105,learn,16,372.443,in,18.64,u,YES,TRUE,1176
20210930,105,learn,17,303.4343,in,14.44,i,NO,FALSE,844
20210930,105,learn,18,228.0906,out,8.59,u,YES,FALSE,1014
20210930,105,learn,19,160.2908,out,1.36,i,NO,TRUE,1594
20210930,105,learn,20,264.3011,in,11.61,u,YES,TRUE,876
20210930,105,learn,21,223.5732,in,8.18,u,YES,TRUE,1464
20210930,105,learn,22,160.4473,out,1.38,i,NO,TRUE,770
20210930,105,learn,23,214.2817,out,7.31,u,YES,FALSE,1222
20210930,105,learn,24,217.0172,out,7.57,u,YES,FALSE,1564
20210930,105,learn,25,319.0728,in,15.47,i,NO,FALSE,1624
20210930,105,learn,26,269.773,in,12.03,u,YES,TRUE,1020
20210930,105,learn,27,300.928,out,14.27,u,YES,FALSE,674
20210930,105,learn,28,261.0969,out,11.36,u,YES,FALSE,4810
20210930,105,learn,29,172.2094,out,2.83,i,NO,TRUE,1330
20210930,105,learn,30,302.3998,out,14.37,u,YES,FALSE,1762
20210930,105,learn,31,282.5715,out,12.98,u,YES,FALSE,1162
20210930,105,learn,32,319.8521,in,15.52,u,YES,TRUE,4286
20210930,105,learn,33,351.2632,out,17.44,u,YES,FALSE,790
20210930,105,learn,34,223.4641,out,8.17,u,YES,FALSE,1008
20210930,105,learn,35,280.511,in,12.83,u,YES,TRUE,752
20210930,105,learn,36,245.4095,in,10.09,u,YES,TRUE,4532
20210930,105,learn,37,301.663,in,14.32,i,NO,FALSE,1778
20210930,105,learn,38,292.2463,in,13.67,u,YES,TRUE,2534
20210930,105,learn,39,297.2797,in,14.02,u,YES,TRUE,1540
20210930,105,learn,40,206.4815,out,6.55,u,YES,FALSE,1918
20210930,105,learn,41,237.6328,in,9.43,u,YES,TRUE,1158
20210930,105,learn,42,219.1453,in,7.77,i,NO,FALSE,3286
20210930,105,learn,43,235.3252,out,9.23,u,YES,FALSE,2276
20210930,105,learn,44,193.6971,in,5.24,u,YES,TRUE,1580
20210930,105,learn,45,157.3464,out,0.98,i,NO,TRUE,3968
20210930,105,learn,46,380.8964,out,19.1,u,YES,FALSE,3702
20210930,105,learn,47,150.8808,out,0.12,i,NO,TRUE,2058
20210930,105,learn,48,260.5878,in,11.32,u,YES,TRUE,976
20210930,105,learn,49,383.8815,out,19.26,i,NO,TRUE,854
20210930,105,learn,50,199.354,out,5.83,u,YES,FALSE,722
20210930,105,learn,51,288.4217,in,13.4,u,YES,TRUE,4834
20210930,105,learn,52,356.0948,in,17.72,i,NO,FALSE,1742
20210930,105,learn,53,306.8586,in,14.67,u,YES,TRUE,5232
20210930,105,learn,54,315.0507,in,15.21,u,YES,TRUE,1438
20210930,105,learn,55,186.2824,in,4.44,u,YES,TRUE,1090
20210930,105,learn,56,327.7509,in,16.02,i,NO,FALSE,720
20210930,105,learn,57,302.5474,in,14.38,u,YES,TRUE,590
20210930,105,learn,58,278.0583,in,12.65,u,YES,TRUE,674
20210930,105,learn,59,197.4181,in,5.63,u,YES,TRUE,862
20210930,105,learn,60,225.3253,in,8.34,u,YES,TRUE,914
20210930,105,learn,61,316.5916,out,15.31,u,YES,FALSE,1072
20210930,105,learn,62,314.8971,in,15.2,u,YES,TRUE,654
20210930,105,learn,63,395.4783,out,19.87,i,NO,TRUE,1742
20210930,105,learn,64,305.9616,in,14.61,u,YES,TRUE,828
20210930,105,learn,65,367.2103,out,18.35,u,YES,FALSE,692
20210930,105,learn,66,260.715,in,11.33,u,YES,TRUE,684
20210930,105,learn,67,268.0673,out,11.9,u,YES,FALSE,856
20210930,105,learn,68,212.3044,in,7.12,i,NO,FALSE,642
20210930,105,learn,69,346.6662,in,17.17,u,YES,TRUE,2106
20210930,105,learn,70,433.4695,out,21.75,u,YES,FALSE,900
20210930,105,learn,71,343.8027,out,17,u,YES,FALSE,1356
20210930,105,learn,72,233.8373,in,9.1,i,NO,FALSE,1340
20210930,105,learn,73,259.5727,in,11.24,u,YES,TRUE,514
20210930,105,learn,74,213.0308,in,7.19,u,YES,TRUE,1312
20210930,105,learn,75,340.7966,out,16.82,i,NO,TRUE,720
20210930,105,learn,76,266.7626,out,11.8,u,YES,FALSE,896
20210930,105,learn,77,177.9319,out,3.5,u,YES,FALSE,2034
20210930,105,learn,78,351.4346,in,17.45,u,YES,TRUE,764
20210930,105,learn,79,316.4372,in,15.3,i,NO,FALSE,512
20210930,105,learn,80,198.8682,in,5.78,u,YES,TRUE,874
20210930,105,learn,81,173.1362,out,2.94,u,YES,FALSE,1224
20210930,105,learn,82,160.7608,out,1.42,u,YES,FALSE,3560
20210930,105,learn,83,286.8779,in,13.29,i,NO,FALSE,1594
20210930,105,learn,84,242.6709,in,9.86,u,YES,TRUE,1620
20210930,105,learn,85,228.6477,in,8.64,u,YES,TRUE,1436
20210930,105,learn,86,258.5615,in,11.16,i,NO,FALSE,1096
20210930,105,learn,87,389.5417,in,19.56,u,YES,TRUE,498
20210930,105,learn,88,204.8759,out,6.39,u,YES,FALSE,718
20210930,105,learn,89,153.0308,out,0.41,i,NO,TRUE,1176
20210930,105,learn,90,189.3983,in,4.78,i,NO,FALSE,438
20210930,105,learn,91,262.5019,in,11.47,u,YES,TRUE,7356
20210930,105,learn,92,215.1197,in,7.39,u,YES,TRUE,1824
20210930,105,learn,93,196.841,out,5.57,u,YES,FALSE,2028
20210930,105,learn,94,186.3733,out,4.45,i,NO,TRUE,2030
20210930,105,learn,95,249.3927,out,10.42,u,YES,FALSE,746
20210930,105,learn,96,226.3169,out,8.43,i,NO,TRUE,2188
20210930,105,learn,97,197.1294,out,5.6,u,YES,FALSE,952
20210930,105,learn,98,188.2927,out,4.66,i,NO,TRUE,832
20210930,105,learn,99,348.1918,out,17.26,i,NO,TRUE,472
20210930,105,learn,100,157.5,out,1,u,YES,FALSE,2502
20210930,105,learn,101,255.801,out,10.94,i,NO,TRUE,968
20210930,105,learn,102,274.6873,out,12.4,i,NO,TRUE,372
20210930,105,learn,103,215.6451,out,7.44,i,NO,TRUE,860
20210930,105,learn,104,215.1197,in,7.39,i,NO,FALSE,1074
20210930,105,learn,105,196.2656,in,5.51,u,YES,TRUE,1136
20210930,105,learn,106,179.6767,out,3.7,u,YES,FALSE,598
20210930,105,learn,107,272.5513,out,12.24,u,YES,FALSE,844
20210930,105,learn,108,211.2711,out,7.02,u,YES,FALSE,768
20210930,105,learn,109,431.9916,out,21.68,i,NO,TRUE,420
20210930,105,learn,110,158.6569,out,1.15,i,NO,TRUE,530
20210930,105,learn,111,402.0934,out,20.21,i,NO,TRUE,1094
20210930,105,learn,112,256.4258,out,10.99,u,YES,FALSE,876
20210930,105,learn,113,217.0172,out,7.57,u,YES,FALSE,942
20210930,105,learn,114,328.3911,out,16.06,i,NO,TRUE,1236
20210930,105,learn,115,183.2177,out,4.1,i,NO,TRUE,502
20210930,105,learn,116,325.361,out,15.87,u,YES,FALSE,1282
20210930,105,learn,117,259.6994,in,11.25,u,YES,TRUE,1292
20210930,105,learn,118,231.4537,in,8.89,u,YES,TRUE,858
20210930,105,learn,119,162.972,out,1.7,u,YES,FALSE,1718
20210930,105,learn,120,391.0651,out,19.64,u,YES,FALSE,788
20210930,105,learn,121,414.4426,out,20.83,i,NO,TRUE,914
20210930,105,learn,122,292.6743,out,13.7,i,NO,TRUE,1416
20210930,105,learn,123,259.5727,in,11.24,i,NO,FALSE,1196
20210930,105,learn,124,282.8474,out,13,i,NO,TRUE,2230
20210930,105,learn,125,254.3077,in,10.82,u,YES,TRUE,1666
20210930,105,learn,126,258.8139,in,11.18,u,YES,TRUE,1150
20210930,105,learn,127,204.9759,in,6.4,u,YES,TRUE,1324
20210930,105,learn,128,233.9515,in,9.11,i,NO,FALSE,2420
20210930,105,learn,129,251.8382,in,10.62,u,YES,TRUE,914
20210930,105,learn,130,304.3239,in,14.5,u,YES,TRUE,488
20210930,105,learn,131,289.5496,in,13.48,u,YES,TRUE,616
20210930,105,learn,132,235.0957,in,9.21,u,YES,TRUE,1782
20210930,105,learn,133,185.4662,out,4.35,u,YES,FALSE,2438
20210930,105,learn,134,286.1789,in,13.24,u,YES,TRUE,984
20210930,105,learn,135,219.6805,in,7.82,i,NO,FALSE,1340
20210930,105,learn,136,294.3929,in,13.82,u,YES,TRUE,878
20210930,105,learn,137,242.5526,in,9.85,u,YES,TRUE,448
20210930,105,learn,138,275.2239,in,12.44,u,YES,TRUE,910
20210930,105,learn,139,246.0089,in,10.14,u,YES,TRUE,684
20210930,105,learn,140,370.2688,out,18.52,i,NO,TRUE,830
20210930,105,learn,141,170.787,out,2.66,i,NO,TRUE,810
20210930,105,learn,142,234.4085,out,9.15,u,YES,FALSE,894
20210930,105,learn,143,238.6785,out,9.52,u,YES,FALSE,678
20210930,105,learn,144,235.555,in,9.25,u,YES,TRUE,690
20210930,105,learn,145,219.6805,in,7.82,u,YES,TRUE,478
20210930,105,learn,146,155.8185,out,0.78,i,NO,TRUE,960
20210930,105,learn,147,170.5372,in,2.63,i,NO,FALSE,784
20210930,105,learn,148,242.9078,in,9.88,u,YES,TRUE,540
20210930,105,learn,149,204.3767,out,6.34,u,YES,FALSE,484
20210930,105,learn,150,257.4286,out,11.07,u,YES,FALSE,858
20210930,105,learn,151,425.0919,out,21.35,i,NO,TRUE,822
20210930,105,learn,152,223.5732,in,8.18,i,NO,FALSE,1148
20210930,105,learn,153,274.8213,out,12.41,u,YES,FALSE,636
20210930,105,learn,154,302.2523,out,14.36,u,YES,FALSE,650
20210930,105,learn,155,306.8586,out,14.67,u,YES,FALSE,634
20210930,105,learn,156,226.0962,in,8.41,i,NO,FALSE,1438
20210930,105,learn,157,243.7389,in,9.95,u,YES,TRUE,474
20210930,105,learn,158,286.0393,in,13.23,u,YES,TRUE,972
20210930,105,learn,159,268.8532,in,11.96,u,YES,TRUE,554
20210930,105,learn,160,378.8576,out,18.99,i,NO,TRUE,586
20210930,105,learn,161,318.7615,out,15.45,i,NO,TRUE,2124
20210930,105,learn,162,440.9352,out,22.1,i,NO,TRUE,1198
20210930,105,learn,163,308.8111,in,14.8,u,YES,TRUE,1250
20210930,105,learn,164,426.7543,out,21.43,i,NO,TRUE,1416
20210930,105,learn,165,214.9099,out,7.37,i,NO,TRUE,2290
20210930,105,learn,166,427.3794,out,21.46,i,NO,TRUE,2170
20210930,105,learn,167,224.886,in,8.3,u,YES,TRUE,2046
20210930,105,learn,168,240.0801,out,9.64,u,YES,FALSE,2242
20210930,105,learn,169,228.4247,out,8.62,i,NO,TRUE,1490
20210930,105,learn,170,397.6065,in,19.98,i,NO,FALSE,820
20210930,105,learn,171,381.2683,out,19.12,i,NO,TRUE,940
20210930,105,learn,172,354.5346,in,17.63,u,YES,TRUE,512
20210930,105,learn,173,269.5099,in,12.01,u,YES,TRUE,2034
20210930,105,learn,174,352.1211,out,17.49,u,YES,FALSE,968
20210930,105,learn,175,278.7375,in,12.7,i,NO,FALSE,724
20210930,105,learn,176,287.8593,in,13.36,u,YES,TRUE,264
20210930,105,learn,177,260.715,in,11.33,i,NO,FALSE,526
20210930,105,learn,178,235.4401,in,9.24,u,YES,TRUE,1928
20210930,105,learn,179,179.0641,in,3.63,u,YES,TRUE,748
20210930,105,learn,180,176.8932,out,3.38,u,YES,FALSE,752
20210930,105,learn,181,271.7546,in,12.18,u,YES,TRUE,948
20210930,105,learn,182,261.6069,in,11.4,i,NO,FALSE,2836
20210930,105,learn,183,241.7256,in,9.78,u,YES,TRUE,752
20210930,105,learn,184,281.4707,in,12.9,u,YES,TRUE,776
20210930,105,learn,185,315.3583,out,15.23,u,YES,FALSE,2148
20210930,105,learn,186,304.621,out,14.52,i,NO,TRUE,1988
20210930,105,learn,187,219.1453,in,7.77,u,YES,TRUE,748
20210930,105,learn,188,284.5082,out,13.12,u,YES,FALSE,822
20210930,105,learn,189,335.8447,out,16.52,i,NO,TRUE,668
20210930,105,learn,190,367.7482,out,18.38,i,NO,TRUE,360
20210930,105,learn,191,241.019,in,9.72,u,YES,TRUE,522
20210930,105,learn,192,270.9602,in,12.12,i,NO,FALSE,568
20210930,105,learn,193,248.5424,in,10.35,u,YES,TRUE,520
20210930,105,learn,194,189.1213,out,4.75,u,YES,FALSE,366
20210930,105,learn,195,324.5682,in,15.82,u,YES,TRUE,686
20210930,105,learn,196,414.0384,out,20.81,i,NO,TRUE,404
20210930,105,learn,197,205.4765,in,6.45,u,YES,TRUE,1360
20210930,105,learn,198,188.2927,out,4.66,u,YES,FALSE,874
20210930,105,learn,199,242.9078,in,9.88,i,NO,FALSE,504
20210930,105,learn,200,309.2634,out,14.83,i,NO,TRUE,582
20210930,106,learn,1,169.8728,out,2.55,u,YES,FALSE,6028
20210930,106,learn,2,426.7543,out,21.43,i,NO,TRUE,1512
20210930,106,learn,3,378.8576,out,18.99,u,YES,FALSE,1242
20210930,106,learn,4,302.2523,out,14.36,u,YES,FALSE,1768
20210930,106,learn,5,278.0583,in,12.65,i,NO,FALSE,1322
20210930,106,learn,6,237.6328,in,9.43,u,YES,TRUE,1356
20210930,106,learn,7,244.931,out,10.05,u,YES,FALSE,932
20210930,106,learn,8,425.0919,out,21.35,i,NO,TRUE,1286
20210930,106,learn,9,414.0384,out,20.81,i,NO,TRUE,1274
20210930,106,learn,10,440.9352,out,22.1,i,NO,TRUE,872
20210930,106,learn,11,335.8447,out,16.52,u,YES,FALSE,1102
20210930,106,learn,12,214.9099,out,7.37,u,YES,FALSE,1022
20210930,106,learn,13,188.2927,out,4.66,u,YES,FALSE,2108
20210930,106,learn,14,242.5526,in,9.85,i,NO,FALSE,906
20210930,106,learn,15,214.2817,out,7.31,u,YES,FALSE,804
20210930,106,learn,16,170.787,out,2.66,i,NO,TRUE,798
20210930,106,learn,17,268.0673,out,11.9,i,NO,TRUE,1096
20210930,106,learn,18,289.5496,in,13.48,i,NO,FALSE,522
20210930,106,learn,19,271.7546,in,12.18,u,YES,TRUE,1746
20210930,106,learn,20,292.6743,out,13.7,u,YES,FALSE,1162
20210930,106,learn,21,258.8139,in,11.18,u,YES,TRUE,1372
20210930,106,learn,22,235.4401,in,9.24,i,NO,FALSE,916
20210930,106,learn,23,188.2927,out,4.66,u,YES,FALSE,732
20210930,106,learn,24,286.0393,in,13.23,i,NO,FALSE,890
20210930,106,learn,25,286.1789,in,13.24,u,YES,TRUE,886
20210930,106,learn,26,282.8474,out,13,i,NO,TRUE,1002
20210930,106,learn,27,197.1294,out,5.6,i,NO,TRUE,1010
20210930,106,learn,28,185.4662,out,4.35,i,NO,TRUE,2028
20210930,106,learn,29,170.5372,in,2.63,i,NO,FALSE,1116
20210930,106,learn,30,308.8111,in,14.8,i,NO,FALSE,970
20210930,106,learn,31,270.9602,in,12.12,u,YES,TRUE,812
20210930,106,learn,32,234.4085,out,9.15,u,YES,FALSE,610
20210930,106,learn,33,261.0969,out,11.36,i,NO,TRUE,2010
20210930,106,learn,34,324.5682,in,15.82,u,YES,TRUE,884
20210930,106,learn,35,272.5513,out,12.24,u,YES,FALSE,828
20210930,106,learn,36,215.6451,out,7.44,u,YES,FALSE,928
20210930,106,learn,37,391.0651,out,19.64,i,NO,TRUE,1154
20210930,106,learn,38,352.1211,out,17.49,u,YES,FALSE,3324
20210930,106,learn,39,242.9078,in,9.88,i,NO,FALSE,492
20210930,106,learn,40,315.0507,in,15.21,u,YES,TRUE,728
20210930,106,learn,41,306.8586,out,14.67,i,NO,TRUE,666
20210930,106,learn,42,160.7608,out,1.42,u,YES,FALSE,4106
20210930,106,learn,43,433.4695,out,21.75,i,NO,TRUE,412
20210930,106,learn,44,328.3911,out,16.06,i,NO,TRUE,752
20210930,106,learn,45,257.4286,out,11.07,i,NO,TRUE,496
20210930,106,learn,46,343.8027,out,17,u,YES,FALSE,712
20210930,106,learn,47,256.4258,out,10.99,i,NO,TRUE,700
20210930,106,learn,48,395.4783,out,19.87,i,NO,TRUE,906
20210930,106,learn,49,414.4426,out,20.83,u,YES,FALSE,956
20210930,106,learn,50,235.555,in,9.25,u,YES,TRUE,510
20210930,106,learn,51,196.2656,in,5.51,u,YES,TRUE,1258
20210930,106,learn,52,241.019,in,9.72,u,YES,TRUE,708
20210930,106,learn,53,189.1213,out,4.75,i,NO,TRUE,1588
20210930,106,learn,54,219.6805,in,7.82,i,NO,FALSE,660
20210930,106,learn,55,204.3767,out,6.34,i,NO,TRUE,662
20210930,106,learn,56,269.773,in,12.03,u,YES,TRUE,868
20210930,106,learn,57,367.2103,out,18.35,u,YES,FALSE,812
20210930,106,learn,58,150.8808,out,0.12,i,NO,TRUE,340
20210930,106,learn,59,162.972,out,1.7,i,NO,TRUE,972
20210930,106,learn,60,157.3464,out,0.98,u,YES,FALSE,1604
20210930,106,learn,61,233.9515,in,9.11,i,NO,FALSE,3452
20210930,106,learn,62,351.2632,out,17.44,i,NO,TRUE,1148
20210930,106,learn,63,255.801,out,10.94,u,YES,FALSE,1074
20210930,106,learn,64,316.4372,in,15.3,i,NO,FALSE,1268
20210930,106,learn,65,219.1453,in,7.77,u,YES,TRUE,772
20210930,106,learn,66,261.6069,in,11.4,u,YES,TRUE,620
20210930,106,learn,67,304.621,out,14.52,u,YES,FALSE,428
20210930,106,learn,68,223.5732,in,8.18,i,NO,FALSE,292
20210930,106,learn,69,268.8532,in,11.96,u,YES,TRUE,462
20210930,106,learn,70,206.4815,out,6.55,u,YES,FALSE,500
20210930,106,learn,71,274.6873,out,12.4,u,YES,FALSE,564
20210930,106,learn,72,213.0308,in,7.19,i,NO,FALSE,326
20210930,106,learn,73,290.1153,in,13.52,u,YES,TRUE,900
20210930,106,learn,74,259.5727,in,11.24,u,YES,TRUE,506
20210930,106,learn,75,315.3583,out,15.23,u,YES,FALSE,820
20210930,106,learn,76,389.5417,in,19.56,i,NO,FALSE,1564
20210930,106,learn,77,300.928,out,14.27,i,NO,TRUE,414
20210930,106,learn,78,197.4181,in,5.63,u,YES,TRUE,376
20210930,106,learn,79,370.2688,out,18.52,u,YES,FALSE,430
20210930,106,learn,80,160.4473,out,1.38,i,NO,TRUE,276
20210930,106,learn,81,215.1197,in,7.39,i,NO,FALSE,1244
20210930,106,learn,82,172.2094,out,2.83,u,YES,FALSE,1540
20210930,106,learn,83,433.4695,out,21.75,i,NO,TRUE,1052
20210930,106,learn,84,302.5474,in,14.38,u,YES,TRUE,2098
20210930,106,learn,85,338.8071,out,16.7,u,YES,FALSE,920
20210930,106,learn,86,231.4537,in,8.89,i,NO,FALSE,706
20210930,106,learn,87,319.0728,in,15.47,u,YES,TRUE,170
20210930,106,learn,88,177.9319,out,3.5,u,YES,FALSE,434
20210930,106,learn,89,278.7375,in,12.7,i,NO,FALSE,502
20210930,106,learn,90,297.2797,in,14.02,u,YES,TRUE,2148
20210930,106,learn,91,441.7966,out,22.14,i,NO,TRUE,1388
20210930,106,learn,92,356.0948,in,17.72,u,YES,TRUE,802
20210930,106,learn,93,427.3794,out,21.46,u,YES,FALSE,1154
20210930,106,learn,94,304.3239,in,14.5,u,YES,TRUE,988
20210930,106,learn,95,273.0837,out,12.28,u,YES,FALSE,1148
20210930,106,learn,96,243.7389,in,9.95,i,NO,FALSE,610
20210930,106,learn,97,196.841,out,5.57,u,YES,FALSE,308
20210930,106,learn,98,242.9078,in,9.88,i,NO,FALSE,354
20210930,106,learn,99,269.5099,in,12.01,u,YES,TRUE,586
20210930,106,learn,100,153.0308,out,0.41,i,NO,TRUE,1506
20210930,106,learn,101,179.0641,in,3.63,i,NO,FALSE,1036
20210930,106,learn,102,254.3077,in,10.82,u,YES,TRUE,836
20210930,106,learn,103,224.886,in,8.3,i,NO,FALSE,1210
20210930,106,learn,104,264.3011,in,11.61,u,YES,TRUE,662
20210930,106,learn,105,238.6785,out,9.52,u,YES,FALSE,512
20210930,106,learn,106,258.5615,in,11.16,i,NO,FALSE,488
20210930,106,learn,107,260.715,in,11.33,u,YES,TRUE,478
20210930,106,learn,108,259.5727,in,11.24,u,YES,TRUE,612
20210930,106,learn,109,158.6569,out,1.15,i,NO,TRUE,882
20210930,106,learn,110,228.0906,out,8.59,i,NO,TRUE,516
20210930,106,learn,111,348.1918,out,17.26,u,YES,FALSE,1210
20210930,106,learn,112,319.8521,in,15.52,i,NO,FALSE,322
20210930,106,learn,113,303.4343,in,14.44,u,YES,TRUE,372
20210930,106,learn,114,351.4346,in,17.45,i,NO,FALSE,718
20210930,106,learn,115,242.6709,in,9.86,u,YES,TRUE,328
20210930,106,learn,116,286.8779,in,13.29,i,NO,FALSE,482
20210930,106,learn,117,346.6662,in,17.17,u,YES,TRUE,796
20210930,106,learn,118,219.1453,in,7.77,i,NO,FALSE,1130
20210930,106,learn,119,196.3614,in,5.52,u,YES,TRUE,434
20210930,106,learn,120,217.0172,out,7.57,u,YES,FALSE,924
20210930,106,learn,121,179.6767,out,3.7,i,NO,TRUE,300
20210930,106,learn,122,232.019,in,8.94,i,NO,FALSE,436
20210930,106,learn,123,176.8932,out,3.38,u,YES,FALSE,612
20210930,106,learn,124,262.5019,in,11.47,i,NO,FALSE,370
20210930,106,learn,125,157.5,out,1,u,YES,FALSE,436
20210930,106,learn,126,318.7615,out,15.45,i,NO,TRUE,412
20210930,106,learn,127,354.016,in,17.6,u,YES,TRUE,644
20210930,106,learn,128,211.2711,out,7.02,i,NO,TRUE,874
20210930,106,learn,129,186.2824,in,4.44,u,YES,TRUE,1212
20210930,106,learn,130,228.4247,out,8.62,i,NO,TRUE,1086
20210930,106,learn,131,186.3733,out,4.45,u,YES,FALSE,930
20210930,106,learn,132,183.2177,out,4.1,i,NO,TRUE,676
20210930,106,learn,133,316.5916,out,15.31,i,NO,TRUE,1132
20210930,106,learn,134,204.9759,in,6.4,u,YES,TRUE,780
20210930,106,learn,135,325.361,out,15.87,i,NO,TRUE,836
20210930,106,learn,136,189.3983,in,4.78,i,NO,FALSE,1828
20210930,106,learn,137,260.715,in,11.33,u,YES,TRUE,1218
20210930,106,learn,138,223.4641,out,8.17,u,YES,FALSE,712
20210930,106,learn,139,356.0948,in,17.72,i,NO,FALSE,386
20210930,106,learn,140,294.3929,in,13.82,u,YES,TRUE,490
20210930,106,learn,141,274.8213,out,12.41,u,YES,FALSE,476
20210930,106,learn,142,199.354,out,5.83,i,NO,TRUE,298
20210930,106,learn,143,160.2908,out,1.36,u,YES,FALSE,414
20210930,106,learn,144,402.0934,out,20.21,i,NO,TRUE,310
20210930,106,learn,145,223.5732,in,8.18,u,YES,TRUE,964
20210930,106,learn,146,241.7256,in,9.78,i,NO,FALSE,540
20210930,106,learn,147,372.443,in,18.64,u,YES,TRUE,414
20210930,106,learn,148,212.3044,in,7.12,i,NO,FALSE,626
20210930,106,learn,149,280.511,in,12.83,u,YES,TRUE,378
20210930,106,learn,150,284.5082,out,13.12,u,YES,FALSE,770
20210930,106,learn,152,314.8971,in,15.2,i,NO,FALSE,4130
20210930,106,learn,153,292.2463,in,13.67,u,YES,TRUE,282
20210930,106,learn,154,243.0264,out,9.89,i,NO,TRUE,338
20210930,106,learn,155,219.6805,in,7.82,u,YES,TRUE,538
20210930,106,learn,156,259.6994,in,11.25,i,NO,FALSE,330
20210930,106,learn,157,217.0172,out,7.57,u,YES,FALSE,318
20210930,106,learn,158,240.0801,out,9.64,i,NO,TRUE,368
20210930,106,learn,159,381.2683,out,19.12,u,YES,FALSE,384
20210930,106,learn,160,233.8373,in,9.1,i,NO,FALSE,252
20210930,106,learn,161,380.8964,out,19.1,u,YES,FALSE,116
20210930,106,learn,162,275.2239,in,12.44,i,NO,FALSE,308
20210930,106,learn,163,155.8185,out,0.78,u,YES,FALSE,370
20210930,106,learn,164,228.6477,in,8.64,i,NO,FALSE,308
20210930,106,learn,165,235.0957,in,9.21,i,NO,FALSE,226
20210930,106,learn,166,354.5346,in,17.63,u,YES,TRUE,684
20210930,106,learn,167,340.7966,out,16.82,u,YES,FALSE,556
20210930,106,learn,168,338.1466,out,16.66,u,YES,FALSE,332
20210930,106,learn,169,226.3169,out,8.43,u,YES,FALSE,418
20210930,106,learn,170,301.663,in,14.32,u,YES,TRUE,884
20210930,106,learn,171,260.5878,in,11.32,i,NO,FALSE,762
20210930,106,learn,172,287.8593,in,13.36,u,YES,TRUE,348
20210930,106,learn,173,193.6971,in,5.24,u,YES,TRUE,338
20210930,106,learn,174,205.4765,in,6.45,u,YES,TRUE,506
20210930,106,learn,175,226.0962,in,8.41,i,NO,FALSE,874
20210930,106,learn,176,198.8682,in,5.78,u,YES,TRUE,458
20210930,106,learn,177,225.3253,in,8.34,u,YES,TRUE,804
20210930,106,learn,178,245.4095,in,10.09,u,YES,TRUE,474
20210930,106,learn,179,251.8382,in,10.62,u,YES,TRUE,428
20210930,106,learn,180,281.4707,in,12.9,i,NO,FALSE,732
20210930,106,learn,181,306.8586,in,14.67,u,YES,TRUE,530
20210930,106,learn,182,383.8815,out,19.26,u,YES,FALSE,306
20210930,106,learn,183,305.9616,in,14.61,u,YES,TRUE,15956
20210930,106,learn,184,189.4907,out,4.79,i,NO,TRUE,3036
20210930,106,learn,185,204.8759,out,6.39,u,YES,FALSE,1476
20210930,106,learn,186,367.7482,out,18.38,i,NO,TRUE,246
20210930,106,learn,187,215.1197,in,7.39,u,YES,TRUE,512
20210930,106,learn,188,431.9916,out,21.68,i,NO,TRUE,592
20210930,106,learn,189,235.3252,out,9.23,u,YES,FALSE,2786
20210930,106,learn,190,249.3927,out,10.42,u,YES,FALSE,3178
20210930,106,learn,191,248.5424,in,10.35,i,NO,FALSE,472
20210930,106,learn,192,309.2634,out,14.83,u,YES,FALSE,594
20210930,106,learn,193,302.3998,out,14.37,u,YES,FALSE,1124
20210930,106,learn,194,173.1362,out,2.94,u,YES,FALSE,18404
20210930,106,learn,195,397.6065,in,19.98,i,NO,FALSE,316
20210930,106,learn,196,282.5715,out,12.98,u,YES,FALSE,598
20210930,106,learn,197,288.4217,in,13.4,i,NO,FALSE,1304
20210930,106,learn,198,234.2942,in,9.14,u,YES,TRUE,594
20210930,106,learn,199,266.7626,out,11.8,u,YES,FALSE,1076
20210930,106,learn,200,246.0089,in,10.14,u,YES,TRUE,356
20210930,107,learn,1,370.2688,out,18.52,u,YES,FALSE,4388
20210930,107,learn,2,282.8474,out,13,i,NO,TRUE,3286
20210930,107,learn,3,241.7256,in,9.78,i,NO,FALSE,970
20210930,107,learn,4,228.6477,in,8.64,i,NO,FALSE,1384
20210930,107,learn,5,189.3983,in,4.78,u,YES,TRUE,1378
20210930,107,learn,6,325.361,out,15.87,u,YES,FALSE,970
20210930,107,learn,7,172.2094,out,2.83,u,YES,FALSE,2770
20210930,107,learn,8,367.2103,out,18.35,u,YES,FALSE,860
20210930,107,learn,9,427.3794,out,21.46,i,NO,TRUE,1074
20210930,107,learn,10,160.2908,out,1.36,i,NO,TRUE,2000
20210930,107,learn,11,282.5715,out,12.98,i,NO,TRUE,1072
20210930,107,learn,12,306.8586,in,14.67,u,YES,TRUE,696
20210930,107,learn,13,228.0906,out,8.59,i,NO,TRUE,684
20210930,107,learn,14,335.8447,out,16.52,u,YES,FALSE,564
20210930,107,learn,15,242.6709,in,9.86,i,NO,FALSE,850
20210930,107,learn,16,246.0089,in,10.14,i,NO,FALSE,936
20210930,107,learn,17,297.2797,in,14.02,u,YES,TRUE,608
20210930,107,learn,18,354.016,in,17.6,u,YES,TRUE,632
20210930,107,learn,19,214.2817,out,7.31,u,YES,FALSE,1058
20210930,107,learn,20,268.0673,out,11.9,u,YES,FALSE,678
20210930,107,learn,21,290.1153,in,13.52,i,NO,FALSE,612
20210930,107,learn,22,206.4815,out,6.55,u,YES,FALSE,876
20210930,107,learn,23,215.1197,in,7.39,i,NO,FALSE,522
20210930,107,learn,24,397.6065,in,19.98,i,NO,FALSE,1238
20210930,107,learn,25,235.3252,out,9.23,u,YES,FALSE,316
20210930,107,learn,26,275.2239,in,12.44,u,YES,TRUE,1076
20210930,107,learn,27,261.6069,in,11.4,u,YES,TRUE,684
20210930,107,learn,28,242.9078,in,9.88,u,YES,TRUE,452
20210930,107,learn,29,281.4707,in,12.9,i,NO,FALSE,636
20210930,107,learn,30,414.0384,out,20.81,u,YES,FALSE,624
20210930,107,learn,31,160.4473,out,1.38,i,NO,TRUE,748
20210930,107,learn,32,381.2683,out,19.12,u,YES,FALSE,1188
20210930,107,learn,33,274.8213,out,12.41,u,YES,FALSE,1122
20210930,107,learn,34,314.8971,in,15.2,i,NO,FALSE,652
20210930,107,learn,35,348.1918,out,17.26,u,YES,FALSE,540
20210930,107,learn,36,440.9352,out,22.1,i,NO,TRUE,820
20210930,107,learn,37,319.8521,in,15.52,i,NO,FALSE,492
20210930,107,learn,38,315.0507,in,15.21,i,NO,FALSE,460
20210930,107,learn,39,226.0962,in,8.41,i,NO,FALSE,876
20210930,107,learn,40,204.8759,out,6.39,u,YES,FALSE,400
20210930,107,learn,41,189.4907,out,4.79,i,NO,TRUE,1508
20210930,107,learn,42,302.5474,in,14.38,u,YES,TRUE,572
20210930,107,learn,43,245.4095,in,10.09,u,YES,TRUE,1140
20210930,107,learn,44,204.3767,out,6.34,i,NO,TRUE,694
20210930,107,learn,45,217.0172,out,7.57,u,YES,FALSE,836
20210930,107,learn,46,255.801,out,10.94,u,YES,FALSE,476
20210930,107,learn,47,215.1197,in,7.39,i,NO,FALSE,1110
20210930,107,learn,48,235.0957,in,9.21,u,YES,TRUE,614
20210930,107,learn,49,223.5732,in,8.18,u,YES,TRUE,1258
20210930,107,learn,50,205.4765,in,6.45,u,YES,TRUE,628
20210930,107,learn,51,300.928,out,14.27,u,YES,FALSE,506
20210930,107,learn,52,301.663,in,14.32,i,NO,FALSE,684
20210930,107,learn,53,160.7608,out,1.42,i,NO,TRUE,998
20210930,107,learn,54,286.1789,in,13.24,u,YES,TRUE,1834
20210930,107,learn,55,189.1213,out,4.75,i,NO,TRUE,708
20210930,107,learn,56,212.3044,in,7.12,u,YES,TRUE,1066
20210930,107,learn,57,260.715,in,11.33,u,YES,TRUE,634
20210930,107,learn,58,219.1453,in,7.77,u,YES,TRUE,548
20210930,107,learn,59,251.8382,in,10.62,u,YES,TRUE,652
20210930,107,learn,60,304.3239,in,14.5,u,YES,TRUE,792
20210930,107,learn,61,223.4641,out,8.17,i,NO,TRUE,964
20210930,107,learn,62,242.5526,in,9.85,i,NO,FALSE,666
20210930,107,learn,63,155.8185,out,0.78,i,NO,TRUE,708
20210930,107,learn,64,303.4343,in,14.44,u,YES,TRUE,716
20210930,107,learn,65,414.4426,out,20.83,i,NO,TRUE,842
20210930,107,learn,66,280.511,in,12.83,u,YES,TRUE,708
20210930,107,learn,67,271.7546,in,12.18,u,YES,TRUE,666
20210930,107,learn,68,169.8728,out,2.55,i,NO,TRUE,720
20210930,107,learn,69,343.8027,out,17,i,NO,TRUE,704
20210930,107,learn,70,367.7482,out,18.38,i,NO,TRUE,1228
20210930,107,learn,71,433.4695,out,21.75,i,NO,TRUE,772
20210930,107,learn,72,186.2824,in,4.44,u,YES,TRUE,684
20210930,107,learn,73,223.5732,in,8.18,u,YES,TRUE,788
20210930,107,learn,74,225.3253,in,8.34,u,YES,TRUE,500
20210930,107,learn,75,162.972,out,1.7,u,YES,FALSE,908
20210930,107,learn,76,260.715,in,11.33,u,YES,TRUE,1068
20210930,107,learn,77,380.8964,out,19.1,i,NO,TRUE,1104
20210930,107,learn,78,243.7389,in,9.95,i,NO,FALSE,602
20210930,107,learn,79,231.4537,in,8.89,u,YES,TRUE,432
20210930,107,learn,80,426.7543,out,21.43,i,NO,TRUE,662
20210930,107,learn,81,270.9602,in,12.12,u,YES,TRUE,922
20210930,107,learn,82,340.7966,out,16.82,i,NO,TRUE,792
20210930,107,learn,83,226.3169,out,8.43,u,YES,FALSE,684
20210930,107,learn,84,356.0948,in,17.72,i,NO,FALSE,716
20210930,107,learn,85,224.886,in,8.3,u,YES,TRUE,938
20210930,107,learn,86,256.4258,out,10.99,u,YES,FALSE,1140
20210930,107,learn,87,248.5424,in,10.35,u,YES,TRUE,866
20210930,107,learn,88,179.0641,in,3.63,i,NO,FALSE,708
20210930,107,learn,89,198.8682,in,5.78,u,YES,TRUE,1032
20210930,107,learn,90,240.0801,out,9.64,u,YES,FALSE,720
20210930,107,learn,91,204.9759,in,6.4,i,NO,FALSE,770
20210930,107,learn,92,441.7966,out,22.14,i,NO,TRUE,684
20210930,107,learn,93,158.6569,out,1.15,i,NO,TRUE,732
20210930,107,learn,94,352.1211,out,17.49,u,YES,FALSE,964
20210930,107,learn,95,286.0393,in,13.23,u,YES,TRUE,836
20210930,107,learn,96,214.9099,out,7.37,i,NO,TRUE,1324
20210930,107,learn,97,308.8111,in,14.8,u,YES,TRUE,1964
20210930,107,learn,98,234.2942,in,9.14,u,YES,TRUE,596
20210930,107,learn,99,402.0934,out,20.21,i,NO,TRUE,734
20210930,107,learn,100,179.6767,out,3.7,u,YES,FALSE,1010
20210930,107,learn,101,170.787,out,2.66,i,NO,TRUE,1380
20210930,107,learn,102,351.4346,in,17.45,i,NO,FALSE,914
20210930,107,learn,103,188.2927,out,4.66,u,YES,FALSE,660
20210930,107,learn,104,431.9916,out,21.68,i,NO,TRUE,732
20210930,107,learn,105,305.9616,in,14.61,u,YES,TRUE,1956
20210930,107,learn,106,238.6785,out,9.52,u,YES,FALSE,748
20210930,107,learn,107,261.0969,out,11.36,u,YES,FALSE,708
20210930,107,learn,108,328.3911,out,16.06,i,NO,TRUE,924
20210930,107,learn,109,213.0308,in,7.19,u,YES,TRUE,2892
20210930,107,learn,110,354.5346,in,17.63,i,NO,FALSE,810
20210930,107,learn,111,237.6328,in,9.43,u,YES,TRUE,810
20210930,107,learn,112,316.5916,out,15.31,u,YES,FALSE,1034
20210930,107,learn,113,304.621,out,14.52,u,YES,FALSE,772
20210930,107,learn,114,242.9078,in,9.88,u,YES,TRUE,898
20210930,107,learn,115,266.7626,out,11.8,i,NO,TRUE,642
20210930,107,learn,116,302.2523,out,14.36,i,NO,TRUE,684
20210930,107,learn,117,217.0172,out,7.57,u,YES,FALSE,628
20210930,107,learn,118,243.0264,out,9.89,u,YES,FALSE,612
20210930,107,learn,119,260.5878,in,11.32,u,YES,TRUE,900
20210930,107,learn,120,262.5019,in,11.47,u,YES,TRUE,604
20210930,107,learn,121,274.6873,out,12.4,u,YES,FALSE,726
20210930,107,learn,122,153.0308,out,0.41,i,NO,TRUE,790
20210930,107,learn,123,389.5417,in,19.56,i,NO,FALSE,740
20210930,107,learn,124,196.2656,in,5.51,i,NO,FALSE,844
20210930,107,learn,125,258.8139,in,11.18,u,YES,TRUE,660
20210930,107,learn,126,259.6994,in,11.25,u,YES,TRUE,1852
20210930,107,learn,127,356.0948,in,17.72,i,NO,FALSE,644
20210930,107,learn,128,292.6743,out,13.7,i,NO,TRUE,1324
20210930,107,learn,129,215.6451,out,7.44,u,YES,FALSE,708
20210930,107,learn,130,284.5082,out,13.12,i,NO,TRUE,1950
20210930,107,learn,131,346.6662,in,17.17,u,YES,TRUE,1738
20210930,107,learn,132,259.5727,in,11.24,u,YES,TRUE,1222
20210930,107,learn,133,269.773,in,12.03,i,NO,FALSE,1210
20210930,107,learn,134,338.8071,out,16.7,u,YES,FALSE,1076
20210930,107,learn,135,391.0651,out,19.64,i,NO,TRUE,812
20210930,107,learn,136,278.0583,in,12.65,u,YES,TRUE,1006
20210930,107,learn,137,235.4401,in,9.24,u,YES,TRUE,796
20210930,107,learn,138,196.841,out,5.57,u,YES,FALSE,962
20210930,107,learn,139,244.931,out,10.05,u,YES,FALSE,738
20210930,107,learn,140,170.5372,in,2.63,u,YES,TRUE,1054
20210930,107,learn,141,157.3464,out,0.98,i,NO,TRUE,842
20210930,107,learn,142,232.019,in,8.94,u,YES,TRUE,1180
20210930,107,learn,143,327.7509,in,16.02,u,YES,TRUE,1124
20210930,107,learn,144,315.3583,out,15.23,i,NO,TRUE,652
20210930,107,learn,145,286.8779,in,13.29,u,YES,TRUE,1028
20210930,107,learn,146,197.1294,out,5.6,u,YES,FALSE,692
20210930,107,learn,147,324.5682,in,15.82,i,NO,FALSE,786
20210930,107,learn,148,372.443,in,18.64,i,NO,FALSE,722
20210930,107,learn,149,176.8932,out,3.38,u,YES,FALSE,674
20210930,107,learn,150,173.1362,out,2.94,i,NO,TRUE,748
20210930,107,learn,151,338.1466,out,16.66,i,NO,TRUE,1268
20210930,107,learn,152,183.2177,out,4.1,u,YES,FALSE,394
20210930,107,learn,153,316.4372,in,15.3,i,NO,FALSE,1124
20210930,107,learn,154,288.4217,in,13.4,u,YES,TRUE,540
20210930,107,learn,155,211.2711,out,7.02,u,YES,FALSE,626
20210930,107,learn,156,185.4662,out,4.35,u,YES,FALSE,690
20210930,107,learn,157,157.5,out,1,i,NO,TRUE,770
20210930,107,learn,158,264.3011,in,11.61,u,YES,TRUE,794
20210930,107,learn,159,249.3927,out,10.42,u,YES,FALSE,2828
20210930,107,learn,160,219.6805,in,7.82,u,YES,TRUE,956
20210930,107,learn,161,197.4181,in,5.63,u,YES,TRUE,1276
20210930,107,learn,162,273.0837,out,12.28,i,NO,TRUE,962
20210930,107,learn,163,258.5615,in,11.16,u,YES,TRUE,1092
20210930,107,learn,164,235.555,in,9.25,u,YES,TRUE,724
20210930,107,learn,165,259.5727,in,11.24,u,YES,TRUE,892
20210930,107,learn,166,196.3614,in,5.52,u,YES,TRUE,914
20210930,107,learn,167,294.3929,in,13.82,i,NO,FALSE,844
20210930,107,learn,168,395.4783,out,19.87,i,NO,TRUE,738
20210930,107,learn,169,233.9515,in,9.11,u,YES,TRUE,1026
20210930,107,learn,170,257.4286,out,11.07,u,YES,FALSE,946
20210930,107,learn,171,278.7375,in,12.7,u,YES,TRUE,1044
20210930,107,learn,172,150.8808,out,0.12,i,NO,TRUE,836
20210930,107,learn,173,289.5496,in,13.48,u,YES,TRUE,858
20210930,107,learn,174,234.4085,out,9.15,i,NO,TRUE,1092
20210930,107,learn,175,318.7615,out,15.45,u,YES,FALSE,852
20210930,107,learn,176,272.5513,out,12.24,i,NO,TRUE,1486
20210930,107,learn,177,199.354,out,5.83,i,NO,TRUE,1228
20210930,107,learn,178,287.8593,in,13.36,u,YES,TRUE,1908
20210930,107,learn,179,425.0919,out,21.35,i,NO,TRUE,684
20210930,107,learn,180,254.3077,in,10.82,u,YES,TRUE,2084
20210930,107,learn,181,219.1453,in,7.77,u,YES,TRUE,778
20210930,107,learn,182,309.2634,out,14.83,i,NO,TRUE,1160
20210930,107,learn,183,319.0728,in,15.47,i,NO,FALSE,628
20210930,107,learn,184,351.2632,out,17.44,i,NO,TRUE,572
20210930,107,learn,185,383.8815,out,19.26,i,NO,TRUE,564
20210930,107,learn,186,177.9319,out,3.5,u,YES,FALSE,1348
20210930,107,learn,187,241.019,in,9.72,u,YES,TRUE,620
20210930,107,learn,188,233.8373,in,9.1,u,YES,TRUE,524
20210930,107,learn,189,433.4695,out,21.75,i,NO,TRUE,708
20210930,107,learn,190,378.8576,out,18.99,i,NO,TRUE,646
20210930,107,learn,191,228.4247,out,8.62,u,YES,FALSE,972
20210930,107,learn,192,269.5099,in,12.01,u,YES,TRUE,724
20210930,107,learn,193,306.8586,out,14.67,i,NO,TRUE,700
20210930,107,learn,194,186.3733,out,4.45,u,YES,FALSE,1460
20210930,107,learn,195,268.8532,in,11.96,i,NO,FALSE,980
20210930,107,learn,196,188.2927,out,4.66,i,NO,TRUE,852
20210930,107,learn,197,302.3998,out,14.37,u,YES,FALSE,524
20210930,107,learn,198,219.6805,in,7.82,i,NO,FALSE,732
20210930,107,learn,199,292.2463,in,13.67,u,YES,TRUE,830
20210930,107,learn,200,193.6971,in,5.24,u,YES,TRUE,714
20211001,108,learn,1,343.8027,out,17,i,NO,TRUE,6862
20211001,108,learn,2,189.4907,out,4.79,u,YES,FALSE,1224
20211001,108,learn,3,433.4695,out,21.75,i,NO,TRUE,2234
20211001,108,learn,4,348.1918,out,17.26,u,YES,FALSE,1842
20211001,108,learn,5,389.5417,in,19.56,i,NO,FALSE,2496
20211001,108,learn,6,243.0264,out,9.89,u,YES,FALSE,970
20211001,108,learn,7,153.0308,out,0.41,u,YES,FALSE,1190
20211001,108,learn,8,280.511,in,12.83,u,YES,TRUE,1228
20211001,108,learn,9,266.7626,out,11.8,u,YES,FALSE,1216
20211001,108,learn,10,215.1197,in,7.39,u,YES,TRUE,1136
20211001,108,learn,11,286.0393,in,13.23,i,NO,FALSE,1502
20211001,108,learn,12,300.928,out,14.27,i,NO,TRUE,1776
20211001,108,learn,13,223.5732,in,8.18,u,YES,TRUE,1172
20211001,108,learn,14,325.361,out,15.87,u,YES,FALSE,1196
20211001,108,learn,15,197.1294,out,5.6,u,YES,FALSE,802
20211001,108,learn,16,240.0801,out,9.64,u,YES,FALSE,586
20211001,108,learn,17,223.4641,out,8.17,u,YES,FALSE,574
20211001,108,learn,18,306.8586,out,14.67,i,NO,TRUE,902
20211001,108,learn,19,315.3583,out,15.23,i,NO,TRUE,874
20211001,108,learn,20,217.0172,out,7.57,u,YES,FALSE,706
20211001,108,learn,21,228.4247,out,8.62,u,YES,FALSE,1002
20211001,108,learn,22,414.0384,out,20.81,i,NO,TRUE,738
20211001,108,learn,23,228.6477,in,8.64,i,NO,FALSE,2362
20211001,108,learn,24,397.6065,in,19.98,i,NO,FALSE,1776
20211001,108,learn,25,281.4707,in,12.9,u,YES,TRUE,998
20211001,108,learn,26,186.3733,out,4.45,u,YES,FALSE,826
20211001,108,learn,27,193.6971,in,5.24,u,YES,TRUE,1208
20211001,108,learn,28,188.2927,out,4.66,u,YES,FALSE,810
20211001,108,learn,29,176.8932,out,3.38,u,YES,FALSE,1548
20211001,108,learn,30,414.4426,out,20.83,i,NO,TRUE,996
20211001,108,learn,31,244.931,out,10.05,u,YES,FALSE,980
20211001,108,learn,32,269.5099,in,12.01,i,NO,FALSE,754
20211001,108,learn,33,315.0507,in,15.21,i,NO,FALSE,1628
20211001,108,learn,34,234.4085,out,9.15,u,YES,FALSE,604
20211001,108,learn,35,248.5424,in,10.35,i,NO,FALSE,582
20211001,108,learn,36,440.9352,out,22.1,i,NO,TRUE,1700
20211001,108,learn,37,223.5732,in,8.18,u,YES,TRUE,764
20211001,108,learn,38,231.4537,in,8.89,u,YES,TRUE,628
20211001,108,learn,39,258.5615,in,11.16,i,NO,FALSE,962
20211001,108,learn,40,260.715,in,11.33,u,YES,TRUE,780
20211001,108,learn,41,431.9916,out,21.68,i,NO,TRUE,692
20211001,108,learn,42,402.0934,out,20.21,i,NO,TRUE,884
20211001,108,learn,43,228.0906,out,8.59,u,YES,FALSE,532
20211001,108,learn,44,150.8808,out,0.12,u,YES,FALSE,836
20211001,108,learn,45,197.4181,in,5.63,u,YES,TRUE,812
20211001,108,learn,46,219.6805,in,7.82,u,YES,TRUE,842
20211001,108,learn,47,224.886,in,8.3,u,YES,TRUE,868
20211001,108,learn,48,354.016,in,17.6,u,YES,TRUE,1460
20211001,108,learn,49,282.8474,out,13,u,YES,FALSE,1604
20211001,108,learn,50,245.4095,in,10.09,u,YES,TRUE,946
20211001,108,learn,51,260.715,in,11.33,i,NO,FALSE,1378
20211001,108,learn,52,219.6805,in,7.82,u,YES,TRUE,1310
20211001,108,learn,53,308.8111,in,14.8,i,NO,FALSE,940
20211001,108,learn,54,170.787,out,2.66,i,NO,TRUE,1692
20211001,108,learn,55,426.7543,out,21.43,i,NO,TRUE,836
20211001,108,learn,56,169.8728,out,2.55,i,NO,TRUE,1548
20211001,108,learn,57,383.8815,out,19.26,u,YES,FALSE,1780
20211001,108,learn,58,251.8382,in,10.62,u,YES,TRUE,588
20211001,108,learn,59,335.8447,out,16.52,i,NO,TRUE,1444
20211001,108,learn,60,372.443,in,18.64,u,YES,TRUE,1244
20211001,108,learn,61,241.7256,in,9.78,u,YES,TRUE,1604
20211001,108,learn,62,338.8071,out,16.7,i,NO,TRUE,2002
20211001,108,learn,63,278.0583,in,12.65,u,YES,TRUE,980
20211001,108,learn,64,204.9759,in,6.4,u,YES,TRUE,1034
20211001,108,learn,65,196.841,out,5.57,u,YES,FALSE,1084
20211001,108,learn,66,219.1453,in,7.77,u,YES,TRUE,748
20211001,108,learn,67,268.0673,out,11.9,u,YES,FALSE,1164
20211001,108,learn,68,199.354,out,5.83,i,NO,TRUE,1108
20211001,108,learn,69,351.2632,out,17.44,u,YES,FALSE,716
20211001,108,learn,70,257.4286,out,11.07,u,YES,FALSE,556
20211001,108,learn,71,328.3911,out,16.06,u,YES,FALSE,502
20211001,108,learn,72,433.4695,out,21.75,i,NO,TRUE,678
20211001,108,learn,73,234.2942,in,9.14,u,YES,TRUE,588
20211001,108,learn,74,367.2103,out,18.35,u,YES,FALSE,558
20211001,108,learn,75,214.9099,out,7.37,u,YES,FALSE,644
20211001,108,learn,76,356.0948,in,17.72,i,NO,FALSE,1860
20211001,108,learn,77,305.9616,in,14.61,u,YES,TRUE,666
20211001,108,learn,78,303.4343,in,14.44,u,YES,TRUE,1314
20211001,108,learn,79,316.4372,in,15.3,u,YES,TRUE,412
20211001,108,learn,80,289.5496,in,13.48,u,YES,TRUE,476
20211001,108,learn,81,160.4473,out,1.38,i,NO,TRUE,972
20211001,108,learn,82,318.7615,out,15.45,u,YES,FALSE,1534
20211001,108,learn,83,179.6767,out,3.7,u,YES,FALSE,546
20211001,108,learn,84,242.5526,in,9.85,u,YES,TRUE,420
20211001,108,learn,85,188.2927,out,4.66,u,YES,FALSE,988
20211001,108,learn,86,260.5878,in,11.32,u,YES,TRUE,700
20211001,108,learn,87,219.1453,in,7.77,u,YES,TRUE,1130
20211001,108,learn,88,351.4346,in,17.45,i,NO,FALSE,830
20211001,108,learn,89,246.0089,in,10.14,u,YES,TRUE,728
20211001,108,learn,90,378.8576,out,18.99,i,NO,TRUE,1068
20211001,108,learn,91,198.8682,in,5.78,u,YES,TRUE,1012
20211001,108,learn,92,273.0837,out,12.28,u,YES,FALSE,1130
20211001,108,learn,93,183.2177,out,4.1,u,YES,FALSE,404
20211001,108,learn,94,288.4217,in,13.4,u,YES,TRUE,584
20211001,108,learn,95,235.3252,out,9.23,u,YES,FALSE,1442
20211001,108,learn,96,391.0651,out,19.64,u,YES,FALSE,636
20211001,108,learn,97,319.8521,in,15.52,u,YES,TRUE,830
20211001,108,learn,98,287.8593,in,13.36,u,YES,TRUE,730
20211001,108,learn,99,196.2656,in,5.51,u,YES,TRUE,508
20211001,108,learn,100,205.4765,in,6.45,i,NO,FALSE,698
20211001,108,learn,101,179.0641,in,3.63,i,NO,FALSE,514
20211001,108,learn,102,189.3983,in,4.78,u,YES,TRUE,588
20211001,108,learn,103,215.1197,in,7.39,u,YES,TRUE,658
20211001,108,learn,104,259.5727,in,11.24,u,YES,TRUE,906
20211001,108,learn,105,204.3767,out,6.34,u,YES,FALSE,1426
20211001,108,learn,106,242.9078,in,9.88,u,YES,TRUE,570
20211001,108,learn,107,290.1153,in,13.52,u,YES,TRUE,528
20211001,108,learn,108,381.2683,out,19.12,i,NO,TRUE,1258
20211001,108,learn,109,213.0308,in,7.19,u,YES,TRUE,692
20211001,108,learn,110,354.5346,in,17.63,u,YES,TRUE,858
20211001,108,learn,111,241.019,in,9.72,u,YES,TRUE,668
20211001,108,learn,112,261.6069,in,11.4,u,YES,TRUE,836
20211001,108,learn,113,425.0919,out,21.35,i,NO,TRUE,756
20211001,108,learn,114,173.1362,out,2.94,u,YES,FALSE,638
20211001,108,learn,115,204.8759,out,6.39,i,NO,TRUE,612
20211001,108,learn,116,226.0962,in,8.41,i,NO,FALSE,586
20211001,108,learn,117,272.5513,out,12.24,u,YES,FALSE,554
20211001,108,learn,118,259.6994,in,11.25,u,YES,TRUE,500
20211001,108,learn,119,177.9319,out,3.5,u,YES,FALSE,1258
20211001,108,learn,120,297.2797,in,14.02,u,YES,TRUE,462
20211001,108,learn,121,215.6451,out,7.44,u,YES,FALSE,796
20211001,108,learn,122,395.4783,out,19.87,i,NO,TRUE,1610
20211001,108,learn,123,206.4815,out,6.55,u,YES,FALSE,1212
20211001,108,learn,124,242.6709,in,9.86,u,YES,TRUE,986
20211001,108,learn,125,233.9515,in,9.11,u,YES,TRUE,492
20211001,108,learn,126,235.0957,in,9.21,u,YES,TRUE,1268
20211001,108,learn,127,346.6662,in,17.17,i,NO,FALSE,852
20211001,108,learn,128,352.1211,out,17.49,u,YES,FALSE,556
20211001,108,learn,129,441.7966,out,22.14,i,NO,TRUE,3964
20211001,108,learn,130,286.1789,in,13.24,u,YES,TRUE,732
20211001,108,learn,131,270.9602,in,12.12,u,YES,TRUE,736
20211001,108,learn,132,380.8964,out,19.1,i,NO,TRUE,764
20211001,108,learn,133,214.2817,out,7.31,u,YES,FALSE,796
20211001,108,learn,134,259.5727,in,11.24,u,YES,TRUE,444
20211001,108,learn,135,256.4258,out,10.99,u,YES,FALSE,532
20211001,108,learn,136,264.3011,in,11.61,u,YES,TRUE,388
20211001,108,learn,137,157.5,out,1,i,NO,TRUE,660
20211001,108,learn,138,294.3929,in,13.82,u,YES,TRUE,700
20211001,108,learn,139,255.801,out,10.94,u,YES,FALSE,428
20211001,108,learn,140,242.9078,in,9.88,u,YES,TRUE,1238
20211001,108,learn,141,271.7546,in,12.18,u,YES,TRUE,580
20211001,108,learn,142,274.8213,out,12.41,u,YES,FALSE,556
20211001,108,learn,143,356.0948,in,17.72,i,NO,FALSE,930
20211001,108,learn,144,302.5474,in,14.38,u,YES,TRUE,612
20211001,108,learn,145,275.2239,in,12.44,u,YES,TRUE,604
20211001,108,learn,146,327.7509,in,16.02,u,YES,TRUE,574
20211001,108,learn,147,292.6743,out,13.7,u,YES,FALSE,572
20211001,108,learn,148,278.7375,in,12.7,u,YES,TRUE,756
20211001,108,learn,149,170.5372,in,2.63,u,YES,TRUE,820
20211001,108,learn,150,157.3464,out,0.98,u,YES,FALSE,906
20211001,108,learn,151,261.0969,out,11.36,i,NO,TRUE,972
20211001,108,learn,152,158.6569,out,1.15,i,NO,TRUE,708
20211001,108,learn,153,211.2711,out,7.02,u,YES,FALSE,764
20211001,108,learn,154,302.3998,out,14.37,u,YES,FALSE,686
20211001,108,learn,155,286.8779,in,13.29,u,YES,TRUE,1212
20211001,108,learn,156,232.019,in,8.94,u,YES,TRUE,772
20211001,108,learn,157,217.0172,out,7.57,u,YES,FALSE,630
20211001,108,learn,158,292.2463,in,13.67,i,NO,FALSE,522
20211001,108,learn,159,284.5082,out,13.12,u,YES,FALSE,436
20211001,108,learn,160,268.8532,in,11.96,u,YES,TRUE,350
20211001,108,learn,161,304.621,out,14.52,u,YES,FALSE,540
20211001,108,learn,162,269.773,in,12.03,i,NO,FALSE,356
20211001,108,learn,163,274.6873,out,12.4,u,YES,FALSE,516
20211001,108,learn,164,226.3169,out,8.43,i,NO,TRUE,406
20211001,108,learn,165,249.3927,out,10.42,u,YES,FALSE,364
20211001,108,learn,166,262.5019,in,11.47,u,YES,TRUE,834
20211001,108,learn,167,302.2523,out,14.36,u,YES,FALSE,1340
20211001,108,learn,168,185.4662,out,4.35,u,YES,FALSE,380
20211001,108,learn,169,238.6785,out,9.52,u,YES,FALSE,378
20211001,108,learn,170,212.3044,in,7.12,u,YES,TRUE,412
20211001,108,learn,171,233.8373,in,9.1,u,YES,TRUE,1876
20211001,108,learn,172,162.972,out,1.7,u,YES,FALSE,386
20211001,108,learn,173,160.7608,out,1.42,i,NO,TRUE,568
20211001,108,learn,174,367.7482,out,18.38,i,NO,TRUE,1210
20211001,108,learn,175,427.3794,out,21.46,u,YES,FALSE,2366
20211001,108,learn,176,301.663,in,14.32,u,YES,TRUE,1204
20211001,108,learn,177,340.7966,out,16.82,u,YES,FALSE,602
20211001,108,learn,178,155.8185,out,0.78,u,YES,FALSE,522
20211001,108,learn,179,225.3253,in,8.34,i,NO,FALSE,644
20211001,108,learn,180,324.5682,in,15.82,u,YES,TRUE,754
20211001,108,learn,181,237.6328,in,9.43,u,YES,TRUE,452
20211001,108,learn,182,258.8139,in,11.18,u,YES,TRUE,474
20211001,108,learn,183,160.2908,out,1.36,i,NO,TRUE,986
20211001,108,learn,184,186.2824,in,4.44,i,NO,FALSE,1756
20211001,108,learn,185,319.0728,in,15.47,u,YES,TRUE,1010
20211001,108,learn,186,338.1466,out,16.66,u,YES,FALSE,780
20211001,108,learn,187,235.555,in,9.25,u,YES,TRUE,4972
20211001,108,learn,188,235.4401,in,9.24,u,YES,TRUE,596
20211001,108,learn,189,172.2094,out,2.83,i,NO,TRUE,772
20211001,108,learn,190,316.5916,out,15.31,u,YES,FALSE,674
20211001,108,learn,191,314.8971,in,15.2,u,YES,TRUE,1426
20211001,108,learn,192,304.3239,in,14.5,u,YES,TRUE,540
20211001,108,learn,193,243.7389,in,9.95,u,YES,TRUE,978
20211001,108,learn,194,254.3077,in,10.82,u,YES,TRUE,1164
20211001,108,learn,195,282.5715,out,12.98,u,YES,FALSE,788
20211001,108,learn,196,189.1213,out,4.75,u,YES,FALSE,1468
20211001,108,learn,197,196.3614,in,5.52,u,YES,TRUE,588
20211001,108,learn,198,370.2688,out,18.52,i,NO,TRUE,2532
20211001,108,learn,199,309.2634,out,14.83,u,YES,FALSE,2322
20211001,108,learn,200,306.8586,in,14.67,u,YES,TRUE,14564
20211001,109,learn,1,157.3464,out,0.98,u,YES,FALSE,3148
