participant,exp_condition,trial_n,dens,jnds,line_len,distribution,key_resp,rt,resp,correct
1,centered,2,0.195323485433459,11.66,265,in,u,1.4754431247711182,in,1
1,centered,3,0.0444444444444444,10.99,256,out,u,1.1002697944641113,in,0
1,centered,4,0.0444444444444444,16.99,344,out,i,1.2783005237579346,out,1
1,centered,5,0.0444444444444444,5.18,193,out,i,1.3134570121765137,out,1
1,centered,6,0.1982679867008721,11.47,263,in,u,0.7634556293487549,in,1
1,centered,7,0.0444444444444444,11.17,259,out,u,1.4236774444580078,in,0
1,centered,8,0.0444444444444444,1.6,162,out,i,2.117706537246704,out,1
1,centered,9,0.1419332793954191,9.6,240,in,u,1.4903030395507812,in,1
1,centered,10,0.1185659782091833,13.29,287,in,i,0.9493355751037598,out,0
1,centered,11,0.0444444444444444,0.05,150,out,i,1.5326390266418457,out,1
1,centered,12,0.0444444444444444,0.01,150,out,i,1.3405818939208984,out,1
1,centered,13,0.1889003417696843,11.91,268,in,u,1.347475528717041,in,1
1,centered,14,0.0856842976134157,13.85,295,in,u,1.5266814231872559,in,1
1,centered,15,0.0444444444444444,9.32,236,out,u,1.2475483417510986,in,0
1,centered,16,0.0193534284327493,15.57,321,in,i,1.5024967193603516,out,0
1,centered,17,0.0801916651585791,8.55,228,in,u,1.759636402130127,in,1
1,centered,18,0.1454245046791477,9.66,240,in,u,0.703181266784668,in,1
1,centered,19,0.1737916353701474,12.3,273,in,u,1.0571320056915283,in,1
1,centered,20,0.0444444444444444,13.12,285,out,i,1.1824908256530762,out,1
1,centered,21,0.1709988931660095,12.36,274,in,u,1.4331650733947754,in,1
1,centered,22,0.1994487046596073,11.28,260,in,u,0.768439531326294,in,1
1,centered,23,0.0444444444444444,18.63,372,out,i,0.9808614253997803,out,1
1,centered,24,0.1053427778222002,8.99,233,in,u,1.0235381126403809,in,1
1,centered,25,0.0092116554943145,16.21,331,in,i,1.248319149017334,out,0
1,centered,26,0.0435172357505136,7.76,219,in,u,1.8292081356048584,in,1
1,centered,27,0.1967742403987658,11.58,264,in,u,0.9127264022827148,in,1
1,centered,28,0.1992219607431082,11.15,258,in,u,1.3569283485412598,in,1
1,centered,29,0.0444444444444444,5.72,198,out,u,1.3453865051269531,in,0
1,centered,30,0.0444444444444444,19.72,393,out,i,1.5518372058868408,out,1
1,centered,31,0.0444444444444444,12.67,278,out,u,1.334749460220337,in,0
1,centered,32,0.1960867343947061,11.62,264,in,u,1.94340181350708,in,1
1,centered,33,0.0444444444444444,0.15,151,out,i,1.1167407035827637,out,1
1,centered,34,0.186274163129501,10.51,250,in,u,0.9983892440795898,in,1
1,centered,35,0.0840201863588419,13.88,295,in,u,1.66078519821167,in,1
1,centered,36,0.0444444444444444,13.64,292,out,i,0.9738843441009521,out,1
1,centered,37,0.1197755510859387,9.23,235,in,u,1.0534136295318604,in,1
1,centered,38,0.0829184076362549,8.6,228,in,u,1.445643663406372,in,1
1,centered,39,0.075388676430454,8.46,227,in,u,0.832979679107666,in,1
1,centered,40,0.0444444444444444,5.63,197,out,u,2.0961949825286865,in,0
1,centered,41,0.1837648743698491,10.44,250,in,u,1.1363999843597412,in,1
1,centered,42,0.0444444444444444,14.38,303,out,u,2.0878679752349854,in,0
1,centered,43,0.0444444444444444,6.18,203,out,i,3.743281126022339,out,1
1,centered,44,0.0444444444444444,3.28,176,out,i,1.4106857776641846,out,1
1,centered,45,0.1276327607655081,9.36,237,in,u,1.3720166683197021,in,1
1,centered,46,0.0444444444444444,8.91,232,out,u,1.1567392349243164,in,0
1,centered,47,0.0444444444444444,4.44,186,out,i,7.514261484146118,out,1
1,centered,48,0.1876201769389729,11.95,269,in,u,1.3538243770599365,in,1
1,centered,49,0.1651009464949659,12.48,276,in,u,0.97637939453125,in,1
1,centered,50,0.1300419490973797,13.1,284,in,u,1.3022398948669434,in,1
1,centered,51,0.1270295305910936,9.35,237,in,i,0.8646728992462158,out,0
1,centered,52,0.0444444444444444,9.63,240,out,u,1.364539384841919,in,0
1,centered,53,0.1928416881732751,10.73,253,in,i,1.4333832263946533,out,0
1,centered,54,0.0444444444444444,17.74,356,out,u,2.3960931301116943,in,0
1,centered,55,0.1786126659263078,12.19,272,in,u,1.2650179862976074,in,1
1,centered,56,0.0444444444444444,3.02,174,out,i,1.1154162883758545,out,1
1,centered,57,0.0444444444444444,19.71,392,out,i,1.245396614074707,out,1
1,centered,58,0.0444444444444444,7.3,214,out,u,0.9949407577514648,in,0
1,centered,59,0.0444444444444444,12.64,278,out,u,4.390835523605347,in,0
1,centered,60,0.1413472436493942,12.91,282,in,i,1.3380589485168457,out,0
1,centered,61,0.0444444444444444,2.68,171,out,i,3.3401315212249756,out,1
1,centered,62,0.0444444444444444,17.77,357,out,i,1.1791374683380127,out,1
1,centered,63,0.0444444444444444,0.16,151,out,i,0.9205105304718018,out,1
1,centered,64,0.0444444444444444,4.81,190,out,u,1.288928508758545,in,0
1,centered,65,0.0033877198476266,5.54,197,in,u,1.6891157627105713,in,1
1,centered,66,0.0444444444444444,14.34,302,out,u,1.7719664573669434,in,0
1,centered,67,0.1942642962616755,10.79,254,in,u,1.2660307884216309,in,1
1,centered,68,0.0444444444444444,11.62,264,out,i,0.9253504276275635,out,1
1,centered,69,0.0444444444444444,8.55,228,out,u,1.061370611190796,in,0
1,centered,70,0.0444444444444444,22.44,448,out,i,1.0727958679199219,out,1
1,centered,71,0.0444444444444444,2.09,166,out,i,1.2503407001495361,out,1
1,centered,72,0.0444444444444444,15.72,323,out,u,1.1436362266540527,in,0
1,centered,73,0.0444444444444444,21.83,435,out,i,0.9656720161437988,out,1
1,centered,74,0.1630500295989565,12.52,276,in,u,3.9803807735443115,in,1
1,centered,75,0.1972396691128976,10.95,256,in,u,0.9641835689544678,in,1
1,centered,76,0.0444444444444444,9.71,241,out,u,0.9249787330627441,in,0
1,centered,77,0.0444444444444444,0.54,154,out,i,4.424157619476318,out,1
1,centered,78,0.0444444444444444,9.5,238,out,u,2.364797830581665,in,0
1,centered,79,0.0444444444444444,18.73,374,out,i,2.890178680419922,out,1
1,centered,80,0.0377262856564977,7.6,217,in,u,1.5791420936584473,in,1
1,centered,81,0.0444444444444444,22.17,442,out,i,1.3460395336151123,out,1
1,centered,82,0.0444444444444444,18.43,369,out,u,1.0995125770568848,in,0
1,centered,83,0.1975258740815681,11.53,263,in,u,1.0178229808807373,in,1
1,centered,84,0.0444444444444444,1.82,164,out,u,1.696202039718628,in,0
1,centered,85,0.0444444444444444,17.94,360,out,i,1.5365617275238037,out,1
1,centered,86,0.0444444444444444,22.26,444,out,i,0.8462255001068115,out,1
1,centered,87,0.1987518543926337,11.08,258,in,u,0.8924002647399902,in,1
1,centered,88,0.1918031496348406,11.81,267,in,u,2.9247405529022217,in,1
1,centered,89,0.0444444444444444,3.13,175,out,u,3.1162173748016357,in,0
1,centered,90,0.0444444444444444,10.46,250,out,u,0.6876463890075684,in,0
1,centered,91,0.1967742403987658,11.58,264,in,u,0.9336786270141602,in,1
1,centered,92,0.0444444444444444,15.75,323,out,u,0.9504473209381104,in,0
1,centered,93,0.0791123966527895,13.97,297,in,u,7.089049816131592,in,1
1,centered,94,0.0444444444444444,15.36,317,out,u,1.1200273036956787,in,0
1,centered,95,0.0444444444444444,22.39,447,out,i,1.1627001762390137,out,1
1,centered,96,0.0947715808039085,8.81,231,in,u,1.0980329513549805,in,1
1,centered,97,0.1994312536614418,11.29,260,in,i,0.6941211223602295,out,0
1,centered,98,0.0444444444444444,8.6,228,out,u,1.9416723251342773,in,0
1,centered,99,0.0930425656652823,13.72,293,in,u,2.075723886489868,in,1
1,centered,100,0.0444444444444444,20.61,410,out,i,0.9038674831390381,out,1
1,centered,101,0.0444444444444444,3.51,178,out,i,2.1121938228607178,out,1
1,centered,102,0.1786126659263078,10.31,248,in,u,1.1959550380706787,in,1
1,centered,103,0.0444444444444444,16.41,334,out,u,6.037235260009766,in,0
1,centered,104,0.0148272926987287,6.69,208,in,u,1.1829230785369873,in,1
1,centered,105,0.0959300791363791,13.67,292,in,i,2.6622138023376465,out,0
1,centered,106,0.179856099469186,10.34,248,in,u,1.1253716945648193,in,1
1,centered,107,0.0444444444444444,14.09,298,out,u,1.4493021965026855,in,0
1,centered,108,0.1957145233118584,10.86,255,in,u,1.1647162437438965,in,1
1,centered,109,0.0444444444444444,2.25,167,out,i,1.5292737483978271,out,1
1,centered,110,0.144265749841086,12.86,281,in,i,1.120786428451538,out,0
1,centered,112,0.0444444444444444,10.14,246,out,u,1.1219921112060547,in,0
1,centered,113,0.1270295305910936,13.15,285,in,u,9.263707160949707,in,1
1,centered,114,0.1246138285532189,9.31,236,in,u,4.063089370727539,in,1
1,centered,115,0.0444444444444444,12.3,273,out,u,1.9371883869171143,in,0
1,centered,116,0.0444444444444444,18.54,371,out,i,1.048182487487793,out,1
1,centered,117,0.0444444444444444,17.14,346,out,i,0.8487491607666016,out,1
1,centered,118,0.0444444444444444,7.84,220,out,u,4.022618293762207,in,0
1,centered,119,0.1859275503839888,12,269,in,u,1.657916784286499,in,1
1,centered,120,0.1935734609872151,11.74,266,in,u,6.046648740768433,in,1
1,centered,121,0.0444444444444444,3.92,182,out,i,3.217329740524292,out,1
1,centered,122,0.0994315615381727,8.89,231,in,i,2.15525484085083,out,0
1,centered,123,0.0444444444444444,1.89,164,out,i,1.4566617012023926,out,1
1,centered,124,0.1101253853844304,9.07,233,in,u,1.5076947212219238,in,1
1,centered,125,0.030976212888686,15.11,314,in,i,4.381218433380127,out,0
1,centered,126,0.1077290828835702,13.47,289,in,u,2.336090087890625,in,1
1,centered,127,0.1471525176239591,9.69,241,in,u,2.441951036453247,in,1
1,centered,128,0.1892099194769046,11.9,268,in,u,2.037000894546509,in,1
1,centered,129,0.1620098415617483,9.96,244,in,u,2.3365092277526855,in,1
1,centered,130,0.0444444444444444,17.61,354,out,i,0.923220157623291,out,1
1,centered,131,0.1826313396990339,10.41,249,in,u,1.007519245147705,in,1
1,centered,132,0.1348357112665927,13.02,283,in,u,1.6215457916259766,in,1
1,centered,133,0.1488675647864968,9.72,241,in,u,1.6919214725494385,in,1
1,centered,134,0.1751459425439598,12.27,273,in,i,1.151097059249878,out,0
1,centered,135,0.0444444444444444,21.15,421,out,i,0.7069582939147949,out,1
1,centered,136,0.0444444444444444,21.94,438,out,i,0.9132845401763916,out,1
1,centered,137,0.1955213506148049,10.85,255,in,u,2.596365451812744,in,1
1,centered,138,0.0444444444444444,14.57,305,out,i,1.0645432472229004,out,1
1,centered,139,0.0444444444444444,8.55,228,out,u,1.2687900066375732,in,0
1,centered,140,0.1306431530483112,13.09,284,in,u,2.2865991592407227,in,1
1,centered,141,0.194038595231413,11.72,266,in,u,1.3215274810791016,in,1
1,centered,142,0.1620098415617483,9.96,244,in,u,1.155815601348877,in,1
1,centered,143,0.1959029892252172,11.63,265,in,u,1.440671682357788,in,1
1,centered,144,0.0444444444444444,17.48,352,out,i,0.8982124328613281,out,1
1,centered,145,0.0444444444444444,16.02,328,out,i,0.8772358894348145,out,1
1,centered,146,0.0444444444444444,16.16,330,out,i,0.7599189281463623,out,1
1,centered,147,0.0444444444444444,20.1,400,out,i,0.8571665287017822,out,1
1,centered,148,0.0444444444444444,6.5,206,out,i,0.8129880428314209,out,1
1,centered,149,0.1209853645039466,13.25,286,in,u,1.412395715713501,in,1
1,centered,150,0.0444444444444444,5.72,198,out,i,2.4743432998657227,out,1
1,centered,151,0.1909777795354792,11.84,267,in,u,0.8311054706573486,in,1
1,centered,152,0.0444444444444444,18.13,363,out,i,1.8954060077667236,out,1
1,centered,153,0.0444444444444444,14.38,303,out,i,0.8793010711669922,out,1
1,centered,154,0.0444444444444444,13.32,287,out,i,1.0657963752746582,out,1
1,centered,155,0.0387689467142619,14.87,310,in,i,0.9147248268127441,out,0
1,centered,156,0.0444444444444444,11.28,260,out,u,2.587613582611084,in,0
1,centered,157,0.0444444444444444,20.02,398,out,i,1.7125909328460693,out,1
1,centered,158,0.1407601085703317,12.92,282,in,u,1.2655613422393799,in,1
1,centered,159,0.0444444444444444,7.79,219,out,i,1.5881612300872803,out,1
1,centered,160,0.1550301452926409,9.83,242,in,i,0.7934174537658691,out,0
1,centered,161,0.0444444444444444,5.09,192,out,i,1.3498060703277588,out,1
1,centered,162,0.0036890061427574,16.9,342,in,i,3.3909618854522705,out,0
1,centered,163,0.1318440235027208,9.43,238,in,i,1.8813555240631104,out,0
1,centered,164,0.0444444444444444,3.0700000000000003,174,out,i,0.9939892292022705,out,1
1,centered,165,0.0614090417306493,8.18,224,in,i,3.881821632385254,out,0
1,centered,166,0.1431019171530081,12.88,281,in,u,1.7603046894073486,in,1
1,centered,167,0.0444444444444444,3.48,178,out,i,0.9813487529754639,out,1
1,centered,168,0.0357002283016132,7.54,217,in,u,2.628706455230713,in,1
1,centered,169,0.1577571907791234,9.88,243,in,i,1.129549264907837,out,0
1,centered,170,0.0444444444444444,7.65,218,out,u,1.3284647464752197,in,0
1,centered,171,0.0444444444444444,10.73,253,out,u,0.97063446044921875,in,0
1,centered,172,0.0444444444444444,20.62,410,out,i,0.7888095378875732,out,1
1,centered,173,0.1252181083722413,13.18,285,in,u,1.564087152481079,in,1
1,centered,174,0.1981564923190876,11.02,257,in,i,1.1944069862365723,out,0
1,centered,175,0.0444444444444444,5.42,195,out,i,1.1043245792388916,out,1
1,centered,176,0.0444444444444444,20.54,409,out,i,0.8224987983703613,out,1
1,centered,177,0.194038595231413,10.78,254,in,u,2.0382161140441895,in,1
1,centered,178,0.1685899750386687,10.09,245,in,u,0.858590841293335,in,1
1,centered,179,0.0444444444444444,11.66,265,out,i,1.5205621719360352,out,1
1,centered,180,0.0444444444444444,6.96,211,out,i,3.9424352645874023,out,1
1,centered,181,0.1947018830287704,10.81,254,in,i,2.7096569538116455,out,0
1,centered,182,0.0444444444444444,3.67,179,out,i,0.9965741634368896,out,1
1,centered,183,0.1882685844091594,10.57,251,in,i,2.270517349243164,out,0
1,centered,184,0.0444444444444444,5.58,197,out,i,1.1134068965911865,out,1
1,centered,185,0.1240093646058412,13.2,286,in,u,1.3661231994628906,in,1
1,centered,186,0.0444444444444444,15.43,318,out,u,1.4078190326690674,in,0
1,centered,189,0.0444444444444444,11.49,263,out,u,1.8562803268432617,in,0
1,centered,190,0.0199884995120851,6.96,211,in,i,7.74107027053833,out,0
1,centered,191,0.0398314612530768,14.84,309,in,i,1.7919273376464844,out,0
1,centered,192,0.1990502058818987,11.38,261,in,u,2.8987393379211426,in,1
1,centered,193,0.1425181818883295,9.61,240,in,u,1.5483529567718506,in,1
1,centered,194,0.0444444444444444,18.45,369,out,i,0.7566092014312744,out,1
1,centered,195,0.1378091261331975,9.53,239,in,u,0.740107536315918,in,1
1,centered,196,0.0672123549308823,14.2,300,in,u,1.6861929893493652,in,1
1,centered,197,0.0444444444444444,7.45,216,out,i,1.482966423034668,out,1
1,centered,198,0.1879464503643602,10.56,251,in,u,1.0706419944763184,in,1
1,centered,199,0.0431386602135123,14.75,308,in,i,4.386407375335693,out,0
1,centered,200,0.0444444444444444,11.34,261,out,u,1.3583149909973145,in,0
2,centered,2,0.0444444444444444,10.14,246,out,u,3.665645122528076,in,0
2,centered,3,0.1972396691128976,10.95,256,in,u,2.1329100131988525,in,1
2,centered,4,0.186274163129501,10.51,250,in,i,0.9538900852203369,out,0
2,centered,5,0.0444444444444444,22.17,442,out,i,1.115147590637207,out,1
2,centered,6,0.0994315615381727,8.89,231,in,u,1.2977843284606934,in,1
2,centered,7,0.1786126659263078,12.19,272,in,i,4.773268461227417,out,0
2,centered,8,0.0791123966527895,13.97,297,in,u,1.3127973079681396,in,1
2,centered,9,0.0444444444444444,22.26,444,out,i,0.8339786529541016,out,1
2,centered,10,0.0444444444444444,16.99,344,out,u,1.3991682529449463,in,0
2,centered,11,0.0444444444444444,20.02,398,out,i,1.4894006252288818,out,1
2,centered,12,0.1270295305910936,13.15,285,in,u,1.4463167190551758,in,1
2,centered,13,0.0444444444444444,17.61,354,out,i,1.3193366527557373,out,1
2,centered,14,0.1925887494848725,10.72,253,in,i,2.978868007659912,out,0
2,centered,15,0.0444444444444444,8.91,232,out,u,0.6770570278167725,in,0
2,centered,16,0.0829184076362549,8.6,228,in,i,0.9831099510192871,out,0
2,centered,17,0.0444444444444444,5.42,195,out,u,0.821491003036499,in,0
2,centered,18,0.0444444444444444,15.72,323,out,i,0.894167423248291,out,1
2,centered,19,0.1935734609872151,11.74,266,in,i,1.0348889827728271,out,0
2,centered,20,0.1270295305910936,9.35,237,in,i,0.696012020111084,out,0
2,centered,21,0.0444444444444444,12.3,273,out,u,1.1752538681030273,in,0
2,centered,22,0.1419332793954191,9.6,240,in,i,0.3903672695159912,out,0
2,centered,23,0.1882685844091594,10.57,251,in,u,0.36331892013549805,in,1
2,centered,24,0.0444444444444444,3.28,176,out,i,1.5693540573120117,out,1
2,centered,25,0.0444444444444444,20.61,410,out,i,0.718991756439209,out,1
2,centered,26,0.0444444444444444,6.18,203,out,u,0.8083209991455078,in,0
2,centered,27,0.1889003417696843,11.91,268,in,u,1.046877384185791,in,1
2,centered,28,0.1306431530483112,13.09,284,in,i,0.7834985256195068,out,0
2,centered,29,0.0444444444444444,9.63,240,out,i,0.713939905166626,out,1
2,centered,30,0.0444444444444444,17.14,346,out,i,1.5041680335998535,out,1
2,centered,31,0.0193534284327493,15.57,321,in,i,0.577631950378418,out,0
2,centered,32,0.1975258740815681,11.53,263,in,i,1.57603120803833,out,0
2,centered,33,0.1197755510859387,9.23,235,in,u,0.46801137924194336,in,1
2,centered,34,0.1994487046596073,11.28,260,in,u,1.1599135398864746,in,1
2,centered,35,0.0801916651585791,8.55,228,in,i,1.120175838470459,out,0
2,centered,36,0.0444444444444444,11.17,259,out,u,0.7940759658813477,in,0
2,centered,37,0.0444444444444444,13.12,285,out,i,0.4147651195526123,out,1
2,centered,38,0.0444444444444444,15.43,318,out,i,1.5798938274383545,out,1
2,centered,39,0.0444444444444444,7.65,218,out,u,2.0522067546844482,in,0
2,centered,40,0.195323485433459,11.66,265,in,u,1.0839385986328125,in,1
2,centered,41,0.0444444444444444,15.75,323,out,i,0.710479736328125,out,1
2,centered,42,0.1901131809024136,10.63,252,in,u,1.1908142566680908,in,1
2,centered,43,0.0444444444444444,7.3,214,out,u,4.877777099609375,in,0
2,centered,44,0.0444444444444444,10.46,250,out,i,0.9972126483917236,out,1
2,centered,45,0.1620098415617483,9.96,244,in,i,0.6692545413970947,out,0
2,centered,46,0.1185659782091833,13.29,287,in,i,1.6056938171386719,out,0
2,centered,47,0.0444444444444444,10.99,256,out,u,1.0394487380981445,in,0
2,centered,48,0.0444444444444444,18.13,363,out,i,0.8960840702056885,out,1
2,centered,49,0.0444444444444444,13.64,292,out,i,0.6941325664520264,out,1
2,centered,50,0.0444444444444444,6.96,211,out,u,1.1041154861450195,in,0
2,centered,51,0.0672123549308823,14.2,300,in,i,1.0242788791656494,out,0
2,centered,52,0.1246138285532189,9.31,236,in,u,0.7295567989349365,in,1
2,centered,53,0.1928416881732751,10.73,253,in,i,1.751103162765503,out,0
2,centered,54,0.1786126659263078,10.31,248,in,u,0.6781802177429199,in,1
2,centered,55,0.0444444444444444,17.77,357,out,i,0.6239454746246338,out,1
2,centered,56,0.1252181083722413,13.18,285,in,i,1.3969335556030273,out,0
2,centered,57,0.0444444444444444,5.58,197,out,i,1.2159619331359863,out,1
2,centered,58,0.1413472436493942,12.91,282,in,u,1.0156970024108887,in,1
2,centered,59,0.1471525176239591,9.69,241,in,i,2.13789701461792,out,0
2,centered,60,0.0033877198476266,5.54,197,in,u,0.793792724609375,in,1
2,centered,61,0.1300419490973797,13.1,284,in,i,1.1290290355682373,out,0
2,centered,62,0.0444444444444444,11.66,265,out,u,0.5922584533691406,in,0
2,centered,63,0.0444444444444444,3.0700000000000003,174,out,i,0.2872049808502197,out,1
2,centered,64,0.1892099194769046,11.9,268,in,i,1.3210265636444092,out,0
2,centered,65,0.1577571907791234,9.88,243,in,u,0.6759922504425049,in,1
2,centered,66,0.0444444444444444,3.02,174,out,i,0.8173892498016357,out,1
2,centered,67,0.1942642962616755,10.79,254,in,u,0.4486119747161865,in,1
2,centered,68,0.0444444444444444,19.71,392,out,i,0.772197961807251,out,1
2,centered,69,0.0444444444444444,9.5,238,out,u,0.8123140335083008,in,0
2,centered,70,0.0959300791363791,13.67,292,in,i,0.7023406028747559,out,0
2,centered,71,0.0444444444444444,3.67,179,out,u,0.6558620929718018,in,0
2,centered,72,0.0444444444444444,17.74,356,out,i,0.9064521789550781,out,1
2,centered,73,0.1960867343947061,11.62,264,in,u,0.7304859161376953,in,1
2,centered,74,0.0444444444444444,5.63,197,out,i,0.7563366889953613,out,1
2,centered,75,0.0444444444444444,11.49,263,out,i,1.2298169136047363,out,1
2,centered,76,0.0444444444444444,18.54,371,out,i,0.7675907611846924,out,1
2,centered,77,0.1318440235027208,9.43,238,in,u,0.67826080322265625,in,1
2,centered,78,0.0199884995120851,6.96,211,in,i,3.0751330852508545,out,0
2,centered,79,0.0444444444444444,14.38,303,out,i,0.7489743232727051,out,1
2,centered,80,0.0444444444444444,12.64,278,out,i,0.6851167678833008,out,1
2,centered,81,0.0444444444444444,6.5,206,out,u,0.8440673351287842,in,0
2,centered,82,0.0444444444444444,20.1,400,out,i,0.7771215438842773,out,1
2,centered,83,0.1751459425439598,12.27,273,in,u,0.8394496440887451,in,1
2,centered,84,0.1947018830287704,10.81,254,in,u,0.7861485481262207,in,1
2,centered,85,0.1987518543926337,11.08,258,in,u,1.6338508129119873,in,1
2,centered,86,0.179856099469186,10.34,248,in,u,0.7212746143341064,in,1
2,centered,87,0.0444444444444444,7.45,216,out,i,0.7111668586730957,out,1
2,centered,88,0.1276327607655081,9.36,237,in,u,0.5839524269104004,in,1
2,centered,89,0.0444444444444444,13.32,287,out,i,0.7982621192932129,out,1
2,centered,90,0.0444444444444444,8.6,228,out,u,0.6263828277587891,in,0
2,centered,91,0.0444444444444444,10.73,253,out,i,0.849390983581543,out,1
2,centered,92,0.0444444444444444,20.62,410,out,i,0.5792837142944336,out,1
2,centered,93,0.0444444444444444,11.34,261,out,i,0.6847257614135742,out,1
2,centered,94,0.0444444444444444,1.89,164,out,i,0.9182577133178711,out,1
2,centered,95,0.1425181818883295,9.61,240,in,u,0.6882064342498779,in,1
2,centered,96,0.0930425656652823,13.72,293,in,i,0.6669244766235352,out,0
2,centered,97,0.0092116554943145,16.21,331,in,u,1.3173460960388184,in,1
2,centered,98,0.0444444444444444,21.94,438,out,i,0.6702847480773926,out,1
2,centered,99,0.030976212888686,15.11,314,in,u,2.850886821746826,in,1
2,centered,100,0.0444444444444444,0.15,151,out,i,0.8848202228546143,out,1
2,centered,101,0.1550301452926409,9.83,242,in,i,0.5782608985900879,out,0
2,centered,102,0.0444444444444444,2.25,167,out,i,1.207547664642334,out,1
2,centered,103,0.0444444444444444,9.32,236,out,u,0.618541955947876,in,0
2,centered,104,0.0444444444444444,19.72,393,out,i,0.5264191627502441,out,1
2,centered,105,0.1982679867008721,11.47,263,in,u,0.9335298538208008,in,1
2,centered,106,0.194038595231413,11.72,266,in,u,1.1111750602722168,in,1
2,centered,107,0.0444444444444444,10.18,246,out,u,0.522221565246582,in,0
2,centered,108,0.1826313396990339,10.41,249,in,i,1.1658194065093994,out,0
2,centered,109,0.0444444444444444,4.44,186,out,i,0.9179496765136719,out,1
2,centered,110,0.0840201863588419,13.88,295,in,i,0.6796813011169434,out,0
2,centered,111,0.0148272926987287,6.69,208,in,u,0.36953186988830566,in,1
2,centered,112,0.144265749841086,12.86,281,in,i,1.0022547245025635,out,0
2,centered,113,0.1488675647864968,9.72,241,in,u,0.9274272918701172,in,1
2,centered,114,0.0444444444444444,5.09,192,out,i,1.9261093139648438,out,1
2,centered,115,0.1454245046791477,9.66,240,in,u,0.777787446975708,in,1
2,centered,116,0.0444444444444444,7.84,220,out,u,0.6356816291809082,in,0
2,centered,117,0.0444444444444444,8.55,228,out,i,1.0567357540130615,out,1
2,centered,118,0.1955213506148049,10.85,255,in,u,0.9241018295288086,in,1
2,centered,119,0.0444444444444444,14.09,298,out,i,2.0597646236419678,out,1
2,centered,120,0.0444444444444444,0.05,150,out,i,1.9506185054779053,out,1
2,centered,121,0.1737916353701474,12.3,273,in,u,2.031381845474243,in,1
2,centered,122,0.1967742403987658,11.58,264,in,u,0.7223773002624512,in,1
2,centered,123,0.1407601085703317,12.92,282,in,i,0.7676827907562256,out,0
2,centered,124,0.1053427778222002,8.99,233,in,u,1.1209287643432617,in,1
2,centered,125,0.0444444444444444,0.01,150,out,i,0.7460107803344727,out,1
2,centered,126,0.194038595231413,10.78,254,in,u,1.3301081657409668,in,1
2,centered,127,0.0036890061427574,16.9,342,in,i,0.7235329151153564,out,0
2,centered,128,0.0444444444444444,5.18,193,out,i,1.1719274520874023,out,1
2,centered,129,0.0444444444444444,14.57,305,out,u,0.8802855014801025,in,0
2,centered,130,0.1620098415617483,9.96,244,in,u,0.8591344356536865,in,1
2,centered,131,0.0444444444444444,18.45,369,out,i,1.3513660430908203,out,1
2,centered,132,0.0444444444444444,0.16,151,out,i,1.237746238708496,out,1
2,centered,133,0.0444444444444444,21.15,421,out,i,1.258540391921997,out,1
2,centered,134,0.0431386602135123,14.75,308,in,i,0.5032343864440918,out,0
2,centered,135,0.1101253853844304,9.07,233,in,u,1.0136082172393799,in,1
2,centered,136,0.0398314612530768,14.84,309,in,i,0.9468650817871094,out,0
2,centered,137,0.0444444444444444,18.73,374,out,i,1.0765597820281982,out,1
2,centered,138,0.0444444444444444,18.63,372,out,i,0.62046051025390625,out,1
2,centered,139,0.075388676430454,8.46,227,in,u,0.6425848007202148,in,1
2,centered,140,0.1909777795354792,11.84,267,in,u,0.7658624649047852,in,1
2,centered,141,0.1959029892252172,11.63,265,in,u,0.5286781787872314,in,1
2,centered,142,0.0444444444444444,8.55,228,out,i,0.44523048400878906,out,1
2,centered,143,0.1957145233118584,10.86,255,in,u,0.5996665954589844,in,1
2,centered,144,0.0444444444444444,16.16,330,out,i,0.7839038372039795,out,1
2,centered,145,0.0444444444444444,3.92,182,out,i,1.293722152709961,out,1
2,centered,146,0.0444444444444444,17.94,360,out,i,0.799422025680542,out,1
2,centered,147,0.1685899750386687,10.09,245,in,u,0.9351551532745361,in,1
2,centered,148,0.1378091261331975,9.53,239,in,u,0.781343936920166,in,1
2,centered,149,0.0947715808039085,8.81,231,in,i,0.7014915943145752,out,0
2,centered,150,0.0856842976134157,13.85,295,in,i,1.5411853790283203,out,0
2,centered,151,0.0444444444444444,5.72,198,out,u,0.6330537796020508,in,0
2,centered,152,0.0444444444444444,11.28,260,out,u,0.8340258598327637,in,0
2,centered,153,0.0444444444444444,4.81,190,out,i,0.8054721355438232,out,1
2,centered,154,0.0444444444444444,1.6,162,out,i,0.66082000732421875,out,1
2,centered,155,0.0444444444444444,7.79,219,out,u,0.6874921321868896,in,0
2,centered,156,0.1630500295989565,12.52,276,in,i,0.36797142028808594,out,0
2,centered,157,0.0444444444444444,3.48,178,out,u,1.1021456718444824,in,0
2,centered,158,0.1876201769389729,11.95,269,in,i,0.8842558860778809,out,0
2,centered,159,0.0444444444444444,5.72,198,out,u,0.40457725524902344,in,0
2,centered,160,0.0444444444444444,14.38,303,out,i,1.9754998683929443,out,1
2,centered,161,0.1992219607431082,11.15,258,in,i,2.9564433097839355,out,0
2,centered,162,0.0614090417306493,8.18,224,in,u,0.41988182067871094,in,1
2,centered,163,0.0444444444444444,17.48,352,out,i,0.7447638511657715,out,1
2,centered,164,0.0387689467142619,14.87,310,in,i,0.7047755718231201,out,0
2,centered,165,0.0444444444444444,15.36,317,out,i,0.7535567283630371,out,1
2,centered,166,0.1651009464949659,12.48,276,in,u,0.70890045166015625,in,1
2,centered,167,0.0444444444444444,2.09,166,out,i,1.5714192390441895,out,1
2,centered,168,0.1431019171530081,12.88,281,in,u,0.5620162487030029,in,1
2,centered,169,0.1994312536614418,11.29,260,in,i,0.37826013565063477,out,0
2,centered,170,0.0444444444444444,20.54,409,out,i,0.8967652320861816,out,1
2,centered,171,0.1077290828835702,13.47,289,in,i,1.3124704360961914,out,0
2,centered,172,0.0444444444444444,9.71,241,out,u,0.6026611328125,in,0
2,centered,173,0.1981564923190876,11.02,257,in,i,0.6579380035400391,out,0
2,centered,174,0.0444444444444444,2.68,171,out,u,0.1536238193511963,in,0
2,centered,175,0.0444444444444444,21.83,435,out,i,0.7193238735198975,out,1
2,centered,176,0.0444444444444444,16.41,334,out,u,0.8756453990936279,in,0
2,centered,177,0.1191707196299526,9.22,235,in,u,1.0679798126220703,in,1
2,centered,178,0.0444444444444444,1.82,164,out,i,1.035975694656372,out,1
2,centered,179,0.0444444444444444,18.43,369,out,i,1.2957918643951416,out,1
2,centered,180,0.0444444444444444,11.62,264,out,u,0.7295670509338379,in,0
2,centered,181,0.0435172357505136,7.76,219,in,i,0.6829385757446289,out,0
2,centered,182,0.1709988931660095,12.36,274,in,u,0.9169132709503174,in,1
2,centered,183,0.0444444444444444,22.44,448,out,i,0.7338619232177734,out,1
2,centered,184,0.1990502058818987,11.38,261,in,u,1.0067684650421143,in,1
2,centered,185,0.0444444444444444,12.67,278,out,u,1.0813910961151123,in,0
2,centered,186,0.1967742403987658,11.58,264,in,i,0.8680102825164795,out,0
2,centered,187,0.0444444444444444,3.13,175,out,i,5.397602796554565,out,1
2,centered,188,0.1918031496348406,11.81,267,in,u,2.3877151012420654,in,1
2,centered,189,0.0444444444444444,0.54,154,out,i,1.5201318264007568,out,1
2,centered,190,0.0377262856564977,7.6,217,in,u,1.5284216403961182,in,1
2,centered,191,0.0444444444444444,22.39,447,out,i,0.8471245765686035,out,1
2,centered,192,0.0357002283016132,7.54,217,in,u,0.8205146789550781,in,1
2,centered,193,0.0444444444444444,16.02,328,out,u,1.1052324771881104,in,0
2,centered,194,0.0444444444444444,3.51,178,out,i,0.9802148342132568,out,1
2,centered,195,0.1837648743698491,10.44,250,in,u,4.703627347946167,in,1
2,centered,196,0.0444444444444444,14.34,302,out,u,2.800377368927002,in,0
2,centered,197,0.1859275503839888,12,269,in,u,0.8213770389556885,in,1
2,centered,198,0.1879464503643602,10.56,251,in,u,0.7546427249908447,in,1
2,centered,199,0.1348357112665927,13.02,283,in,i,0.5294780731201172,out,0
2,centered,200,0.1240093646058412,13.2,286,in,i,0.7137923240661621,out,0
3,right,1,0.1879630660618289,14.31,302,in,u,4.853123664855957,in,1
3,right,2,0.1209960604027563,17,344,in,i,1.031677007675171,out,0
3,right,3,0.0444444444444444,10.18,246,out,i,1.1230933666229248,out,1
3,right,4,0.0444444444444444,17.14,346,out,u,1.2770261764526367,in,0
3,right,5,0.0444444444444444,18.54,371,out,i,1.2167479991912842,out,1
3,right,6,0.0444444444444444,22.26,444,out,i,0.8624861240386963,out,1
3,right,7,0.0444444444444444,7.3,214,out,i,1.234560489654541,out,1
3,right,8,0.1306547027588974,16.84,341,in,i,1.6974077224731445,out,0
3,right,9,0.0444444444444444,3.28,176,out,i,0.666893720626831,out,1
3,right,10,0.0444444444444444,6.5,206,out,i,0.821751594543457,out,1
3,right,11,0.0444444444444444,5.72,198,out,i,0.7168064117431641,out,1
3,right,12,0.0444444444444444,11.34,261,out,u,0.5590853691101074,in,0
3,right,13,0.0444444444444444,17.77,357,out,u,1.718440294265747,in,0
3,right,14,0.1967916365307053,15.33,317,in,u,0.7049028873443604,in,1
3,right,15,0.0444444444444444,5.18,193,out,i,0.8834993839263916,out,1
3,right,16,0.1191812551022675,12.97,282,in,u,0.7996506690979004,in,1
3,right,17,0.0444444444444444,2.25,167,out,i,0.7251124382019043,out,1
3,right,18,0.0444444444444444,15.72,323,out,i,0.6625840663909912,out,1
3,right,19,0.0444444444444444,20.1,400,out,i,0.5547935962677002,out,1
3,right,20,0.0444444444444444,18.45,369,out,i,0.5880913734436035,out,1
3,right,21,0.1270407608337813,13.1,284,in,u,0.9865891933441162,in,1
3,right,22,0.0444444444444444,5.72,198,out,i,0.75325608253479,out,1
3,right,23,0.0444444444444444,12.67,278,out,u,0.7149269580841064,in,0
3,right,24,0.1252291784733381,16.93,343,in,i,0.7714633941650391,out,0
3,right,25,0.0444444444444444,15.75,323,out,u,0.30002808570861816,in,0
3,right,26,0.0444444444444444,11.62,264,out,u,1.0381288528442383,in,0
3,right,27,0.195731825757865,14.61,306,in,u,0.7865169048309326,in,1
3,right,28,0.0444444444444444,7.84,220,out,i,1.2578423023223877,out,1
3,right,29,0.1798719999266348,14.09,298,in,u,0.741786003112793,in,1
3,right,30,0.1859439875974732,15.75,323,in,u,0.7264549732208252,in,1
3,right,31,0.1185764602183948,17.04,344,in,i,1.0881125926971436,out,0
3,right,32,0.1942814704981104,14.54,305,in,u,1.0834591388702393,in,1
3,right,33,0.0444444444444444,20.54,409,out,i,0.5338678359985352,out,1
3,right,34,0.1967916365307053,15.33,317,in,u,0.632225751876831,in,1
3,right,35,0.141359739671713,16.66,338,in,u,1.0603699684143066,in,1
3,right,36,0.1348476316267912,16.77,340,in,i,0.8091690540313721,out,0
3,right,37,0.0357033844356709,11.29,260,in,i,0.8000307083129883,out,0
3,right,38,0.0444444444444444,0.15,151,out,i,0.5833289623260498,out,1
3,right,39,0.1431145682999598,16.63,338,in,i,1.014859914779663,out,0
3,right,40,0.0672182969433732,17.95,360,in,i,0.7329621315002441,out,0
3,right,41,0.0444444444444444,8.91,232,out,i,1.4532532691955566,out,1
3,right,42,0.0444444444444444,0.54,154,out,i,0.8097085952758789,out,1
3,right,43,0.1488807256544706,13.47,289,in,i,0.7603940963745117,out,0
3,right,44,0.0036893322750674,20.65,411,in,i,0.8557360172271729,out,0
3,right,45,0.0444444444444444,1.6,162,out,i,0.4214603900909424,out,1
3,right,46,0.1953407533091555,15.41,318,in,i,0.46689629554748535,out,0
3,right,47,0.0444444444444444,14.57,305,out,u,0.821727991104126,in,0
3,right,48,0.0444444444444444,19.72,393,out,i,1.3391013145446777,out,1
3,right,49,0.1240203278460704,16.95,343,in,i,1.388209342956543,out,0
3,right,50,0.0444444444444444,1.82,164,out,i,0.7641773223876953,out,1
3,right,51,0.0444444444444444,21.83,435,out,i,0.7950940132141113,out,1
3,right,52,0.0444444444444444,2.09,166,out,i,0.7945096492767334,out,1
3,right,53,0.1982855148897704,15.22,315,in,u,1.115022897720337,in,1
3,right,54,0.1630644442897305,16.27,332,in,u,0.8351647853851318,in,1
3,right,55,0.0444444444444444,3.67,179,out,i,1.545055866241455,out,1
3,right,56,0.1918201062897904,15.56,320,in,u,1.066737413406372,in,1
3,right,57,0.110135121189941,12.82,280,in,u,0.6616849899291992,in,1
3,right,58,0.0444444444444444,14.34,302,out,u,0.5858030319213867,in,0
3,right,59,0.0444444444444444,12.64,278,out,u,0.7685122489929199,in,0
3,right,60,0.1961040697466109,15.37,318,in,u,0.6724436283111572,in,1
3,right,61,0.1651155425002292,16.23,331,in,i,0.6764965057373047,out,0
3,right,62,0.0199902666263887,10.71,253,in,i,0.7352032661437988,out,0
3,right,63,0.0829257381666969,12.35,274,in,u,0.6334292888641357,in,1
3,right,64,0.0444444444444444,5.58,197,out,i,0.7264647483825684,out,1
3,right,65,0.1077386068402415,17.22,348,in,i,1.3191535472869873,out,0
3,right,66,0.0444444444444444,18.13,363,out,i,0.7771151065826416,out,1
3,right,67,0.18629063098582271,14.26,301,in,u,0.8002264499664307,in,1
3,right,68,0.0444444444444444,7.45,216,out,i,0.7338497638702393,out,1
3,right,69,0.0444444444444444,3.02,174,out,i,0.5834689140319824,out,1
3,right,70,0.1300534456575979,16.85,341,in,u,0.9751460552215576,in,1
3,right,71,0.0444444444444444,11.28,260,out,u,0.7745745182037354,in,0
3,right,72,0.0444444444444444,22.17,442,out,i,0.7417910099029541,out,1
3,right,73,0.0444444444444444,7.79,219,out,i,0.6058549880981445,out,1
3,right,74,0.0444444444444444,3.13,175,out,i,0.6294262409210205,out,1
3,right,75,0.105352090813871,12.74,279,in,u,0.7000224590301514,in,1
3,right,76,0.0444444444444444,7.65,218,out,i,1.2851572036743164,out,1
3,right,77,0.0444444444444444,17.48,352,out,u,0.9048049449920654,in,0
3,right,78,0.1909946632223051,15.59,321,in,u,1.3784072399139404,in,1
3,right,79,0.0614144706922352,11.93,268,in,u,0.6666898727416992,in,1
3,right,80,0.0444444444444444,20.02,398,out,i,0.7666757106781006,out,1
3,right,81,0.0444444444444444,16.99,344,out,i,1.021479845046997,out,1
3,right,82,0.0444444444444444,1.89,164,out,i,0.8192734718322754,out,1
3,right,83,0.0444444444444444,20.61,410,out,i,0.7532086372375488,out,1
3,right,84,0.0444444444444444,15.36,317,out,u,0.7859630584716797,in,0
3,right,85,0.0444444444444444,22.44,448,out,i,0.7520751953125,out,1
3,right,86,0.0856918726666512,17.6,354,in,i,0.48221635818481445,out,0
3,right,87,0.0444444444444444,17.61,354,out,i,1.7656009197235107,out,1
3,right,88,0.1378213093627494,13.28,287,in,u,0.5396311283111572,in,1
3,right,89,0.1990678032240969,15.13,314,in,u,0.9661886692047119,in,1
3,right,90,0.1425307814292596,13.36,288,in,u,0.5501716136932373,in,1
3,right,91,0.0444444444444444,20.62,410,out,i,0.5430853366851807,out,1
3,right,92,0.0387723741431307,18.62,372,in,i,1.439030408859253,out,0
3,right,93,0.0444444444444444,0.01,150,out,i,0.8923346996307373,out,1
3,right,94,0.0444444444444444,10.99,256,out,u,0.5834720134735107,in,0
3,right,95,0.0444444444444444,14.38,303,out,u,0.6944520473480225,in,0
3,right,96,0.1882852285853879,14.32,302,in,u,0.5691473484039307,in,1
3,right,97,0.0444444444444444,11.66,265,out,i,0.7293038368225098,out,1
3,right,98,0.1926057755919956,14.47,304,in,u,0.7217731475830078,in,1
3,right,99,0.0444444444444444,9.63,240,out,i,1.0757684707641602,out,1
3,right,100,0.0753953412833294,12.21,272,in,u,0.7025303840637207,in,1
3,right,101,0.1972571063917844,14.7,307,in,u,0.6004884243011475,in,1
3,right,102,0.0959385599838224,17.42,351,in,i,0.8489573001861572,out,0
3,right,103,0.0377296209072985,11.35,261,in,u,1.0358400344848633,in,1
3,right,104,0.1947190959507421,14.56,305,in,u,2.241197347640991,in,1
3,right,105,0.1928587366418353,14.48,304,in,u,0.6626982688903809,in,1
3,right,106,0.0444444444444444,8.6,228,out,i,1.2345573902130127,out,1
3,right,107,0.1620241642930854,13.71,293,in,u,1.088148593902588,in,1
3,right,108,0.0444444444444444,18.73,374,out,i,1.9698824882507324,out,1
3,right,109,0.0444444444444444,5.09,192,out,u,0.8257615566253662,in,0
3,right,110,0.0444444444444444,6.96,211,out,i,1.0866234302520752,out,1
3,right,111,0.0148286035285384,10.44,250,in,u,0.8172304630279541,in,1
3,right,112,0.0444444444444444,21.15,421,out,i,0.5590822696685791,out,1
3,right,113,0.0444444444444444,16.16,330,out,u,0.7024741172790527,in,0
3,right,114,0.0444444444444444,17.94,360,out,i,1.0005428791046143,out,1
3,right,115,0.0444444444444444,14.38,303,out,i,0.6951510906219482,out,1
3,right,116,0.0444444444444444,8.55,228,out,u,0.7784802913665771,in,0
3,right,117,0.1889170417974022,15.66,322,in,i,3.34598970413208,out,0
3,right,118,0.1876367637917333,15.7,323,in,u,0.6501984596252441,in,1
3,right,119,0.0033880193442544,9.29,236,in,i,1.0714466571807861,out,0
3,right,120,0.1738069996892409,16.05,328,in,u,0.7056965827941895,in,1
3,right,121,0.1419458272271371,13.35,288,in,u,0.6048219203948975,in,1
3,right,122,0.0444444444444444,16.41,334,out,u,0.8590989112854004,in,0
3,right,123,0.1246248452320209,13.06,284,in,i,1.9751482009887695,out,0
3,right,124,0.1751614265926797,16.02,328,in,i,1.1338322162628174,out,0
3,right,125,0.1197861400293165,12.98,283,in,u,1.2807590961456299,in,1
3,right,126,0.1407725526860631,16.67,338,in,u,0.5547986030578613,in,1
3,right,127,0.084027614293741,17.63,355,in,u,0.6835653781890869,in,1
3,right,128,0.019355139402609,19.32,385,in,i,0.5669050216674805,out,0
3,right,129,0.0444444444444444,18.63,372,out,i,0.9018373489379883,out,1
3,right,130,0.1981740106511521,14.77,308,in,i,1.0974271297454834,out,0
3,right,132,0.080198754627123,12.3,273,in,u,0.847459077835083,in,1
3,right,133,0.0947799592325099,12.56,277,in,u,0.49182891845703125,in,1
3,right,134,0.0444444444444444,6.18,203,out,i,0.8481853008270264,out,1
3,right,135,0.0444444444444444,4.81,190,out,i,0.5714812278747559,out,1
3,right,136,0.0444444444444444,3.48,178,out,i,0.4191751480102539,out,1
3,right,137,0.1955386359830796,14.6,306,in,u,1.4501211643218994,in,1
3,right,138,0.0444444444444444,11.49,263,out,u,0.4057750701904297,in,0
3,right,139,0.0444444444444444,11.17,259,out,u,1.124645471572876,in,0
3,right,140,0.0444444444444444,17.74,356,out,i,0.8155622482299805,out,1
3,right,141,0.1935905741492859,15.49,319,in,u,1.0836656093597412,in,1
3,right,142,0.1987694253586057,14.83,309,in,u,0.7505617141723633,in,1
3,right,143,0.1994488846907601,15.04,312,in,u,0.6230130195617676,in,1
3,right,144,0.0435210829592398,11.51,263,in,u,0.7667076587677002,in,1
3,right,145,0.0444444444444444,10.73,253,out,u,0.4548311233520508,in,0
3,right,146,0.0444444444444444,5.63,197,out,u,0.5944478511810303,in,0
3,right,147,0.1975433366628491,15.28,316,in,u,0.7617604732513428,in,1
3,right,148,0.0444444444444444,15.43,318,out,u,0.6501138210296631,in,0
3,right,149,0.1786284564560855,15.94,326,in,u,0.7338664531707764,in,1
3,right,150,0.0444444444444444,21.94,438,out,i,0.7025322914123535,out,1
3,right,151,0.0444444444444444,16.02,328,out,i,3.066348075866699,out,1
3,right,152,0.1710140105883966,16.11,329,in,i,0.5501189231872559,out,0
3,right,153,0.0444444444444444,9.71,241,out,u,0.9908466339111328,in,0
3,right,154,0.0398349826151916,18.59,372,in,i,0.7884256839752197,out,0
3,right,155,0.0444444444444444,8.55,228,out,u,1.1974866390228271,in,0
3,right,156,0.0444444444444444,3.0700000000000003,174,out,i,0.785165548324585,out,1
3,right,157,0.0444444444444444,10.14,246,out,i,1.4495649337768555,out,1
3,right,158,0.1786284564560855,14.06,298,in,u,0.9578588008880615,in,1
3,right,159,0.1959203083328452,15.38,318,in,u,0.8150060176849365,in,1
3,right,160,0.1454373611580521,13.41,289,in,u,0.965569019317627,in,1
3,right,161,0.1577711375482718,13.63,292,in,u,0.6293034553527832,in,1
3,right,162,0.1826474855058999,14.16,299,in,u,0.76387786865234375,in,1
3,right,163,0.0444444444444444,10.46,250,out,u,0.8277719020843506,in,0
3,right,164,0.1442785038784717,16.61,337,in,i,0.11410880088806152,out,0
3,right,165,0.0309789513888337,18.86,376,in,u,0.506324052810669,in,1
3,right,166,0.1940557495143981,15.47,319,in,u,0.46111583709716797,in,1
3,right,167,0.0444444444444444,0.16,151,out,i,0.7049753665924072,out,1
3,right,168,0.0444444444444444,3.51,178,out,i,0.8351662158966064,out,1
3,right,169,0.1892266468733199,15.65,322,in,i,1.1844942569732666,out,0
3,right,171,0.1837811203886059,14.19,300,in,u,0.6598019599914551,in,1
3,right,172,0.1686048794969123,13.84,295,in,u,0.5032954216003418,in,1
3,right,173,0.0092124698650067,19.96,397,in,i,0.6264393329620361,out,0
3,right,174,0.0444444444444444,4.44,186,out,u,0.40013980865478516,in,0
3,right,175,0.0444444444444444,22.39,447,out,i,1.317856788635254,out,1
3,right,176,0.0444444444444444,13.64,292,out,u,0.5835425853729248,in,0
3,right,177,0.0930507912376186,17.47,352,in,i,0.6057367324829102,out,0
3,right,178,0.1620241642930854,13.71,293,in,i,0.588066577911377,out,0
3,right,179,0.0444444444444444,2.68,171,out,u,1.6277239322662354,in,0
3,right,180,0.0444444444444444,13.32,287,out,u,0.8724355697631836,in,0
3,right,181,0.0444444444444444,3.92,182,out,i,0.7500267028808594,out,1
3,right,182,0.1901299881530563,14.38,303,in,u,0.6777553558349609,in,1
3,right,183,0.1318556793781222,13.18,285,in,u,0.793123722076416,in,1
3,right,184,0.1270407608337813,16.9,342,in,u,0.9922709465026855,in,1
3,right,185,0.0444444444444444,9.5,238,out,u,2.1511850357055664,in,0
3,right,186,0.1471655268705282,13.44,289,in,u,0.7597451210021973,in,1
3,right,187,0.0444444444444444,9.32,236,out,u,0.5436816215515137,in,0
3,right,188,0.0444444444444444,19.71,392,out,i,0.6655898094177246,out,1
3,right,189,0.0444444444444444,18.43,369,out,u,2.6198832988739014,in,0
3,right,190,0.0444444444444444,0.05,150,out,i,0.6579275131225586,out,1
3,right,191,0.199466337231708,15.03,312,in,i,1.1730480194091797,out,0
3,right,192,0.0444444444444444,13.12,285,out,u,1.2450473308563232,in,0
3,right,193,0.0444444444444444,12.3,273,out,i,1.185176134109497,out,1
3,right,194,0.0444444444444444,5.42,195,out,u,1.697183609008789,in,0
3,right,195,0.099440351939599,12.64,278,in,i,0.6590869426727295,out,0
3,right,196,0.1276440443376951,13.11,284,in,u,0.7345707416534424,in,1
3,right,197,0.1550438509731031,13.58,291,in,u,0.2650022506713867,in,1
3,right,198,0.0444444444444444,14.09,298,out,u,0.58831787109375,in,0
3,right,199,0.0791193907069271,17.72,356,in,i,0.986464262008667,out,0
4,right,1,0.0444444444444444,15.36,317,out,u,2.9603800773620605,in,0
4,right,2,0.1987694253586057,14.83,309,in,u,5.189341306686401,in,1
4,right,3,0.0444444444444444,2.68,171,out,i,1.2871594429016113,out,1
4,right,4,0.0444444444444444,5.72,198,out,i,1.0791239738464355,out,1
4,right,5,0.1454373611580521,13.41,289,in,u,1.0652921199798584,in,1
4,right,6,0.0444444444444444,15.72,323,out,i,0.9965791702270508,out,1
4,right,7,0.0444444444444444,15.43,318,out,u,1.04327392578125,in,0
4,right,8,0.1909946632223051,15.59,321,in,i,1.4819715023040771,out,0
4,right,9,0.1686048794969123,13.84,295,in,u,1.3128626346588135,in,1
4,right,10,0.0444444444444444,7.84,220,out,i,2.9783225059509277,out,1
4,right,11,0.0444444444444444,4.44,186,out,i,1.0982136726379395,out,1
4,right,12,0.1185764602183948,17.04,344,in,i,0.987309455871582,out,0
4,right,13,0.0444444444444444,3.02,174,out,i,1.1672642230987549,out,1
4,right,14,0.1270407608337813,13.1,284,in,u,2.4861817359924316,in,1
4,right,15,0.0444444444444444,14.34,302,out,u,1.382875680923462,in,0
4,right,16,0.0444444444444444,1.6,162,out,i,0.8866486549377441,out,1
4,right,17,0.0444444444444444,20.54,409,out,i,0.9895415306091309,out,1
4,right,18,0.099440351939599,12.64,278,in,u,0.849135160446167,in,1
4,right,19,0.0444444444444444,5.18,193,out,i,0.9681389331817627,out,1
4,right,20,0.0444444444444444,1.82,164,out,i,0.5910549163818359,out,1
4,right,21,0.0444444444444444,20.62,410,out,i,0.9631855487823486,out,1
4,right,22,0.1798719999266348,14.09,298,in,u,1.2437770366668701,in,1
4,right,23,0.1419458272271371,13.35,288,in,u,1.4643874168395996,in,1
4,right,24,0.1967916365307053,15.33,317,in,i,0.7791833877563477,out,0
4,right,25,0.1710140105883966,16.11,329,in,i,1.0384752750396729,out,0
4,right,26,0.0444444444444444,20.02,398,out,i,0.7866125106811523,out,1
4,right,27,0.0444444444444444,19.71,392,out,i,0.6753122806549072,out,1
4,right,28,0.0444444444444444,20.1,400,out,i,0.6460788249969482,out,1
4,right,29,0.1197861400293165,12.98,283,in,i,1.8890018463134766,out,0
4,right,30,0.110135121189941,12.82,280,in,u,0.778874397277832,in,1
4,right,31,0.1981740106511521,14.77,308,in,u,0.95398712158203125,in,1
4,right,32,0.0444444444444444,22.39,447,out,i,0.6413938999176025,out,1
4,right,33,0.1786284564560855,15.94,326,in,u,1.8142447471618652,in,1
4,right,34,0.1318556793781222,13.18,285,in,i,1.2576982975006104,out,0
4,right,35,0.1975433366628491,15.28,316,in,u,1.0282304286956787,in,1
4,right,36,0.0444444444444444,0.54,154,out,i,0.5698416233062744,out,1
4,right,37,0.1630644442897305,16.27,332,in,u,1.1569039821624756,in,1
4,right,38,0.1442785038784717,16.61,337,in,i,1.4460928440093994,out,0
4,right,39,0.0444444444444444,9.5,238,out,i,2.249087333679199,out,1
4,right,40,0.0444444444444444,8.55,228,out,i,0.7552323341369629,out,1
4,right,41,0.0444444444444444,1.89,164,out,i,0.6221520900726318,out,1
4,right,42,0.0829257381666969,12.35,274,in,u,0.7127900123596191,in,1
4,right,43,0.0791193907069271,17.72,356,in,i,0.7481913566589355,out,0
4,right,44,0.1947190959507421,14.56,305,in,u,0.9041080474853516,in,1
4,right,45,0.019355139402609,19.32,385,in,i,0.6569011211395264,out,0
4,right,46,0.080198754627123,12.3,273,in,i,1.2612547874450684,out,0
4,right,47,0.141359739671713,16.66,338,in,u,0.7509410381317139,in,1
4,right,48,0.1240203278460704,16.95,343,in,u,1.5344290733337402,in,1
4,right,49,0.1077386068402415,17.22,348,in,u,0.5994768142700195,in,1
4,right,50,0.0444444444444444,0.15,151,out,i,0.6747910976409912,out,1
4,right,51,0.1879630660618289,14.31,302,in,u,0.5819542407989502,in,1
4,right,52,0.1889170417974022,15.66,322,in,u,0.6682071685791016,in,1
4,right,53,0.0614144706922352,11.93,268,in,u,1.3665902614593506,in,1
4,right,54,0.0444444444444444,11.17,259,out,u,0.8062644004821777,in,0
4,right,55,0.0444444444444444,21.94,438,out,i,0.8293342590332031,out,1
4,right,56,0.0444444444444444,16.16,330,out,u,1.0160248279571533,in,0
4,right,57,0.0444444444444444,3.48,178,out,i,0.37137603759765625,out,1
4,right,58,0.1786284564560855,14.06,298,in,u,0.9790918827056885,in,1
4,right,59,0.1209960604027563,17,344,in,u,0.5134758949279785,in,1
4,right,60,0.0444444444444444,6.96,211,out,i,0.6028153896331787,out,1
4,right,61,0.0444444444444444,10.73,253,out,u,0.800692081451416,in,0
4,right,62,0.0672182969433732,17.95,360,in,u,1.5647387504577637,in,1
4,right,63,0.0959385599838224,17.42,351,in,u,1.3503413200378418,in,1
4,right,64,0.1252291784733381,16.93,343,in,u,0.9793801307678223,in,1
4,right,65,0.1959203083328452,15.38,318,in,u,0.6593999862670898,in,1
4,right,66,0.0444444444444444,7.3,214,out,i,0.6220364570617676,out,1
4,right,67,0.0444444444444444,10.14,246,out,i,0.812138557434082,out,1
4,right,68,0.0444444444444444,16.41,334,out,u,0.6096069812774658,in,0
4,right,69,0.1550438509731031,13.58,291,in,u,1.2600226402282715,in,1
4,right,70,0.0387723741431307,18.62,372,in,i,1.0228323936462402,out,0
4,right,71,0.0444444444444444,19.72,393,out,i,1.1622984409332275,out,1
4,right,72,0.0444444444444444,3.0700000000000003,174,out,i,0.7337007522583008,out,1
4,right,73,0.0444444444444444,10.46,250,out,i,1.4793975353240967,out,1
4,right,74,0.1940557495143981,15.47,319,in,i,4.225018262863159,out,0
4,right,75,0.0444444444444444,7.45,216,out,i,0.6174099445343018,out,1
4,right,76,0.1577711375482718,13.63,292,in,u,0.9985437393188477,in,1
4,right,77,0.1348476316267912,16.77,340,in,i,1.0605475902557373,out,0
4,right,78,0.1901299881530563,14.38,303,in,u,1.1281030178070068,in,1
4,right,79,0.0444444444444444,17.48,352,out,i,0.8386871814727783,out,1
4,right,80,0.1488807256544706,13.47,289,in,u,0.7882838249206543,in,1
4,right,81,0.18629063098582271,14.26,301,in,u,2.3113842010498047,in,1
4,right,82,0.0033880193442544,9.29,236,in,i,0.6656215190887451,out,0
4,right,83,0.0444444444444444,5.58,197,out,i,0.5752437114715576,out,1
4,right,84,0.1751614265926797,16.02,328,in,u,0.7403256893157959,in,1
4,right,85,0.0435210829592398,11.51,263,in,u,0.6680073738098145,in,1
4,right,86,0.0148286035285384,10.44,250,in,u,0.6079223155975342,in,1
4,right,87,0.0444444444444444,20.61,410,out,i,0.7657573223114014,out,1
4,right,88,0.0444444444444444,3.51,178,out,i,0.686753511428833,out,1
4,right,89,0.0309789513888337,18.86,376,in,u,1.1984901428222656,in,1
4,right,90,0.0444444444444444,8.55,228,out,u,1.8603219985961914,in,0
4,right,91,0.1276440443376951,13.11,284,in,u,0.756610631942749,in,1
4,right,92,0.0444444444444444,18.54,371,out,u,1.5699546337127686,in,0
4,right,93,0.0444444444444444,4.81,190,out,i,0.5841090679168701,out,1
4,right,94,0.1246248452320209,13.06,284,in,u,0.7499308586120605,in,1
4,right,95,0.1942814704981104,14.54,305,in,u,0.6169748306274414,in,1
4,right,96,0.0444444444444444,5.42,195,out,i,0.658787727355957,out,1
4,right,97,0.0444444444444444,21.15,421,out,i,0.9880046844482422,out,1
4,right,98,0.0444444444444444,21.83,435,out,i,0.7400424480438232,out,1
4,right,99,0.0444444444444444,11.49,263,out,u,0.770226240158081,in,0
4,right,100,0.0444444444444444,22.44,448,out,i,0.6827633380889893,out,1
4,right,101,0.0444444444444444,14.38,303,out,u,0.7075238227844238,in,0
4,right,102,0.1961040697466109,15.37,318,in,u,0.7002136707305908,in,1
4,right,103,0.0444444444444444,17.74,356,out,u,1.0278584957122803,in,0
4,right,104,0.1928587366418353,14.48,304,in,u,0.8481314182281494,in,1
4,right,105,0.0444444444444444,5.09,192,out,i,0.6046876907348633,out,1
4,right,106,0.0444444444444444,15.75,323,out,u,0.6270678043365479,in,0
4,right,107,0.1407725526860631,16.67,338,in,u,2.110553503036499,in,1
4,right,108,0.1882852285853879,14.32,302,in,u,0.8464255332946777,in,1
4,right,109,0.0753953412833294,12.21,272,in,u,0.8432819843292236,in,1
4,right,110,0.0199902666263887,10.71,253,in,i,1.3204948902130127,out,0
4,right,111,0.0444444444444444,18.45,369,out,u,1.4155077934265137,in,0
4,right,112,0.195731825757865,14.61,306,in,i,0.597059965133667,out,0
4,right,113,0.1994488846907601,15.04,312,in,u,0.601660966873169,in,1
4,right,114,0.0444444444444444,5.72,198,out,i,2.328031539916992,out,1
4,right,115,0.1859439875974732,15.75,323,in,u,0.6179196834564209,in,1
4,right,116,0.0444444444444444,13.32,287,out,u,0.5326640605926514,in,0
4,right,117,0.0444444444444444,12.64,278,out,i,1.2752230167388916,out,1
4,right,118,0.1918201062897904,15.56,320,in,u,0.5571238994598389,in,1
4,right,119,0.1425307814292596,13.36,288,in,u,0.5644533634185791,in,1
4,right,120,0.1955386359830796,14.6,306,in,u,0.47592830657958984,in,1
4,right,121,0.0444444444444444,16.02,328,out,u,0.48674917221069336,in,0
4,right,122,0.1953407533091555,15.41,318,in,i,1.0881078243255615,out,0
4,right,123,0.0444444444444444,0.05,150,out,i,0.6725442409515381,out,1
4,right,124,0.0444444444444444,14.57,305,out,u,2.5646374225616455,in,0
4,right,125,0.1651155425002292,16.23,331,in,u,0.7556114196777344,in,1
4,right,126,0.1620241642930854,13.71,293,in,u,0.9542293548583984,in,1
4,right,127,0.0444444444444444,10.18,246,out,u,4.018444299697876,in,0
4,right,128,0.1876367637917333,15.7,323,in,u,0.7680401802062988,in,1
4,right,129,0.084027614293741,17.63,355,in,u,1.2918157577514648,in,1
4,right,130,0.0444444444444444,3.92,182,out,i,0.5522170066833496,out,1
4,right,131,0.0444444444444444,0.16,151,out,i,0.5253384113311768,out,1
4,right,132,0.0444444444444444,2.09,166,out,i,0.45533156394958496,out,1
4,right,133,0.0092124698650067,19.96,397,in,i,0.9691498279571533,out,0
4,right,134,0.0444444444444444,11.28,260,out,u,2.2938692569732666,in,0
4,right,135,0.0444444444444444,9.71,241,out,i,0.5971548557281494,out,1
4,right,136,0.0444444444444444,17.14,346,out,u,1.0715136528015137,in,0
4,right,137,0.0444444444444444,12.3,273,out,u,0.7989711761474609,in,0
4,right,138,0.0444444444444444,8.6,228,out,i,0.5498507022857666,out,1
4,right,139,0.1431145682999598,16.63,338,in,u,0.565483808517456,in,1
4,right,140,0.1935905741492859,15.49,319,in,u,0.6287505626678467,in,1
4,right,141,0.0444444444444444,9.32,236,out,i,1.035876989364624,out,1
4,right,142,0.1990678032240969,15.13,314,in,u,0.729682207107544,in,1
4,right,143,0.0444444444444444,5.63,197,out,i,0.564091682434082,out,1
4,right,144,0.0444444444444444,16.99,344,out,u,0.5242488384246826,in,0
4,right,145,0.0444444444444444,13.64,292,out,u,0.6914143562316895,in,0
4,right,146,0.0444444444444444,0.01,150,out,i,0.3608734607696533,out,1
4,right,147,0.0377296209072985,11.35,261,in,i,0.9241788387298584,out,0
4,right,148,0.0444444444444444,12.67,278,out,u,1.4457530975341797,in,0
4,right,149,0.0444444444444444,18.43,369,out,i,0.7687106132507324,out,1
4,right,150,0.0444444444444444,14.09,298,out,u,1.3598709106445312,in,0
4,right,151,0.0444444444444444,11.34,261,out,i,1.4312140941619873,out,1
4,right,152,0.0357033844356709,11.29,260,in,u,1.2665221691131592,in,1
4,right,153,0.0930507912376186,17.47,352,in,i,0.7743556499481201,out,0
4,right,154,0.1982855148897704,15.22,315,in,u,1.6997299194335938,in,1
4,right,155,0.105352090813871,12.74,279,in,u,2.2128336429595947,in,1
4,right,156,0.0036893322750674,20.65,411,in,i,9.814138650894165,out,0
4,right,157,0.1378213093627494,13.28,287,in,u,0.9482662677764893,in,1
4,right,158,0.1620241642930854,13.71,293,in,u,0.7452547550201416,in,1
4,right,159,0.0444444444444444,17.94,360,out,u,1.156325101852417,in,0
4,right,160,0.0444444444444444,3.13,175,out,i,0.5964477062225342,out,1
4,right,161,0.0444444444444444,18.63,372,out,u,0.6941006183624268,in,0
4,right,162,0.0444444444444444,22.17,442,out,i,0.8579130172729492,out,1
4,right,163,0.0444444444444444,10.99,256,out,i,1.0129084587097168,out,1
4,right,164,0.0947799592325099,12.56,277,in,i,0.4653055667877197,out,0
4,right,165,0.0431424739536809,18.5,370,in,i,0.962310791015625,out,0
4,right,166,0.0444444444444444,9.63,240,out,i,1.2354960441589355,out,1
4,right,167,0.0444444444444444,7.65,218,out,i,0.42246413230895996,out,1
4,right,168,0.1972571063917844,14.7,307,in,u,0.6365556716918945,in,1
4,right,169,0.0856918726666512,17.6,354,in,u,0.6666233539581299,in,1
4,right,170,0.1967916365307053,15.33,317,in,u,0.7802109718322754,in,1
4,right,171,0.0444444444444444,3.28,176,out,i,0.5943460464477539,out,1
4,right,172,0.0444444444444444,17.77,357,out,u,0.9149479866027832,in,0
4,right,173,0.0444444444444444,8.91,232,out,i,1.3180959224700928,out,1
4,right,174,0.1270407608337813,16.9,342,in,i,2.138840436935425,out,0
4,right,175,0.1926057755919956,14.47,304,in,u,4.690049648284912,in,1
4,right,176,0.1837811203886059,14.19,300,in,u,1.2782464027404785,in,1
4,right,177,0.0444444444444444,18.13,363,out,i,0.7330279350280762,out,1
4,right,178,0.0444444444444444,6.18,203,out,i,0.7332785129547119,out,1
4,right,179,0.1940557495143981,14.53,305,in,u,0.9946253299713135,in,1
4,right,180,0.0398349826151916,18.59,372,in,u,1.4590508937835693,in,1
4,right,181,0.1471655268705282,13.44,289,in,u,1.1660451889038086,in,1
4,right,182,0.0444444444444444,2.25,167,out,i,0.47704148292541504,out,1
4,right,183,0.1191812551022675,12.97,282,in,u,0.7675375938415527,in,1
4,right,184,0.0444444444444444,7.79,219,out,i,0.7656092643737793,out,1
4,right,185,0.0444444444444444,11.66,265,out,u,0.676844596862793,in,0
4,right,186,0.1738069996892409,16.05,328,in,u,0.8742640018463135,in,1
4,right,187,0.1306547027588974,16.84,341,in,u,0.6794869899749756,in,1
4,right,188,0.1892266468733199,15.65,322,in,u,0.5521466732025146,in,1
4,right,189,0.0444444444444444,6.5,206,out,i,0.6117041110992432,out,1
4,right,190,0.0444444444444444,3.67,179,out,i,0.4961113929748535,out,1
4,right,191,0.0444444444444444,13.12,285,out,u,0.6146390438079834,in,0
4,right,192,0.1300534456575979,16.85,341,in,u,0.6958165168762207,in,1
4,right,193,0.0444444444444444,11.62,264,out,u,2.3873181343078613,in,0
4,right,194,0.1826474855058999,14.16,299,in,u,2.0309836864471436,in,1
4,right,195,0.0444444444444444,22.26,444,out,i,0.6836667060852051,out,1
4,right,196,0.0444444444444444,14.38,303,out,u,3.987588882446289,in,0
4,right,197,0.1992395732695614,14.9,310,in,i,1.688373327255249,out,0
4,right,198,0.199466337231708,15.03,312,in,u,0.7298009395599365,in,1
4,right,199,0.0444444444444444,17.61,354,out,u,1.0265390872955322,in,0
4,right,200,0.0444444444444444,18.73,374,out,i,0.4138040542602539,out,1
