participant,computer_number,exp_condition,trial_n,dens,jnds,line_len,distribution,key_resp,rt,resp,correct
11,1,left,1,0.0435210829592398,4.01,182,in,u,3.804450511932373,in,1
11,1,left,2,0.019355139402609,11.82,267,in,i,3.649837017059326,out,0
11,1,left,3,0.1786284564560855,6.56,207,in,u,2.338143825531006,in,1
11,1,left,4,0.1940557495143982,7.03,211,in,u,1.442018985748291,in,1
11,1,left,5,0.0444444444444444,16.41,334,out,i,1.444298505783081,out,1
11,1,left,6,0.0444444444444444,10.73,253,out,u,1.4111979007720947,in,0
11,1,left,7,0.0444444444444444,17.94,360,out,i,2.795130729675293,out,1
11,1,left,8,0.1407725526860632,9.17,235,in,i,6.389023303985596,out,0
11,1,left,9,0.0444444444444444,1.89,164,out,i,2.4104254245758057,out,1
11,1,left,10,0.099440351939599,5.14,193,in,u,1.1869025230407715,in,1
11,1,left,11,0.0092124698650067,12.46,275,in,u,3.834106206893921,in,1
11,1,left,12,0.0444444444444444,10.18,246,out,u,1.5504176616668701,in,0
11,1,left,13,0.0444444444444444,0.01,150,out,i,2.3471271991729736,out,1
11,1,left,14,0.0444444444444444,11.49,263,out,u,4.2958149909973145,in,0
11,1,left,15,0.1378213093627494,5.78,199,in,u,1.299333095550537,in,1
11,1,left,16,0.1577711375482717,6.13,202,in,u,1.1793005466461182,in,1
11,1,left,17,0.0444444444444444,18.13,363,out,i,0.9229600429534912,out,1
11,1,left,18,0.1826474855058999,6.66,208,in,u,1.2118890285491943,in,1
11,1,left,19,0.0444444444444444,3.13,175,out,u,1.3930721282958984,in,0
11,1,left,20,0.130053445657598,9.35,237,in,u,2.8941707611083984,in,1
11,1,left,21,0.0444444444444444,3.28,176,out,u,2.7175605297088623,in,0
11,1,left,22,0.0444444444444444,18.54,371,out,i,2.2509212493896484,out,1
11,1,left,23,0.0444444444444444,3.48,178,out,u,1.5457780361175537,in,0
11,1,left,24,0.0444444444444444,7.45,216,out,u,1.0531232357025146,in,0
11,1,left,25,0.0444444444444444,21.83,435,out,i,1.212364912033081,out,1
11,1,left,26,0.1982855148897704,7.72,219,in,u,1.0118136405944824,in,1
11,1,left,27,0.0444444444444444,4.81,190,out,i,1.7821955680847168,out,1
11,1,left,28,0.0444444444444444,22.44,448,out,i,0.9561033248901367,out,1
11,1,left,29,0.0444444444444444,19.72,393,out,i,1.0174410343170166,out,1
11,1,left,30,0.0398349826151916,11.09,258,in,u,4.482944965362549,in,1
11,1,left,31,0.0444444444444444,11.66,265,out,u,1.316166639328003,in,0
11,1,left,32,0.199466337231708,7.53,217,in,u,1.5587716102600098,in,1
11,1,left,33,0.0444444444444444,14.57,305,out,i,0.9787387847900391,out,1
11,1,left,34,0.1935905741492859,7.99,222,in,u,1.9727146625518799,in,1
11,1,left,35,0.1306547027588974,9.34,237,in,i,1.4778568744659424,out,0
11,1,left,36,0.0959385599838225,9.92,243,in,u,1.171447515487671,in,1
11,1,left,37,0.0444444444444444,8.55,228,out,i,2.2867374420166016,out,1
11,1,left,38,0.0444444444444444,17.14,346,out,i,1.0177454948425293,out,1
11,1,left,39,0.0444444444444444,9.32,236,out,u,1.0596566200256348,in,0
11,1,left,40,0.0444444444444444,6.5,206,out,u,2.390983819961548,in,0
11,1,left,41,0.1955386359830796,7.1,212,in,u,1.4364900588989258,in,1
11,1,left,42,0.1550438509731031,6.08,202,in,i,1.6814217567443848,out,0
11,1,left,43,0.18629063098582271,6.76,209,in,u,0.9715969562530518,in,1
11,1,left,44,0.0444444444444444,17.74,356,out,i,0.8591587543487549,out,1
11,1,left,45,0.0444444444444444,18.45,369,out,i,0.8061227798461914,out,1
11,1,left,46,0.1901299881530563,6.88,210,in,u,1.0918855667114258,in,1
11,1,left,47,0.0947799592325099,5.0600000000000005,192,in,u,0.9124631881713867,in,1
11,1,left,48,0.0444444444444444,0.15,151,out,i,0.885873556137085,out,1
11,1,left,49,0.1191812551022674,5.47,196,in,u,1.088482141494751,in,1
11,1,left,50,0.1786284564560855,8.44,226,in,i,2.882204294204712,out,0
11,1,left,51,0.0444444444444444,18.63,372,out,i,0.7270803451538086,out,1
11,1,left,52,0.1953407533091555,7.91,221,in,u,0.7962419986724854,in,1
11,1,left,53,0.0444444444444444,6.96,211,out,i,1.6810436248779297,out,1
11,1,left,54,0.1942814704981104,7.04,211,in,u,1.13130521774292,in,1
11,1,left,55,0.0387723741431307,11.12,258,in,i,1.1215097904205322,out,0
11,1,left,56,0.0444444444444444,18.43,369,out,i,1.0182719230651855,out,1
11,1,left,57,0.0444444444444444,20.54,409,out,i,0.8359131813049316,out,1
11,1,left,58,0.1318556793781222,5.68,198,in,u,1.7136766910552979,in,1
11,1,left,59,0.0148286035285384,2.94,173,in,i,2.5397887229919434,out,0
11,1,left,60,0.0444444444444444,9.5,238,out,i,2.170915126800537,out,1
11,1,left,61,0.0444444444444444,7.65,218,out,u,0.8151106834411621,in,0
11,1,left,62,0.1246248452320208,5.56,197,in,u,2.413242816925049,in,1
11,1,left,63,0.1276440443376951,5.61,197,in,i,1.5534613132476807,out,0
11,1,left,64,0.0444444444444444,5.18,193,out,u,0.936112642288208,in,0
11,1,left,65,0.0444444444444444,13.32,287,out,i,2.659266710281372,out,1
11,1,left,66,0.0444444444444444,14.38,303,out,i,1.19679594039917,out,1
11,1,left,67,0.0444444444444444,8.91,232,out,u,2.008185863494873,in,0
11,1,left,68,0.1651155425002292,8.73,230,in,i,2.3164777755737305,out,0
11,1,left,69,0.1876367637917333,8.2,224,in,u,0.9888372421264648,in,1
11,1,left,70,0.0444444444444444,21.94,438,out,i,0.80300140380859375,out,1
11,1,left,71,0.0444444444444444,5.63,197,out,u,1.0861928462982178,in,0
11,1,left,72,0.0444444444444444,11.62,264,out,i,1.5974140167236328,out,1
11,1,left,73,0.0614144706922352,4.43,186,in,u,0.7364919185638428,in,1
11,1,left,74,0.0444444444444444,1.82,164,out,i,1.013925552368164,out,1
11,1,left,75,0.0444444444444444,15.75,323,out,i,0.8741884231567383,out,1
11,1,left,76,0.0444444444444444,12.64,278,out,i,0.9277462959289551,out,1
11,1,left,77,0.1967916365307053,7.83,220,in,u,0.848731517791748,in,1
11,1,left,78,0.0377296209072985,3.85,181,in,u,0.9713542461395264,in,1
11,1,left,79,0.1751614265926797,8.52,227,in,i,0.9714646339416504,out,0
11,1,left,80,0.1431145682999597,9.13,234,in,u,3.1933791637420654,in,1
11,1,left,81,0.0829257381666969,4.85,190,in,u,0.774306058883667,in,1
11,1,left,82,0.0444444444444444,14.38,303,out,i,0.6783766746520996,out,1
11,1,left,83,0.1425307814292597,5.86,200,in,u,0.8397059440612793,in,1
11,1,left,84,0.105352090813871,5.24,194,in,u,2.003740072250366,in,1
11,1,left,85,0.0801987546271229,4.8,190,in,u,0.7849578857421875,in,1
11,1,left,86,0.1270407608337813,9.4,237,in,i,0.8851156234741211,out,0
11,1,left,87,0.1981740106511521,7.27,214,in,u,0.8564198017120361,in,1
11,1,left,88,0.0444444444444444,10.46,250,out,i,0.9262845516204834,out,1
11,1,left,89,0.0444444444444444,3.67,179,out,u,0.7328991889953613,in,0
11,1,left,90,0.0444444444444444,3.92,182,out,u,1.1470234394073486,in,0
11,1,left,91,0.0856918726666513,10.1,246,in,i,1.7577388286590576,out,0
11,1,left,92,0.1859439875974732,8.25,224,in,u,0.6667089462280273,in,1
11,1,left,93,0.1879630660618289,6.81,209,in,u,0.7676067352294922,in,1
11,1,left,94,0.1987694253586057,7.33,214,in,u,0.7485132217407227,in,1
11,1,left,95,0.0444444444444444,20.1,400,out,i,0.8860957622528076,out,1
11,1,left,96,0.0444444444444444,5.58,197,out,u,0.722644567489624,in,0
11,1,left,97,0.0033880193442544,1.79,164,in,u,0.9690163135528564,in,1
11,1,left,98,0.1620241642930854,6.21,203,in,u,0.7632904052734375,in,1
11,1,left,99,0.0444444444444444,10.14,246,out,u,1.3460547924041748,in,0
11,1,left,100,0.0444444444444444,15.43,318,out,i,0.7920563220977783,out,1
11,1,left,101,0.0444444444444444,2.25,167,out,i,3.6964902877807617,out,1
11,1,left,102,0.1209960604027563,9.5,238,in,u,0.5912084579467773,in,1
11,1,left,103,0.1928587366418353,6.98,211,in,u,0.8831784725189209,in,1
11,1,left,104,0.1197861400293165,5.48,196,in,u,0.681067943572998,in,1
11,1,left,105,0.0444444444444444,8.6,228,out,i,0.4771556854248047,out,1
11,1,left,106,0.0444444444444444,18.73,374,out,i,0.625173807144165,out,1
11,1,left,107,0.1909946632223051,8.09,223,in,u,0.7636504173278809,in,1
11,1,left,108,0.0199902666263887,3.21,175,in,u,1.5963389873504639,in,1
11,1,left,109,0.0444444444444444,15.72,323,out,i,0.8022973537445068,out,1
11,1,left,110,0.0444444444444444,17.61,354,out,i,0.5899591445922852,out,1
11,1,left,111,0.1892266468733199,8.15,223,in,u,0.6776752471923828,in,1
11,1,left,112,0.079119390706927,10.22,247,in,u,0.9454877376556396,in,1
11,1,left,113,0.1419458272271371,5.85,200,in,u,0.966541051864624,in,1
11,1,left,114,0.1488807256544705,5.97,201,in,u,0.9644913673400879,in,1
11,1,left,115,0.0444444444444444,14.34,302,out,i,0.7412652969360352,out,1
11,1,left,116,0.0444444444444444,12.3,273,out,i,1.230956792831421,out,1
11,1,left,117,0.0444444444444444,9.63,240,out,u,0.9300813674926758,in,0
11,1,left,118,0.0444444444444444,22.26,444,out,i,0.5773193836212158,out,1
11,1,left,119,0.0444444444444444,1.6,162,out,u,1.4311857223510742,in,0
11,1,left,120,0.0444444444444444,12.67,278,out,i,1.067155122756958,out,1
11,1,left,121,0.0753953412833294,4.71,189,in,u,0.5538346767425537,in,1
11,1,left,122,0.0444444444444444,15.36,317,out,i,0.7100279331207275,out,1
11,1,left,123,0.1471655268705283,5.94,200,in,u,0.898430347442627,in,1
11,1,left,124,0.0444444444444444,5.72,198,out,u,0.7031726837158203,in,0
11,1,left,125,0.0444444444444444,0.05,150,out,i,0.94657301902771,out,1
11,1,left,126,0.1882852285853879,6.82,209,in,u,1.088437795639038,in,1
11,1,left,127,0.1630644442897305,8.77,230,in,i,0.4430654048919678,out,0
11,1,left,128,0.1959203083328453,7.88,220,in,u,0.7841222286224365,in,1
11,1,left,129,0.0444444444444444,8.55,228,out,u,0.5345163345336914,in,0
11,1,left,130,0.0357033844356709,3.79,180,in,u,2.7289350032806396,in,1
11,1,left,131,0.0444444444444444,13.64,292,out,i,0.7021458148956299,out,1
11,1,left,132,0.0444444444444444,16.99,344,out,i,0.508798360824585,out,1
11,1,left,133,0.0444444444444444,20.61,410,out,i,0.6634426116943359,out,1
11,1,left,134,0.0444444444444444,20.62,410,out,i,0.476365327835083,out,1
11,1,left,135,0.0444444444444444,11.17,259,out,u,3.712449073791504,in,0
11,1,left,136,0.0444444444444444,5.42,195,out,u,1.0770978927612305,in,0
11,1,left,137,0.0431424739536809,11,257,in,i,0.9984736442565918,out,0
11,1,left,138,0.0444444444444444,22.39,447,out,i,0.7009198665618896,out,1
11,1,left,139,0.1947190959507421,7.0600000000000005,212,in,u,0.726041316986084,in,1
11,1,left,140,0.0444444444444444,20.02,398,out,i,0.7583341598510742,out,1
11,1,left,141,0.0444444444444444,17.48,352,out,i,1.0936732292175293,out,1
11,1,left,142,0.1798719999266348,6.59,207,in,u,0.6713128089904785,in,1
11,1,left,143,0.0444444444444444,7.3,214,out,u,0.5865488052368164,in,0
11,1,left,144,0.1348476316267912,9.27,236,in,u,0.8860650062561035,in,1
11,1,left,145,0.1972571063917844,7.2,213,in,i,3.711980104446411,out,0
11,1,left,146,0.0444444444444444,11.28,260,out,i,0.9199345111846924,out,1
11,1,left,147,0.0444444444444444,4.44,186,out,u,0.5768272876739502,in,0
11,1,left,148,0.1961040697466109,7.87,220,in,u,1.3988780975341797,in,1
11,1,left,149,0.1077386068402413,9.72,241,in,u,2.1178669929504395,in,1
11,1,left,150,0.141359739671713,9.16,235,in,u,0.8127262592315674,in,1
11,1,left,151,0.0444444444444444,7.79,219,out,u,0.5152039527893066,in,0
11,1,left,152,0.0444444444444444,2.68,171,out,u,0.7290167808532715,in,0
11,1,left,153,0.0444444444444444,16.02,328,out,i,0.8596103191375732,out,1
11,1,left,154,0.1454373611580521,5.91,200,in,u,0.7636370658874512,in,1
11,1,left,155,0.1994488846907601,7.54,217,in,u,0.8881685733795166,in,1
11,1,left,156,0.0840276142937409,10.13,246,in,i,0.5350971221923828,out,0
11,1,left,157,0.1442785038784717,9.11,234,in,u,1.158991813659668,in,1
11,1,left,158,0.0444444444444444,22.17,442,out,i,1.0936884880065918,out,1
11,1,left,159,0.1620241642930854,6.21,203,in,u,1.169928789138794,in,1
11,1,left,160,0.1918201062897904,8.06,222,in,u,2.556915044784546,in,1
11,1,left,161,0.1185764602183948,9.54,239,in,i,0.7798120975494385,out,0
11,1,left,162,0.1990678032240969,7.63,218,in,u,0.5462141036987305,in,1
11,1,left,163,0.0444444444444444,3.02,174,out,u,0.3653099536895752,in,0
11,1,left,164,0.1252291784733381,9.43,238,in,u,1.1375343799591064,in,1
11,1,left,165,0.0444444444444444,10.99,256,out,u,1.03792142868042,in,0
11,1,left,166,0.0444444444444444,11.34,261,out,i,0.8223049640655518,out,1
11,1,left,167,0.0444444444444444,19.71,392,out,i,0.7000939846038818,out,1
11,1,left,168,0.1686048794969123,6.34,204,in,u,0.681382417678833,in,1
11,1,left,169,0.1710140105883966,8.61,228,in,u,0.524055004119873,in,1
11,1,left,170,0.1270407608337813,5.6,197,in,i,0.5598304271697998,out,0
11,1,left,171,0.1940557495143982,7.97,221,in,u,1.721254587173462,in,1
11,1,left,172,0.0309789513888337,11.36,261,in,u,1.2868554592132568,in,1
11,1,left,173,0.0444444444444444,3.0700000000000003,174,out,u,0.9689569473266602,in,0
11,1,left,174,0.1889170417974022,8.16,223,in,u,2.108955144882202,in,1
11,1,left,175,0.0444444444444444,9.71,241,out,u,0.5178327560424805,in,0
11,1,left,176,0.1967916365307053,7.83,220,in,u,1.1345973014831543,in,1
11,1,left,177,0.1957318257578651,7.11,212,in,i,0.6687333583831787,out,0
11,1,left,178,0.0444444444444444,7.84,220,out,u,0.7086920738220215,in,0
11,1,left,179,0.0444444444444444,5.09,192,out,u,0.9031977653503418,in,0
11,1,left,180,0.110135121189941,5.32,194,in,i,0.6494128704071045,out,0
11,1,left,181,0.0444444444444444,14.09,298,out,i,1.1949248313903809,out,1
11,1,left,182,0.0672182969433732,10.45,250,in,u,0.6967620849609375,in,1
11,1,left,183,0.0930507912376185,9.97,244,in,u,0.5636224746704102,in,1
11,1,left,184,0.1738069996892409,8.55,228,in,u,0.5344865322113037,in,1
11,1,left,185,0.0444444444444444,3.51,178,out,u,0.5245251655578613,in,0
11,1,left,186,0.0444444444444444,16.16,330,out,i,0.5465097427368164,out,1
11,1,left,187,0.1992395732695614,7.4,215,in,u,1.2420287132263184,in,1
11,1,left,188,0.0444444444444444,13.12,285,out,i,0.44632959365844727,out,1
11,1,left,189,0.0036893322750674,13.15,285,in,i,0.4652254581451416,out,0
11,1,left,190,0.1975433366628491,7.78,219,in,u,0.6205043792724609,in,1
11,1,left,191,0.0444444444444444,0.54,154,out,i,1.0134797096252441,out,1
11,1,left,192,0.0444444444444444,21.15,421,out,i,0.6136512756347656,out,1
11,1,left,193,0.0444444444444444,5.72,198,out,u,0.9315788745880127,in,0
11,1,left,194,0.0444444444444444,6.18,203,out,u,2.906722068786621,in,0
11,1,left,195,0.0444444444444444,0.16,151,out,i,1.101229190826416,out,1
11,1,left,196,0.1240203278460704,9.45,238,in,i,0.39771533012390137,out,0
11,1,left,197,0.0444444444444444,17.77,357,out,i,0.5770578384399414,out,1
11,1,left,198,0.183781120388606,6.69,208,in,u,0.6418030261993408,in,1
11,1,left,199,0.0444444444444444,2.09,166,out,u,2.245539426803589,in,0
11,1,left,200,0.1926057755919956,6.97,211,in,u,1.1074068546295166,in,1
12,2,centered,1,0.0444444444444444,4.44,186,out,i,4.896799087524414,out,1
12,2,centered,2,0.0444444444444444,5.18,193,out,i,3.4580037593841553,out,1
12,2,centered,3,0.0444444444444444,5.72,198,out,i,2.876707077026367,out,1
12,2,centered,4,0.0444444444444444,11.49,263,out,u,2.2116684913635254,in,0
12,2,centered,5,0.0444444444444444,4.81,190,out,i,6.045506238937378,out,1
12,2,centered,6,0.0444444444444444,17.77,357,out,i,2.869250774383545,out,1
12,2,centered,7,0.1879464503643602,10.56,251,in,u,2.025055408477783,in,1
12,2,centered,8,0.0444444444444444,17.74,356,out,i,1.8033623695373535,out,1
12,2,centered,9,0.179856099469186,10.34,248,in,u,1.9171743392944336,in,1
12,2,centered,10,0.1786126659263078,10.31,248,in,u,1.5424926280975342,in,1
12,2,centered,11,0.1751459425439598,12.27,273,in,u,3.0157363414764404,in,1
12,2,centered,12,0.0444444444444444,14.57,305,out,i,3.4022538661956787,out,1
12,2,centered,13,0.0444444444444444,17.61,354,out,i,1.928722858428955,out,1
12,2,centered,14,0.0444444444444444,1.89,164,out,i,1.9780066013336182,out,1
12,2,centered,15,0.1892099194769046,11.9,268,in,u,1.3389828205108643,in,1
12,2,centered,16,0.1972396691128976,10.95,256,in,u,1.5108590126037598,in,1
12,2,centered,17,0.1909777795354792,11.84,267,in,i,1.4748587608337402,out,0
12,2,centered,18,0.1786126659263078,12.19,272,in,u,2.6990292072296143,in,1
12,2,centered,19,0.0444444444444444,12.67,278,out,i,2.0770516395568848,out,1
12,2,centered,20,0.1550301452926409,9.83,242,in,u,1.3335967063903809,in,1
12,2,centered,21,0.0444444444444444,22.44,448,out,i,1.5666065216064453,out,1
12,2,centered,22,0.0444444444444444,9.63,240,out,u,1.662078857421875,in,0
12,2,centered,23,0.0444444444444444,0.15,151,out,i,1.7679071426391602,out,1
12,2,centered,24,0.0444444444444444,14.38,303,out,u,3.1961610317230225,in,0
12,2,centered,25,0.1318440235027208,9.43,238,in,u,2.2271769046783447,in,1
12,2,centered,26,0.0444444444444444,14.09,298,out,i,1.9490420818328857,out,1
12,2,centered,27,0.030976212888686,15.11,314,in,i,1.8047330379486084,out,0
12,2,centered,28,0.0444444444444444,18.54,371,out,i,2.1929500102996826,out,1
12,2,centered,29,0.1981564923190876,11.02,257,in,u,1.2596755027770996,in,1
12,2,centered,30,0.0829184076362549,8.6,228,in,u,1.5536439418792725,in,1
12,2,centered,31,0.0994315615381727,8.89,231,in,u,0.7432539463043213,in,1
12,2,centered,32,0.0387689467142619,14.87,310,in,i,0.7047364711761475,out,0
12,2,centered,33,0.0444444444444444,12.3,273,out,u,1.2085342407226562,in,0
12,2,centered,34,0.1077290828835702,13.47,289,in,u,4.6355180740356445,in,1
12,2,centered,35,0.1994312536614418,11.29,260,in,u,1.1675760746002197,in,1
12,2,centered,36,0.0444444444444444,5.63,197,out,i,1.7175991535186768,out,1
12,2,centered,37,0.0444444444444444,8.55,228,out,u,2.960576295852661,in,0
12,2,centered,38,0.1209853645039466,13.25,286,in,u,1.2095112800598145,in,1
12,2,centered,39,0.0357002283016132,7.54,217,in,i,1.250246286392212,out,0
12,2,centered,40,0.1276327607655081,9.36,237,in,u,1.9050920009613037,in,1
12,2,centered,41,0.0444444444444444,14.34,302,out,u,2.5439250469207764,in,0
12,2,centered,42,0.0444444444444444,19.72,393,out,i,0.7239108085632324,out,1
12,2,centered,43,0.0444444444444444,10.99,256,out,u,1.4184865951538086,in,0
12,2,centered,44,0.186274163129501,10.51,250,in,u,1.7700672149658203,in,1
12,2,centered,45,0.1889003417696843,11.91,268,in,u,3.2339134216308594,in,1
12,2,centered,46,0.0444444444444444,14.38,303,out,i,0.8079855442047119,out,1
12,2,centered,47,0.0444444444444444,3.92,182,out,i,1.302107334136963,out,1
12,2,centered,48,0.1992219607431082,11.15,258,in,u,0.9335896968841553,in,1
12,2,centered,49,0.0398314612530768,14.84,309,in,i,1.1108512878417969,out,0
12,2,centered,50,0.0444444444444444,3.67,179,out,i,1.7414178848266602,out,1
12,2,centered,51,0.0444444444444444,15.43,318,out,i,1.70931077003479,out,1
12,2,centered,52,0.0444444444444444,16.99,344,out,i,1.6945860385894775,out,1
12,2,centered,53,0.0444444444444444,13.64,292,out,u,0.8890433311462402,in,0
12,2,centered,54,0.0444444444444444,10.18,246,out,u,5.435868740081787,in,0
12,2,centered,55,0.0444444444444444,13.12,285,out,u,4.932089328765869,in,0
12,2,centered,56,0.1967742403987658,11.58,264,in,i,2.9626872539520264,out,0
12,2,centered,57,0.1709988931660095,12.36,274,in,u,0.9386930465698242,in,1
12,2,centered,58,0.1859275503839888,12,269,in,u,0.9452996253967285,in,1
12,2,centered,59,0.0444444444444444,2.68,171,out,i,0.6437673568725586,out,1
12,2,centered,60,0.1053427778222002,8.99,233,in,u,0.5268285274505615,in,1
12,2,centered,61,0.0444444444444444,9.5,238,out,u,0.7111353874206543,in,0
12,2,centered,62,0.0791123966527895,13.97,297,in,u,1.5507893562316895,in,1
12,2,centered,63,0.1947018830287704,10.81,254,in,u,1.0789556503295898,in,1
12,2,centered,64,0.0444444444444444,5.09,192,out,i,1.4082753658294678,out,1
12,2,centered,65,0.0444444444444444,15.36,317,out,i,1.0562043190002441,out,1
12,2,centered,66,0.1630500295989565,12.52,276,in,u,0.5833804607391357,in,1
12,2,centered,67,0.0444444444444444,20.62,410,out,i,0.7704644203186035,out,1
12,2,centered,68,0.0444444444444444,7.45,216,out,u,0.6127703189849854,in,0
12,2,centered,69,0.1901131809024136,10.63,252,in,u,0.68985748291015625,in,1
12,2,centered,70,0.1942642962616755,10.79,254,in,u,0.7870569229125977,in,1
12,2,centered,71,0.1837648743698491,10.44,250,in,u,1.2044727802276611,in,1
12,2,centered,72,0.1967742403987658,11.58,264,in,i,0.8413591384887695,out,0
12,2,centered,73,0.0444444444444444,3.02,174,out,i,1.276768684387207,out,1
12,2,centered,74,0.0444444444444444,20.02,398,out,i,0.8859477043151855,out,1
12,2,centered,75,0.195323485433459,11.66,265,in,u,0.6718518733978271,in,1
12,2,centered,76,0.0444444444444444,11.17,259,out,u,0.7540469169616699,in,0
12,2,centered,77,0.0444444444444444,9.71,241,out,u,0.7359468936920166,in,0
12,2,centered,78,0.0444444444444444,3.13,175,out,i,1.4731574058532715,out,1
12,2,centered,79,0.1306431530483112,13.09,284,in,u,1.1288180351257324,in,1
12,2,centered,80,0.1960867343947061,11.62,264,in,u,0.740734338760376,in,1
12,2,centered,81,0.0444444444444444,16.41,334,out,i,0.5634982585906982,out,1
12,2,centered,82,0.0959300791363791,13.67,292,in,i,1.0596251487731934,out,0
12,2,centered,83,0.1918031496348406,11.81,267,in,i,0.8917598724365234,out,0
12,2,centered,84,0.0444444444444444,21.83,435,out,i,0.5902144908905029,out,1
12,2,centered,85,0.0444444444444444,7.3,214,out,u,0.6523275375366211,in,0
12,2,centered,86,0.0444444444444444,10.46,250,out,u,0.614732027053833,in,0
12,2,centered,87,0.1425181818883295,9.61,240,in,i,0.8754291534423828,out,0
12,2,centered,88,0.1488675647864968,9.72,241,in,u,1.0694451332092285,in,1
12,2,centered,89,0.1957145233118584,10.86,255,in,u,2.102100133895874,in,1
12,2,centered,90,0.1454245046791477,9.66,240,in,u,0.7869353294372559,in,1
12,2,centered,91,0.0444444444444444,8.6,228,out,u,0.5840978622436523,in,0
12,2,centered,92,0.0444444444444444,18.63,372,out,i,0.7243983745574951,out,1
12,2,centered,93,0.1270295305910936,13.15,285,in,u,0.9680871963500977,in,1
12,2,centered,94,0.0444444444444444,11.66,265,out,u,0.6927273273468018,in,0
12,2,centered,95,0.0444444444444444,17.48,352,out,i,0.7909679412841797,out,1
12,2,centered,96,0.0377262856564977,7.6,217,in,u,1.7951066493988037,in,1
12,2,centered,97,0.0444444444444444,0.01,150,out,i,0.7279098033905029,out,1
12,2,centered,98,0.0930425656652823,13.72,293,in,u,0.673992395401001,in,1
12,2,centered,99,0.1348357112665927,13.02,283,in,u,0.668898344039917,in,1
12,2,centered,100,0.1270295305910936,9.35,237,in,i,0.9036672115325928,out,0
12,2,centered,101,0.0444444444444444,16.16,330,out,i,0.7434689998626709,out,1
12,2,centered,102,0.1185659782091833,13.29,287,in,u,0.6816830635070801,in,1
12,2,centered,103,0.0036890061427574,16.9,342,in,i,0.9915037155151367,out,0
12,2,centered,104,0.0444444444444444,7.79,219,out,u,0.6804695129394531,in,0
12,2,centered,105,0.0444444444444444,2.25,167,out,i,0.81047821044921875,out,1
12,2,centered,106,0.1300419490973797,13.1,284,in,i,0.9192774295806885,out,0
12,2,centered,107,0.0840201863588419,13.88,295,in,u,0.7197484970092773,in,1
12,2,centered,108,0.194038595231413,11.72,266,in,u,0.7747509479522705,in,1
12,2,centered,109,0.1826313396990339,10.41,249,in,u,0.7184813022613525,in,1
12,2,centered,110,0.1252181083722413,13.18,285,in,u,0.653888463973999,in,1
12,2,centered,111,0.0444444444444444,6.5,206,out,u,0.6742403507232666,in,0
12,2,centered,112,0.1471525176239591,9.69,241,in,u,0.5139427185058594,in,1
12,2,centered,113,0.0444444444444444,11.34,261,out,i,0.9004199504852295,out,1
12,2,centered,114,0.0947715808039085,8.81,231,in,u,1.3265056610107422,in,1
12,2,centered,115,0.0444444444444444,7.84,220,out,u,1.6939353942871094,in,0
12,2,centered,116,0.0801916651585791,8.55,228,in,u,1.0182597637176514,in,1
12,2,centered,117,0.1246138285532189,9.31,236,in,i,0.8131494522094727,out,0
12,2,centered,118,0.0444444444444444,2.09,166,out,i,0.7229118347167969,out,1
12,2,centered,119,0.0444444444444444,3.51,178,out,i,0.754124641418457,out,1
12,2,centered,120,0.1651009464949659,12.48,276,in,u,0.945317268371582,in,1
12,2,centered,121,0.1935734609872151,11.74,266,in,u,0.9447944164276123,in,1
12,2,centered,122,0.0444444444444444,21.94,438,out,i,0.7365550994873047,out,1
12,2,centered,123,0.0199884995120851,6.96,211,in,u,0.9613747596740723,in,1
12,2,centered,124,0.0444444444444444,3.28,176,out,i,5.620787858963013,out,1
12,2,centered,125,0.0856842976134157,13.85,295,in,i,1.4436736106872559,out,0
12,2,centered,126,0.0444444444444444,22.39,447,out,i,1.0117933750152588,out,1
12,2,centered,127,0.0444444444444444,0.16,151,out,i,1.2183489799499512,out,1
12,2,centered,128,0.0444444444444444,0.05,150,out,i,0.6854550838470459,out,1
12,2,centered,129,0.0444444444444444,1.6,162,out,u,2.634521245956421,in,0
12,2,centered,130,0.0444444444444444,20.54,409,out,i,0.5783610343933105,out,1
12,2,centered,131,0.075388676430454,8.46,227,in,u,0.659597635269165,in,1
12,2,centered,132,0.0444444444444444,17.94,360,out,i,0.6389687061309814,out,1
12,2,centered,133,0.1419332793954191,9.6,240,in,u,0.5260465145111084,in,1
12,2,centered,134,0.0435172357505136,7.76,219,in,u,0.5778932571411133,in,1
12,2,centered,135,0.0444444444444444,7.65,218,out,u,0.5037317276000977,in,0
12,2,centered,136,0.0444444444444444,6.18,203,out,u,0.8666024208068848,in,0
12,2,centered,137,0.0444444444444444,11.28,260,out,u,0.7476804256439209,in,0
12,2,centered,138,0.1990502058818987,11.38,261,in,u,2.0206780433654785,in,1
12,2,centered,139,0.0444444444444444,22.17,442,out,i,0.6158866882324219,out,1
12,2,centered,140,0.0444444444444444,6.96,211,out,i,0.6771960258483887,out,1
12,2,centered,141,0.0092116554943145,16.21,331,in,i,1.1774702072143555,out,0
12,2,centered,142,0.194038595231413,10.78,254,in,u,0.7815952301025391,in,1
12,2,centered,143,0.1101253853844304,9.07,233,in,u,0.6197705268859863,in,1
12,2,centered,144,0.0444444444444444,10.14,246,out,u,1.416278600692749,in,0
12,2,centered,145,0.0444444444444444,18.13,363,out,i,0.7174482345581055,out,1
12,2,centered,146,0.0444444444444444,5.58,197,out,i,4.126207590103149,out,1
12,2,centered,147,0.0444444444444444,20.61,410,out,i,0.7272515296936035,out,1
12,2,centered,148,0.1685899750386687,10.09,245,in,u,0.8199903964996338,in,1
12,2,centered,149,0.1987518543926337,11.08,258,in,i,0.881772518157959,out,0
12,2,centered,150,0.0444444444444444,17.14,346,out,u,1.0839555263519287,in,0
12,2,centered,151,0.1959029892252172,11.63,265,in,i,3.3969216346740723,out,0
12,2,centered,152,0.0444444444444444,16.02,328,out,i,2.455620527267456,out,1
12,2,centered,153,0.0444444444444444,8.55,228,out,u,0.7650728225708008,in,0
12,2,centered,154,0.1407601085703317,12.92,282,in,u,0.5466744899749756,in,1
12,2,centered,155,0.1994487046596073,11.28,260,in,u,0.6595709323883057,in,1
12,2,centered,156,0.1413472436493942,12.91,282,in,i,0.8332562446594238,out,0
12,2,centered,157,0.0444444444444444,5.42,195,out,i,1.9986352920532227,out,1
12,2,centered,158,0.1197755510859387,9.23,235,in,u,0.6172041893005371,in,1
12,2,centered,159,0.0444444444444444,13.32,287,out,i,1.5920829772949219,out,1
12,2,centered,160,0.0444444444444444,18.73,374,out,i,0.6348695755004883,out,1
12,2,centered,161,0.0444444444444444,10.73,253,out,u,0.9049012660980225,in,0
12,2,centered,162,0.0444444444444444,3.48,178,out,u,0.7850532531738281,in,0
12,2,centered,163,0.1955213506148049,10.85,255,in,u,0.7901339530944824,in,1
12,2,centered,164,0.1925887494848725,10.72,253,in,u,1.7601728439331055,in,1
12,2,centered,165,0.1975258740815681,11.53,263,in,u,0.8591647148132324,in,1
12,2,centered,166,0.0444444444444444,0.54,154,out,i,0.5796096324920654,out,1
12,2,centered,167,0.0444444444444444,20.1,400,out,i,0.7028398513793945,out,1
12,2,centered,168,0.0672123549308823,14.2,300,in,i,2.2955265045166016,out,0
12,2,centered,169,0.144265749841086,12.86,281,in,u,0.6733951568603516,in,1
12,2,centered,170,0.1882685844091594,10.57,251,in,u,1.2430758476257324,in,1
12,2,centered,171,0.1378091261331975,9.53,239,in,u,2.647447109222412,in,1
12,2,centered,172,0.1620098415617483,9.96,244,in,i,1.3446345329284668,out,0
12,2,centered,173,0.0444444444444444,5.72,198,out,i,0.7949521541595459,out,1
12,2,centered,174,0.0444444444444444,21.15,421,out,i,0.7995712757110596,out,1
12,2,centered,175,0.0444444444444444,9.32,236,out,u,0.5981266498565674,in,0
12,2,centered,176,0.0444444444444444,3.0700000000000003,174,out,i,0.801548957824707,out,1
12,2,centered,177,0.0444444444444444,18.43,369,out,i,0.8756945133209229,out,1
12,2,centered,178,0.1240093646058412,13.2,286,in,u,1.3789334297180176,in,1
12,2,centered,179,0.1737916353701474,12.3,273,in,u,0.73549485206604,in,1
12,2,centered,180,0.0444444444444444,18.45,369,out,i,0.6588740348815918,out,1
12,2,centered,181,0.0431386602135123,14.75,308,in,i,1.8173120021820068,out,0
12,2,centered,182,0.0148272926987287,6.69,208,in,i,1.4924237728118896,out,0
12,2,centered,183,0.1982679867008721,11.47,263,in,u,0.6731035709381104,in,1
12,2,centered,184,0.0444444444444444,22.26,444,out,i,0.5725295543670654,out,1
12,2,centered,185,0.1431019171530081,12.88,281,in,u,0.5983593463897705,in,1
12,2,centered,186,0.1928416881732751,10.73,253,in,u,0.5186476707458496,in,1
12,2,centered,187,0.1191707196299526,9.22,235,in,i,0.7930033206939697,out,0
12,2,centered,188,0.0444444444444444,1.82,164,out,i,0.8602871894836426,out,1
12,2,centered,189,0.0614090417306493,8.18,224,in,u,0.6549077033996582,in,1
12,2,centered,190,0.0444444444444444,15.75,323,out,i,1.148667573928833,out,1
12,2,centered,191,0.0193534284327493,15.57,321,in,i,0.899848461151123,out,0
12,2,centered,192,0.0444444444444444,15.72,323,out,u,1.0814857482910156,in,0
12,2,centered,193,0.0444444444444444,11.62,264,out,u,0.6565935611724854,in,0
12,2,centered,194,0.1577571907791234,9.88,243,in,i,1.2724878787994385,out,0
12,2,centered,195,0.1620098415617483,9.96,244,in,u,0.5783483982086182,in,1
12,2,centered,196,0.1876201769389729,11.95,269,in,i,1.024916172027588,out,0
12,2,centered,197,0.0444444444444444,12.64,278,out,u,0.5889933109283447,in,0
12,2,centered,198,0.0444444444444444,19.71,392,out,i,0.585437536239624,out,1
12,2,centered,199,0.0444444444444444,8.91,232,out,u,0.784531831741333,in,0
12,2,centered,200,0.0033877198476266,5.54,197,in,u,1.724348783493042,in,1
13,1,right,1,0.0444444444444444,9.71,241,out,i,8.331995964050293,out,1
13,1,right,2,0.0357033844356709,11.29,260,in,u,2.096299886703491,in,1
13,1,right,3,0.0444444444444444,22.26,444,out,i,2.2720632553100586,out,1
13,1,right,4,0.0444444444444444,16.02,328,out,u,1.2596490383148193,in,0
13,1,right,5,0.0444444444444444,12.67,278,out,i,1.0461726188659668,out,1
13,1,right,6,0.0148286035285384,10.44,250,in,i,1.1567330360412598,out,0
13,1,right,7,0.0444444444444444,15.75,323,out,u,1.1606082916259766,in,0
13,1,right,8,0.1185764602183948,17.04,344,in,u,0.9038004875183105,in,1
13,1,right,9,0.0444444444444444,18.54,371,out,i,2.5120813846588135,out,1
13,1,right,10,0.1798719999266348,14.09,298,in,i,1.2112669944763184,out,0
13,1,right,11,0.0444444444444444,21.83,435,out,u,0.6781048774719238,in,0
13,1,right,12,0.1270407608337813,13.1,284,in,u,0.7548847198486328,in,1
13,1,right,13,0.0444444444444444,15.43,318,out,u,0.606334924697876,in,0
13,1,right,14,0.0444444444444444,8.6,228,out,u,1.3697662353515625,in,0
13,1,right,15,0.0444444444444444,11.34,261,out,u,0.6403958797454834,in,0
13,1,right,16,0.0444444444444444,18.73,374,out,i,1.2861948013305664,out,1
13,1,right,17,0.0444444444444444,3.13,175,out,i,0.8620436191558838,out,1
13,1,right,18,0.0444444444444444,18.63,372,out,u,0.7851667404174805,in,0
13,1,right,19,0.0444444444444444,5.63,197,out,i,0.8780782222747803,out,1
13,1,right,20,0.195731825757865,14.61,306,in,u,1.048905372619629,in,1
13,1,right,21,0.1620241642930854,13.71,293,in,u,0.6471104621887207,in,1
13,1,right,22,0.1246248452320209,13.06,284,in,u,0.4669492244720459,in,1
13,1,right,23,0.099440351939599,12.64,278,in,u,0.5285201072692871,in,1
13,1,right,24,0.0444444444444444,13.64,292,out,u,0.5991396903991699,in,0
13,1,right,25,0.1928587366418353,14.48,304,in,i,0.7279250621795654,out,0
13,1,right,26,0.1276440443376951,13.11,284,in,u,0.8640041351318359,in,1
13,1,right,27,0.0036893322750674,20.65,411,in,i,0.9196183681488037,out,0
13,1,right,28,0.1926057755919956,14.47,304,in,u,0.9256882667541504,in,1
13,1,right,29,0.0753953412833294,12.21,272,in,i,1.3295326232910156,out,0
13,1,right,30,0.1407725526860631,16.67,338,in,u,0.8796513080596924,in,1
13,1,right,31,0.0444444444444444,3.48,178,out,i,1.4031052589416504,out,1
13,1,right,32,0.1471655268705282,13.44,289,in,u,1.1356229782104492,in,1
13,1,right,33,0.0033880193442544,9.29,236,in,i,0.6537759304046631,out,0
13,1,right,34,0.0444444444444444,20.61,410,out,i,1.1519572734832764,out,1
13,1,right,35,0.0444444444444444,17.48,352,out,i,0.8230075836181641,out,1
13,1,right,36,0.1889170417974022,15.66,322,in,i,0.5349023342132568,out,0
13,1,right,37,0.0856918726666512,17.6,354,in,u,0.6443636417388916,in,1
13,1,right,38,0.0444444444444444,21.15,421,out,i,1.2329277992248535,out,1
13,1,right,39,0.1419458272271371,13.35,288,in,u,0.7144536972045898,in,1
13,1,right,40,0.1442785038784717,16.61,337,in,u,0.6938235759735107,in,1
13,1,right,41,0.0444444444444444,0.16,151,out,i,1.0910604000091553,out,1
13,1,right,42,0.1300534456575979,16.85,341,in,u,0.8054335117340088,in,1
13,1,right,43,0.1859439875974732,15.75,323,in,u,0.6192233562469482,in,1
13,1,right,44,0.1686048794969123,13.84,295,in,i,0.5783390998840332,out,0
13,1,right,45,0.1876367637917333,15.7,323,in,u,0.6157145500183105,in,1
13,1,right,46,0.0444444444444444,10.99,256,out,u,0.7985460758209229,in,0
13,1,right,47,0.0444444444444444,19.71,392,out,i,0.7618377208709717,out,1
13,1,right,48,0.1972571063917844,14.7,307,in,u,0.63421630859375,in,1
13,1,right,49,0.1940557495143981,15.47,319,in,i,0.5150609016418457,out,0
13,1,right,50,0.1990678032240969,15.13,314,in,u,0.5560760498046875,in,1
13,1,right,51,0.0444444444444444,7.3,214,out,i,0.27882838249206543,out,1
13,1,right,52,0.1751614265926797,16.02,328,in,u,0.39142823219299316,in,1
13,1,right,53,0.18629063098582271,14.26,301,in,i,0.3600168228149414,out,0
13,1,right,54,0.1942814704981104,14.54,305,in,u,0.33222150802612305,in,1
13,1,right,55,0.0444444444444444,14.38,303,out,i,0.36027002334594727,out,1
13,1,right,56,0.0444444444444444,11.49,263,out,u,0.35720396041870117,in,0
13,1,right,57,0.0444444444444444,7.65,218,out,i,0.34486889839172363,out,1
13,1,right,58,0.1786284564560855,14.06,298,in,u,0.6447944641113281,in,1
13,1,right,59,0.1425307814292596,13.36,288,in,u,0.7840409278869629,in,1
13,1,right,60,0.0444444444444444,5.42,195,out,i,0.7733488082885742,out,1
13,1,right,61,0.0444444444444444,16.99,344,out,i,0.8751657009124756,out,1
13,1,right,62,0.1940557495143981,14.53,305,in,u,0.6046710014343262,in,1
13,1,right,63,0.1987694253586057,14.83,309,in,u,0.7558958530426025,in,1
13,1,right,64,0.1197861400293165,12.98,283,in,u,0.5530099868774414,in,1
13,1,right,65,0.0444444444444444,14.34,302,out,u,0.5000655651092529,in,0
13,1,right,66,0.0444444444444444,1.89,164,out,i,0.7792501449584961,out,1
13,1,right,67,0.0377296209072985,11.35,261,in,u,0.49120569229125977,in,1
13,1,right,68,0.0444444444444444,7.79,219,out,u,0.6355407238006592,in,0
13,1,right,69,0.1879630660618289,14.31,302,in,i,0.573521614074707,out,0
13,1,right,70,0.0444444444444444,0.54,154,out,i,0.6929512023925781,out,1
13,1,right,71,0.0444444444444444,13.32,287,out,u,0.5260565280914307,in,0
13,1,right,72,0.1378213093627494,13.28,287,in,i,0.5409083366394043,out,0
13,1,right,73,0.0444444444444444,11.66,265,out,u,0.40633535385131836,in,0
13,1,right,74,0.0398349826151916,18.59,372,in,i,0.961890459060669,out,0
13,1,right,75,0.0444444444444444,5.18,193,out,i,0.9700944423675537,out,1
13,1,right,76,0.0444444444444444,3.51,178,out,i,1.3542420864105225,out,1
13,1,right,77,0.0959385599838224,17.42,351,in,i,1.384324312210083,out,0
13,1,right,78,0.0444444444444444,7.45,216,out,i,0.7416002750396729,out,1
13,1,right,79,0.0444444444444444,21.94,438,out,u,0.6889057159423828,in,0
13,1,right,80,0.1982855148897704,15.22,315,in,u,1.1206319332122803,in,1
13,1,right,81,0.0444444444444444,14.09,298,out,i,0.7278933525085449,out,1
13,1,right,82,0.1240203278460704,16.95,343,in,i,1.1154022216796875,out,0
13,1,right,83,0.0435210829592398,11.51,263,in,i,0.7315175533294678,out,0
13,1,right,84,0.0614144706922352,11.93,268,in,u,0.4814743995666504,in,1
13,1,right,85,0.1488807256544706,13.47,289,in,i,0.6491189002990723,out,0
13,1,right,86,0.0444444444444444,22.17,442,out,i,1.0953264236450195,out,1
13,1,right,87,0.0444444444444444,12.64,278,out,u,0.5295314788818359,in,0
13,1,right,88,0.1651155425002292,16.23,331,in,i,0.630767822265625,out,0
13,1,right,89,0.1837811203886059,14.19,300,in,u,0.5897748470306396,in,1
13,1,right,90,0.0444444444444444,10.18,246,out,i,0.7544689178466797,out,1
13,1,right,91,0.1348476316267912,16.77,340,in,u,0.6097438335418701,in,1
13,1,right,92,0.0444444444444444,6.5,206,out,i,0.7166569232940674,out,1
13,1,right,93,0.1918201062897904,15.56,320,in,u,0.9424567222595215,in,1
13,1,right,94,0.1431145682999598,16.63,338,in,u,0.694326639175415,in,1
13,1,right,95,0.1710140105883966,16.11,329,in,u,1.0699810981750488,in,1
13,1,right,96,0.0199902666263887,10.71,253,in,i,0.6605114936828613,out,0
13,1,right,97,0.0444444444444444,2.09,166,out,i,0.868859052658081,out,1
13,1,right,98,0.110135121189941,12.82,280,in,u,0.7359051704406738,in,1
13,1,right,99,0.1550438509731031,13.58,291,in,u,0.5784642696380615,in,1
13,1,right,100,0.0444444444444444,20.62,410,out,i,0.7886178493499756,out,1
13,1,right,101,0.1959203083328452,15.38,318,in,u,0.8534865379333496,in,1
13,1,right,102,0.1786284564560855,15.94,326,in,u,0.7454357147216797,in,1
13,1,right,103,0.0444444444444444,5.72,198,out,u,1.1683399677276611,in,0
13,1,right,104,0.0444444444444444,0.15,151,out,i,0.7326462268829346,out,1
13,1,right,105,0.1909946632223051,15.59,321,in,u,1.1769647598266602,in,1
13,1,right,106,0.0444444444444444,3.0700000000000003,174,out,i,0.5904052257537842,out,1
13,1,right,107,0.0444444444444444,16.41,334,out,i,0.8213355541229248,out,1
13,1,right,108,0.0444444444444444,8.55,228,out,i,1.3131194114685059,out,1
13,1,right,109,0.0444444444444444,14.57,305,out,u,0.5607624053955078,in,0
13,1,right,110,0.0444444444444444,12.3,273,out,i,0.5945377349853516,out,1
13,1,right,111,0.1318556793781222,13.18,285,in,i,0.4785151481628418,out,0
13,1,right,112,0.0444444444444444,6.18,203,out,u,2.0644924640655518,in,0
13,1,right,113,0.1961040697466109,15.37,318,in,i,0.586273193359375,out,0
13,1,right,114,0.1191812551022675,12.97,282,in,u,0.4006640911102295,in,1
13,1,right,115,0.0947799592325099,12.56,277,in,u,0.4237549304962158,in,1
13,1,right,116,0.0444444444444444,18.43,369,out,i,0.9180121421813965,out,1
13,1,right,117,0.0444444444444444,5.72,198,out,u,0.4386873245239258,in,0
13,1,right,118,0.0431424739536809,18.5,370,in,i,0.4169442653656006,out,0
13,1,right,119,0.0444444444444444,8.91,232,out,u,0.5068857669830322,in,0
13,1,right,120,0.0444444444444444,20.1,400,out,i,0.723787784576416,out,1
13,1,right,121,0.0309789513888337,18.86,376,in,i,1.261277437210083,out,0
13,1,right,122,0.1252291784733381,16.93,343,in,u,0.6239063739776611,in,1
13,1,right,123,0.141359739671713,16.66,338,in,u,0.7267968654632568,in,1
13,1,right,124,0.1994488846907601,15.04,312,in,u,0.6127393245697021,in,1
13,1,right,125,0.0444444444444444,22.44,448,out,i,0.5908699035644531,out,1
13,1,right,126,0.1981740106511521,14.77,308,in,u,0.7146852016448975,in,1
13,1,right,127,0.0444444444444444,5.09,192,out,i,0.6916022300720215,out,1
13,1,right,128,0.1209960604027563,17,344,in,i,0.9491250514984131,out,0
13,1,right,129,0.1454373611580521,13.41,289,in,u,0.5682299137115479,in,1
13,1,right,130,0.0444444444444444,1.82,164,out,i,0.5055372714996338,out,1
13,1,right,131,0.1630644442897305,16.27,332,in,u,0.843205451965332,in,1
13,1,right,132,0.0444444444444444,16.16,330,out,u,0.8208439350128174,in,0
13,1,right,133,0.0444444444444444,14.38,303,out,u,0.5848069190979004,in,0
13,1,right,134,0.1947190959507421,14.56,305,in,i,0.6260957717895508,out,0
13,1,right,135,0.084027614293741,17.63,355,in,i,1.5079350471496582,out,0
13,1,right,136,0.0444444444444444,4.81,190,out,i,1.1184055805206299,out,1
13,1,right,137,0.1975433366628491,15.28,316,in,u,0.6371896266937256,in,1
13,1,right,138,0.0444444444444444,20.02,398,out,i,0.92938232421875,out,1
13,1,right,139,0.1955386359830796,14.6,306,in,u,0.5590381622314453,in,1
13,1,right,140,0.0444444444444444,19.72,393,out,i,0.9046986103057861,out,1
13,1,right,141,0.0444444444444444,11.28,260,out,u,0.5216400623321533,in,0
13,1,right,142,0.1077386068402415,17.22,348,in,i,0.5931873321533203,out,0
13,1,right,143,0.080198754627123,12.3,273,in,u,0.4224965572357178,in,1
13,1,right,144,0.0444444444444444,9.63,240,out,i,0.4354836940765381,out,1
13,1,right,145,0.0444444444444444,20.54,409,out,i,0.7613210678100586,out,1
13,1,right,146,0.0444444444444444,7.84,220,out,i,0.550670862197876,out,1
13,1,right,147,0.1826474855058999,14.16,299,in,i,0.5028576850891113,out,0
13,1,right,148,0.1620241642930854,13.71,293,in,u,0.6229815483093262,in,1
13,1,right,149,0.0444444444444444,18.45,369,out,i,0.5167479515075684,out,1
13,1,right,150,0.1953407533091555,15.41,318,in,u,0.9970235824584961,in,1
13,1,right,151,0.0444444444444444,17.14,346,out,i,0.6015622615814209,out,1
13,1,right,152,0.0387723741431307,18.62,372,in,i,0.5715689659118652,out,0
13,1,right,153,0.0672182969433732,17.95,360,in,i,0.7704379558563232,out,0
13,1,right,154,0.0444444444444444,10.46,250,out,u,0.4997403621673584,in,0
13,1,right,155,0.1935905741492859,15.49,319,in,i,0.34972572326660156,out,0
13,1,right,156,0.0444444444444444,5.58,197,out,i,0.6540422439575195,out,1
13,1,right,157,0.1882852285853879,14.32,302,in,i,1.0957083702087402,out,0
13,1,right,158,0.0444444444444444,2.25,167,out,i,0.6528851985931396,out,1
13,1,right,159,0.0444444444444444,17.74,356,out,i,0.8297233581542969,out,1
13,1,right,160,0.1967916365307053,15.33,317,in,i,0.40883326530456543,out,0
13,1,right,161,0.0444444444444444,10.14,246,out,i,0.6291491985321045,out,1
13,1,right,162,0.0444444444444444,17.77,357,out,u,0.5146410465240479,in,0
13,1,right,163,0.1901299881530563,14.38,303,in,i,0.6497457027435303,out,0
13,1,right,164,0.0444444444444444,15.36,317,out,i,0.5641107559204102,out,1
13,1,right,165,0.0444444444444444,18.13,363,out,i,0.7730395793914795,out,1
13,1,right,166,0.0444444444444444,4.44,186,out,u,0.4259500503540039,in,0
13,1,right,167,0.1306547027588974,16.84,341,in,i,0.6222772598266602,out,0
13,1,right,168,0.0444444444444444,0.01,150,out,i,0.6679174900054932,out,1
13,1,right,169,0.0444444444444444,13.12,285,out,u,0.6391825675964355,in,0
13,1,right,170,0.0444444444444444,0.05,150,out,i,0.6962592601776123,out,1
13,1,right,171,0.0444444444444444,3.02,174,out,u,0.7651476860046387,in,0
13,1,right,172,0.0444444444444444,3.67,179,out,i,0.5605723857879639,out,1
13,1,right,173,0.1992395732695614,14.9,310,in,i,0.7363631725311279,out,0
13,1,right,174,0.1967916365307053,15.33,317,in,u,1.1986064910888672,in,1
13,1,right,175,0.0444444444444444,17.61,354,out,u,0.596998929977417,in,0
13,1,right,176,0.0444444444444444,9.5,238,out,i,0.6677501201629639,out,1
13,1,right,177,0.0444444444444444,17.94,360,out,u,0.7811038494110107,in,0
13,1,right,178,0.1577711375482718,13.63,292,in,i,0.4282069206237793,out,0
13,1,right,179,0.1270407608337813,16.9,342,in,i,1.3521521091461182,out,0
13,1,right,180,0.0829257381666969,12.35,274,in,u,0.5518388748168945,in,1
13,1,right,181,0.199466337231708,15.03,312,in,u,0.5501797199249268,in,1
13,1,right,182,0.0444444444444444,10.73,253,out,i,0.7757327556610107,out,1
13,1,right,183,0.0444444444444444,1.6,162,out,i,0.8535623550415039,out,1
13,1,right,184,0.0444444444444444,2.68,171,out,i,0.5702393054962158,out,1
13,1,right,185,0.0444444444444444,3.28,176,out,u,0.8803284168243408,in,0
13,1,right,186,0.0930507912376186,17.47,352,in,i,0.7230491638183594,out,0
13,1,right,187,0.019355139402609,19.32,385,in,u,0.971867561340332,in,1
13,1,right,188,0.0444444444444444,11.17,259,out,i,0.4951436519622803,out,1
13,1,right,189,0.0444444444444444,8.55,228,out,i,0.5227353572845459,out,1
13,1,right,190,0.0444444444444444,6.96,211,out,i,0.6508426666259766,out,1
13,1,right,191,0.0444444444444444,3.92,182,out,i,0.7450220584869385,out,1
13,1,right,192,0.1892266468733199,15.65,322,in,u,1.1678247451782227,in,1
13,1,right,193,0.105352090813871,12.74,279,in,u,0.5822863578796387,in,1
13,1,right,194,0.0791193907069271,17.72,356,in,i,0.6370501518249512,out,0
13,1,right,195,0.0444444444444444,22.39,447,out,i,1.0101656913757324,out,1
13,1,right,196,0.0444444444444444,15.72,323,out,u,0.9006102085113525,in,0
13,1,right,197,0.0444444444444444,9.32,236,out,i,0.526289701461792,out,1
13,1,right,198,0.1738069996892409,16.05,328,in,u,1.3610239028930664,in,1
13,1,right,199,0.0092124698650067,19.96,397,in,i,0.58034348487854,out,0
13,1,right,200,0.0444444444444444,11.62,264,out,i,0.5538389682769775,out,1
14,3,right,1,0.0092124698650067,19.96,397,in,u,3.861156702041626,in,1
14,3,right,2,0.0444444444444444,0.54,154,out,i,1.3000421524047852,out,1
14,3,right,3,0.0444444444444444,5.18,193,out,i,2.4048404693603516,out,1
14,3,right,4,0.0444444444444444,18.45,369,out,u,4.381359815597534,in,0
14,3,right,5,0.0444444444444444,21.94,438,out,u,2.1803317070007324,in,0
14,3,right,6,0.0444444444444444,10.46,250,out,i,1.8510212898254395,out,1
14,3,right,7,0.1901299881530563,14.38,303,in,u,3.087002754211426,in,1
14,3,right,8,0.0444444444444444,10.18,246,out,i,1.2262442111968994,out,1
14,3,right,9,0.1837811203886059,14.19,300,in,u,1.4954946041107178,in,1
14,3,right,10,0.0444444444444444,2.09,166,out,i,1.401618242263794,out,1
14,3,right,11,0.0444444444444444,19.72,393,out,i,1.4494693279266357,out,1
14,3,right,12,0.1955386359830796,14.6,306,in,u,1.2214648723602295,in,1
14,3,right,13,0.0435210829592398,11.51,263,in,i,2.5481324195861816,out,0
14,3,right,14,0.0444444444444444,14.57,305,out,u,1.1802842617034912,in,0
14,3,right,15,0.1940557495143981,15.47,319,in,u,1.332061529159546,in,1
14,3,right,16,0.1077386068402415,17.22,348,in,i,1.7244248390197754,out,0
14,3,right,17,0.1953407533091555,15.41,318,in,u,1.6530828475952148,in,1
14,3,right,18,0.0672182969433732,17.95,360,in,i,1.2577905654907227,out,0
14,3,right,19,0.0036893322750674,20.65,411,in,i,1.1256628036499023,out,0
14,3,right,20,0.0444444444444444,17.94,360,out,u,2.0166635513305664,in,0
14,3,right,21,0.0387723741431307,18.62,372,in,u,2.3003110885620117,in,1
14,3,right,22,0.1425307814292596,13.36,288,in,u,1.2703778743743896,in,1
14,3,right,23,0.105352090813871,12.74,279,in,i,0.866889238357544,out,0
14,3,right,24,0.0444444444444444,6.5,206,out,i,1.1337103843688965,out,1
14,3,right,25,0.0431424739536809,18.5,370,in,u,1.4381566047668457,in,1
14,3,right,26,0.0444444444444444,9.71,241,out,i,1.316690444946289,out,1
14,3,right,27,0.0444444444444444,17.74,356,out,u,1.0928435325622559,in,0
14,3,right,28,0.0444444444444444,22.26,444,out,i,1.422856330871582,out,1
14,3,right,29,0.0444444444444444,20.54,409,out,i,1.1500341892242432,out,1
14,3,right,30,0.0444444444444444,6.18,203,out,i,1.0152904987335205,out,1
14,3,right,31,0.1270407608337813,16.9,342,in,u,1.7499966621398926,in,1
14,3,right,32,0.0444444444444444,18.13,363,out,i,1.414703369140625,out,1
14,3,right,33,0.0444444444444444,4.81,190,out,i,0.995527982711792,out,1
14,3,right,34,0.1798719999266348,14.09,298,in,u,1.042865514755249,in,1
14,3,right,35,0.1407725526860631,16.67,338,in,u,1.0227758884429932,in,1
14,3,right,36,0.0444444444444444,17.61,354,out,u,1.0048515796661377,in,0
14,3,right,37,0.0444444444444444,20.02,398,out,i,1.6115310192108154,out,1
14,3,right,38,0.0614144706922352,11.93,268,in,u,1.1615614891052246,in,1
14,3,right,39,0.0444444444444444,12.3,273,out,u,2.5214154720306396,in,0
14,3,right,40,0.1378213093627494,13.28,287,in,u,1.002253770828247,in,1
14,3,right,41,0.1889170417974022,15.66,322,in,u,1.5522305965423584,in,1
14,3,right,42,0.0444444444444444,16.02,328,out,u,0.9775075912475586,in,0
14,3,right,43,0.0753953412833294,12.21,272,in,u,1.4981069564819336,in,1
14,3,right,44,0.0444444444444444,22.17,442,out,i,1.2349565029144287,out,1
14,3,right,45,0.0444444444444444,7.45,216,out,i,1.633342981338501,out,1
14,3,right,46,0.0444444444444444,8.55,228,out,u,1.342132329940796,in,0
14,3,right,47,0.0791193907069271,17.72,356,in,u,0.8222243785858154,in,1
14,3,right,48,0.0444444444444444,19.71,392,out,i,2.9167604446411133,out,1
14,3,right,49,0.195731825757865,14.61,306,in,u,1.3095524311065674,in,1
14,3,right,50,0.0444444444444444,17.48,352,out,u,1.2227542400360107,in,0
14,3,right,51,0.0444444444444444,7.84,220,out,i,0.8928759098052979,out,1
14,3,right,52,0.0444444444444444,1.6,162,out,i,1.134962797164917,out,1
14,3,right,53,0.1738069996892409,16.05,328,in,u,1.1363718509674072,in,1
14,3,right,54,0.1981740106511521,14.77,308,in,u,2.337071657180786,in,1
14,3,right,55,0.1992395732695614,14.9,310,in,u,1.4108433723449707,in,1
14,3,right,56,0.0444444444444444,2.68,171,out,i,0.9214920997619629,out,1
14,3,right,57,0.0444444444444444,20.62,410,out,i,1.170365333557129,out,1
14,3,right,58,0.1197861400293165,12.98,283,in,u,1.1863863468170166,in,1
14,3,right,59,0.18629063098582271,14.26,301,in,u,1.2170183658599854,in,1
14,3,right,60,0.0357033844356709,11.29,260,in,u,1.0803306102752686,in,1
14,3,right,61,0.0444444444444444,2.25,167,out,i,0.9224469661712646,out,1
14,3,right,62,0.0444444444444444,3.02,174,out,i,0.8843345642089844,out,1
14,3,right,63,0.0829257381666969,12.35,274,in,u,1.0653750896453857,in,1
14,3,right,64,0.0398349826151916,18.59,372,in,i,2.676043748855591,out,0
14,3,right,65,0.080198754627123,12.3,273,in,u,1.1435506343841553,in,1
14,3,right,66,0.0444444444444444,18.54,371,out,u,1.0969798564910889,in,0
14,3,right,67,0.1942814704981104,14.54,305,in,u,1.1788392066955566,in,1
14,3,right,68,0.0444444444444444,4.44,186,out,i,0.9055883884429932,out,1
14,3,right,69,0.0444444444444444,5.58,197,out,i,0.6281592845916748,out,1
14,3,right,70,0.0444444444444444,13.32,287,out,u,0.7055554389953613,in,0
14,3,right,71,0.1987694253586057,14.83,309,in,u,0.9652194976806641,in,1
14,3,right,72,0.0444444444444444,7.3,214,out,u,2.635622262954712,in,0
14,3,right,73,0.0148286035285384,10.44,250,in,u,1.7137103080749512,in,1
14,3,right,74,0.0444444444444444,5.72,198,out,i,1.1221923828125,out,1
14,3,right,75,0.1276440443376951,13.11,284,in,u,0.9493849277496338,in,1
14,3,right,76,0.1947190959507421,14.56,305,in,u,1.0204229354858398,in,1
14,3,right,77,0.1442785038784717,16.61,337,in,u,0.906186580657959,in,1
14,3,right,78,0.0444444444444444,14.38,303,out,u,1.301039218902588,in,0
14,3,right,79,0.0444444444444444,8.55,228,out,u,1.0803778171539307,in,0
14,3,right,80,0.1252291784733381,16.93,343,in,u,1.5176737308502197,in,1
14,3,right,81,0.1959203083328452,15.38,318,in,u,1.0843183994293213,in,1
14,3,right,82,0.0377296209072985,11.35,261,in,u,1.2168025970458984,in,1
14,3,right,83,0.1935905741492859,15.49,319,in,u,1.2382638454437256,in,1
14,3,right,84,0.1431145682999598,16.63,338,in,u,0.8602211475372314,in,1
14,3,right,85,0.1488807256544706,13.47,289,in,u,0.7929003238677979,in,1
14,3,right,86,0.0444444444444444,3.51,178,out,i,0.9837362766265869,out,1
14,3,right,87,0.0444444444444444,11.62,264,out,u,1.366905927658081,in,0
14,3,right,88,0.019355139402609,19.32,385,in,i,3.8380308151245117,out,0
14,3,right,89,0.0033880193442544,9.29,236,in,u,1.578874111175537,in,1
14,3,right,90,0.0444444444444444,16.41,334,out,u,2.315380811691284,in,0
14,3,right,91,0.0444444444444444,12.67,278,out,u,1.9715533256530762,in,0
14,3,right,92,0.1975433366628491,15.28,316,in,u,2.7168242931365967,in,1
14,3,right,93,0.0444444444444444,0.01,150,out,i,0.9102106094360352,out,1
14,3,right,94,0.1577711375482718,13.63,292,in,u,1.6653714179992676,in,1
14,3,right,95,0.0444444444444444,0.16,151,out,i,0.9333486557006836,out,1
14,3,right,96,0.0444444444444444,17.77,357,out,u,1.2530670166015625,in,0
14,3,right,97,0.0199902666263887,10.71,253,in,u,2.0255722999572754,in,1
14,3,right,98,0.0444444444444444,15.75,323,out,u,1.1268880367279053,in,0
14,3,right,99,0.1471655268705282,13.44,289,in,u,2.249451160430908,in,1
14,3,right,100,0.0444444444444444,11.17,259,out,u,1.092905044555664,in,0
14,3,right,101,0.0444444444444444,0.15,151,out,i,0.7595913410186768,out,1
14,3,right,102,0.1928587366418353,14.48,304,in,u,0.822791576385498,in,1
14,3,right,103,0.1892266468733199,15.65,322,in,u,0.8843543529510498,in,1
14,3,right,104,0.199466337231708,15.03,312,in,u,1.2082123756408691,in,1
14,3,right,105,0.0444444444444444,3.13,175,out,i,0.734377384185791,out,1
14,3,right,106,0.0444444444444444,18.73,374,out,i,1.2388584613800049,out,1
14,3,right,107,0.1786284564560855,15.94,326,in,u,1.284334421157837,in,1
14,3,right,108,0.1909946632223051,15.59,321,in,u,0.7835204601287842,in,1
14,3,right,109,0.1982855148897704,15.22,315,in,u,0.8863489627838135,in,1
14,3,right,110,0.1882852285853879,14.32,302,in,u,0.961907148361206,in,1
14,3,right,111,0.0444444444444444,10.73,253,out,u,0.7480401992797852,in,0
14,3,right,112,0.0444444444444444,5.63,197,out,u,1.3228201866149902,in,0
14,3,right,113,0.1751614265926797,16.02,328,in,u,0.8614892959594727,in,1
14,3,right,114,0.0444444444444444,21.15,421,out,i,0.9614982604980469,out,1
14,3,right,115,0.0444444444444444,11.34,261,out,u,0.9146900177001953,in,0
14,3,right,116,0.141359739671713,16.66,338,in,u,1.0275499820709229,in,1
14,3,right,117,0.1191812551022675,12.97,282,in,u,0.8500220775604248,in,1
14,3,right,118,0.0444444444444444,18.63,372,out,i,1.0689811706542969,out,1
14,3,right,119,0.0444444444444444,17.14,346,out,u,1.2411003112792969,in,0
14,3,right,120,0.0444444444444444,0.05,150,out,i,1.1666841506958008,out,1
14,3,right,121,0.0444444444444444,21.83,435,out,i,0.9727921485900879,out,1
14,3,right,122,0.0444444444444444,3.92,182,out,i,0.8455193042755127,out,1
14,3,right,123,0.0444444444444444,20.1,400,out,u,3.0260510444641113,in,0
14,3,right,124,0.1209960604027563,17,344,in,u,1.0714387893676758,in,1
14,3,right,125,0.0444444444444444,12.64,278,out,u,0.9320847988128662,in,0
14,3,right,126,0.1926057755919956,14.47,304,in,i,3.1000092029571533,out,0
14,3,right,127,0.1710140105883966,16.11,329,in,u,1.501577377319336,in,1
14,3,right,128,0.1967916365307053,15.33,317,in,i,1.433319330215454,out,0
14,3,right,129,0.0444444444444444,14.38,303,out,u,1.7501442432403564,in,0
14,3,right,130,0.0947799592325099,12.56,277,in,u,1.326197862625122,in,1
14,3,right,131,0.0856918726666512,17.6,354,in,u,1.3509595394134521,in,1
14,3,right,132,0.0444444444444444,8.6,228,out,u,1.5355958938598633,in,0
14,3,right,133,0.1940557495143981,14.53,305,in,u,0.9843356609344482,in,1
14,3,right,134,0.0444444444444444,10.14,246,out,u,1.9435632228851318,in,0
14,3,right,135,0.0444444444444444,11.49,263,out,u,1.503741979598999,in,0
14,3,right,136,0.0444444444444444,1.89,164,out,i,0.9788329601287842,out,1
14,3,right,137,0.1185764602183948,17.04,344,in,u,1.0739843845367432,in,1
14,3,right,138,0.0930507912376186,17.47,352,in,u,1.4530692100524902,in,1
14,3,right,139,0.110135121189941,12.82,280,in,u,1.5941441059112549,in,1
14,3,right,140,0.0444444444444444,3.67,179,out,i,1.201019048690796,out,1
14,3,right,141,0.0444444444444444,16.16,330,out,u,1.0388598442077637,in,0
14,3,right,142,0.0444444444444444,18.43,369,out,u,1.0676522254943848,in,0
14,3,right,143,0.1270407608337813,13.1,284,in,u,1.503711462020874,in,1
14,3,right,144,0.1300534456575979,16.85,341,in,u,1.217670202255249,in,1
14,3,right,145,0.0444444444444444,7.65,218,out,u,1.0881104469299316,in,0
14,3,right,146,0.0444444444444444,9.5,238,out,u,1.6588566303253174,in,0
14,3,right,147,0.0444444444444444,5.72,198,out,i,0.911508321762085,out,1
14,3,right,148,0.1972571063917844,14.7,307,in,u,0.9048895835876465,in,1
14,3,right,149,0.0444444444444444,9.32,236,out,u,1.1713345050811768,in,0
14,3,right,150,0.1859439875974732,15.75,323,in,u,0.9000017642974854,in,1
14,3,right,151,0.0444444444444444,22.44,448,out,i,1.198779821395874,out,1
14,3,right,152,0.1550438509731031,13.58,291,in,u,1.0281453132629395,in,1
14,3,right,153,0.1620241642930854,13.71,293,in,u,1.1146960258483887,in,1
14,3,right,154,0.0444444444444444,7.79,219,out,i,1.6601877212524414,out,1
14,3,right,155,0.1990678032240969,15.13,314,in,u,1.528207778930664,in,1
14,3,right,156,0.0444444444444444,15.43,318,out,u,1.1774983406066895,in,0
14,3,right,157,0.0444444444444444,3.0700000000000003,174,out,i,0.7288336753845215,out,1
14,3,right,158,0.0309789513888337,18.86,376,in,i,1.2014763355255127,out,0
14,3,right,159,0.0444444444444444,15.72,323,out,u,3.0716264247894287,in,0
14,3,right,160,0.0444444444444444,6.96,211,out,i,1.7715024948120117,out,1
14,3,right,161,0.1879630660618289,14.31,302,in,u,1.3011062145233154,in,1
14,3,right,162,0.0444444444444444,16.99,344,out,u,0.9244229793548584,in,0
14,3,right,163,0.1348476316267912,16.77,340,in,u,0.9577319622039795,in,1
14,3,right,164,0.0444444444444444,14.09,298,out,u,2.0774991512298584,in,0
14,3,right,165,0.1419458272271371,13.35,288,in,u,1.5448360443115234,in,1
14,3,right,166,0.1686048794969123,13.84,295,in,u,1.2095081806182861,in,1
14,3,right,167,0.1318556793781222,13.18,285,in,i,1.4393906593322754,out,0
14,3,right,168,0.0444444444444444,5.09,192,out,i,0.7819781303405762,out,1
14,3,right,169,0.0444444444444444,5.42,195,out,i,1.5168020725250244,out,1
14,3,right,170,0.0959385599838224,17.42,351,in,u,1.4160711765289307,in,1
14,3,right,171,0.0444444444444444,8.91,232,out,u,1.300382137298584,in,0
14,3,right,172,0.1246248452320209,13.06,284,in,u,0.8160135746002197,in,1
14,3,right,173,0.0444444444444444,10.99,256,out,u,0.6288995742797852,in,0
14,3,right,174,0.1876367637917333,15.7,323,in,u,1.3314430713653564,in,1
14,3,right,175,0.1826474855058999,14.16,299,in,u,2.387072801589966,in,1
14,3,right,176,0.0444444444444444,3.28,176,out,i,1.0182702541351318,out,1
14,3,right,177,0.084027614293741,17.63,355,in,i,1.224353313446045,out,0
14,3,right,178,0.0444444444444444,9.63,240,out,u,6.684909105300903,in,0
14,3,right,179,0.0444444444444444,15.36,317,out,u,2.9601857662200928,in,0
14,3,right,180,0.1918201062897904,15.56,320,in,u,5.352234363555908,in,1
14,3,right,181,0.1651155425002292,16.23,331,in,u,4.833387851715088,in,1
14,3,right,182,0.099440351939599,12.64,278,in,i,2.463707685470581,out,0
14,3,right,183,0.0444444444444444,13.12,285,out,u,1.9948818683624268,in,0
14,3,right,184,0.1630644442897305,16.27,332,in,u,3.793576717376709,in,1
14,3,right,185,0.1306547027588974,16.84,341,in,u,5.400183200836182,in,1
14,3,right,186,0.1454373611580521,13.41,289,in,u,2.0547471046447754,in,1
14,3,right,187,0.1961040697466109,15.37,318,in,u,1.5954773426055908,in,1
14,3,right,188,0.0444444444444444,3.48,178,out,i,3.2834632396698,out,1
14,3,right,189,0.0444444444444444,22.39,447,out,i,1.9015986919403076,out,1
14,3,right,190,0.1240203278460704,16.95,343,in,i,1.58433198928833,out,0
14,3,right,191,0.0444444444444444,13.64,292,out,u,3.0000433921813965,in,0
14,3,right,192,0.1967916365307053,15.33,317,in,u,2.5016345977783203,in,1
14,3,right,193,0.1786284564560855,14.06,298,in,u,2.471503496170044,in,1
14,3,right,194,0.0444444444444444,1.82,164,out,i,1.6836962699890137,out,1
14,3,right,195,0.0444444444444444,20.61,410,out,i,4.047939777374268,out,1
14,3,right,196,0.0444444444444444,14.34,302,out,i,9.844074487686157,out,1
14,3,right,197,0.0444444444444444,11.28,260,out,i,1.5848853588104248,out,1
14,3,right,198,0.1620241642930854,13.71,293,in,u,5.24093770980835,in,1
14,3,right,199,0.1994488846907601,15.04,312,in,u,4.268860101699829,in,1
14,3,right,200,0.0444444444444444,11.66,265,out,u,2.8169803619384766,in,0
15,1,left,1,0.0444444444444444,20.54,409,out,i,5.801603078842163,out,1
15,1,left,2,0.0444444444444444,18.43,369,out,i,1.5552918910980225,out,1
15,1,left,3,0.0444444444444444,3.67,179,out,u,0.594890832901001,in,0
15,1,left,4,0.0444444444444444,9.71,241,out,i,1.067202091217041,out,1
15,1,left,5,0.1306547027588974,9.34,237,in,i,1.9176723957061768,out,0
15,1,left,6,0.0444444444444444,21.15,421,out,i,2.2701075077056885,out,1
15,1,left,7,0.1454373611580521,5.91,200,in,i,1.0777812004089355,out,0
15,1,left,8,0.0614144706922352,4.43,186,in,u,2.2500596046447754,in,1
15,1,left,9,0.1751614265926797,8.52,227,in,i,0.8445565700531006,out,0
15,1,left,10,0.0444444444444444,5.72,198,out,u,0.9162533283233643,in,0
15,1,left,11,0.0444444444444444,18.63,372,out,i,1.740607738494873,out,1
15,1,left,12,0.1348476316267912,9.27,236,in,u,1.8382070064544678,in,1
15,1,left,13,0.0444444444444444,17.94,360,out,i,3.0880820751190186,out,1
15,1,left,14,0.1077386068402413,9.72,241,in,u,1.2731311321258545,in,1
15,1,left,15,0.1967916365307053,7.83,220,in,u,0.8492734432220459,in,1
15,1,left,16,0.0444444444444444,5.18,193,out,i,1.2069065570831299,out,1
15,1,left,17,0.1901299881530563,6.88,210,in,u,0.8301486968994141,in,1
15,1,left,18,0.1994488846907601,7.54,217,in,i,0.8396782875061035,out,0
15,1,left,19,0.0444444444444444,19.71,392,out,i,0.7058892250061035,out,1
15,1,left,20,0.0036893322750674,13.15,285,in,i,2.8813071250915527,out,0
15,1,left,21,0.0444444444444444,14.09,298,out,u,0.8132343292236328,in,0
15,1,left,22,0.1942814704981104,7.04,211,in,u,2.195906162261963,in,1
15,1,left,23,0.079119390706927,10.22,247,in,u,0.9201881885528564,in,1
15,1,left,24,0.130053445657598,9.35,237,in,u,1.128894567489624,in,1
15,1,left,25,0.1955386359830796,7.1,212,in,u,0.6219408512115479,in,1
15,1,left,26,0.0444444444444444,3.28,176,out,i,0.898284912109375,out,1
15,1,left,27,0.0753953412833294,4.71,189,in,i,0.5915167331695557,out,0
15,1,left,28,0.0444444444444444,15.75,323,out,i,0.8265812397003174,out,1
15,1,left,29,0.1471655268705283,5.94,200,in,i,0.8307490348815918,out,0
15,1,left,30,0.0444444444444444,3.0700000000000003,174,out,i,1.3077480792999268,out,1
15,1,left,31,0.0444444444444444,6.96,211,out,u,0.5046091079711914,in,0
15,1,left,32,0.0431424739536809,11,257,in,i,0.9967403411865234,out,0
15,1,left,33,0.0444444444444444,17.77,357,out,i,0.728679895401001,out,1
15,1,left,34,0.199466337231708,7.53,217,in,u,1.1201205253601074,in,1
15,1,left,35,0.1990678032240969,7.63,218,in,u,0.6808300018310547,in,1
15,1,left,36,0.0444444444444444,2.68,171,out,u,0.4700038433074951,in,0
15,1,left,37,0.1252291784733381,9.43,238,in,i,0.7023234367370605,out,0
15,1,left,38,0.0444444444444444,1.89,164,out,i,0.7028963565826416,out,1
15,1,left,39,0.1826474855058999,6.66,208,in,u,0.7117214202880859,in,1
15,1,left,40,0.0444444444444444,11.34,261,out,u,0.7134063243865967,in,0
15,1,left,41,0.0444444444444444,8.55,228,out,u,1.2669143676757812,in,0
15,1,left,42,0.1909946632223051,8.09,223,in,u,1.1644766330718994,in,1
15,1,left,43,0.1431145682999597,9.13,234,in,i,0.6421847343444824,out,0
15,1,left,44,0.0444444444444444,16.02,328,out,i,0.723330020904541,out,1
15,1,left,45,0.1240203278460704,9.45,238,in,i,0.5969405174255371,out,0
15,1,left,46,0.0444444444444444,20.61,410,out,i,0.6362385749816895,out,1
15,1,left,47,0.0444444444444444,9.63,240,out,u,0.4915127754211426,in,0
15,1,left,48,0.0444444444444444,0.54,154,out,i,1.4957103729248047,out,1
15,1,left,49,0.0444444444444444,4.81,190,out,u,0.5627124309539795,in,0
15,1,left,50,0.0444444444444444,0.01,150,out,u,0.8165693283081055,in,0
15,1,left,51,0.0444444444444444,17.74,356,out,u,0.699944019317627,in,0
15,1,left,52,0.1928587366418353,6.98,211,in,i,0.5020663738250732,out,0
15,1,left,53,0.1630644442897305,8.77,230,in,u,0.7336642742156982,in,1
15,1,left,54,0.0829257381666969,4.85,190,in,u,0.583683967590332,in,1
15,1,left,55,0.1981740106511521,7.27,214,in,u,0.5430929660797119,in,1
15,1,left,56,0.1967916365307053,7.83,220,in,u,0.6280848979949951,in,1
15,1,left,57,0.1959203083328453,7.88,220,in,u,0.531322717666626,in,1
15,1,left,58,0.0092124698650067,12.46,275,in,i,0.5368161201477051,out,0
15,1,left,59,0.1947190959507421,7.0600000000000005,212,in,u,0.6174492835998535,in,1
15,1,left,60,0.0444444444444444,1.82,164,out,i,0.7009751796722412,out,1
15,1,left,61,0.0444444444444444,5.09,192,out,u,0.9252009391784668,in,0
15,1,left,62,0.0444444444444444,14.38,303,out,i,1.8390085697174072,out,1
15,1,left,63,0.0444444444444444,14.38,303,out,i,0.45411062240600586,out,1
15,1,left,64,0.1651155425002292,8.73,230,in,u,0.8356208801269531,in,1
15,1,left,65,0.105352090813871,5.24,194,in,u,0.8336701393127441,in,1
15,1,left,66,0.0444444444444444,0.16,151,out,i,0.48417234420776367,out,1
15,1,left,67,0.1940557495143982,7.03,211,in,i,0.5823750495910645,out,0
15,1,left,68,0.141359739671713,9.16,235,in,u,0.6780133247375488,in,1
15,1,left,69,0.0947799592325099,5.0600000000000005,192,in,u,0.51912689208984375,in,1
15,1,left,70,0.0930507912376185,9.97,244,in,u,0.5617480278015137,in,1
15,1,left,71,0.0444444444444444,12.64,278,out,i,0.47081565856933594,out,1
15,1,left,72,0.0387723741431307,11.12,258,in,i,1.16239333152771,out,0
15,1,left,73,0.0444444444444444,18.54,371,out,i,0.5129384994506836,out,1
15,1,left,74,0.0444444444444444,12.67,278,out,i,1.1383907794952393,out,1
15,1,left,75,0.0377296209072985,3.85,181,in,u,0.5545129776000977,in,1
15,1,left,76,0.0444444444444444,10.73,253,out,i,0.809288501739502,out,1
15,1,left,77,0.0444444444444444,0.15,151,out,i,1.0324015617370605,out,1
15,1,left,78,0.0444444444444444,11.49,263,out,i,0.7464816570281982,out,1
15,1,left,79,0.019355139402609,11.82,267,in,i,0.5528185367584229,out,0
15,1,left,80,0.1442785038784717,9.11,234,in,u,0.9116883277893066,in,1
15,1,left,81,0.0444444444444444,17.14,346,out,i,0.46198296546936035,out,1
15,1,left,82,0.0444444444444444,7.84,220,out,u,0.6137356758117676,in,0
15,1,left,83,0.0444444444444444,8.6,228,out,u,0.5786590576171875,in,0
15,1,left,84,0.1550438509731031,6.08,202,in,i,0.825223445892334,out,0
15,1,left,85,0.0444444444444444,6.18,203,out,u,0.5255618095397949,in,0
15,1,left,86,0.0444444444444444,9.32,236,out,i,0.6872544288635254,out,1
15,1,left,87,0.0148286035285384,2.94,173,in,u,0.4529123306274414,in,1
15,1,left,88,0.1425307814292597,5.86,200,in,u,0.47292256355285645,in,1
15,1,left,89,0.0444444444444444,6.5,206,out,u,0.5967154502868652,in,0
15,1,left,90,0.1961040697466109,7.87,220,in,i,0.5619914531707764,out,0
15,1,left,91,0.1246248452320208,5.56,197,in,u,0.5872025489807129,in,1
15,1,left,92,0.0444444444444444,14.57,305,out,i,0.6712167263031006,out,1
15,1,left,93,0.1276440443376951,5.61,197,in,u,0.6180672645568848,in,1
15,1,left,94,0.0444444444444444,18.73,374,out,i,0.4865090847015381,out,1
15,1,left,95,0.0444444444444444,11.28,260,out,i,0.47104907035827637,out,1
15,1,left,96,0.0444444444444444,1.6,162,out,u,0.5830497741699219,in,0
15,1,left,97,0.1270407608337813,5.6,197,in,u,0.5215437412261963,in,1
15,1,left,98,0.1892266468733199,8.15,223,in,u,0.6804776191711426,in,1
15,1,left,99,0.0444444444444444,3.48,178,out,u,0.4699101448059082,in,0
15,1,left,100,0.0444444444444444,16.99,344,out,i,0.6528458595275879,out,1
15,1,left,101,0.0444444444444444,15.43,318,out,i,1.0177035331726074,out,1
15,1,left,102,0.1975433366628491,7.78,219,in,i,0.49610161781311035,out,0
15,1,left,103,0.0959385599838225,9.92,243,in,i,0.8639276027679443,out,0
15,1,left,104,0.0444444444444444,3.92,182,out,u,0.5998327732086182,in,0
15,1,left,105,0.0444444444444444,13.32,287,out,i,1.278860330581665,out,1
15,1,left,106,0.0444444444444444,13.12,285,out,i,0.41788530349731445,out,1
15,1,left,107,0.1859439875974732,8.25,224,in,u,0.605893611907959,in,1
15,1,left,108,0.0444444444444444,0.05,150,out,i,0.7090094089508057,out,1
15,1,left,109,0.0444444444444444,2.09,166,out,u,0.6859033107757568,in,0
15,1,left,110,0.0444444444444444,16.16,330,out,i,0.7505466938018799,out,1
15,1,left,111,0.1972571063917844,7.2,213,in,u,0.4864630699157715,in,1
15,1,left,112,0.0444444444444444,5.58,197,out,u,0.45623230934143066,in,0
15,1,left,113,0.099440351939599,5.14,193,in,u,0.8184654712677002,in,1
15,1,left,114,0.0309789513888337,11.36,261,in,i,1.4549098014831543,out,0
15,1,left,115,0.1620241642930854,6.21,203,in,i,5.230061769485474,out,0
15,1,left,116,0.1407725526860632,9.17,235,in,i,0.8150346279144287,out,0
15,1,left,117,0.0444444444444444,3.13,175,out,i,0.8035562038421631,out,1
15,1,left,118,0.1786284564560855,6.56,207,in,u,7.982335329055786,in,1
15,1,left,119,0.0801987546271229,4.8,190,in,u,0.6156826019287109,in,1
15,1,left,120,0.0444444444444444,9.5,238,out,i,0.6860785484313965,out,1
15,1,left,121,0.0435210829592398,4.01,182,in,u,0.448932409286499,in,1
15,1,left,122,0.0444444444444444,22.17,442,out,i,0.5855100154876709,out,1
15,1,left,123,0.0444444444444444,18.13,363,out,i,0.6237223148345947,out,1
15,1,left,124,0.0444444444444444,4.44,186,out,u,0.4975156784057617,in,0
15,1,left,125,0.0444444444444444,21.83,435,out,i,0.5295183658599854,out,1
15,1,left,126,0.0444444444444444,3.02,174,out,i,1.1374382972717285,out,1
15,1,left,127,0.0444444444444444,10.14,246,out,u,0.794461727142334,in,0
15,1,left,128,0.0444444444444444,13.64,292,out,i,1.80224609375,out,1
15,1,left,129,0.0444444444444444,20.1,400,out,i,0.7493658065795898,out,1
15,1,left,130,0.0398349826151916,11.09,258,in,i,0.7641243934631348,out,0
15,1,left,131,0.0357033844356709,3.79,180,in,i,1.043703317642212,out,0
15,1,left,132,0.1953407533091555,7.91,221,in,i,0.8843698501586914,out,0
15,1,left,133,0.1686048794969123,6.34,204,in,u,0.5346665382385254,in,1
15,1,left,134,0.0033880193442544,1.79,164,in,i,1.0179824829101562,out,0
15,1,left,135,0.1577711375482717,6.13,202,in,u,0.7317402362823486,in,1
15,1,left,136,0.0444444444444444,22.26,444,out,i,0.5540342330932617,out,1
15,1,left,137,0.0444444444444444,11.62,264,out,i,0.7534224987030029,out,1
15,1,left,138,0.0856918726666513,10.1,246,in,i,0.41022348403930664,out,0
15,1,left,139,0.0444444444444444,3.51,178,out,u,0.5687048435211182,in,0
15,1,left,140,0.1620241642930854,6.21,203,in,i,0.6615509986877441,out,0
15,1,left,141,0.1710140105883966,8.61,228,in,i,0.712141752243042,out,0
15,1,left,142,0.0672182969433732,10.45,250,in,u,0.6508097648620605,in,1
15,1,left,143,0.0444444444444444,16.41,334,out,i,0.5556437969207764,out,1
15,1,left,144,0.1786284564560855,8.44,226,in,u,0.3886444568634033,in,1
15,1,left,145,0.0444444444444444,8.91,232,out,u,0.6438291072845459,in,0
15,1,left,146,0.0444444444444444,20.62,410,out,i,0.581514835357666,out,1
15,1,left,147,0.0199902666263887,3.21,175,in,u,0.5804893970489502,in,1
15,1,left,148,0.1798719999266348,6.59,207,in,u,0.7379953861236572,in,1
15,1,left,149,0.0444444444444444,19.72,393,out,i,0.43020129203796387,out,1
15,1,left,150,0.1882852285853879,6.82,209,in,u,0.44975900650024414,in,1
15,1,left,151,0.0444444444444444,11.66,265,out,i,0.8928647041320801,out,1
15,1,left,152,0.0444444444444444,22.44,448,out,i,0.5328519344329834,out,1
15,1,left,153,0.0444444444444444,10.46,250,out,i,0.4817039966583252,out,1
15,1,left,154,0.0444444444444444,10.18,246,out,i,0.39173126220703125,out,1
15,1,left,155,0.1918201062897904,8.06,222,in,i,0.4056577682495117,out,0
15,1,left,156,0.1926057755919956,6.97,211,in,u,0.6192021369934082,in,1
15,1,left,157,0.0444444444444444,18.45,369,out,i,0.4315831661224365,out,1
15,1,left,158,0.1957318257578651,7.11,212,in,u,0.34888315200805664,in,1
15,1,left,159,0.1982855148897704,7.72,219,in,i,0.9936678409576416,out,0
15,1,left,160,0.0444444444444444,15.72,323,out,i,0.599027156829834,out,1
15,1,left,161,0.0444444444444444,11.17,259,out,u,1.3595092296600342,in,0
15,1,left,162,0.1738069996892409,8.55,228,in,u,0.6383750438690186,in,1
15,1,left,163,0.0444444444444444,2.25,167,out,u,0.5337302684783936,in,0
15,1,left,164,0.1488807256544705,5.97,201,in,i,0.4547886848449707,out,0
15,1,left,165,0.0444444444444444,7.45,216,out,u,0.7540404796600342,in,0
15,1,left,166,0.0444444444444444,7.3,214,out,u,0.49625563621520996,in,0
15,1,left,167,0.1191812551022674,5.47,196,in,i,0.5130913257598877,out,0
15,1,left,168,0.110135121189941,5.32,194,in,u,0.658149242401123,in,1
15,1,left,169,0.1935905741492859,7.99,222,in,u,0.4069092273712158,in,1
15,1,left,170,0.1889170417974022,8.16,223,in,u,0.536839485168457,in,1
15,1,left,171,0.0444444444444444,17.61,354,out,i,0.516359806060791,out,1
15,1,left,172,0.0444444444444444,10.99,256,out,u,1.0357332229614258,in,0
15,1,left,173,0.1209960604027563,9.5,238,in,u,1.214298963546753,in,1
15,1,left,174,0.1270407608337813,9.4,237,in,u,0.5587365627288818,in,1
15,1,left,175,0.0444444444444444,22.39,447,out,i,0.5176422595977783,out,1
15,1,left,176,0.0444444444444444,12.3,273,out,i,0.4062330722808838,out,1
15,1,left,177,0.1419458272271371,5.85,200,in,u,0.4288313388824463,in,1
15,1,left,178,0.0444444444444444,7.65,218,out,u,0.42720937728881836,in,0
15,1,left,179,0.18629063098582271,6.76,209,in,u,0.4939436912536621,in,1
15,1,left,180,0.1992395732695614,7.4,215,in,u,0.4496312141418457,in,1
15,1,left,181,0.1197861400293165,5.48,196,in,u,0.5237264633178711,in,1
15,1,left,182,0.0444444444444444,5.42,195,out,u,0.5745372772216797,in,0
15,1,left,183,0.0444444444444444,5.63,197,out,i,0.833472490310669,out,1
15,1,left,184,0.0444444444444444,17.48,352,out,i,0.6874444484710693,out,1
15,1,left,185,0.183781120388606,6.69,208,in,u,5.528544664382935,in,1
15,1,left,186,0.0444444444444444,7.79,219,out,u,0.4614226818084717,in,0
15,1,left,187,0.1940557495143982,7.97,221,in,i,0.920861005783081,out,0
15,1,left,188,0.1378213093627494,5.78,199,in,u,0.6173818111419678,in,1
15,1,left,189,0.1879630660618289,6.81,209,in,u,0.48074865341186523,in,1
15,1,left,190,0.0444444444444444,15.36,317,out,i,0.6485986709594727,out,1
15,1,left,191,0.0444444444444444,21.94,438,out,i,0.5577528476715088,out,1
15,1,left,192,0.1876367637917333,8.2,224,in,u,0.6614780426025391,in,1
15,1,left,193,0.1987694253586057,7.33,214,in,u,0.36850523948669434,in,1
15,1,left,194,0.0444444444444444,5.72,198,out,u,0.39884209632873535,in,0
15,1,left,195,0.1318556793781222,5.68,198,in,u,0.7412581443786621,in,1
15,1,left,196,0.1185764602183948,9.54,239,in,i,0.6828827857971191,out,0
15,1,left,197,0.0840276142937409,10.13,246,in,i,0.7427551746368408,out,0
15,1,left,198,0.0444444444444444,8.55,228,out,u,0.7971155643463135,in,0
15,1,left,199,0.0444444444444444,20.02,398,out,i,0.848759651184082,out,1
15,1,left,200,0.0444444444444444,14.34,302,out,i,0.43192362785339355,out,1
16,2,left,1,0.0444444444444444,5.72,198,out,u,3.9562883377075195,in,0
16,2,left,2,0.0829257381666969,4.85,190,in,u,2.117335081100464,in,1
16,2,left,3,0.1972571063917844,7.2,213,in,i,1.4360675811767578,out,0
16,2,left,4,0.1577711375482717,6.13,202,in,u,1.4982123374938965,in,1
16,2,left,5,0.0444444444444444,20.02,398,out,i,1.2952892780303955,out,1
16,2,left,6,0.0444444444444444,22.17,442,out,i,0.784395694732666,out,1
16,2,left,7,0.1348476316267912,9.27,236,in,u,1.8115715980529785,in,1
16,2,left,8,0.1992395732695614,7.4,215,in,u,0.9304013252258301,in,1
16,2,left,9,0.0444444444444444,5.18,193,out,u,0.8780837059020996,in,0
16,2,left,10,0.0444444444444444,16.99,344,out,i,0.83290863037109375,out,1
16,2,left,11,0.1786284564560855,6.56,207,in,u,1.8190209865570068,in,1
16,2,left,12,0.0444444444444444,11.28,260,out,i,0.8473069667816162,out,1
16,2,left,13,0.0444444444444444,16.41,334,out,i,0.5481774806976318,out,1
16,2,left,14,0.0444444444444444,14.57,305,out,i,0.5615391731262207,out,1
16,2,left,15,0.0444444444444444,1.89,164,out,u,0.7762422561645508,in,0
16,2,left,16,0.0444444444444444,4.81,190,out,u,1.1617445945739746,in,0
16,2,left,17,0.1407725526860632,9.17,235,in,u,0.840599536895752,in,1
16,2,left,18,0.0444444444444444,6.18,203,out,i,0.7229154109954834,out,1
16,2,left,19,0.1889170417974022,8.16,223,in,u,0.818124532699585,in,1
16,2,left,20,0.1994488846907601,7.54,217,in,u,0.6306803226470947,in,1
16,2,left,21,0.0444444444444444,8.55,228,out,i,0.6806013584136963,out,1
16,2,left,22,0.1982855148897704,7.72,219,in,i,0.6851489543914795,out,0
16,2,left,23,0.1967916365307053,7.83,220,in,i,0.8467392921447754,out,0
16,2,left,24,0.199466337231708,7.53,217,in,u,0.8920316696166992,in,1
16,2,left,25,0.1425307814292597,5.86,200,in,u,0.48534131050109863,in,1
16,2,left,26,0.1276440443376951,5.61,197,in,i,0.9901390075683594,out,0
16,2,left,27,0.0444444444444444,5.58,197,out,u,0.7252743244171143,in,0
16,2,left,28,0.0444444444444444,7.84,220,out,i,0.82987213134765625,out,1
16,2,left,29,0.0444444444444444,2.68,171,out,i,1.2635345458984375,out,1
16,2,left,30,0.0444444444444444,17.74,356,out,i,0.8108437061309814,out,1
16,2,left,31,0.0398349826151916,11.09,258,in,i,1.0112366676330566,out,0
16,2,left,32,0.0672182969433732,10.45,250,in,u,0.7828977108001709,in,1
16,2,left,33,0.0444444444444444,19.72,393,out,i,0.8562543392181396,out,1
16,2,left,34,0.0387723741431307,11.12,258,in,i,0.700869083404541,out,0
16,2,left,35,0.0444444444444444,17.94,360,out,i,0.7887003421783447,out,1
16,2,left,36,0.1942814704981104,7.04,211,in,u,0.8644673824310303,in,1
16,2,left,37,0.0444444444444444,7.65,218,out,u,0.45439958572387695,in,0
16,2,left,38,0.0444444444444444,10.73,253,out,u,1.102079153060913,in,0
16,2,left,39,0.0444444444444444,5.42,195,out,u,0.9606668949127197,in,0
16,2,left,40,0.1928587366418353,6.98,211,in,u,1.6786401271820068,in,1
16,2,left,41,0.0444444444444444,6.96,211,out,u,0.8088288307189941,in,0
16,2,left,42,0.0148286035285384,2.94,173,in,u,1.0702533721923828,in,1
16,2,left,43,0.0444444444444444,11.62,264,out,i,0.9088156223297119,out,1
16,2,left,44,0.0199902666263887,3.21,175,in,u,2.2258121967315674,in,1
16,2,left,45,0.1909946632223051,8.09,223,in,u,1.1592803001403809,in,1
16,2,left,46,0.0444444444444444,5.09,192,out,i,1.4363648891448975,out,1
16,2,left,47,0.0444444444444444,11.66,265,out,u,1.4776451587677002,in,0
16,2,left,48,0.1454373611580521,5.91,200,in,u,0.5620577335357666,in,1
16,2,left,49,0.0444444444444444,17.48,352,out,i,0.6622893810272217,out,1
16,2,left,50,0.0444444444444444,10.46,250,out,i,1.4343087673187256,out,1
16,2,left,51,0.0444444444444444,7.79,219,out,u,0.7028639316558838,in,0
16,2,left,52,0.0444444444444444,5.72,198,out,u,0.7916116714477539,in,0
16,2,left,53,0.110135121189941,5.32,194,in,u,1.0707805156707764,in,1
16,2,left,54,0.0856918726666513,10.1,246,in,i,0.7274131774902344,out,0
16,2,left,55,0.1306547027588974,9.34,237,in,u,0.848505973815918,in,1
16,2,left,56,0.0309789513888337,11.36,261,in,i,0.9789690971374512,out,0
16,2,left,57,0.0377296209072985,3.85,181,in,u,0.6637375354766846,in,1
16,2,left,58,0.1901299881530563,6.88,210,in,u,0.7866311073303223,in,1
16,2,left,59,0.0444444444444444,1.82,164,out,u,0.6019024848937988,in,0
16,2,left,60,0.0444444444444444,18.43,369,out,i,0.8154301643371582,out,1
16,2,left,61,0.0444444444444444,11.34,261,out,i,0.7391958236694336,out,1
16,2,left,62,0.0444444444444444,18.54,371,out,i,0.6947476863861084,out,1
16,2,left,63,0.18629063098582271,6.76,209,in,i,1.623410940170288,out,0
16,2,left,64,0.0444444444444444,12.64,278,out,i,0.8511669635772705,out,1
16,2,left,65,0.183781120388606,6.69,208,in,u,0.69658660888671875,in,1
16,2,left,66,0.0444444444444444,0.15,151,out,i,1.4512131214141846,out,1
16,2,left,67,0.0444444444444444,5.63,197,out,u,1.148477554321289,in,0
16,2,left,68,0.1798719999266348,6.59,207,in,u,0.661083459854126,in,1
16,2,left,69,0.0444444444444444,20.54,409,out,i,2.6408679485321045,out,1
16,2,left,70,0.0444444444444444,3.28,176,out,i,1.2927289009094238,out,1
16,2,left,71,0.1935905741492859,7.99,222,in,u,1.2678618431091309,in,1
16,2,left,72,0.1751614265926797,8.52,227,in,i,1.3051085472106934,out,0
16,2,left,73,0.1318556793781222,5.68,198,in,u,0.5970385074615479,in,1
16,2,left,74,0.0444444444444444,8.6,228,out,u,0.6470673084259033,in,0
16,2,left,75,0.1630644442897305,8.77,230,in,u,0.8746035099029541,in,1
16,2,left,76,0.1442785038784717,9.11,234,in,u,0.41364574432373047,in,1
16,2,left,77,0.0444444444444444,7.45,216,out,u,1.066093921661377,in,0
16,2,left,78,0.0444444444444444,2.09,166,out,u,0.5026719570159912,in,0
16,2,left,79,0.1488807256544705,5.97,201,in,i,0.5783915519714355,out,0
16,2,left,80,0.0444444444444444,21.15,421,out,i,0.8874752521514893,out,1
16,2,left,81,0.0444444444444444,14.38,303,out,i,0.8814449310302734,out,1
16,2,left,82,0.0444444444444444,18.13,363,out,i,0.783644437789917,out,1
16,2,left,83,0.0444444444444444,7.3,214,out,i,1.101773977279663,out,1
16,2,left,84,0.0444444444444444,15.43,318,out,i,0.7837293148040771,out,1
16,2,left,85,0.0444444444444444,10.99,256,out,u,1.2461841106414795,in,0
16,2,left,86,0.0444444444444444,3.13,175,out,i,0.7282583713531494,out,1
16,2,left,87,0.0444444444444444,3.02,174,out,i,0.9477601051330566,out,1
16,2,left,88,0.1987694253586057,7.33,214,in,u,0.9009983539581299,in,1
16,2,left,89,0.1738069996892409,8.55,228,in,u,0.80060577392578125,in,1
16,2,left,90,0.0444444444444444,22.26,444,out,i,0.6125860214233398,out,1
16,2,left,91,0.0033880193442544,1.79,164,in,i,0.8881485462188721,out,0
16,2,left,92,0.0444444444444444,15.36,317,out,i,0.6014838218688965,out,1
16,2,left,93,0.0444444444444444,3.67,179,out,u,0.7136590480804443,in,0
16,2,left,94,0.0444444444444444,9.32,236,out,i,0.5332090854644775,out,1
16,2,left,95,0.0444444444444444,12.3,273,out,i,1.132225513458252,out,1
16,2,left,96,0.1185764602183948,9.54,239,in,u,1.20023512840271,in,1
16,2,left,97,0.099440351939599,5.14,193,in,u,0.832470178604126,in,1
16,2,left,98,0.1710140105883966,8.61,228,in,i,1.0833170413970947,out,0
16,2,left,99,0.1859439875974732,8.25,224,in,i,0.5729172229766846,out,0
16,2,left,100,0.1431145682999597,9.13,234,in,u,0.45001959800720215,in,1
16,2,left,101,0.1191812551022674,5.47,196,in,i,0.614063024520874,out,0
16,2,left,102,0.0444444444444444,3.92,182,out,u,0.6417527198791504,in,0
16,2,left,103,0.0753953412833294,4.71,189,in,i,0.5072546005249023,out,0
16,2,left,104,0.1246248452320208,5.56,197,in,u,0.3841586112976074,in,1
16,2,left,105,0.1786284564560855,8.44,226,in,u,0.8618166446685791,in,1
16,2,left,106,0.0444444444444444,3.0700000000000003,174,out,u,0.6706497669219971,in,0
16,2,left,107,0.0444444444444444,21.83,435,out,u,0.5006816387176514,in,0
16,2,left,108,0.1957318257578651,7.11,212,in,i,0.6965267658233643,out,0
16,2,left,109,0.130053445657598,9.35,237,in,i,2.8645846843719482,out,0
16,2,left,110,0.1378213093627494,5.78,199,in,u,1.5926194190979004,in,1
16,2,left,111,0.1926057755919956,6.97,211,in,u,1.6214966773986816,in,1
16,2,left,112,0.1686048794969123,6.34,204,in,u,1.1039307117462158,in,1
16,2,left,113,0.0444444444444444,10.18,246,out,u,1.1703190803527832,in,0
16,2,left,114,0.0444444444444444,9.5,238,out,u,0.8658449649810791,in,0
16,2,left,115,0.0959385599838225,9.92,243,in,i,0.7815110683441162,out,0
16,2,left,116,0.0444444444444444,10.14,246,out,u,1.0095982551574707,in,0
16,2,left,117,0.0444444444444444,13.12,285,out,i,1.0538311004638672,out,1
16,2,left,118,0.1967916365307053,7.83,220,in,u,0.7302532196044922,in,1
16,2,left,119,0.0444444444444444,14.09,298,out,i,0.8165938854217529,out,1
16,2,left,120,0.019355139402609,11.82,267,in,i,1.251213788986206,out,0
16,2,left,121,0.0444444444444444,8.55,228,out,u,1.2347962856292725,in,0
16,2,left,122,0.0444444444444444,9.63,240,out,i,0.5802104473114014,out,1
16,2,left,123,0.1419458272271371,5.85,200,in,u,1.1909115314483643,in,1
16,2,left,124,0.0444444444444444,0.16,151,out,i,0.9339663982391357,out,1
16,2,left,125,0.0614144706922352,4.43,186,in,u,0.6483199596405029,in,1
16,2,left,126,0.0444444444444444,21.94,438,out,i,0.834632396697998,out,1
16,2,left,127,0.0444444444444444,20.61,410,out,i,0.6624259948730469,out,1
16,2,left,128,0.1471655268705283,5.94,200,in,u,0.9658653736114502,in,1
16,2,left,129,0.0444444444444444,18.45,369,out,i,0.7734005451202393,out,1
16,2,left,130,0.1252291784733381,9.43,238,in,u,0.7554106712341309,in,1
16,2,left,131,0.1620241642930854,6.21,203,in,i,2.4817299842834473,out,0
16,2,left,132,0.1879630660618289,6.81,209,in,u,0.5306065082550049,in,1
16,2,left,133,0.0435210829592398,4.01,182,in,u,0.7440311908721924,in,1
16,2,left,134,0.0444444444444444,13.64,292,out,u,0.7717008590698242,in,0
16,2,left,135,0.0444444444444444,22.39,447,out,i,0.6723682880401611,out,1
16,2,left,136,0.0444444444444444,0.01,150,out,i,1.1647777557373047,out,1
16,2,left,137,0.1826474855058999,6.66,208,in,u,1.6495306491851807,in,1
16,2,left,138,0.1953407533091555,7.91,221,in,u,0.5424702167510986,in,1
16,2,left,139,0.1620241642930854,6.21,203,in,u,0.7908473014831543,in,1
16,2,left,140,0.0431424739536809,11,257,in,i,1.6689589023590088,out,0
16,2,left,141,0.0444444444444444,15.72,323,out,i,0.73064422607421875,out,1
16,2,left,142,0.1955386359830796,7.1,212,in,u,0.7675004005432129,in,1
16,2,left,143,0.0444444444444444,11.49,263,out,u,1.086146593093872,in,0
16,2,left,144,0.1947190959507421,7.0600000000000005,212,in,i,0.3133528232574463,out,0
16,2,left,145,0.0947799592325099,5.0600000000000005,192,in,u,0.4635307788848877,in,1
16,2,left,146,0.0092124698650067,12.46,275,in,i,1.196119785308838,out,0
16,2,left,147,0.0444444444444444,9.71,241,out,u,0.2621028423309326,in,0
16,2,left,148,0.0444444444444444,4.44,186,out,u,0.1573493480682373,in,0
16,2,left,149,0.1961040697466109,7.87,220,in,u,1.1003353595733643,in,1
16,2,left,150,0.1240203278460704,9.45,238,in,u,1.099456548690796,in,1
16,2,left,151,0.0444444444444444,17.61,354,out,i,1.456730604171753,out,1
16,2,left,152,0.0930507912376185,9.97,244,in,u,0.8924801349639893,in,1
16,2,left,153,0.1197861400293165,5.48,196,in,u,0.8352367877960205,in,1
16,2,left,154,0.0444444444444444,18.73,374,out,i,0.9310784339904785,out,1
16,2,left,155,0.0840276142937409,10.13,246,in,u,0.7156412601470947,in,1
16,2,left,156,0.0444444444444444,0.54,154,out,u,0.8677675724029541,in,0
16,2,left,157,0.0444444444444444,16.02,328,out,i,0.8577396869659424,out,1
16,2,left,158,0.0444444444444444,11.17,259,out,u,1.2203757762908936,in,0
16,2,left,159,0.0444444444444444,15.75,323,out,i,1.4746062755584717,out,1
16,2,left,160,0.0357033844356709,3.79,180,in,u,2.5468173027038574,in,1
16,2,left,161,0.0444444444444444,6.5,206,out,u,1.2933452129364014,in,0
16,2,left,162,0.0036893322750674,13.15,285,in,u,9.093162775039673,in,1
16,2,left,163,0.0444444444444444,0.05,150,out,i,0.8361573219299316,out,1
16,2,left,164,0.0444444444444444,19.71,392,out,i,0.74393630027771,out,1
16,2,left,165,0.1940557495143982,7.97,221,in,u,0.3976142406463623,in,1
16,2,left,166,0.1550438509731031,6.08,202,in,u,0.4365987777709961,in,1
16,2,left,167,0.1270407608337813,5.6,197,in,u,0.4094538688659668,in,1
16,2,left,168,0.0444444444444444,8.91,232,out,u,0.6751489639282227,in,0
16,2,left,169,0.0801987546271229,4.8,190,in,i,0.48056459426879883,out,0
16,2,left,170,0.0444444444444444,1.6,162,out,u,0.9557559490203857,in,0
16,2,left,171,0.0444444444444444,16.16,330,out,i,0.21070313453674316,out,1
16,2,left,172,0.0444444444444444,22.44,448,out,u,1.532456636428833,in,0
16,2,left,173,0.1270407608337813,9.4,237,in,i,1.0314693450927734,out,0
16,2,left,174,0.0444444444444444,14.38,303,out,u,0.8656926155090332,in,0
16,2,left,175,0.1990678032240969,7.63,218,in,i,0.38656091690063477,out,0
16,2,left,176,0.0444444444444444,12.67,278,out,u,0.32952213287353516,in,0
16,2,left,177,0.1981740106511521,7.27,214,in,i,0.951636552810669,out,0
16,2,left,178,0.0444444444444444,18.63,372,out,u,0.38536620140075684,in,0
16,2,left,179,0.1876367637917333,8.2,224,in,i,0.12995553016662598,out,0
16,2,left,180,0.1882852285853879,6.82,209,in,u,1.220780849456787,in,1
16,2,left,181,0.105352090813871,5.24,194,in,u,0.6417858600616455,in,1
16,2,left,182,0.1959203083328453,7.88,220,in,u,0.4850640296936035,in,1
16,2,left,183,0.0444444444444444,13.32,287,out,i,0.9111714363098145,out,1
16,2,left,184,0.0444444444444444,14.34,302,out,i,1.3924388885498047,out,1
16,2,left,185,0.1940557495143982,7.03,211,in,u,0.5911808013916016,in,1
16,2,left,186,0.0444444444444444,20.62,410,out,i,0.7541651725769043,out,1
16,2,left,187,0.1651155425002292,8.73,230,in,u,0.7314093112945557,in,1
16,2,left,188,0.0444444444444444,3.51,178,out,u,0.7237684726715088,in,0
16,2,left,189,0.1918201062897904,8.06,222,in,u,0.6603207588195801,in,1
16,2,left,190,0.0444444444444444,17.14,346,out,i,0.53102874755859375,out,1
16,2,left,191,0.0444444444444444,20.1,400,out,i,0.4789283275604248,out,1
16,2,left,192,0.1892266468733199,8.15,223,in,u,0.5850925445556641,in,1
16,2,left,193,0.141359739671713,9.16,235,in,i,0.6084110736846924,out,0
16,2,left,194,0.079119390706927,10.22,247,in,u,0.6800167560577393,in,1
16,2,left,195,0.1975433366628491,7.78,219,in,u,0.8895053863525391,in,1
16,2,left,196,0.0444444444444444,17.77,357,out,i,1.4030897617340088,out,1
16,2,left,197,0.1209960604027563,9.5,238,in,u,0.6550884246826172,in,1
16,2,left,198,0.0444444444444444,2.25,167,out,i,0.9785659313201904,out,1
16,2,left,199,0.1077386068402413,9.72,241,in,u,0.6481668949127197,in,1
16,2,left,200,0.0444444444444444,3.48,178,out,u,1.5646378993988037,in,0
17,1,right,1,0.1751614265926797,16.02,328,in,u,5.816496849060059,in,1
17,1,right,2,0.0444444444444444,15.75,323,out,u,2.8684616088867188,in,0
17,1,right,3,0.1577711375482718,13.63,292,in,i,1.8878469467163086,out,0
17,1,right,4,0.1550438509731031,13.58,291,in,i,3.217282772064209,out,0
17,1,right,5,0.0444444444444444,20.62,410,out,u,1.5007743835449219,in,0
17,1,right,6,0.0357033844356709,11.29,260,in,u,2.543245315551758,in,1
17,1,right,7,0.0444444444444444,21.83,435,out,i,2.1971561908721924,out,1
17,1,right,8,0.0387723741431307,18.62,372,in,u,3.5472419261932373,in,1
17,1,right,9,0.0444444444444444,9.71,241,out,u,2.2649528980255127,in,0
17,1,right,10,0.0444444444444444,3.67,179,out,i,1.6531076431274414,out,1
17,1,right,11,0.1889170417974022,15.66,322,in,u,0.7294137477874756,in,1
17,1,right,12,0.0444444444444444,3.0700000000000003,174,out,u,1.210937738418579,in,0
17,1,right,13,0.0148286035285384,10.44,250,in,u,0.7463469505310059,in,1
17,1,right,14,0.0444444444444444,11.34,261,out,u,0.7090213298797607,in,0
17,1,right,15,0.1859439875974732,15.75,323,in,i,8.012176275253296,out,0
17,1,right,16,0.1892266468733199,15.65,322,in,u,0.6873033046722412,in,1
17,1,right,17,0.1786284564560855,14.06,298,in,i,0.8004090785980225,out,0
17,1,right,18,0.0444444444444444,14.34,302,out,i,1.3143947124481201,out,1
17,1,right,19,0.0444444444444444,6.96,211,out,i,1.4628653526306152,out,1
17,1,right,20,0.1454373611580521,13.41,289,in,u,0.6032066345214844,in,1
17,1,right,21,0.1953407533091555,15.41,318,in,i,2.556454658508301,out,0
17,1,right,22,0.0444444444444444,18.13,363,out,i,0.8869292736053467,out,1
17,1,right,23,0.1876367637917333,15.7,323,in,u,1.1887445449829102,in,1
17,1,right,24,0.0444444444444444,5.72,198,out,i,1.0614051818847656,out,1
17,1,right,25,0.0036893322750674,20.65,411,in,i,2.1013033390045166,out,0
17,1,right,26,0.0444444444444444,22.39,447,out,u,1.9906039237976074,in,0
17,1,right,27,0.0444444444444444,10.18,246,out,i,6.272318363189697,out,1
17,1,right,28,0.0930507912376186,17.47,352,in,i,3.002929210662842,out,0
17,1,right,29,0.0444444444444444,9.63,240,out,u,3.5749592781066895,in,0
17,1,right,30,0.1959203083328452,15.38,318,in,u,0.8008852005004883,in,1
17,1,right,31,0.0444444444444444,18.63,372,out,i,1.377100944519043,out,1
17,1,right,32,0.1710140105883966,16.11,329,in,u,0.8226532936096191,in,1
17,1,right,33,0.0398349826151916,18.59,372,in,i,0.651392936706543,out,0
17,1,right,34,0.0444444444444444,12.3,273,out,u,1.0216727256774902,in,0
17,1,right,35,0.1419458272271371,13.35,288,in,i,0.7530138492584229,out,0
17,1,right,36,0.1975433366628491,15.28,316,in,u,0.6911044120788574,in,1
17,1,right,37,0.0444444444444444,7.79,219,out,u,0.721808671951294,in,0
17,1,right,38,0.0444444444444444,18.43,369,out,i,0.5115914344787598,out,1
17,1,right,39,0.1798719999266348,14.09,298,in,u,3.438899278640747,in,1
17,1,right,40,0.0614144706922352,11.93,268,in,i,0.8301165103912354,out,0
17,1,right,41,0.0444444444444444,21.94,438,out,i,1.084658145904541,out,1
17,1,right,42,0.1738069996892409,16.05,328,in,u,0.702399492263794,in,1
17,1,right,43,0.0444444444444444,5.42,195,out,i,0.6554050445556641,out,1
17,1,right,44,0.1918201062897904,15.56,320,in,u,2.6664485931396484,in,1
17,1,right,45,0.1185764602183948,17.04,344,in,i,1.1186199188232422,out,0
17,1,right,46,0.0444444444444444,16.02,328,out,u,0.7327299118041992,in,0
17,1,right,47,0.0791193907069271,17.72,356,in,u,0.8930017948150635,in,1
17,1,right,48,0.0444444444444444,11.66,265,out,i,0.6129553318023682,out,1
17,1,right,49,0.0444444444444444,0.01,150,out,i,1.5589852333068848,out,1
17,1,right,50,0.1197861400293165,12.98,283,in,u,0.6423587799072266,in,1
17,1,right,51,0.1620241642930854,13.71,293,in,u,0.7729876041412354,in,1
17,1,right,52,0.1246248452320209,13.06,284,in,u,1.1788520812988281,in,1
17,1,right,53,0.1240203278460704,16.95,343,in,i,0.7210636138916016,out,0
17,1,right,54,0.0444444444444444,13.12,285,out,i,0.8256943225860596,out,1
17,1,right,55,0.1940557495143981,15.47,319,in,u,0.6774718761444092,in,1
17,1,right,56,0.1270407608337813,13.1,284,in,i,0.6268205642700195,out,0
17,1,right,57,0.0444444444444444,3.13,175,out,i,0.6808173656463623,out,1
17,1,right,58,0.0444444444444444,0.54,154,out,i,1.7443397045135498,out,1
17,1,right,59,0.0856918726666512,17.6,354,in,i,1.4138972759246826,out,0
17,1,right,60,0.1926057755919956,14.47,304,in,i,0.7718753814697266,out,0
17,1,right,61,0.0959385599838224,17.42,351,in,u,1.1128954887390137,in,1
17,1,right,62,0.0444444444444444,10.14,246,out,i,0.7144193649291992,out,1
17,1,right,63,0.0444444444444444,9.5,238,out,i,0.952261209487915,out,1
17,1,right,64,0.0444444444444444,16.16,330,out,u,0.9841594696044922,in,0
17,1,right,65,0.1471655268705282,13.44,289,in,u,1.070556879043579,in,1
17,1,right,66,0.0033880193442544,9.29,236,in,i,0.8009588718414307,out,0
17,1,right,67,0.0444444444444444,10.46,250,out,u,0.9924674034118652,in,0
17,1,right,68,0.0444444444444444,3.51,178,out,i,0.639672040939331,out,1
17,1,right,69,0.1901299881530563,14.38,303,in,u,0.5769598484039307,in,1
17,1,right,70,0.0377296209072985,11.35,261,in,u,2.039006233215332,in,1
17,1,right,71,0.1378213093627494,13.28,287,in,u,0.7143537998199463,in,1
17,1,right,72,0.0444444444444444,8.91,232,out,i,0.6520159244537354,out,1
17,1,right,73,0.1992395732695614,14.9,310,in,u,1.0746464729309082,in,1
17,1,right,74,0.0444444444444444,17.48,352,out,u,1.5698585510253906,in,0
17,1,right,75,0.0444444444444444,1.89,164,out,i,6.025408983230591,out,1
17,1,right,76,0.0309789513888337,18.86,376,in,i,6.078825235366821,out,0
17,1,right,77,0.0199902666263887,10.71,253,in,u,2.2411749362945557,in,1
17,1,right,78,0.1786284564560855,15.94,326,in,i,2.341179132461548,out,0
17,1,right,79,0.0444444444444444,0.15,151,out,i,3.065202474594116,out,1
17,1,right,80,0.1879630660618289,14.31,302,in,i,5.686492681503296,out,0
17,1,right,81,0.195731825757865,14.61,306,in,u,1.3338994979858398,in,1
17,1,right,82,0.1442785038784717,16.61,337,in,u,1.125723123550415,in,1
17,1,right,83,0.0444444444444444,7.45,216,out,u,5.103656768798828,in,0
17,1,right,84,0.1191812551022675,12.97,282,in,u,0.9017133712768555,in,1
17,1,right,85,0.0444444444444444,8.55,228,out,u,1.4774096012115479,in,0
17,1,right,86,0.0444444444444444,20.02,398,out,i,1.4574182033538818,out,1
17,1,right,87,0.0431424739536809,18.5,370,in,u,0.7387645244598389,in,1
17,1,right,88,0.0444444444444444,22.44,448,out,i,0.6629519462585449,out,1
17,1,right,89,0.1318556793781222,13.18,285,in,i,1.5586726665496826,out,0
17,1,right,90,0.1407725526860631,16.67,338,in,u,0.6928806304931641,in,1
17,1,right,91,0.0444444444444444,22.17,442,out,i,0.5988855361938477,out,1
17,1,right,92,0.1935905741492859,15.49,319,in,u,0.619619607925415,in,1
17,1,right,93,0.0444444444444444,15.72,323,out,u,0.5687549114227295,in,0
17,1,right,94,0.0444444444444444,14.57,305,out,i,0.8895430564880371,out,1
17,1,right,95,0.1431145682999598,16.63,338,in,u,0.7099871635437012,in,1
17,1,right,96,0.1947190959507421,14.56,305,in,i,0.5971658229827881,out,0
17,1,right,97,0.1306547027588974,16.84,341,in,u,0.6390984058380127,in,1
17,1,right,98,0.1270407608337813,16.9,342,in,u,0.5971341133117676,in,1
17,1,right,99,0.0444444444444444,3.28,176,out,i,3.66752552986145,out,1
17,1,right,100,0.0444444444444444,11.17,259,out,u,1.1419014930725098,in,0
17,1,right,101,0.0444444444444444,8.6,228,out,i,0.8335466384887695,out,1
17,1,right,102,0.0444444444444444,6.5,206,out,i,0.8336489200592041,out,1
17,1,right,103,0.0444444444444444,1.82,164,out,u,2.5971853733062744,in,0
17,1,right,104,0.0444444444444444,10.99,256,out,u,0.6155543327331543,in,0
17,1,right,105,0.0444444444444444,7.3,214,out,u,1.1888184547424316,in,0
17,1,right,106,0.0444444444444444,13.32,287,out,i,1.5330817699432373,out,1
17,1,right,107,0.0444444444444444,20.1,400,out,i,4.391391754150391,out,1
17,1,right,108,0.1882852285853879,14.32,302,in,u,4.052120685577393,in,1
17,1,right,109,0.0444444444444444,11.28,260,out,i,2.945627212524414,out,1
17,1,right,110,0.1981740106511521,14.77,308,in,u,3.7257721424102783,in,1
17,1,right,111,0.0444444444444444,2.68,171,out,i,0.5224690437316895,out,1
17,1,right,112,0.0444444444444444,22.26,444,out,u,0.3062589168548584,in,0
17,1,right,113,0.105352090813871,12.74,279,in,i,3.6910741329193115,out,0
17,1,right,114,0.019355139402609,19.32,385,in,u,1.0712804794311523,in,1
17,1,right,115,0.1826474855058999,14.16,299,in,i,5.030667066574097,out,0
17,1,right,116,0.0444444444444444,15.43,318,out,u,0.5365793704986572,in,0
17,1,right,117,0.0444444444444444,7.84,220,out,u,0.9635138511657715,in,0
17,1,right,118,0.1955386359830796,14.6,306,in,u,0.640601396560669,in,1
17,1,right,119,0.0444444444444444,14.38,303,out,u,0.8889520168304443,in,0
17,1,right,120,0.0444444444444444,4.44,186,out,i,0.6595911979675293,out,1
17,1,right,121,0.0444444444444444,2.09,166,out,i,0.7162315845489502,out,1
17,1,right,122,0.1990678032240969,15.13,314,in,u,0.7282938957214355,in,1
17,1,right,123,0.0753953412833294,12.21,272,in,i,0.7999041080474854,out,0
17,1,right,124,0.1961040697466109,15.37,318,in,u,0.572096586227417,in,1
17,1,right,125,0.0672182969433732,17.95,360,in,u,1.3797569274902344,in,1
17,1,right,126,0.0444444444444444,10.73,253,out,u,1.431818962097168,in,0
17,1,right,127,0.0444444444444444,17.14,346,out,u,0.43911004066467285,in,0
17,1,right,128,0.0444444444444444,15.36,317,out,i,0.9771831035614014,out,1
17,1,right,129,0.0444444444444444,20.61,410,out,u,1.637575626373291,in,0
17,1,right,130,0.0444444444444444,3.48,178,out,i,3.0502889156341553,out,1
17,1,right,131,0.1942814704981104,14.54,305,in,i,1.4280800819396973,out,0
17,1,right,132,0.1630644442897305,16.27,332,in,u,0.7173755168914795,in,1
17,1,right,133,0.0444444444444444,9.32,236,out,u,0.751704216003418,in,0
17,1,right,134,0.0444444444444444,17.61,354,out,i,0.7351820468902588,out,1
17,1,right,135,0.0444444444444444,0.05,150,out,i,0.6200847625732422,out,1
17,1,right,136,0.0444444444444444,11.49,263,out,u,0.5529909133911133,in,0
17,1,right,137,0.1300534456575979,16.85,341,in,u,0.699059009552002,in,1
17,1,right,138,0.0444444444444444,4.81,190,out,u,1.0587730407714844,in,0
17,1,right,139,0.18629063098582271,14.26,301,in,u,0.5580203533172607,in,1
17,1,right,140,0.084027614293741,17.63,355,in,u,0.9616098403930664,in,1
17,1,right,141,0.1651155425002292,16.23,331,in,u,0.6166071891784668,in,1
17,1,right,142,0.1425307814292596,13.36,288,in,i,2.0811927318573,out,0
17,1,right,143,0.0829257381666969,12.35,274,in,i,1.520294189453125,out,0
17,1,right,144,0.1686048794969123,13.84,295,in,i,0.6583507061004639,out,0
17,1,right,145,0.0444444444444444,19.72,393,out,u,0.541560173034668,in,0
17,1,right,146,0.080198754627123,12.3,273,in,u,0.47710156440734863,in,1
17,1,right,147,0.0947799592325099,12.56,277,in,u,0.6958365440368652,in,1
17,1,right,148,0.0444444444444444,16.99,344,out,i,1.458437442779541,out,1
17,1,right,149,0.1348476316267912,16.77,340,in,u,1.140087366104126,in,1
17,1,right,150,0.0444444444444444,5.18,193,out,i,0.8241603374481201,out,1
17,1,right,151,0.1994488846907601,15.04,312,in,i,2.745175838470459,out,0
17,1,right,152,0.0435210829592398,11.51,263,in,i,0.6904082298278809,out,0
17,1,right,153,0.0444444444444444,20.54,409,out,u,0.4150807857513428,in,0
17,1,right,154,0.0444444444444444,13.64,292,out,u,0.3196108341217041,in,0
17,1,right,155,0.199466337231708,15.03,312,in,u,0.4254016876220703,in,1
17,1,right,156,0.0444444444444444,8.55,228,out,u,1.3819057941436768,in,0
17,1,right,157,0.0444444444444444,2.25,167,out,i,0.9492287635803223,out,1
17,1,right,158,0.0444444444444444,7.65,218,out,u,0.8775742053985596,in,0
17,1,right,159,0.0444444444444444,6.18,203,out,i,0.6298098564147949,out,1
17,1,right,160,0.0092124698650067,19.96,397,in,i,3.403507709503174,out,0
17,1,right,161,0.0444444444444444,18.54,371,out,u,0.5526261329650879,in,0
17,1,right,162,0.0444444444444444,12.67,278,out,i,0.7016003131866455,out,1
17,1,right,163,0.0444444444444444,5.63,197,out,i,2.6767191886901855,out,1
17,1,right,164,0.0444444444444444,3.92,182,out,i,1.6120712757110596,out,1
17,1,right,165,0.1488807256544706,13.47,289,in,u,1.8373308181762695,in,1
17,1,right,166,0.141359739671713,16.66,338,in,u,0.6811001300811768,in,1
17,1,right,167,0.0444444444444444,5.09,192,out,i,1.4560744762420654,out,1
17,1,right,168,0.1837811203886059,14.19,300,in,u,0.6395597457885742,in,1
17,1,right,169,0.1928587366418353,14.48,304,in,u,0.6110148429870605,in,1
17,1,right,170,0.0444444444444444,19.71,392,out,u,3.0453338623046875,in,0
17,1,right,171,0.0444444444444444,14.38,303,out,u,1.008605718612671,in,0
17,1,right,172,0.1252291784733381,16.93,343,in,i,1.6223127841949463,out,0
