participant,computer_number,exp_condition,trial_n,dens,jnds,line_len,distribution,key_resp,rt,resp,correct
100,2,left,1,0.0829257381666969,4.85,190,in,i,5.066345453262329,out,0
100,2,left,2,0.1240203278460704,9.45,238,in,i,2.136117696762085,out,0
100,2,left,3,0.0444444444444444,8.91,232,out,u,0.9347286224365234,in,0
100,2,left,4,0.0444444444444444,15.36,317,out,u,1.4856657981872559,in,0
100,2,left,5,0.0309789513888337,11.36,261,in,u,0.7680556774139404,in,1
100,2,left,6,0.1471655268705283,5.94,200,in,u,0.8268542289733887,in,1
100,2,left,7,0.0444444444444444,18.13,363,out,i,0.6328794956207275,out,1
100,2,left,8,0.0444444444444444,7.65,218,out,u,0.9178428649902344,in,0
100,2,left,9,0.0444444444444444,0.15,151,out,i,2.054361343383789,out,1
100,2,left,10,0.0444444444444444,17.14,346,out,i,0.7823050022125244,out,1
100,2,left,11,0.1270407608337813,5.6,197,in,u,0.6642613410949707,in,1
100,2,left,12,0.0444444444444444,12.67,278,out,u,1.3620929718017578,in,0
100,2,left,13,0.141359739671713,9.16,235,in,u,0.6270558834075928,in,1
100,2,left,14,0.0444444444444444,7.79,219,out,u,0.830852746963501,in,0
100,2,left,15,0.0444444444444444,3.51,178,out,i,1.345475196838379,out,1
100,2,left,16,0.1990678032240969,7.63,218,in,u,0.6809208393096924,in,1
100,2,left,17,0.183781120388606,6.69,208,in,i,1.3704345226287842,out,0
100,2,left,18,0.1967916365307053,7.83,220,in,u,0.6647181510925293,in,1
100,2,left,19,0.0444444444444444,11.66,265,out,i,0.9966189861297607,out,1
100,2,left,20,0.0444444444444444,5.58,197,out,u,0.7687873840332031,in,0
100,2,left,21,0.0444444444444444,20.54,409,out,i,0.7971236705780029,out,1
100,2,left,22,0.0199902666263887,3.21,175,in,i,0.8600695133209229,out,0
100,2,left,23,0.1955386359830796,7.1,212,in,u,0.75897979736328125,in,1
100,2,left,24,0.0444444444444444,3.02,174,out,i,1.4228157997131348,out,1
100,2,left,25,0.0444444444444444,10.14,246,out,i,1.561692714691162,out,1
100,2,left,26,0.1620241642930854,6.21,203,in,u,0.8905901908874512,in,1
100,2,left,27,0.110135121189941,5.32,194,in,u,0.6842408180236816,in,1
100,2,left,28,0.0444444444444444,17.48,352,out,i,0.49457406997680664,out,1
100,2,left,29,0.0435210829592398,4.01,182,in,i,0.8724837303161621,out,0
100,2,left,30,0.1191812551022674,5.47,196,in,u,0.6415846347808838,in,1
100,2,left,31,0.0444444444444444,0.54,154,out,i,0.8566703796386719,out,1
100,2,left,32,0.0444444444444444,9.63,240,out,u,0.7934327125549316,in,0
100,2,left,33,0.0444444444444444,3.0700000000000003,174,out,i,0.7451121807098389,out,1
100,2,left,34,0.0092124698650067,12.46,275,in,u,1.1907734870910645,in,1
100,2,left,35,0.0801987546271229,4.8,190,in,i,0.8613224029541016,out,0
100,2,left,36,0.1987694253586057,7.33,214,in,u,1.4196383953094482,in,1
100,2,left,37,0.1982855148897704,7.72,219,in,u,0.948899507522583,in,1
100,2,left,38,0.1935905741492859,7.99,222,in,u,0.5156614780426025,in,1
100,2,left,39,0.1378213093627494,5.78,199,in,i,0.759253978729248,out,0
100,2,left,40,0.1185764602183948,9.54,239,in,i,0.9041454792022705,out,0
100,2,left,41,0.0444444444444444,9.71,241,out,u,0.8526618480682373,in,0
100,2,left,42,0.0444444444444444,14.38,303,out,i,0.8380777835845947,out,1
100,2,left,43,0.1992395732695614,7.4,215,in,u,0.8336865901947021,in,1
100,2,left,44,0.0444444444444444,9.32,236,out,i,1.5011711120605469,out,1
100,2,left,45,0.0398349826151916,11.09,258,in,i,0.6797704696655273,out,0
100,2,left,46,0.0444444444444444,0.16,151,out,i,0.84140944480896,out,1
100,2,left,47,0.0444444444444444,5.09,192,out,u,3.144334554672241,in,0
100,2,left,48,0.0444444444444444,8.6,228,out,u,0.36462879180908203,in,0
100,2,left,49,0.0444444444444444,18.73,374,out,i,0.6925432682037354,out,1
100,2,left,50,0.0444444444444444,9.5,238,out,u,2.4504096508026123,in,0
100,2,left,51,0.1686048794969123,6.34,204,in,u,1.5427117347717285,in,1
100,2,left,52,0.0444444444444444,13.32,287,out,i,0.8012678623199463,out,1
100,2,left,53,0.0444444444444444,2.09,166,out,i,1.9198188781738281,out,1
100,2,left,54,0.0444444444444444,5.72,198,out,u,0.6947133541107178,in,0
100,2,left,55,0.0431424739536809,11,257,in,i,0.753422737121582,out,0
100,2,left,56,0.1882852285853879,6.82,209,in,u,1.358720302581787,in,1
100,2,left,57,0.0444444444444444,7.3,214,out,i,1.3011488914489746,out,1
100,2,left,58,0.0444444444444444,1.82,164,out,i,1.4768714904785156,out,1
100,2,left,59,0.1488807256544705,5.97,201,in,u,0.7163436412811279,in,1
100,2,left,60,0.0444444444444444,16.99,344,out,i,0.890730619430542,out,1
100,2,left,61,0.0444444444444444,20.02,398,out,i,0.5412111282348633,out,1
100,2,left,62,0.0444444444444444,3.48,178,out,u,3.8373677730560303,in,0
100,2,left,63,0.0444444444444444,0.01,150,out,i,1.2637066841125488,out,1
100,2,left,64,0.1859439875974732,8.25,224,in,u,0.9397919178009033,in,1
100,2,left,65,0.0444444444444444,17.61,354,out,i,0.6646621227264404,out,1
100,2,left,66,0.0444444444444444,21.15,421,out,i,0.7569196224212646,out,1
100,2,left,67,0.0444444444444444,12.64,278,out,i,0.885671854019165,out,1
100,2,left,68,0.0033880193442544,1.79,164,in,u,0.7510616779327393,in,1
100,2,left,69,0.0444444444444444,7.84,220,out,u,0.7832036018371582,in,0
100,2,left,70,0.0672182969433732,10.45,250,in,i,0.6998820304870605,out,0
100,2,left,71,0.1953407533091555,7.91,221,in,u,0.7992982864379883,in,1
100,2,left,72,0.0444444444444444,15.75,323,out,i,0.7951886653900146,out,1
100,2,left,73,0.0444444444444444,2.68,171,out,u,0.9626443386077881,in,0
100,2,left,74,0.0444444444444444,21.83,435,out,i,0.7437539100646973,out,1
100,2,left,75,0.0947799592325099,5.0600000000000005,192,in,u,1.7877333164215088,in,1
100,2,left,76,0.1967916365307053,7.83,220,in,i,1.4347023963928223,out,0
100,2,left,77,0.0444444444444444,14.09,298,out,i,1.5366911888122559,out,1
100,2,left,78,0.0444444444444444,20.62,410,out,i,0.7306029796600342,out,1
100,2,left,79,0.1270407608337813,9.4,237,in,u,0.9187648296356201,in,1
100,2,left,80,0.0930507912376185,9.97,244,in,i,0.93735504150390625,out,0
100,2,left,81,0.1630644442897305,8.77,230,in,i,1.342834234237671,out,0
100,2,left,82,0.0444444444444444,11.62,264,out,u,0.8853685855865479,in,0
100,2,left,83,0.1431145682999597,9.13,234,in,u,0.7265923023223877,in,1
100,2,left,84,0.0444444444444444,20.1,400,out,i,0.7608771324157715,out,1
100,2,left,85,0.0444444444444444,10.99,256,out,i,1.568958044052124,out,1
100,2,left,86,0.0959385599838225,9.92,243,in,u,0.8363907337188721,in,1
100,2,left,87,0.0444444444444444,17.94,360,out,i,0.5924952030181885,out,1
100,2,left,88,0.1961040697466109,7.87,220,in,u,0.6299991607666016,in,1
100,2,left,89,0.0444444444444444,6.18,203,out,i,0.7874951362609863,out,1
100,2,left,90,0.0444444444444444,22.26,444,out,i,0.7203218936920166,out,1
100,2,left,91,0.1786284564560855,8.44,226,in,i,1.4104816913604736,out,0
100,2,left,92,0.0444444444444444,2.25,167,out,i,0.7434055805206299,out,1
100,2,left,93,0.0377296209072985,3.85,181,in,u,0.9136362075805664,in,1
100,2,left,94,0.0387723741431307,11.12,258,in,u,0.9492545127868652,in,1
100,2,left,95,0.1197861400293165,5.48,196,in,i,0.7750637531280518,out,0
100,2,left,96,0.0444444444444444,22.39,447,out,i,0.6709182262420654,out,1
100,2,left,97,0.0444444444444444,5.42,195,out,u,0.6152949333190918,in,0
100,2,left,98,0.1981740106511521,7.27,214,in,u,0.7959644794464111,in,1
100,2,left,99,0.1419458272271371,5.85,200,in,u,0.9168353080749512,in,1
100,2,left,100,0.0444444444444444,0.05,150,out,i,0.43857264518737793,out,1
100,2,left,101,0.0036893322750674,13.15,285,in,i,0.5517101287841797,out,0
100,2,left,102,0.019355139402609,11.82,267,in,u,1.1966338157653809,in,1
100,2,left,103,0.0444444444444444,3.92,182,out,i,0.9964127540588379,out,1
100,2,left,104,0.0444444444444444,18.45,369,out,i,0.7455050945281982,out,1
100,2,left,105,0.1751614265926797,8.52,227,in,i,0.7149622440338135,out,0
100,2,left,106,0.0753953412833294,4.71,189,in,i,0.6646015644073486,out,0
100,2,left,107,0.1425307814292597,5.86,200,in,u,0.4461088180541992,in,1
100,2,left,108,0.0444444444444444,18.43,369,out,i,1.1390857696533203,out,1
100,2,left,109,0.0444444444444444,16.41,334,out,i,1.9229481220245361,out,1
100,2,left,110,0.0444444444444444,1.6,162,out,u,0.482072114944458,in,0
100,2,left,111,0.0444444444444444,16.02,328,out,i,0.9329957962036133,out,1
100,2,left,112,0.0444444444444444,4.81,190,out,u,1.454927921295166,in,0
100,2,left,113,0.1550438509731031,6.08,202,in,u,0.72740936279296875,in,1
100,2,left,114,0.0444444444444444,19.72,393,out,i,1.1124272346496582,out,1
100,2,left,115,0.1947190959507421,7.0600000000000005,212,in,u,0.8483262062072754,in,1
100,2,left,116,0.0444444444444444,21.94,438,out,i,0.5987386703491211,out,1
100,2,left,117,0.0614144706922352,4.43,186,in,i,1.1162786483764648,out,0
100,2,left,118,0.0444444444444444,15.72,323,out,i,0.8229880332946777,out,1
100,2,left,119,0.1651155425002292,8.73,230,in,u,1.1360435485839844,in,1
100,2,left,120,0.1959203083328453,7.88,220,in,u,0.6106367111206055,in,1
100,2,left,121,0.0444444444444444,5.72,198,out,u,0.4044661521911621,in,0
100,2,left,122,0.0444444444444444,10.18,246,out,i,1.3087069988250732,out,1
100,2,left,123,0.0148286035285384,2.94,173,in,i,3.3712048530578613,out,0
100,2,left,124,0.0840276142937409,10.13,246,in,i,0.737757682800293,out,0
100,2,left,125,0.1209960604027563,9.5,238,in,i,1.2663354873657227,out,0
100,2,left,126,0.0444444444444444,19.71,392,out,i,0.5634493827819824,out,1
100,2,left,127,0.0444444444444444,8.55,228,out,u,3.5122416019439697,in,0
100,2,left,128,0.0444444444444444,6.5,206,out,u,1.130615234375,in,0
100,2,left,129,0.0444444444444444,20.61,410,out,i,1.493025779724121,out,1
100,2,left,130,0.1957318257578651,7.11,212,in,u,2.6967287063598633,in,1
100,2,left,131,0.1407725526860632,9.17,235,in,u,0.5060901641845703,in,1
100,2,left,132,0.0444444444444444,11.49,263,out,i,0.6294035911560059,out,1
100,2,left,133,0.18629063098582271,6.76,209,in,u,0.5629391670227051,in,1
100,2,left,134,0.0357033844356709,3.79,180,in,i,0.6021242141723633,out,0
100,2,left,135,0.0444444444444444,14.34,302,out,i,0.6252076625823975,out,1
100,2,left,136,0.0444444444444444,13.64,292,out,i,0.5232913494110107,out,1
100,2,left,137,0.0444444444444444,6.96,211,out,u,0.38840484619140625,in,0
100,2,left,138,0.199466337231708,7.53,217,in,u,0.5501687526702881,in,1
100,2,left,139,0.1942814704981104,7.04,211,in,u,0.7359352111816406,in,1
100,2,left,140,0.0444444444444444,4.44,186,out,i,0.6309185028076172,out,1
100,2,left,141,0.0444444444444444,5.63,197,out,u,0.7342662811279297,in,0
100,2,left,142,0.1972571063917844,7.2,213,in,u,0.7566542625427246,in,1
100,2,left,143,0.0444444444444444,14.38,303,out,i,1.095344066619873,out,1
100,2,left,144,0.0444444444444444,14.57,305,out,i,0.6458466053009033,out,1
100,2,left,145,0.1077386068402413,9.72,241,in,u,0.7787127494812012,in,1
100,2,left,146,0.0444444444444444,17.77,357,out,i,0.7695372104644775,out,1
100,2,left,147,0.1798719999266348,6.59,207,in,i,5.0449378490448,out,0
100,2,left,148,0.1318556793781222,5.68,198,in,u,4.5594482421875,in,1
100,2,left,149,0.099440351939599,5.14,193,in,u,0.7280929088592529,in,1
100,2,left,150,0.1710140105883966,8.61,228,in,u,1.3644475936889648,in,1
100,2,left,151,0.1252291784733381,9.43,238,in,i,0.4867134094238281,out,0
100,2,left,152,0.1928587366418353,6.98,211,in,i,1.0802373886108398,out,0
100,2,left,153,0.1994488846907601,7.54,217,in,u,1.6602580547332764,in,1
100,2,left,154,0.1901299881530563,6.88,210,in,u,0.5831742286682129,in,1
100,2,left,155,0.0444444444444444,18.54,371,out,i,0.4958207607269287,out,1
100,2,left,156,0.0444444444444444,16.16,330,out,i,0.630601167678833,out,1
100,2,left,157,0.1786284564560855,6.56,207,in,u,0.8209972381591797,in,1
100,2,left,158,0.1909946632223051,8.09,223,in,i,0.698462724685669,out,0
100,2,left,159,0.0444444444444444,13.12,285,out,i,0.9210598468780518,out,1
100,2,left,160,0.1892266468733199,8.15,223,in,i,1.0198211669921875,out,0
100,2,left,161,0.1879630660618289,6.81,209,in,i,1.231738805770874,out,0
100,2,left,162,0.0444444444444444,5.18,193,out,u,0.385296106338501,in,0
100,2,left,163,0.1577711375482717,6.13,202,in,i,0.56725311279296875,out,0
100,2,left,164,0.1918201062897904,8.06,222,in,i,0.7117280960083008,out,0
100,2,left,165,0.0444444444444444,11.28,260,out,i,0.8414232730865479,out,1
100,2,left,166,0.0444444444444444,8.55,228,out,u,0.6156437397003174,in,0
100,2,left,167,0.105352090813871,5.24,194,in,i,0.9170727729797363,out,0
100,2,left,168,0.1826474855058999,6.66,208,in,i,0.6142840385437012,out,0
100,2,left,169,0.1620241642930854,6.21,203,in,u,0.898953914642334,in,1
100,2,left,170,0.0444444444444444,3.67,179,out,u,0.8774070739746094,in,0
100,2,left,171,0.0856918726666513,10.1,246,in,i,1.397718906402588,out,0
100,2,left,172,0.1940557495143982,7.97,221,in,i,0.7168538570404053,out,0
100,2,left,173,0.079119390706927,10.22,247,in,u,1.0213210582733154,in,1
100,2,left,174,0.0444444444444444,12.3,273,out,i,0.8491518497467041,out,1
100,2,left,175,0.1889170417974022,8.16,223,in,u,0.7402315139770508,in,1
100,2,left,176,0.0444444444444444,10.46,250,out,u,0.7166876792907715,in,0
100,2,left,177,0.1926057755919956,6.97,211,in,u,0.8698024749755859,in,1
100,2,left,178,0.1454373611580521,5.91,200,in,u,0.4157683849334717,in,1
100,2,left,179,0.1975433366628491,7.78,219,in,u,0.6451144218444824,in,1
100,2,left,180,0.1246248452320208,5.56,197,in,u,0.6796383857727051,in,1
100,2,left,181,0.0444444444444444,22.44,448,out,i,0.3574962615966797,out,1
100,2,left,182,0.1306547027588974,9.34,237,in,u,0.5213422775268555,in,1
100,2,left,183,0.0444444444444444,7.45,216,out,u,0.4825904369354248,in,0
100,2,left,184,0.0444444444444444,1.89,164,out,u,0.9104714393615723,in,0
100,2,left,185,0.1738069996892409,8.55,228,in,u,0.7526125907897949,in,1
100,2,left,186,0.0444444444444444,3.13,175,out,u,1.1424291133880615,in,0
100,2,left,187,0.1940557495143982,7.03,211,in,u,0.6855554580688477,in,1
100,2,left,188,0.0444444444444444,17.74,356,out,i,0.6001365184783936,out,1
100,2,left,189,0.1876367637917333,8.2,224,in,u,0.6784546375274658,in,1
100,2,left,190,0.1276440443376951,5.61,197,in,u,0.6951901912689209,in,1
100,2,left,191,0.1348476316267912,9.27,236,in,u,1.2931394577026367,in,1
100,2,left,192,0.0444444444444444,22.17,442,out,i,0.7062063217163086,out,1
100,2,left,193,0.0444444444444444,11.17,259,out,u,0.6045193672180176,in,0
100,2,left,194,0.0444444444444444,10.73,253,out,u,0.7519221305847168,in,0
100,2,left,195,0.0444444444444444,15.43,318,out,i,0.5206642150878906,out,1
100,2,left,196,0.0444444444444444,11.34,261,out,i,0.7938611507415771,out,1
100,2,left,197,0.130053445657598,9.35,237,in,u,0.557365894317627,in,1
100,2,left,198,0.1442785038784717,9.11,234,in,u,0.5191967487335205,in,1
100,2,left,199,0.0444444444444444,3.28,176,out,u,0.4572751522064209,in,0
100,2,left,200,0.0444444444444444,18.63,372,out,u,1.011301040649414,in,0
101,3,left,1,0.0444444444444444,20.62,410,out,i,5.159748315811157,out,1
101,3,left,2,0.0444444444444444,16.02,328,out,i,5.96960973739624,out,1
101,3,left,3,0.0444444444444444,6.96,211,out,u,0.6993708610534668,in,0
101,3,left,4,0.0444444444444444,18.54,371,out,i,2.7980966567993164,out,1
101,3,left,5,0.0444444444444444,22.17,442,out,i,1.803138256072998,out,1
101,3,left,6,0.1191812551022674,5.47,196,in,u,1.1782543659210205,in,1
101,3,left,7,0.0444444444444444,22.39,447,out,i,0.9304139614105225,out,1
101,3,left,8,0.0444444444444444,1.6,162,out,u,1.666884422302246,in,0
101,3,left,9,0.0444444444444444,17.61,354,out,i,2.6314697265625,out,1
101,3,left,10,0.1686048794969123,6.34,204,in,u,2.14875864982605,in,1
101,3,left,11,0.0444444444444444,8.55,228,out,u,2.3002448081970215,in,0
101,3,left,12,0.0444444444444444,10.99,256,out,u,1.5502228736877441,in,0
101,3,left,13,0.0444444444444444,10.46,250,out,i,1.3183600902557373,out,1
101,3,left,14,0.0444444444444444,20.61,410,out,i,0.8333802223205566,out,1
101,3,left,15,0.1901299881530563,6.88,210,in,u,0.7170488834381104,in,1
101,3,left,16,0.1751614265926797,8.52,227,in,i,1.7343881130218506,out,0
101,3,left,17,0.0309789513888337,11.36,261,in,i,0.8714995384216309,out,0
101,3,left,18,0.1940557495143982,7.03,211,in,u,0.6669776439666748,in,1
101,3,left,19,0.0444444444444444,5.42,195,out,u,0.7669072151184082,in,0
101,3,left,20,0.0444444444444444,8.91,232,out,u,1.5016725063323975,in,0
101,3,left,21,0.1276440443376951,5.61,197,in,u,1.3844037055969238,in,1
101,3,left,22,0.0444444444444444,18.13,363,out,i,0.687108039855957,out,1
101,3,left,23,0.0398349826151916,11.09,258,in,i,1.0668015480041504,out,0
101,3,left,24,0.1942814704981104,7.04,211,in,u,1.1337687969207764,in,1
101,3,left,25,0.0444444444444444,7.45,216,out,u,0.7590398788452148,in,0
101,3,left,26,0.0444444444444444,16.16,330,out,i,2.4791791439056396,out,1
101,3,left,27,0.1982855148897704,7.72,219,in,i,0.8176734447479248,out,0
101,3,left,28,0.1318556793781222,5.68,198,in,i,0.8805298805236816,out,0
101,3,left,29,0.0801987546271229,4.8,190,in,u,0.3957195281982422,in,1
101,3,left,30,0.0036893322750674,13.15,285,in,u,1.1624343395233154,in,1
101,3,left,31,0.1928587366418353,6.98,211,in,u,0.9062471389770508,in,1
101,3,left,32,0.1975433366628491,7.78,219,in,u,3.172877550125122,in,1
101,3,left,33,0.0444444444444444,22.44,448,out,i,0.74169158935546875,out,1
101,3,left,34,0.0444444444444444,1.82,164,out,u,0.7102541923522949,in,0
101,3,left,35,0.1425307814292597,5.86,200,in,u,3.271533489227295,in,1
101,3,left,36,0.105352090813871,5.24,194,in,u,0.5327515602111816,in,1
101,3,left,37,0.0444444444444444,15.75,323,out,i,0.845848798751831,out,1
101,3,left,38,0.1454373611580521,5.91,200,in,u,0.5470402240753174,in,1
101,3,left,39,0.130053445657598,9.35,237,in,u,1.2109284400939941,in,1
101,3,left,40,0.0444444444444444,0.54,154,out,u,0.6170597076416016,in,0
101,3,left,41,0.0444444444444444,21.94,438,out,i,0.7999036312103271,out,1
101,3,left,42,0.0444444444444444,11.62,264,out,i,1.1010518074035645,out,1
101,3,left,43,0.0444444444444444,3.28,176,out,u,0.9442427158355713,in,0
101,3,left,44,0.1431145682999597,9.13,234,in,u,0.6883029937744141,in,1
101,3,left,45,0.0444444444444444,20.1,400,out,i,0.5549709796905518,out,1
101,3,left,46,0.1246248452320208,5.56,197,in,u,0.6434519290924072,in,1
101,3,left,47,0.0444444444444444,22.26,444,out,i,0.5923497676849365,out,1
101,3,left,48,0.0092124698650067,12.46,275,in,i,0.8000283241271973,out,0
101,3,left,49,0.0444444444444444,18.63,372,out,u,2.1883013248443604,in,0
101,3,left,50,0.0444444444444444,9.63,240,out,i,0.8670387268066406,out,1
101,3,left,51,0.0444444444444444,11.49,263,out,u,0.9999921321868896,in,0
101,3,left,52,0.0672182969433732,10.45,250,in,i,0.32511115074157715,out,0
101,3,left,53,0.1270407608337813,5.6,197,in,u,0.7583463191986084,in,1
101,3,left,54,0.0444444444444444,9.5,238,out,u,0.7895605564117432,in,0
101,3,left,55,0.0444444444444444,12.3,273,out,i,3.5411081314086914,out,1
101,3,left,56,0.0444444444444444,3.92,182,out,u,1.6689856052398682,in,0
101,3,left,57,0.1252291784733381,9.43,238,in,i,1.5609469413757324,out,0
101,3,left,58,0.0444444444444444,3.0700000000000003,174,out,u,0.6981253623962402,in,0
101,3,left,59,0.0444444444444444,12.64,278,out,i,0.7958090305328369,out,1
101,3,left,60,0.1918201062897904,8.06,222,in,u,4.010249376296997,in,1
101,3,left,61,0.0856918726666513,10.1,246,in,u,3.408356189727783,in,1
101,3,left,62,0.0444444444444444,16.99,344,out,i,0.7183265686035156,out,1
101,3,left,63,0.0033880193442544,1.79,164,in,u,1.0493860244750977,in,1
101,3,left,64,0.079119390706927,10.22,247,in,u,2.5722501277923584,in,1
101,3,left,65,0.0435210829592398,4.01,182,in,i,0.8609170913696289,out,0
101,3,left,66,0.0199902666263887,3.21,175,in,u,1.671687126159668,in,1
101,3,left,67,0.0444444444444444,5.72,198,out,u,0.6190099716186523,in,0
101,3,left,68,0.1959203083328453,7.88,220,in,i,0.8561849594116211,out,0
101,3,left,69,0.1786284564560855,6.56,207,in,u,0.788226842880249,in,1
101,3,left,70,0.1471655268705283,5.94,200,in,u,0.7079322338104248,in,1
101,3,left,71,0.0947799592325099,5.0600000000000005,192,in,u,0.71035003662109375,in,1
101,3,left,72,0.1967916365307053,7.83,220,in,i,0.650029182434082,out,0
101,3,left,73,0.0444444444444444,6.5,206,out,u,0.7251121997833252,in,0
101,3,left,74,0.0444444444444444,3.67,179,out,u,0.9103076457977295,in,0
101,3,left,75,0.0840276142937409,10.13,246,in,i,1.0335476398468018,out,0
101,3,left,76,0.0444444444444444,7.65,218,out,u,0.67819976806640625,in,0
101,3,left,77,0.1961040697466109,7.87,220,in,i,3.0501515865325928,out,0
101,3,left,78,0.1651155425002292,8.73,230,in,i,0.8304059505462646,out,0
101,3,left,79,0.1306547027588974,9.34,237,in,i,0.7549009323120117,out,0
101,3,left,80,0.110135121189941,5.32,194,in,u,0.403827428817749,in,1
101,3,left,81,0.1348476316267912,9.27,236,in,u,2.5155394077301025,in,1
101,3,left,82,0.0444444444444444,13.64,292,out,i,0.9500284194946289,out,1
101,3,left,83,0.1947190959507421,7.0600000000000005,212,in,u,0.5729026794433594,in,1
101,3,left,84,0.0444444444444444,18.73,374,out,i,0.9250190258026123,out,1
101,3,left,85,0.1879630660618289,6.81,209,in,u,0.933741569519043,in,1
101,3,left,86,0.1786284564560855,8.44,226,in,u,1.110914707183838,in,1
101,3,left,87,0.1077386068402413,9.72,241,in,i,0.7776312828063965,out,0
101,3,left,88,0.1738069996892409,8.55,228,in,u,0.5048637390136719,in,1
101,3,left,89,0.0444444444444444,10.73,253,out,i,0.5222902297973633,out,1
101,3,left,90,0.0444444444444444,2.25,167,out,u,0.444288969039917,in,0
101,3,left,91,0.1992395732695614,7.4,215,in,i,2.6168670654296875,out,0
101,3,left,92,0.0444444444444444,12.67,278,out,i,1.0782606601715088,out,1
101,3,left,93,0.0444444444444444,10.14,246,out,i,2.20965576171875,out,1
101,3,left,94,0.0444444444444444,20.54,409,out,u,1.31241774559021,in,0
101,3,left,95,0.1957318257578651,7.11,212,in,u,0.866832971572876,in,1
101,3,left,96,0.1990678032240969,7.63,218,in,u,0.7579047679901123,in,1
101,3,left,97,0.0444444444444444,11.28,260,out,u,0.4381725788116455,in,0
101,3,left,98,0.1550438509731031,6.08,202,in,u,0.4269723892211914,in,1
101,3,left,99,0.0444444444444444,17.14,346,out,i,0.6395754814147949,out,1
101,3,left,100,0.099440351939599,5.14,193,in,u,0.5883190631866455,in,1
101,3,left,101,0.1967916365307053,7.83,220,in,u,0.716710090637207,in,1
101,3,left,102,0.1953407533091555,7.91,221,in,u,0.5833563804626465,in,1
101,3,left,103,0.0444444444444444,10.18,246,out,i,0.6856663227081299,out,1
101,3,left,104,0.0444444444444444,17.74,356,out,i,0.7609326839447021,out,1
101,3,left,105,0.141359739671713,9.16,235,in,u,0.9304699897766113,in,1
101,3,left,106,0.0444444444444444,11.17,259,out,u,0.626917839050293,in,0
101,3,left,107,0.0377296209072985,3.85,181,in,u,1.760284662246704,in,1
101,3,left,108,0.0444444444444444,7.84,220,out,i,0.6556286811828613,out,1
101,3,left,109,0.0444444444444444,15.43,318,out,i,0.6603124141693115,out,1
101,3,left,110,0.0444444444444444,18.43,369,out,i,0.736461877822876,out,1
101,3,left,111,0.0444444444444444,13.32,287,out,u,0.7698101997375488,in,0
101,3,left,112,0.0444444444444444,5.63,197,out,u,0.9148764610290527,in,0
101,3,left,113,0.0444444444444444,5.09,192,out,u,2.3881447315216064,in,0
101,3,left,114,0.1442785038784717,9.11,234,in,i,0.603126049041748,out,0
101,3,left,115,0.0444444444444444,14.34,302,out,i,0.7775430679321289,out,1
101,3,left,116,0.1798719999266348,6.59,207,in,u,0.5844316482543945,in,1
101,3,left,117,0.0444444444444444,9.32,236,out,u,0.8327562808990479,in,0
101,3,left,118,0.0444444444444444,5.72,198,out,u,1.8769161701202393,in,0
101,3,left,119,0.0444444444444444,3.51,178,out,u,1.0003817081451416,in,0
101,3,left,120,0.0930507912376185,9.97,244,in,i,0.6803836822509766,out,0
101,3,left,121,0.1889170417974022,8.16,223,in,u,0.6024174690246582,in,1
101,3,left,122,0.1577711375482717,6.13,202,in,u,0.5524046421051025,in,1
101,3,left,123,0.0387723741431307,11.12,258,in,i,0.8335785865783691,out,0
101,3,left,124,0.1185764602183948,9.54,239,in,u,1.3263416290283203,in,1
101,3,left,125,0.0444444444444444,3.02,174,out,u,0.6488351821899414,in,0
101,3,left,126,0.1859439875974732,8.25,224,in,u,1.8677234649658203,in,1
101,3,left,127,0.019355139402609,11.82,267,in,i,0.5597202777862549,out,0
101,3,left,128,0.0444444444444444,16.41,334,out,u,3.9435596466064453,in,0
101,3,left,129,0.1197861400293165,5.48,196,in,u,0.4083576202392578,in,1
101,3,left,130,0.0444444444444444,17.94,360,out,i,0.6155247688293457,out,1
101,3,left,131,0.0444444444444444,19.71,392,out,i,0.5002295970916748,out,1
101,3,left,132,0.0357033844356709,3.79,180,in,u,0.6637482643127441,in,1
101,3,left,133,0.0444444444444444,14.09,298,out,i,0.6183702945709229,out,1
101,3,left,134,0.0444444444444444,11.34,261,out,i,0.58376145362854,out,1
101,3,left,135,0.1620241642930854,6.21,203,in,u,0.8871703147888184,in,1
101,3,left,136,0.0444444444444444,19.72,393,out,i,0.7382185459136963,out,1
101,3,left,137,0.1407725526860632,9.17,235,in,u,0.5473790168762207,in,1
101,3,left,138,0.0444444444444444,13.12,285,out,i,0.5255882740020752,out,1
101,3,left,139,0.1270407608337813,9.4,237,in,u,0.6837272644042969,in,1
101,3,left,140,0.0444444444444444,21.15,421,out,i,0.4943051338195801,out,1
101,3,left,141,0.1419458272271371,5.85,200,in,u,0.6256105899810791,in,1
101,3,left,142,0.1826474855058999,6.66,208,in,u,0.9109113216400146,in,1
101,3,left,143,0.1892266468733199,8.15,223,in,u,1.0256235599517822,in,1
101,3,left,144,0.1940557495143982,7.97,221,in,u,0.8327553272247314,in,1
101,3,left,145,0.0444444444444444,0.15,151,out,u,0.6935627460479736,in,0
101,3,left,146,0.1620241642930854,6.21,203,in,u,0.967768669128418,in,1
101,3,left,147,0.1240203278460704,9.45,238,in,i,0.42293834686279297,out,0
101,3,left,148,0.0444444444444444,8.6,228,out,u,0.8523068428039551,in,0
101,3,left,149,0.0444444444444444,17.48,352,out,i,5.576881170272827,out,1
101,3,left,150,0.0753953412833294,4.71,189,in,u,2.9442222118377686,in,1
101,3,left,151,0.0444444444444444,18.45,369,out,i,1.1769342422485352,out,1
101,3,left,152,0.183781120388606,6.69,208,in,u,0.728259801864624,in,1
101,3,left,153,0.18629063098582271,6.76,209,in,u,1.209707498550415,in,1
101,3,left,154,0.0444444444444444,8.55,228,out,i,0.5603127479553223,out,1
101,3,left,155,0.0444444444444444,2.09,166,out,u,0.52829909324646,in,0
101,3,left,156,0.1926057755919956,6.97,211,in,u,1.3616259098052979,in,1
101,3,left,157,0.0444444444444444,14.57,305,out,i,0.6021740436553955,out,1
101,3,left,158,0.1972571063917844,7.2,213,in,u,0.4637887477874756,in,1
101,3,left,159,0.0444444444444444,0.01,150,out,i,0.49124717712402344,out,1
101,3,left,160,0.199466337231708,7.53,217,in,u,1.6849217414855957,in,1
101,3,left,161,0.0444444444444444,21.83,435,out,i,0.5282506942749023,out,1
101,3,left,162,0.1955386359830796,7.1,212,in,u,0.6822803020477295,in,1
101,3,left,163,0.1981740106511521,7.27,214,in,u,1.782081127166748,in,1
101,3,left,164,0.1488807256544705,5.97,201,in,u,0.9501101970672607,in,1
101,3,left,165,0.0614144706922352,4.43,186,in,u,1.583369255065918,in,1
101,3,left,166,0.0444444444444444,3.13,175,out,u,0.7177057266235352,in,0
101,3,left,167,0.1630644442897305,8.77,230,in,u,0.9276056289672852,in,1
101,3,left,168,0.1378213093627494,5.78,199,in,u,1.9929897785186768,in,1
101,3,left,169,0.0444444444444444,1.89,164,out,u,0.5436692237854004,in,0
101,3,left,170,0.0444444444444444,7.79,219,out,u,0.6881833076477051,in,0
101,3,left,171,0.0444444444444444,3.48,178,out,u,0.9957826137542725,in,0
101,3,left,172,0.0444444444444444,0.05,150,out,u,0.8430736064910889,in,0
101,3,left,173,0.1994488846907601,7.54,217,in,u,0.33576345443725586,in,1
101,3,left,174,0.0444444444444444,17.77,357,out,i,0.7048454284667969,out,1
101,3,left,175,0.0444444444444444,11.66,265,out,u,0.6503920555114746,in,0
101,3,left,176,0.0431424739536809,11,257,in,i,0.6548163890838623,out,0
101,3,left,177,0.0444444444444444,7.3,214,out,u,0.618349552154541,in,0
101,3,left,178,0.0444444444444444,20.02,398,out,i,0.8333230018615723,out,1
101,3,left,179,0.1935905741492859,7.99,222,in,u,0.5335524082183838,in,1
101,3,left,180,0.0959385599838225,9.92,243,in,u,0.7424132823944092,in,1
101,3,left,181,0.1209960604027563,9.5,238,in,u,0.8166453838348389,in,1
101,3,left,182,0.0444444444444444,15.36,317,out,i,0.49352025985717773,out,1
101,3,left,183,0.1987694253586057,7.33,214,in,u,0.3837552070617676,in,1
101,3,left,184,0.1876367637917333,8.2,224,in,u,0.7430315017700195,in,1
101,3,left,185,0.0829257381666969,4.85,190,in,i,0.7357771396636963,out,0
101,3,left,186,0.0444444444444444,9.71,241,out,u,0.9844675064086914,in,0
101,3,left,187,0.0444444444444444,5.18,193,out,u,0.48052406311035156,in,0
101,3,left,188,0.0444444444444444,0.16,151,out,u,0.9077222347259521,in,0
101,3,left,189,0.1909946632223051,8.09,223,in,u,4.701613664627075,in,1
101,3,left,190,0.0444444444444444,15.72,323,out,u,1.3123042583465576,in,0
101,3,left,191,0.0444444444444444,4.81,190,out,u,1.0337493419647217,in,0
101,3,left,192,0.1710140105883966,8.61,228,in,u,0.5596868991851807,in,1
101,3,left,193,0.0444444444444444,2.68,171,out,u,0.5510790348052979,in,0
101,3,left,194,0.1882852285853879,6.82,209,in,u,0.7434968948364258,in,1
101,3,left,195,0.0444444444444444,4.44,186,out,i,0.6333327293395996,out,1
101,3,left,196,0.0148286035285384,2.94,173,in,u,0.9729354381561279,in,1
101,3,left,197,0.0444444444444444,14.38,303,out,i,0.6204979419708252,out,1
101,3,left,198,0.0444444444444444,14.38,303,out,i,1.305607557296753,out,1
101,3,left,199,0.0444444444444444,5.58,197,out,u,0.6204853057861328,in,0
101,3,left,200,0.0444444444444444,6.18,203,out,i,1.0177879333496094,out,1
102,4,left,1,0.0444444444444444,15.75,323,out,i,4.890449523925781,out,1
102,4,left,2,0.1252291784733381,9.43,238,in,i,3.5417795181274414,out,0
102,4,left,3,0.0398349826151916,11.09,258,in,u,2.2477502822875977,in,1
102,4,left,4,0.0444444444444444,8.55,228,out,u,1.7714827060699463,in,0
102,4,left,5,0.0444444444444444,9.71,241,out,u,1.6414282321929932,in,0
102,4,left,6,0.0444444444444444,21.15,421,out,i,1.206099271774292,out,1
102,4,left,7,0.0435210829592398,4.01,182,in,i,1.0984647274017334,out,0
102,4,left,8,0.1191812551022674,5.47,196,in,u,1.451927900314331,in,1
102,4,left,9,0.0444444444444444,13.32,287,out,u,2.0256855487823486,in,0
102,4,left,10,0.0801987546271229,4.8,190,in,i,1.4643800258636475,out,0
102,4,left,11,0.0444444444444444,5.58,197,out,u,0.7250757217407227,in,0
102,4,left,12,0.0444444444444444,17.14,346,out,i,1.0303709506988525,out,1
102,4,left,13,0.0930507912376185,9.97,244,in,u,1.5864160060882568,in,1
102,4,left,14,0.1940557495143982,7.97,221,in,u,2.025209426879883,in,1
102,4,left,15,0.0444444444444444,0.16,151,out,i,0.9772493839263916,out,1
102,4,left,16,0.1786284564560855,8.44,226,in,u,1.12896728515625,in,1
102,4,left,17,0.0444444444444444,16.41,334,out,i,2.1922316551208496,out,1
102,4,left,18,0.1488807256544705,5.97,201,in,u,1.807675838470459,in,1
102,4,left,19,0.1892266468733199,8.15,223,in,u,0.9880802631378174,in,1
102,4,left,20,0.1961040697466109,7.87,220,in,u,1.044123649597168,in,1
102,4,left,21,0.1957318257578651,7.11,212,in,u,1.1412553787231445,in,1
102,4,left,22,0.1686048794969123,6.34,204,in,u,1.0231719017028809,in,1
102,4,left,23,0.0444444444444444,1.82,164,out,i,1.7387292385101318,out,1
102,4,left,24,0.130053445657598,9.35,237,in,u,0.9767036437988281,in,1
102,4,left,25,0.0444444444444444,3.0700000000000003,174,out,u,1.8256583213806152,in,0
102,4,left,26,0.1909946632223051,8.09,223,in,u,1.0045583248138428,in,1
102,4,left,27,0.0444444444444444,18.73,374,out,i,0.9775521755218506,out,1
102,4,left,28,0.0444444444444444,7.45,216,out,u,0.9440927505493164,in,0
102,4,left,29,0.1994488846907601,7.54,217,in,u,1.1363978385925293,in,1
102,4,left,30,0.0444444444444444,13.12,285,out,u,1.5018410682678223,in,0
102,4,left,31,0.0444444444444444,15.43,318,out,i,1.3509666919708252,out,1
102,4,left,32,0.0444444444444444,6.96,211,out,u,0.9754781723022461,in,0
102,4,left,33,0.1826474855058999,6.66,208,in,u,1.388044834136963,in,1
102,4,left,34,0.0444444444444444,14.34,302,out,i,2.121906042098999,out,1
102,4,left,35,0.0199902666263887,3.21,175,in,i,1.1950886249542236,out,0
102,4,left,36,0.1431145682999597,9.13,234,in,u,0.8965127468109131,in,1
102,4,left,37,0.1889170417974022,8.16,223,in,i,1.234114646911621,out,0
102,4,left,38,0.0444444444444444,5.18,193,out,u,1.0287907123565674,in,0
102,4,left,39,0.0036893322750674,13.15,285,in,i,1.2510027885437012,out,0
102,4,left,40,0.0444444444444444,14.57,305,out,i,1.026954174041748,out,1
102,4,left,41,0.0444444444444444,17.48,352,out,i,0.8254668712615967,out,1
102,4,left,42,0.0387723741431307,11.12,258,in,u,0.8140740394592285,in,1
102,4,left,43,0.105352090813871,5.24,194,in,u,2.3483028411865234,in,1
102,4,left,44,0.0444444444444444,5.72,198,out,u,0.7013871669769287,in,0
102,4,left,45,0.0444444444444444,12.67,278,out,i,2.4194445610046387,out,1
102,4,left,46,0.0444444444444444,14.38,303,out,i,2.51902174949646,out,1
102,4,left,47,0.0444444444444444,11.34,261,out,u,1.768531322479248,in,0
102,4,left,48,0.0444444444444444,6.5,206,out,u,1.2540137767791748,in,0
102,4,left,49,0.1471655268705283,5.94,200,in,i,1.027099370956421,out,0
102,4,left,50,0.0444444444444444,22.39,447,out,i,1.0360047817230225,out,1
102,4,left,51,0.1928587366418353,6.98,211,in,u,1.5528945922851562,in,1
102,4,left,52,0.1975433366628491,7.78,219,in,u,0.7767422199249268,in,1
102,4,left,53,0.183781120388606,6.69,208,in,u,0.5666074752807617,in,1
102,4,left,54,0.0444444444444444,5.72,198,out,u,0.7033743858337402,in,0
102,4,left,55,0.0444444444444444,13.64,292,out,u,1.7315165996551514,in,0
102,4,left,56,0.1620241642930854,6.21,203,in,u,0.6797294616699219,in,1
102,4,left,57,0.1901299881530563,6.88,210,in,u,2.2334649562835693,in,1
102,4,left,58,0.0829257381666969,4.85,190,in,i,0.8692383766174316,out,0
102,4,left,59,0.0092124698650067,12.46,275,in,u,1.351222038269043,in,1
102,4,left,60,0.0444444444444444,14.09,298,out,i,2.200180768966675,out,1
102,4,left,61,0.0444444444444444,7.3,214,out,u,1.2523765563964844,in,0
102,4,left,62,0.0444444444444444,17.94,360,out,i,1.1267926692962646,out,1
102,4,left,63,0.0444444444444444,3.13,175,out,u,1.3999714851379395,in,0
102,4,left,64,0.0444444444444444,11.66,265,out,u,1.423063039779663,in,0
102,4,left,65,0.0444444444444444,9.5,238,out,u,1.9945886135101318,in,0
102,4,left,66,0.1953407533091555,7.91,221,in,i,1.5156188011169434,out,0
102,4,left,67,0.0444444444444444,16.02,328,out,i,0.9337770938873291,out,1
102,4,left,68,0.0444444444444444,12.3,273,out,i,2.5120341777801514,out,1
102,4,left,69,0.0444444444444444,11.62,264,out,i,2.3428831100463867,out,1
102,4,left,70,0.0444444444444444,10.99,256,out,i,1.0880272388458252,out,1
102,4,left,71,0.1940557495143982,7.03,211,in,u,0.9822349548339844,in,1
102,4,left,72,0.0431424739536809,11,257,in,i,1.4064977169036865,out,0
102,4,left,73,0.0444444444444444,7.79,219,out,u,1.0281693935394287,in,0
102,4,left,74,0.1185764602183948,9.54,239,in,u,1.0707104206085205,in,1
102,4,left,75,0.1425307814292597,5.86,200,in,i,3.6778457164764404,out,0
102,4,left,76,0.1209960604027563,9.5,238,in,u,1.0036613941192627,in,1
102,4,left,77,0.0444444444444444,1.6,162,out,i,0.8961882591247559,out,1
102,4,left,78,0.199466337231708,7.53,217,in,u,0.8241884708404541,in,1
102,4,left,79,0.1276440443376951,5.61,197,in,i,1.2759599685668945,out,0
102,4,left,80,0.0444444444444444,3.28,176,out,i,1.1769676208496094,out,1
102,4,left,81,0.0357033844356709,3.79,180,in,i,1.5251531600952148,out,0
102,4,left,82,0.0444444444444444,21.83,435,out,i,1.146989345550537,out,1
102,4,left,83,0.0444444444444444,9.32,236,out,u,3.162611246109009,in,0
102,4,left,84,0.1651155425002292,8.73,230,in,i,1.2577383518218994,out,0
102,4,left,85,0.0444444444444444,3.02,174,out,i,0.8715207576751709,out,1
102,4,left,86,0.0309789513888337,11.36,261,in,u,1.7967970371246338,in,1
102,4,left,87,0.0444444444444444,18.45,369,out,i,0.8827056884765625,out,1
102,4,left,88,0.0444444444444444,20.54,409,out,i,0.8767542839050293,out,1
102,4,left,89,0.079119390706927,10.22,247,in,u,0.7830111980438232,in,1
102,4,left,90,0.0444444444444444,19.71,392,out,i,0.6889081001281738,out,1
102,4,left,91,0.0444444444444444,10.18,246,out,u,0.6244997978210449,in,0
102,4,left,92,0.1454373611580521,5.91,200,in,i,1.2597765922546387,out,0
102,4,left,93,0.1982855148897704,7.72,219,in,u,0.5846905708312988,in,1
102,4,left,94,0.0444444444444444,19.72,393,out,i,0.677241325378418,out,1
102,4,left,95,0.1378213093627494,5.78,199,in,u,0.8865361213684082,in,1
102,4,left,96,0.0444444444444444,3.92,182,out,i,0.8904623985290527,out,1
102,4,left,97,0.0444444444444444,18.63,372,out,i,0.7718591690063477,out,1
102,4,left,98,0.1942814704981104,7.04,211,in,u,0.5624520778656006,in,1
102,4,left,99,0.0444444444444444,14.38,303,out,i,0.9342656135559082,out,1
102,4,left,100,0.1972571063917844,7.2,213,in,u,0.752608060836792,in,1
102,4,left,101,0.0444444444444444,17.74,356,out,i,0.5919384956359863,out,1
102,4,left,102,0.0444444444444444,18.54,371,out,i,0.591862678527832,out,1
102,4,left,103,0.1270407608337813,9.4,237,in,i,1.148148775100708,out,0
102,4,left,104,0.0444444444444444,11.49,263,out,u,0.4806663990020752,in,0
102,4,left,105,0.1318556793781222,5.68,198,in,u,1.5567667484283447,in,1
102,4,left,106,0.0444444444444444,4.81,190,out,i,0.7493841648101807,out,1
102,4,left,107,0.1990678032240969,7.63,218,in,u,0.6615626811981201,in,1
102,4,left,108,0.0444444444444444,17.61,354,out,i,0.24063777923583984,out,1
102,4,left,109,0.0444444444444444,2.68,171,out,u,0.8513071537017822,in,0
102,4,left,110,0.1246248452320208,5.56,197,in,u,1.0714998245239258,in,1
102,4,left,111,0.0444444444444444,10.14,246,out,i,1.760740041732788,out,1
102,4,left,112,0.1348476316267912,9.27,236,in,u,0.768754243850708,in,1
102,4,left,113,0.1710140105883966,8.61,228,in,i,0.2610902786254883,out,0
102,4,left,114,0.1630644442897305,8.77,230,in,u,0.7711212635040283,in,1
102,4,left,115,0.0444444444444444,20.62,410,out,i,0.5038316249847412,out,1
102,4,left,116,0.0444444444444444,8.55,228,out,i,0.9546928405761719,out,1
102,4,left,117,0.110135121189941,5.32,194,in,i,0.5365135669708252,out,0
102,4,left,118,0.1947190959507421,7.0600000000000005,212,in,u,0.7723178863525391,in,1
102,4,left,119,0.0444444444444444,22.17,442,out,i,0.5018949508666992,out,1
102,4,left,120,0.0444444444444444,7.65,218,out,u,0.6312170028686523,in,0
102,4,left,121,0.1577711375482717,6.13,202,in,i,1.1852898597717285,out,0
102,4,left,122,0.019355139402609,11.82,267,in,u,0.7691609859466553,in,1
102,4,left,123,0.0947799592325099,5.0600000000000005,192,in,i,0.4815487861633301,out,0
102,4,left,124,0.0444444444444444,16.16,330,out,i,1.410909652709961,out,1
102,4,left,125,0.0444444444444444,18.43,369,out,i,0.5270545482635498,out,1
102,4,left,126,0.1918201062897904,8.06,222,in,i,1.1374790668487549,out,0
102,4,left,127,0.0753953412833294,4.71,189,in,i,1.0075666904449463,out,0
102,4,left,128,0.0444444444444444,18.13,363,out,i,0.6848742961883545,out,1
102,4,left,129,0.0444444444444444,15.36,317,out,i,0.5978002548217773,out,1
102,4,left,130,0.0444444444444444,22.26,444,out,i,0.5749220848083496,out,1
102,4,left,131,0.0444444444444444,5.09,192,out,u,0.8307466506958008,in,0
102,4,left,132,0.1419458272271371,5.85,200,in,u,0.8311545848846436,in,1
102,4,left,133,0.0444444444444444,17.77,357,out,i,0.663576602935791,out,1
102,4,left,134,0.0444444444444444,0.05,150,out,i,0.846754789352417,out,1
102,4,left,135,0.0840276142937409,10.13,246,in,u,0.9241461753845215,in,1
102,4,left,136,0.0444444444444444,7.84,220,out,i,0.9842321872711182,out,1
102,4,left,137,0.0444444444444444,10.73,253,out,u,1.8159656524658203,in,0
102,4,left,138,0.141359739671713,9.16,235,in,u,2.114121913909912,in,1
102,4,left,139,0.0444444444444444,8.91,232,out,u,1.0867908000946045,in,0
102,4,left,140,0.1550438509731031,6.08,202,in,i,1.38936448097229,out,0
102,4,left,141,0.1270407608337813,5.6,197,in,i,0.8921341896057129,out,0
102,4,left,142,0.1407725526860632,9.17,235,in,u,1.3975319862365723,in,1
102,4,left,143,0.0614144706922352,4.43,186,in,i,0.9319605827331543,out,0
102,4,left,144,0.1967916365307053,7.83,220,in,u,0.8761999607086182,in,1
102,4,left,145,0.1876367637917333,8.2,224,in,u,1.3510024547576904,in,1
102,4,left,146,0.0444444444444444,10.46,250,out,u,1.5905537605285645,in,0
102,4,left,147,0.0856918726666513,10.1,246,in,i,0.5218071937561035,out,0
102,4,left,148,0.0377296209072985,3.85,181,in,u,0.32998132705688477,in,1
102,4,left,149,0.0444444444444444,2.09,166,out,u,0.3796970844268799,in,0
102,4,left,150,0.0444444444444444,4.44,186,out,u,0.43788743019104004,in,0
102,4,left,151,0.1992395732695614,7.4,215,in,u,0.7990536689758301,in,1
102,4,left,152,0.1859439875974732,8.25,224,in,u,1.8799195289611816,in,1
102,4,left,153,0.0148286035285384,2.94,173,in,i,0.9186549186706543,out,0
102,4,left,154,0.1935905741492859,7.99,222,in,u,0.686394453048706,in,1
102,4,left,155,0.1738069996892409,8.55,228,in,u,0.6141042709350586,in,1
102,4,left,156,0.1882852285853879,6.82,209,in,u,0.6073012351989746,in,1
102,4,left,157,0.1442785038784717,9.11,234,in,u,0.6314759254455566,in,1
102,4,left,158,0.0444444444444444,21.94,438,out,i,0.5522570610046387,out,1
102,4,left,159,0.0444444444444444,1.89,164,out,u,0.9430830478668213,in,0
102,4,left,160,0.0444444444444444,20.02,398,out,i,0.7985901832580566,out,1
102,4,left,161,0.1981740106511521,7.27,214,in,u,0.6836850643157959,in,1
102,4,left,162,0.1987694253586057,7.33,214,in,i,0.7499263286590576,out,0
102,4,left,163,0.0444444444444444,3.51,178,out,u,0.2162933349609375,in,0
102,4,left,164,0.1240203278460704,9.45,238,in,u,0.6113936901092529,in,1
102,4,left,165,0.0444444444444444,8.6,228,out,i,1.3503611087799072,out,1
102,4,left,166,0.0444444444444444,20.61,410,out,u,0.2423248291015625,in,0
102,4,left,167,0.0444444444444444,0.15,151,out,i,0.7791695594787598,out,1
102,4,left,168,0.099440351939599,5.14,193,in,i,1.1033799648284912,out,0
102,4,left,169,0.1926057755919956,6.97,211,in,u,0.5993177890777588,in,1
102,4,left,170,0.0444444444444444,5.42,195,out,u,0.42562413215637207,in,0
102,4,left,171,0.0444444444444444,20.1,400,out,i,0.6983225345611572,out,1
102,4,left,172,0.1798719999266348,6.59,207,in,u,0.7050127983093262,in,1
102,4,left,173,0.0672182969433732,10.45,250,in,i,1.2852551937103271,out,0
102,4,left,174,0.18629063098582271,6.76,209,in,i,1.5705630779266357,out,0
102,4,left,175,0.1959203083328453,7.88,220,in,u,1.0569002628326416,in,1
102,4,left,176,0.0033880193442544,1.79,164,in,u,1.7613701820373535,in,1
102,4,left,177,0.0444444444444444,22.44,448,out,i,0.5099561214447021,out,1
102,4,left,178,0.1751614265926797,8.52,227,in,u,0.8799788951873779,in,1
102,4,left,179,0.0444444444444444,5.63,197,out,u,0.5145835876464844,in,0
102,4,left,180,0.0444444444444444,3.48,178,out,u,0.7215847969055176,in,0
102,4,left,181,0.0444444444444444,0.54,154,out,i,0.891411304473877,out,1
102,4,left,182,0.1077386068402413,9.72,241,in,u,0.8934121131896973,in,1
102,4,left,183,0.0444444444444444,11.28,260,out,u,0.7260856628417969,in,0
102,4,left,184,0.1786284564560855,6.56,207,in,u,0.8992197513580322,in,1
102,4,left,185,0.0444444444444444,3.67,179,out,u,0.6013491153717041,in,0
102,4,left,186,0.0444444444444444,12.64,278,out,u,0.8772926330566406,in,0
102,4,left,187,0.0959385599838225,9.92,243,in,u,0.752159833908081,in,1
102,4,left,188,0.0444444444444444,9.63,240,out,u,1.374079704284668,in,0
102,4,left,189,0.1967916365307053,7.83,220,in,u,0.8445954322814941,in,1
102,4,left,190,0.1955386359830796,7.1,212,in,i,1.4831249713897705,out,0
102,4,left,191,0.0444444444444444,2.25,167,out,i,1.0904498100280762,out,1
102,4,left,192,0.0444444444444444,11.17,259,out,u,1.780165672302246,in,0
102,4,left,193,0.1620241642930854,6.21,203,in,i,0.9473237991333008,out,0
102,4,left,194,0.1197861400293165,5.48,196,in,i,0.9295330047607422,out,0
102,4,left,195,0.0444444444444444,15.72,323,out,u,0.22544407844543457,in,0
102,4,left,196,0.0444444444444444,6.18,203,out,i,0.6455562114715576,out,1
102,4,left,197,0.1879630660618289,6.81,209,in,i,0.3769800662994385,out,0
102,4,left,198,0.1306547027588974,9.34,237,in,i,0.45023107528686523,out,0
102,4,left,199,0.0444444444444444,0.01,150,out,i,1.0570335388183594,out,1
102,4,left,200,0.0444444444444444,16.99,344,out,i,0.5708258152008057,out,1
103,5,left,1,0.1270407608337813,9.4,237,in,u,3.456186294555664,in,1
103,5,left,2,0.0444444444444444,3.51,178,out,i,1.060488224029541,out,1
103,5,left,3,0.0444444444444444,5.63,197,out,u,0.6663684844970703,in,0
103,5,left,4,0.1957318257578651,7.11,212,in,u,1.1982715129852295,in,1
103,5,left,5,0.1270407608337813,5.6,197,in,u,1.1881752014160156,in,1
103,5,left,6,0.1209960604027563,9.5,238,in,u,0.850635290145874,in,1
103,5,left,7,0.1197861400293165,5.48,196,in,u,0.8808519840240479,in,1
103,5,left,8,0.0444444444444444,13.32,287,out,i,0.9872372150421143,out,1
103,5,left,9,0.0444444444444444,6.18,203,out,u,1.1783664226531982,in,0
103,5,left,10,0.1942814704981104,7.04,211,in,i,1.1532559394836426,out,0
103,5,left,11,0.0444444444444444,20.1,400,out,i,1.033552885055542,out,1
103,5,left,12,0.1990678032240969,7.63,218,in,u,1.8382315635681152,in,1
103,5,left,13,0.0829257381666969,4.85,190,in,u,0.8505375385284424,in,1
103,5,left,14,0.1798719999266348,6.59,207,in,u,0.6715190410614014,in,1
103,5,left,15,0.0444444444444444,2.09,166,out,i,0.9167678356170654,out,1
103,5,left,16,0.1240203278460704,9.45,238,in,i,1.189074993133545,out,0
103,5,left,17,0.1185764602183948,9.54,239,in,u,1.5001144409179688,in,1
103,5,left,18,0.0444444444444444,7.84,220,out,u,0.7424507141113281,in,0
103,5,left,19,0.0444444444444444,15.43,318,out,i,1.1024727821350098,out,1
103,5,left,20,0.0444444444444444,20.62,410,out,i,0.7524757385253906,out,1
103,5,left,21,0.1425307814292597,5.86,200,in,u,1.1617083549499512,in,1
103,5,left,22,0.1786284564560855,6.56,207,in,u,0.6500990390777588,in,1
103,5,left,23,0.1252291784733381,9.43,238,in,i,0.8950738906860352,out,0
103,5,left,24,0.1318556793781222,5.68,198,in,u,0.7050411701202393,in,1
103,5,left,25,0.0444444444444444,20.02,398,out,i,0.6835565567016602,out,1
103,5,left,26,0.0444444444444444,8.55,228,out,u,1.3338637351989746,in,0
103,5,left,27,0.1786284564560855,8.44,226,in,u,0.7834618091583252,in,1
103,5,left,28,0.1488807256544705,5.97,201,in,u,0.8217995166778564,in,1
103,5,left,29,0.1620241642930854,6.21,203,in,u,0.6357471942901611,in,1
103,5,left,30,0.0444444444444444,12.64,278,out,i,0.8667247295379639,out,1
103,5,left,31,0.0801987546271229,4.8,190,in,u,1.2531991004943848,in,1
103,5,left,32,0.0444444444444444,20.54,409,out,i,0.5215253829956055,out,1
103,5,left,33,0.0444444444444444,3.92,182,out,i,1.2591955661773682,out,1
103,5,left,34,0.1407725526860632,9.17,235,in,u,2.551241159439087,in,1
103,5,left,35,0.0444444444444444,18.63,372,out,i,0.6229662895202637,out,1
103,5,left,36,0.1859439875974732,8.25,224,in,u,0.8450524806976318,in,1
103,5,left,37,0.0444444444444444,14.38,303,out,i,0.4578983783721924,out,1
103,5,left,38,0.0947799592325099,5.0600000000000005,192,in,u,0.8372066020965576,in,1
103,5,left,39,0.0444444444444444,8.55,228,out,u,1.650085687637329,in,0
103,5,left,40,0.0444444444444444,7.45,216,out,u,1.0217676162719727,in,0
103,5,left,41,0.0444444444444444,17.48,352,out,i,0.6679308414459229,out,1
103,5,left,42,0.1876367637917333,8.2,224,in,u,0.959831714630127,in,1
103,5,left,43,0.0444444444444444,9.63,240,out,i,1.0167160034179688,out,1
103,5,left,44,0.141359739671713,9.16,235,in,i,1.0050420761108398,out,0
103,5,left,45,0.0840276142937409,10.13,246,in,i,2.5490007400512695,out,0
103,5,left,46,0.0930507912376185,9.97,244,in,i,2.398329734802246,out,0
103,5,left,47,0.0444444444444444,5.09,192,out,u,1.6838483810424805,in,0
103,5,left,48,0.130053445657598,9.35,237,in,i,0.6950888633728027,out,0
103,5,left,49,0.0309789513888337,11.36,261,in,i,0.7307393550872803,out,0
103,5,left,50,0.0444444444444444,11.34,261,out,i,1.3167498111724854,out,1
103,5,left,51,0.0357033844356709,3.79,180,in,u,1.2051174640655518,in,1
103,5,left,52,0.0444444444444444,17.61,354,out,i,0.6191356182098389,out,1
103,5,left,53,0.0444444444444444,18.73,374,out,i,0.5524930953979492,out,1
103,5,left,54,0.110135121189941,5.32,194,in,u,0.6667609214782715,in,1
103,5,left,55,0.0444444444444444,22.39,447,out,i,0.5097951889038086,out,1
103,5,left,56,0.1550438509731031,6.08,202,in,u,1.191805124282837,in,1
103,5,left,57,0.0672182969433732,10.45,250,in,u,1.269885778427124,in,1
103,5,left,58,0.0444444444444444,20.61,410,out,i,0.5381789207458496,out,1
103,5,left,59,0.1651155425002292,8.73,230,in,u,0.7548415660858154,in,1
103,5,left,60,0.0444444444444444,5.42,195,out,u,0.8669302463531494,in,0
103,5,left,61,0.0444444444444444,3.67,179,out,u,1.4784553050994873,in,0
103,5,left,62,0.1751614265926797,8.52,227,in,u,0.794461727142334,in,1
103,5,left,63,0.0856918726666513,10.1,246,in,u,1.5524704456329346,in,1
103,5,left,64,0.0444444444444444,17.77,357,out,i,0.5937345027923584,out,1
103,5,left,65,0.0444444444444444,7.65,218,out,u,1.2881872653961182,in,0
103,5,left,66,0.1918201062897904,8.06,222,in,u,2.0505237579345703,in,1
103,5,left,67,0.1882852285853879,6.82,209,in,i,1.3431870937347412,out,0
103,5,left,68,0.1889170417974022,8.16,223,in,u,0.68074798583984375,in,1
103,5,left,69,0.0444444444444444,9.32,236,out,u,1.1641368865966797,in,0
103,5,left,70,0.0444444444444444,0.01,150,out,i,0.7223896980285645,out,1
103,5,left,71,0.1879630660618289,6.81,209,in,u,0.6925442218780518,in,1
103,5,left,72,0.0753953412833294,4.71,189,in,u,0.8549003601074219,in,1
103,5,left,73,0.0444444444444444,18.43,369,out,i,0.58817458152771,out,1
103,5,left,74,0.0444444444444444,14.38,303,out,i,1.0337629318237305,out,1
103,5,left,75,0.0444444444444444,2.68,171,out,i,1.5032730102539062,out,1
103,5,left,76,0.0444444444444444,10.73,253,out,i,1.8178157806396484,out,1
103,5,left,77,0.1686048794969123,6.34,204,in,u,0.8334269523620605,in,1
103,5,left,78,0.0444444444444444,11.62,264,out,i,0.6691725254058838,out,1
103,5,left,79,0.0444444444444444,0.05,150,out,i,0.7524905204772949,out,1
103,5,left,80,0.1348476316267912,9.27,236,in,u,0.6501197814941406,in,1
103,5,left,81,0.1191812551022674,5.47,196,in,u,1.3584461212158203,in,1
103,5,left,82,0.1909946632223051,8.09,223,in,u,0.7834715843200684,in,1
103,5,left,83,0.0444444444444444,21.83,435,out,i,0.485762357711792,out,1
103,5,left,84,0.0444444444444444,5.72,198,out,u,0.6334774494171143,in,0
103,5,left,85,0.0444444444444444,15.75,323,out,i,0.6626675128936768,out,1
103,5,left,86,0.0444444444444444,0.15,151,out,i,0.674447774887085,out,1
103,5,left,87,0.0444444444444444,11.28,260,out,i,0.9668300151824951,out,1
103,5,left,88,0.0444444444444444,16.99,344,out,i,0.47936439514160156,out,1
103,5,left,89,0.1982855148897704,7.72,219,in,i,0.5950589179992676,out,0
103,5,left,90,0.1892266468733199,8.15,223,in,u,0.9049828052520752,in,1
103,5,left,91,0.1987694253586057,7.33,214,in,u,3.283501625061035,in,1
103,5,left,92,0.1994488846907601,7.54,217,in,u,1.5117146968841553,in,1
103,5,left,93,0.0444444444444444,15.72,323,out,i,0.44241786003112793,out,1
103,5,left,94,0.0444444444444444,10.46,250,out,i,0.7110705375671387,out,1
103,5,left,95,0.099440351939599,5.14,193,in,u,1.2989516258239746,in,1
103,5,left,96,0.0036893322750674,13.15,285,in,i,0.5657238960266113,out,0
103,5,left,97,0.0377296209072985,3.85,181,in,u,1.7496638298034668,in,1
103,5,left,98,0.0444444444444444,1.6,162,out,i,0.6215686798095703,out,1
103,5,left,99,0.0444444444444444,22.17,442,out,i,0.754824161529541,out,1
103,5,left,100,0.0444444444444444,18.13,363,out,i,0.6912484169006348,out,1
103,5,left,101,0.1454373611580521,5.91,200,in,u,0.8944251537322998,in,1
103,5,left,102,0.1471655268705283,5.94,200,in,u,0.5610508918762207,in,1
103,5,left,103,0.1442785038784717,9.11,234,in,u,0.8890790939331055,in,1
103,5,left,104,0.1306547027588974,9.34,237,in,u,0.5823264122009277,in,1
103,5,left,105,0.0444444444444444,8.6,228,out,u,0.6931140422821045,in,0
103,5,left,106,0.0092124698650067,12.46,275,in,i,1.8715317249298096,out,0
103,5,left,107,0.0444444444444444,22.44,448,out,i,0.786609411239624,out,1
103,5,left,108,0.0959385599838225,9.92,243,in,u,2.2730112075805664,in,1
103,5,left,109,0.1967916365307053,7.83,220,in,i,1.5005011558532715,out,0
103,5,left,110,0.0148286035285384,2.94,173,in,i,0.6714985370635986,out,0
103,5,left,111,0.0444444444444444,7.3,214,out,u,0.754889726638794,in,0
103,5,left,112,0.1620241642930854,6.21,203,in,u,0.6669013500213623,in,1
103,5,left,113,0.0444444444444444,11.66,265,out,i,2.678358316421509,out,1
103,5,left,114,0.1959203083328453,7.88,220,in,u,0.5050361156463623,in,1
103,5,left,115,0.0444444444444444,15.36,317,out,i,0.55515289306640625,out,1
103,5,left,116,0.1992395732695614,7.4,215,in,u,0.8191497325897217,in,1
103,5,left,117,0.0444444444444444,16.02,328,out,i,0.529278039932251,out,1
103,5,left,118,0.0444444444444444,4.44,186,out,u,0.5381259918212891,in,0
103,5,left,119,0.0444444444444444,16.41,334,out,i,0.7482948303222656,out,1
103,5,left,120,0.1953407533091555,7.91,221,in,u,1.403245210647583,in,1
103,5,left,121,0.0444444444444444,10.18,246,out,u,0.417158842086792,in,0
103,5,left,122,0.0444444444444444,12.3,273,out,i,0.8640732765197754,out,1
103,5,left,123,0.0444444444444444,10.14,246,out,i,0.7715108394622803,out,1
103,5,left,124,0.0435210829592398,4.01,182,in,u,0.5383548736572266,in,1
103,5,left,125,0.019355139402609,11.82,267,in,i,0.7808389663696289,out,0
103,5,left,126,0.1378213093627494,5.78,199,in,u,1.0834383964538574,in,1
103,5,left,127,0.0444444444444444,9.5,238,out,u,0.542536735534668,in,0
103,5,left,128,0.0444444444444444,19.72,393,out,i,0.632218599319458,out,1
103,5,left,129,0.0444444444444444,5.18,193,out,u,0.7815783023834229,in,0
103,5,left,130,0.1928587366418353,6.98,211,in,u,0.53910064697265625,in,1
103,5,left,131,0.0033880193442544,1.79,164,in,i,0.9556858539581299,out,0
103,5,left,132,0.0444444444444444,19.71,392,out,i,0.8518218994140625,out,1
103,5,left,133,0.1972571063917844,7.2,213,in,u,0.7925193309783936,in,1
103,5,left,134,0.0444444444444444,6.5,206,out,u,1.054840087890625,in,0
103,5,left,135,0.0444444444444444,2.25,167,out,i,0.7951185703277588,out,1
103,5,left,136,0.1981740106511521,7.27,214,in,u,0.6335625648498535,in,1
103,5,left,137,0.1246248452320208,5.56,197,in,u,0.605766773223877,in,1
103,5,left,138,0.0444444444444444,13.64,292,out,i,0.6205554008483887,out,1
103,5,left,139,0.1630644442897305,8.77,230,in,i,0.7783477306365967,out,0
103,5,left,140,0.0444444444444444,14.57,305,out,i,0.6730091571807861,out,1
103,5,left,141,0.1955386359830796,7.1,212,in,u,0.6684999465942383,in,1
103,5,left,142,0.0444444444444444,3.28,176,out,u,0.8244931697845459,in,0
103,5,left,143,0.1710140105883966,8.61,228,in,u,0.5890669822692871,in,1
103,5,left,144,0.0387723741431307,11.12,258,in,u,0.7395474910736084,in,1
103,5,left,145,0.0444444444444444,1.82,164,out,i,0.757866382598877,out,1
103,5,left,146,0.0444444444444444,17.74,356,out,i,0.7418103218078613,out,1
103,5,left,147,0.0444444444444444,5.58,197,out,u,1.1431622505187988,in,0
103,5,left,148,0.0444444444444444,5.72,198,out,i,1.7835640907287598,out,1
103,5,left,149,0.1940557495143982,7.03,211,in,u,0.894416332244873,in,1
103,5,left,150,0.1577711375482717,6.13,202,in,i,1.1048710346221924,out,0
103,5,left,151,0.0444444444444444,9.71,241,out,u,1.148329496383667,in,0
103,5,left,152,0.0444444444444444,3.0700000000000003,174,out,i,1.2032394409179688,out,1
103,5,left,153,0.1276440443376951,5.61,197,in,u,1.3148777484893799,in,1
103,5,left,154,0.1947190959507421,7.0600000000000005,212,in,u,0.8351421356201172,in,1
103,5,left,155,0.0431424739536809,11,257,in,i,1.1684482097625732,out,0
103,5,left,156,0.1738069996892409,8.55,228,in,u,1.4715189933776855,in,1
103,5,left,157,0.0444444444444444,8.91,232,out,i,1.483471393585205,out,1
103,5,left,158,0.1431145682999597,9.13,234,in,i,0.8784632682800293,out,0
103,5,left,159,0.0444444444444444,7.79,219,out,u,1.3937277793884277,in,0
103,5,left,160,0.0444444444444444,11.49,263,out,i,0.6558573246002197,out,1
103,5,left,161,0.079119390706927,10.22,247,in,i,0.6925561428070068,out,0
103,5,left,162,0.0444444444444444,16.16,330,out,i,0.6793150901794434,out,1
103,5,left,163,0.0444444444444444,3.13,175,out,u,1.305781364440918,in,0
103,5,left,164,0.1926057755919956,6.97,211,in,u,0.7557492256164551,in,1
103,5,left,165,0.0614144706922352,4.43,186,in,u,0.788219690322876,in,1
103,5,left,166,0.0444444444444444,6.96,211,out,u,0.6437115669250488,in,0
103,5,left,167,0.0398349826151916,11.09,258,in,i,0.8557870388031006,out,0
103,5,left,168,0.0444444444444444,0.16,151,out,i,0.6284546852111816,out,1
103,5,left,169,0.0444444444444444,1.89,164,out,u,0.5381548404693604,in,0
103,5,left,170,0.0444444444444444,18.45,369,out,i,0.650261640548706,out,1
103,5,left,171,0.0444444444444444,0.54,154,out,i,1.1895458698272705,out,1
103,5,left,172,0.1975433366628491,7.78,219,in,u,0.6149303913116455,in,1
103,5,left,173,0.0444444444444444,12.67,278,out,i,1.0672180652618408,out,1
103,5,left,174,0.0444444444444444,4.81,190,out,u,0.7025244235992432,in,0
103,5,left,175,0.199466337231708,7.53,217,in,u,0.5610754489898682,in,1
103,5,left,176,0.1961040697466109,7.87,220,in,u,0.7931604385375977,in,1
103,5,left,177,0.1935905741492859,7.99,222,in,u,4.344383239746094,in,1
103,5,left,178,0.1077386068402413,9.72,241,in,u,0.899402379989624,in,1
103,5,left,179,0.0444444444444444,21.15,421,out,i,0.6594064235687256,out,1
103,5,left,180,0.1967916365307053,7.83,220,in,i,1.0001869201660156,out,0
103,5,left,181,0.0444444444444444,18.54,371,out,i,0.5896866321563721,out,1
103,5,left,182,0.0444444444444444,17.94,360,out,i,0.925159215927124,out,1
103,5,left,183,0.18629063098582271,6.76,209,in,u,2.7912144660949707,in,1
103,5,left,184,0.0444444444444444,14.34,302,out,i,1.1829419136047363,out,1
103,5,left,185,0.183781120388606,6.69,208,in,u,1.893174409866333,in,1
103,5,left,186,0.0444444444444444,10.99,256,out,u,1.2329285144805908,in,0
103,5,left,187,0.0444444444444444,22.26,444,out,i,0.6524481773376465,out,1
103,5,left,188,0.0444444444444444,11.17,259,out,i,1.7931687831878662,out,1
103,5,left,189,0.1826474855058999,6.66,208,in,u,1.0656020641326904,in,1
103,5,left,190,0.1901299881530563,6.88,210,in,u,0.5334148406982422,in,1
103,5,left,191,0.0444444444444444,13.12,285,out,i,0.8215363025665283,out,1
103,5,left,192,0.1419458272271371,5.85,200,in,u,0.5793800354003906,in,1
103,5,left,193,0.1940557495143982,7.97,221,in,u,1.0018494129180908,in,1
103,5,left,194,0.0444444444444444,3.02,174,out,i,1.3610825538635254,out,1
103,5,left,195,0.0444444444444444,14.09,298,out,i,1.1359171867370605,out,1
103,5,left,196,0.0444444444444444,21.94,438,out,i,0.6996862888336182,out,1
103,5,left,197,0.0444444444444444,17.14,346,out,i,0.7011942863464355,out,1
103,5,left,198,0.105352090813871,5.24,194,in,u,0.8496875762939453,in,1
103,5,left,199,0.0199902666263887,3.21,175,in,i,1.35636568069458,out,0
103,5,left,200,0.0444444444444444,3.48,178,out,u,1.5883688926696777,in,0
104,1,left,2,0.1318556793781222,5.68,198,in,i,7.625744342803955,out,0
104,1,left,3,0.0856918726666513,10.1,246,in,u,4.447542667388916,in,1
104,1,left,5,0.0444444444444444,1.6,162,out,i,2.3556559085845947,out,1
104,1,left,6,0.0444444444444444,18.43,369,out,i,1.0259249210357666,out,1
104,1,left,7,0.0444444444444444,19.71,392,out,i,1.200244426727295,out,1
104,1,left,8,0.1620241642930854,6.21,203,in,u,1.021216869354248,in,1
104,1,left,9,0.1901299881530563,6.88,210,in,u,0.8254959583282471,in,1
104,1,left,10,0.1961040697466109,7.87,220,in,u,1.0477924346923828,in,1
104,1,left,11,0.1240203278460704,9.45,238,in,i,4.194823265075684,out,0
104,1,left,12,0.0444444444444444,10.18,246,out,u,1.5936172008514404,in,0
104,1,left,13,0.0444444444444444,16.99,344,out,i,1.219804048538208,out,1
104,1,left,14,0.1425307814292597,5.86,200,in,i,1.9674339294433594,out,0
104,1,left,15,0.1077386068402413,9.72,241,in,u,0.7818999290466309,in,1
104,1,left,16,0.0444444444444444,10.14,246,out,u,1.0523529052734375,in,0
104,1,left,17,0.0444444444444444,10.99,256,out,u,2.0873472690582275,in,0
104,1,left,18,0.0444444444444444,0.54,154,out,i,1.1312344074249268,out,1
104,1,left,19,0.0444444444444444,13.32,287,out,i,7.774384021759033,out,1
104,1,left,20,0.1348476316267912,9.27,236,in,u,4.485405921936035,in,1
104,1,left,21,0.1630644442897305,8.77,230,in,u,2.0874810218811035,in,1
104,1,left,22,0.0444444444444444,22.44,448,out,i,1.6964879035949707,out,1
104,1,left,23,0.0444444444444444,17.77,357,out,i,1.5786914825439453,out,1
104,1,left,24,0.0357033844356709,3.79,180,in,i,1.1853322982788086,out,0
104,1,left,25,0.0444444444444444,20.61,410,out,i,1.07016921043396,out,1
104,1,left,26,0.0444444444444444,17.61,354,out,i,1.0649151802062988,out,1
104,1,left,27,0.0444444444444444,7.3,214,out,u,2.80206561088562,in,0
104,1,left,28,0.1786284564560855,6.56,207,in,u,6.8150715827941895,in,1
104,1,left,29,0.1928587366418353,6.98,211,in,u,1.8012447357177734,in,1
104,1,left,30,0.1889170417974022,8.16,223,in,u,1.0133650302886963,in,1
104,1,left,31,0.0801987546271229,4.8,190,in,u,1.0931203365325928,in,1
104,1,left,32,0.0444444444444444,13.12,285,out,i,1.1124277114868164,out,1
104,1,left,33,0.1992395732695614,7.4,215,in,u,2.6102166175842285,in,1
104,1,left,34,0.0444444444444444,8.91,232,out,u,2.1410791873931885,in,0
104,1,left,35,0.1826474855058999,6.66,208,in,u,2.4713048934936523,in,1
104,1,left,36,0.0444444444444444,21.83,435,out,i,0.8948752880096436,out,1
104,1,left,37,0.0444444444444444,12.64,278,out,i,3.4189488887786865,out,1
104,1,left,38,0.0444444444444444,18.45,369,out,i,0.8782498836517334,out,1
104,1,left,39,0.0444444444444444,4.44,186,out,i,1.8198120594024658,out,1
104,1,left,40,0.1940557495143982,7.03,211,in,u,0.6467678546905518,in,1
104,1,left,41,0.0444444444444444,7.45,216,out,u,0.7221741676330566,in,0
104,1,left,42,0.1953407533091555,7.91,221,in,u,3.410374641418457,in,1
104,1,left,43,0.0444444444444444,11.66,265,out,i,0.9919140338897705,out,1
104,1,left,44,0.0444444444444444,14.34,302,out,i,0.7324576377868652,out,1
104,1,left,45,0.0444444444444444,3.02,174,out,i,3.0677061080932617,out,1
104,1,left,46,0.0199902666263887,3.21,175,in,i,0.5937175750732422,out,0
104,1,left,47,0.1994488846907601,7.54,217,in,u,6.550404787063599,in,1
104,1,left,48,0.0444444444444444,21.15,421,out,i,0.9083127975463867,out,1
104,1,left,49,0.0444444444444444,17.94,360,out,i,1.1112949848175049,out,1
104,1,left,50,0.0444444444444444,4.81,190,out,u,3.230311155319214,in,0
104,1,left,51,0.1967916365307053,7.83,220,in,u,1.978675365447998,in,1
104,1,left,52,0.0444444444444444,17.48,352,out,i,0.7047131061553955,out,1
104,1,left,53,0.1442785038784717,9.11,234,in,u,2.3206889629364014,in,1
104,1,left,54,0.1419458272271371,5.85,200,in,u,1.656886339187622,in,1
104,1,left,55,0.0444444444444444,20.02,398,out,i,0.8253374099731445,out,1
104,1,left,56,0.183781120388606,6.69,208,in,u,1.2333266735076904,in,1
104,1,left,57,0.0444444444444444,0.01,150,out,i,1.3872666358947754,out,1
104,1,left,58,0.0444444444444444,18.63,372,out,i,0.8915929794311523,out,1
104,1,left,59,0.1967916365307053,7.83,220,in,u,1.3062241077423096,in,1
104,1,left,60,0.1751614265926797,8.52,227,in,i,1.6602346897125244,out,0
104,1,left,61,0.1246248452320208,5.56,197,in,u,3.0702176094055176,in,1
104,1,left,62,0.0092124698650067,12.46,275,in,i,3.039400577545166,out,0
104,1,left,63,0.0947799592325099,5.0600000000000005,192,in,u,6.12192964553833,in,1
104,1,left,64,0.0033880193442544,1.79,164,in,u,1.4879651069641113,in,1
104,1,left,65,0.0444444444444444,1.82,164,out,u,0.8041646480560303,in,0
104,1,left,66,0.1378213093627494,5.78,199,in,u,1.5856750011444092,in,1
104,1,left,67,0.1859439875974732,8.25,224,in,u,2.3722352981567383,in,1
104,1,left,68,0.0444444444444444,9.32,236,out,u,0.8698139190673828,in,0
104,1,left,70,0.0444444444444444,15.75,323,out,i,0.6048672199249268,out,1
104,1,left,71,0.0930507912376185,9.97,244,in,i,2.201498031616211,out,0
104,1,left,72,0.0444444444444444,18.54,371,out,i,0.8799657821655273,out,1
104,1,left,73,0.1185764602183948,9.54,239,in,u,5.5039825439453125,in,1
104,1,left,74,0.141359739671713,9.16,235,in,i,1.0855708122253418,out,0
104,1,left,76,0.0444444444444444,5.72,198,out,u,1.2169978618621826,in,0
104,1,left,77,0.0444444444444444,14.38,303,out,i,0.8056943416595459,out,1
104,1,left,78,0.1620241642930854,6.21,203,in,u,3.26639461517334,in,1
104,1,left,79,0.0444444444444444,0.05,150,out,i,1.3341546058654785,out,1
104,1,left,80,0.0444444444444444,0.15,151,out,u,9.501558303833008,in,0
104,1,left,81,0.1892266468733199,8.15,223,in,i,3.5152974128723145,out,0
104,1,left,82,0.019355139402609,11.82,267,in,i,5.465897560119629,out,0
104,1,left,83,0.0444444444444444,5.09,192,out,u,4.198753118515015,in,0
104,1,left,84,0.0444444444444444,5.18,193,out,u,3.2814836502075195,in,0
104,1,left,85,0.0444444444444444,19.72,393,out,i,3.1631126403808594,out,1
104,1,left,86,0.1935905741492859,7.99,222,in,u,3.8027188777923584,in,1
104,1,left,87,0.1972571063917844,7.2,213,in,i,2.773200273513794,out,0
104,1,left,88,0.1306547027588974,9.34,237,in,u,1.7495522499084473,in,1
104,1,left,89,0.0444444444444444,5.58,197,out,u,2.330535411834717,in,0
104,1,left,90,0.0444444444444444,20.1,400,out,i,0.9226422309875488,out,1
104,1,left,91,0.1982855148897704,7.72,219,in,u,1.9776310920715332,in,1
104,1,left,92,0.1981740106511521,7.27,214,in,u,1.7815096378326416,in,1
104,1,left,93,0.0444444444444444,6.18,203,out,u,0.7162666320800781,in,0
104,1,left,95,0.1990678032240969,7.63,218,in,u,1.3041408061981201,in,1
104,1,left,96,0.0444444444444444,7.79,219,out,u,3.172071695327759,in,0
104,1,left,98,0.1270407608337813,9.4,237,in,u,1.3000445365905762,in,1
104,1,left,99,0.0435210829592398,4.01,182,in,i,1.2639060020446777,out,0
104,1,left,100,0.1975433366628491,7.78,219,in,u,2.4957802295684814,in,1
104,1,left,101,0.1488807256544705,5.97,201,in,u,0.8913154602050781,in,1
104,1,left,102,0.1955386359830796,7.1,212,in,i,3.3714182376861572,out,0
104,1,left,103,0.099440351939599,5.14,193,in,u,1.9454593658447266,in,1
104,1,left,104,0.1738069996892409,8.55,228,in,u,0.9782974720001221,in,1
104,1,left,105,0.1940557495143982,7.97,221,in,u,0.48127269744873047,in,1
104,1,left,106,0.0444444444444444,21.94,438,out,i,0.6330955028533936,out,1
104,1,left,107,0.0444444444444444,3.67,179,out,u,2.478917121887207,in,0
104,1,left,108,0.0959385599838225,9.92,243,in,u,1.5636405944824219,in,1
104,1,left,109,0.0444444444444444,3.51,178,out,u,2.064410924911499,in,0
104,1,left,110,0.0444444444444444,18.73,374,out,i,1.1828382015228271,out,1
104,1,left,111,0.1686048794969123,6.34,204,in,u,3.246846914291382,in,1
104,1,left,112,0.0444444444444444,14.57,305,out,u,1.5780024528503418,in,0
104,1,left,113,0.0444444444444444,16.41,334,out,i,1.680889368057251,out,1
104,1,left,114,0.0444444444444444,17.74,356,out,i,6.129683494567871,out,1
104,1,left,115,0.0036893322750674,13.15,285,in,u,5.242032766342163,in,1
104,1,left,116,0.1577711375482717,6.13,202,in,u,1.9744205474853516,in,1
104,1,left,117,0.0444444444444444,15.36,317,out,i,1.401672601699829,out,1
104,1,left,118,0.0444444444444444,11.62,264,out,u,1.640535593032837,in,0
104,1,left,119,0.0444444444444444,5.63,197,out,u,1.458336591720581,in,0
104,1,left,120,0.1942814704981104,7.04,211,in,u,6.285830974578857,in,1
104,1,left,122,0.1651155425002292,8.73,230,in,u,2.9849767684936523,in,1
104,1,left,123,0.1987694253586057,7.33,214,in,u,1.0382182598114014,in,1
104,1,left,124,0.0444444444444444,7.65,218,out,u,1.9770681858062744,in,0
104,1,left,125,0.0444444444444444,10.46,250,out,u,5.967947483062744,in,0
104,1,left,126,0.1710140105883966,8.61,228,in,u,2.37929105758667,in,1
104,1,left,127,0.18629063098582271,6.76,209,in,u,2.6642448902130127,in,1
104,1,left,128,0.0444444444444444,0.16,151,out,i,1.420854091644287,out,1
104,1,left,129,0.0444444444444444,16.02,328,out,i,0.9457621574401855,out,1
104,1,left,130,0.0444444444444444,3.13,175,out,u,2.243407964706421,in,0
104,1,left,131,0.1550438509731031,6.08,202,in,u,1.101038932800293,in,1
104,1,left,132,0.0444444444444444,8.6,228,out,u,1.0674171447753906,in,0
104,1,left,133,0.0444444444444444,7.84,220,out,u,9.140939235687256,in,0
104,1,left,134,0.110135121189941,5.32,194,in,u,2.462205648422241,in,1
104,1,left,135,0.0444444444444444,9.5,238,out,i,1.8307867050170898,out,1
104,1,left,136,0.0309789513888337,11.36,261,in,i,7.008285045623779,out,0
104,1,left,137,0.1918201062897904,8.06,222,in,u,3.219519853591919,in,1
104,1,left,138,0.1471655268705283,5.94,200,in,u,1.7997734546661377,in,1
104,1,left,139,0.0444444444444444,3.92,182,out,u,2.620985746383667,in,0
104,1,left,140,0.0444444444444444,5.42,195,out,i,1.0640249252319336,out,1
104,1,left,141,0.0444444444444444,2.09,166,out,u,1.7410213947296143,in,0
104,1,left,142,0.0444444444444444,5.72,198,out,u,1.3795974254608154,in,0
104,1,left,143,0.0444444444444444,22.26,444,out,i,0.7197237014770508,out,1
104,1,left,144,0.1786284564560855,8.44,226,in,u,7.16592264175415,in,1
104,1,left,145,0.0444444444444444,11.28,260,out,i,2.177633047103882,out,1
104,1,left,146,0.0840276142937409,10.13,246,in,u,1.5253150463104248,in,1
104,1,left,147,0.0444444444444444,22.39,447,out,i,1.0414507389068604,out,1
104,1,left,148,0.0614144706922352,4.43,186,in,u,1.0145847797393799,in,1
104,1,left,149,0.1209960604027563,9.5,238,in,i,1.4921202659606934,out,0
104,1,left,150,0.105352090813871,5.24,194,in,u,0.8480114936828613,in,1
104,1,left,151,0.0444444444444444,11.34,261,out,u,3.460158586502075,in,0
104,1,left,152,0.1957318257578651,7.11,212,in,u,9.636386394500732,in,1
104,1,left,153,0.1270407608337813,5.6,197,in,u,0.8522608280181885,in,1
104,1,left,154,0.1407725526860632,9.17,235,in,i,1.7027926445007324,out,0
104,1,left,155,0.199466337231708,7.53,217,in,u,3.042339324951172,in,1
104,1,left,156,0.1947190959507421,7.0600000000000005,212,in,i,2.2986395359039307,out,0
104,1,left,157,0.0444444444444444,6.96,211,out,u,1.3321828842163086,in,0
104,1,left,158,0.1191812551022674,5.47,196,in,u,1.9413390159606934,in,1
104,1,left,159,0.0444444444444444,8.55,228,out,u,4.3960652351379395,in,0
104,1,left,160,0.0444444444444444,13.64,292,out,i,0.8799228668212891,out,1
104,1,left,161,0.0444444444444444,9.71,241,out,u,3.379049062728882,in,0
104,1,left,163,0.0444444444444444,14.09,298,out,i,1.7773723602294922,out,1
104,1,left,164,0.0444444444444444,20.62,410,out,i,0.6312599182128906,out,1
104,1,left,165,0.0444444444444444,18.13,363,out,i,0.7241272926330566,out,1
104,1,left,166,0.1909946632223051,8.09,223,in,u,1.451033592224121,in,1
104,1,left,167,0.1197861400293165,5.48,196,in,u,2.8875460624694824,in,1
104,1,left,168,0.1876367637917333,8.2,224,in,i,2.2439310550689697,out,0
104,1,left,169,0.1431145682999597,9.13,234,in,u,1.4947969913482666,in,1
104,1,left,170,0.0431424739536809,11,257,in,u,1.343986988067627,in,1
104,1,left,171,0.1276440443376951,5.61,197,in,i,1.6628358364105225,out,0
104,1,left,172,0.0444444444444444,17.14,346,out,u,8.123082399368286,in,0
104,1,left,173,0.0398349826151916,11.09,258,in,i,4.375851631164551,out,0
104,1,left,174,0.0444444444444444,1.89,164,out,i,3.329620361328125,out,1
104,1,left,175,0.0444444444444444,3.48,178,out,u,1.5729036331176758,in,0
104,1,left,177,0.0444444444444444,2.25,167,out,i,1.5642163753509521,out,1
104,1,left,178,0.0444444444444444,8.55,228,out,u,2.3479068279266357,in,0
104,1,left,179,0.0444444444444444,15.43,318,out,i,7.017131328582764,out,1
104,1,left,180,0.130053445657598,9.35,237,in,u,2.3138365745544434,in,1
104,1,left,181,0.1959203083328453,7.88,220,in,u,1.229128360748291,in,1
104,1,left,182,0.0444444444444444,11.49,263,out,i,2.259066104888916,out,1
104,1,left,183,0.0444444444444444,3.0700000000000003,174,out,i,0.8687906265258789,out,1
104,1,left,184,0.0148286035285384,2.94,173,in,u,2.6707077026367188,in,1
104,1,left,185,0.0444444444444444,2.68,171,out,u,1.5353500843048096,in,0
104,1,left,186,0.1454373611580521,5.91,200,in,u,7.086130857467651,in,1
104,1,left,187,0.0444444444444444,20.54,409,out,i,0.7848899364471436,out,1
104,1,left,188,0.0444444444444444,6.5,206,out,u,4.976897716522217,in,0
104,1,left,189,0.0444444444444444,14.38,303,out,i,1.0691840648651123,out,1
104,1,left,190,0.0444444444444444,12.67,278,out,i,3.4490468502044678,out,1
104,1,left,191,0.0444444444444444,15.72,323,out,i,0.6954267024993896,out,1
104,1,left,192,0.1798719999266348,6.59,207,in,u,1.0443849563598633,in,1
104,1,left,193,0.0387723741431307,11.12,258,in,u,1.8780019283294678,in,1
104,1,left,194,0.0444444444444444,22.17,442,out,i,0.7653975486755371,out,1
104,1,left,195,0.0753953412833294,4.71,189,in,u,3.4510996341705322,in,1
104,1,left,196,0.0444444444444444,10.73,253,out,i,2.308236837387085,out,1
104,1,left,197,0.0444444444444444,9.63,240,out,u,1.3732407093048096,in,0
104,1,left,198,0.0444444444444444,16.16,330,out,i,4.578615665435791,out,1
104,1,left,199,0.0444444444444444,12.3,273,out,i,2.726308822631836,out,1
104,1,left,200,0.1926057755919956,6.97,211,in,u,6.927121877670288,in,1
105,2,right,1,0.0444444444444444,18.54,371,out,i,4.548152923583984,out,1
105,2,right,2,0.0444444444444444,17.77,357,out,i,6.044643878936768,out,1
105,2,right,3,0.1961040697466109,15.37,318,in,i,4.566102504730225,out,0
105,2,right,4,0.0444444444444444,20.1,400,out,i,1.171987771987915,out,1
105,2,right,5,0.1419458272271371,13.35,288,in,u,2.346623182296753,in,1
105,2,right,6,0.1270407608337813,13.1,284,in,u,1.0585579872131348,in,1
105,2,right,7,0.1577711375482718,13.63,292,in,u,1.3248794078826904,in,1
105,2,right,8,0.0444444444444444,16.16,330,out,i,1.0318050384521484,out,1
105,2,right,9,0.0444444444444444,15.75,323,out,i,1.546466588973999,out,1
105,2,right,10,0.0444444444444444,4.44,186,out,i,2.0263915061950684,out,1
105,2,right,11,0.0444444444444444,10.99,256,out,u,1.4374172687530518,in,0
105,2,right,12,0.1240203278460704,16.95,343,in,i,1.4236299991607666,out,0
105,2,right,13,0.1378213093627494,13.28,287,in,u,1.166079044342041,in,1
105,2,right,14,0.0444444444444444,5.72,198,out,i,1.0519046783447266,out,1
105,2,right,15,0.0672182969433732,17.95,360,in,i,0.9823620319366455,out,0
105,2,right,16,0.1967916365307053,15.33,317,in,u,1.1799895763397217,in,1
105,2,right,17,0.0444444444444444,17.94,360,out,u,1.0158765316009521,in,0
105,2,right,18,0.1940557495143981,14.53,305,in,u,0.98075270652771,in,1
105,2,right,19,0.141359739671713,16.66,338,in,u,0.9258413314819336,in,1
105,2,right,20,0.0444444444444444,7.65,218,out,i,0.7655477523803711,out,1
105,2,right,21,0.1926057755919956,14.47,304,in,u,0.8603973388671875,in,1
105,2,right,22,0.0444444444444444,1.89,164,out,i,0.6254572868347168,out,1
105,2,right,23,0.0444444444444444,9.63,240,out,i,0.9230072498321533,out,1
105,2,right,24,0.0444444444444444,11.34,261,out,i,0.958794355392456,out,1
105,2,right,25,0.1318556793781222,13.18,285,in,u,1.2436017990112305,in,1
105,2,right,26,0.0444444444444444,0.01,150,out,i,0.5844647884368896,out,1
105,2,right,27,0.0444444444444444,2.09,166,out,i,0.9019742012023926,out,1
105,2,right,28,0.0444444444444444,11.28,260,out,i,1.7356975078582764,out,1
105,2,right,29,0.0444444444444444,13.12,285,out,u,1.0421724319458008,in,0
105,2,right,30,0.1651155425002292,16.23,331,in,u,2.1157066822052,in,1
105,2,right,31,0.1454373611580521,13.41,289,in,i,2.333528995513916,out,0
105,2,right,32,0.0444444444444444,2.68,171,out,i,1.196460247039795,out,1
105,2,right,33,0.0444444444444444,22.26,444,out,i,0.8821578025817871,out,1
105,2,right,34,0.0444444444444444,2.25,167,out,i,0.7769804000854492,out,1
105,2,right,35,0.0444444444444444,11.17,259,out,i,1.371037244796753,out,1
105,2,right,36,0.0444444444444444,15.36,317,out,u,1.7700238227844238,in,0
105,2,right,37,0.1431145682999598,16.63,338,in,i,1.0951519012451172,out,0
105,2,right,38,0.1901299881530563,14.38,303,in,u,2.178424835205078,in,1
105,2,right,39,0.0444444444444444,3.0700000000000003,174,out,i,0.8379497528076172,out,1
105,2,right,40,0.0444444444444444,3.13,175,out,i,0.78009796142578125,out,1
105,2,right,41,0.0444444444444444,3.92,182,out,i,0.5072224140167236,out,1
105,2,right,42,0.0431424739536809,18.5,370,in,i,1.8374757766723633,out,0
105,2,right,43,0.0444444444444444,20.62,410,out,i,0.9504609107971191,out,1
105,2,right,44,0.0444444444444444,6.18,203,out,i,1.1824259757995605,out,1
105,2,right,45,0.0036893322750674,20.65,411,in,i,0.9922506809234619,out,0
105,2,right,46,0.1077386068402415,17.22,348,in,u,1.36580228805542,in,1
105,2,right,47,0.1209960604027563,17,344,in,u,0.657644510269165,in,1
105,2,right,48,0.1488807256544706,13.47,289,in,i,1.4437570571899414,out,0
105,2,right,49,0.1786284564560855,14.06,298,in,u,1.1733620166778564,in,1
105,2,right,50,0.0444444444444444,14.09,298,out,u,0.6091785430908203,in,0
105,2,right,51,0.0444444444444444,10.46,250,out,i,1.197166919708252,out,1
105,2,right,52,0.0387723741431307,18.62,372,in,u,2.450786590576172,in,1
105,2,right,53,0.0444444444444444,8.55,228,out,i,4.01692008972168,out,1
105,2,right,54,0.0791193907069271,17.72,356,in,u,1.2586820125579834,in,1
105,2,right,55,0.0444444444444444,12.3,273,out,u,2.056166172027588,in,0
105,2,right,56,0.195731825757865,14.61,306,in,u,0.6612350940704346,in,1
105,2,right,57,0.1992395732695614,14.9,310,in,u,0.5471649169921875,in,1
105,2,right,58,0.1940557495143981,15.47,319,in,u,0.6025345325469971,in,1
105,2,right,59,0.1918201062897904,15.56,320,in,u,0.46618199348449707,in,1
105,2,right,60,0.0444444444444444,13.64,292,out,i,0.8204596042633057,out,1
105,2,right,61,0.199466337231708,15.03,312,in,u,0.39539289474487305,in,1
105,2,right,62,0.0444444444444444,10.73,253,out,i,0.6952023506164551,out,1
105,2,right,63,0.0444444444444444,5.63,197,out,i,0.5621631145477295,out,1
105,2,right,64,0.0444444444444444,11.49,263,out,i,1.1925461292266846,out,1
105,2,right,65,0.1947190959507421,14.56,305,in,u,0.48038196563720703,in,1
105,2,right,66,0.0444444444444444,18.43,369,out,i,1.5419762134552002,out,1
105,2,right,67,0.0444444444444444,8.55,228,out,i,1.040945053100586,out,1
105,2,right,68,0.0444444444444444,15.43,318,out,u,0.5969915390014648,in,0
105,2,right,69,0.0357033844356709,11.29,260,in,i,1.394052267074585,out,0
105,2,right,70,0.105352090813871,12.74,279,in,u,0.7408154010772705,in,1
105,2,right,71,0.0444444444444444,14.34,302,out,u,0.4385349750518799,in,0
105,2,right,72,0.1837811203886059,14.19,300,in,i,0.8994722366333008,out,0
105,2,right,73,0.0444444444444444,17.14,346,out,i,1.5145165920257568,out,1
105,2,right,74,0.0444444444444444,16.99,344,out,i,1.1128249168395996,out,1
105,2,right,75,0.0444444444444444,9.32,236,out,i,1.045212984085083,out,1
105,2,right,76,0.0444444444444444,3.67,179,out,i,0.689608097076416,out,1
105,2,right,77,0.099440351939599,12.64,278,in,i,0.9254233837127686,out,0
105,2,right,78,0.0444444444444444,3.48,178,out,i,1.3324165344238281,out,1
105,2,right,79,0.0444444444444444,18.73,374,out,u,1.9010703563690186,in,0
105,2,right,80,0.0444444444444444,5.18,193,out,i,1.095749855041504,out,1
105,2,right,81,0.1882852285853879,14.32,302,in,u,1.0945813655853271,in,1
105,2,right,82,0.1972571063917844,14.7,307,in,u,0.5851743221282959,in,1
105,2,right,83,0.1270407608337813,16.9,342,in,i,2.0792999267578125,out,0
105,2,right,84,0.1191812551022675,12.97,282,in,u,0.8721368312835693,in,1
105,2,right,85,0.1686048794969123,13.84,295,in,u,0.4600389003753662,in,1
105,2,right,86,0.0444444444444444,0.15,151,out,i,0.621800422668457,out,1
105,2,right,87,0.0829257381666969,12.35,274,in,u,0.4347691535949707,in,1
105,2,right,88,0.0444444444444444,7.79,219,out,i,0.60637664794921875,out,1
105,2,right,89,0.0377296209072985,11.35,261,in,u,2.068485975265503,in,1
105,2,right,90,0.1197861400293165,12.98,283,in,u,0.5364134311676025,in,1
105,2,right,91,0.1252291784733381,16.93,343,in,i,1.9843149185180664,out,0
105,2,right,92,0.0444444444444444,14.38,303,out,u,0.7506892681121826,in,0
105,2,right,93,0.0444444444444444,10.18,246,out,i,0.6811630725860596,out,1
105,2,right,94,0.0444444444444444,21.15,421,out,i,0.8606047630310059,out,1
105,2,right,95,0.1276440443376951,13.11,284,in,i,1.6320650577545166,out,0
105,2,right,96,0.1942814704981104,14.54,305,in,u,5.03543758392334,in,1
105,2,right,97,0.0444444444444444,5.72,198,out,i,0.6975491046905518,out,1
105,2,right,98,0.0444444444444444,11.66,265,out,u,1.752532958984375,in,0
105,2,right,99,0.1959203083328452,15.38,318,in,u,0.579380989074707,in,1
105,2,right,100,0.0444444444444444,7.3,214,out,i,1.0858385562896729,out,1
105,2,right,101,0.0614144706922352,11.93,268,in,u,2.0880532264709473,in,1
105,2,right,102,0.0398349826151916,18.59,372,in,i,0.6277518272399902,out,0
105,2,right,103,0.0856918726666512,17.6,354,in,u,1.6475491523742676,in,1
105,2,right,104,0.0444444444444444,19.71,392,out,u,0.6166677474975586,in,0
105,2,right,105,0.1710140105883966,16.11,329,in,u,5.828999757766724,in,1
105,2,right,106,0.0444444444444444,16.41,334,out,u,0.8419408798217773,in,0
105,2,right,107,0.1994488846907601,15.04,312,in,u,0.8689932823181152,in,1
105,2,right,108,0.0444444444444444,16.02,328,out,i,1.1649715900421143,out,1
105,2,right,109,0.1826474855058999,14.16,299,in,u,0.77284836769104,in,1
105,2,right,110,0.1751614265926797,16.02,328,in,i,0.4529571533203125,out,0
105,2,right,111,0.1928587366418353,14.48,304,in,u,0.6132073402404785,in,1
105,2,right,112,0.0444444444444444,1.6,162,out,i,0.5552978515625,out,1
105,2,right,113,0.1442785038784717,16.61,337,in,i,1.6591455936431885,out,0
105,2,right,114,0.0444444444444444,6.96,211,out,i,1.5103023052215576,out,1
105,2,right,115,0.1859439875974732,15.75,323,in,u,1.9908506870269775,in,1
105,2,right,116,0.1967916365307053,15.33,317,in,u,0.5094044208526611,in,1
105,2,right,117,0.1990678032240969,15.13,314,in,u,0.44447875022888184,in,1
105,2,right,118,0.0444444444444444,15.72,323,out,u,0.8926799297332764,in,0
105,2,right,119,0.0444444444444444,20.61,410,out,i,0.9993791580200195,out,1
105,2,right,120,0.0444444444444444,7.45,216,out,i,0.6104214191436768,out,1
105,2,right,121,0.1889170417974022,15.66,322,in,u,0.86815643310546875,in,1
105,2,right,122,0.1300534456575979,16.85,341,in,i,1.2972767353057861,out,0
105,2,right,123,0.1892266468733199,15.65,322,in,u,1.5553417205810547,in,1
105,2,right,124,0.0444444444444444,20.54,409,out,i,0.5620954036712646,out,1
105,2,right,125,0.0444444444444444,3.51,178,out,i,0.5859439373016357,out,1
105,2,right,126,0.0444444444444444,5.58,197,out,i,0.6900434494018555,out,1
105,2,right,127,0.1620241642930854,13.71,293,in,u,1.6348130702972412,in,1
105,2,right,128,0.110135121189941,12.82,280,in,u,1.14170241355896,in,1
105,2,right,129,0.0444444444444444,18.45,369,out,i,1.473907232284546,out,1
105,2,right,130,0.0444444444444444,8.91,232,out,i,1.135610818862915,out,1
105,2,right,131,0.1348476316267912,16.77,340,in,u,1.827453851699829,in,1
105,2,right,132,0.0444444444444444,22.39,447,out,i,0.6756265163421631,out,1
105,2,right,133,0.1876367637917333,15.7,323,in,u,2.3840436935424805,in,1
105,2,right,134,0.1550438509731031,13.58,291,in,i,1.1789212226867676,out,0
105,2,right,135,0.0444444444444444,22.44,448,out,i,1.4773485660552979,out,1
105,2,right,136,0.0444444444444444,10.14,246,out,i,0.772235631942749,out,1
105,2,right,137,0.1306547027588974,16.84,341,in,u,1.0772757530212402,in,1
105,2,right,138,0.0444444444444444,4.81,190,out,i,0.49457740783691406,out,1
105,2,right,139,0.0444444444444444,14.57,305,out,u,2.622554063796997,in,0
105,2,right,140,0.1738069996892409,16.05,328,in,u,1.3236925601959229,in,1
105,2,right,141,0.18629063098582271,14.26,301,in,i,1.2123231887817383,out,0
105,2,right,142,0.0444444444444444,17.61,354,out,u,2.3995165824890137,in,0
105,2,right,143,0.0444444444444444,3.02,174,out,i,1.0859942436218262,out,1
105,2,right,144,0.1471655268705282,13.44,289,in,u,1.3556547164916992,in,1
105,2,right,145,0.019355139402609,19.32,385,in,i,0.7040917873382568,out,0
105,2,right,147,0.0033880193442544,9.29,236,in,i,0.535330057144165,out,0
105,2,right,148,0.0444444444444444,21.83,435,out,i,6.458568811416626,out,1
105,2,right,149,0.0444444444444444,17.74,356,out,u,2.744658946990967,in,0
105,2,right,150,0.1953407533091555,15.41,318,in,u,1.119227647781372,in,1
105,2,right,151,0.0444444444444444,9.5,238,out,i,0.5907526016235352,out,1
105,2,right,152,0.0444444444444444,19.72,393,out,i,1.7651832103729248,out,1
105,2,right,153,0.1879630660618289,14.31,302,in,u,1.7157909870147705,in,1
105,2,right,154,0.1981740106511521,14.77,308,in,u,0.9974186420440674,in,1
105,2,right,155,0.1630644442897305,16.27,332,in,u,1.6773512363433838,in,1
105,2,right,156,0.1955386359830796,14.6,306,in,u,0.6140203475952148,in,1
105,2,right,157,0.0444444444444444,5.42,195,out,i,0.5970497131347656,out,1
105,2,right,158,0.1975433366628491,15.28,316,in,u,0.7777149677276611,in,1
105,2,right,159,0.0444444444444444,12.67,278,out,u,0.7136478424072266,in,0
105,2,right,160,0.0444444444444444,0.05,150,out,i,0.7184338569641113,out,1
105,2,right,161,0.0444444444444444,14.38,303,out,u,0.9983208179473877,in,0
105,2,right,162,0.0092124698650067,19.96,397,in,i,1.922553539276123,out,0
105,2,right,163,0.0148286035285384,10.44,250,in,i,1.7240331172943115,out,0
105,2,right,164,0.1909946632223051,15.59,321,in,u,0.6959598064422607,in,1
105,2,right,165,0.0444444444444444,17.48,352,out,u,0.566258430480957,in,0
105,2,right,166,0.0435210829592398,11.51,263,in,u,1.2745575904846191,in,1
105,2,right,167,0.0444444444444444,1.82,164,out,i,0.4852416515350342,out,1
105,2,right,168,0.0444444444444444,9.71,241,out,i,1.2819578647613525,out,1
105,2,right,169,0.0959385599838224,17.42,351,in,u,1.114588975906372,in,1
105,2,right,170,0.1786284564560855,15.94,326,in,u,0.7979714870452881,in,1
105,2,right,171,0.1620241642930854,13.71,293,in,u,0.4907870292663574,in,1
105,2,right,172,0.1425307814292596,13.36,288,in,u,0.5272331237792969,in,1
105,2,right,173,0.0199902666263887,10.71,253,in,i,0.9574182033538818,out,0
105,2,right,174,0.1246248452320209,13.06,284,in,u,1.3715589046478271,in,1
105,2,right,175,0.0444444444444444,0.16,151,out,i,0.4659104347229004,out,1
105,2,right,176,0.0444444444444444,21.94,438,out,i,0.7988848686218262,out,1
105,2,right,177,0.0309789513888337,18.86,376,in,u,1.3393206596374512,in,1
105,2,right,178,0.1185764602183948,17.04,344,in,u,0.5963139533996582,in,1
105,2,right,179,0.0444444444444444,11.62,264,out,i,1.2567710876464844,out,1
105,2,right,180,0.0444444444444444,8.6,228,out,i,0.42992377281188965,out,1
105,2,right,181,0.0444444444444444,3.28,176,out,i,0.3208472728729248,out,1
105,2,right,182,0.0930507912376186,17.47,352,in,u,0.8059544563293457,in,1
105,2,right,183,0.1987694253586057,14.83,309,in,u,1.0810580253601074,in,1
105,2,right,184,0.0444444444444444,7.84,220,out,i,1.1617636680603027,out,1
105,2,right,185,0.0753953412833294,12.21,272,in,u,1.208446979522705,in,1
105,2,right,186,0.1935905741492859,15.49,319,in,u,0.80814361572265625,in,1
105,2,right,187,0.084027614293741,17.63,355,in,u,0.5396809577941895,in,1
105,2,right,188,0.0444444444444444,12.64,278,out,u,1.0195167064666748,in,0
105,2,right,189,0.1798719999266348,14.09,298,in,u,0.8798270225524902,in,1
105,2,right,190,0.0444444444444444,0.54,154,out,i,0.48755836486816406,out,1
105,2,right,191,0.0444444444444444,5.09,192,out,i,0.4606616497039795,out,1
105,2,right,192,0.0947799592325099,12.56,277,in,u,0.8234560489654541,in,1
105,2,right,193,0.0444444444444444,22.17,442,out,i,1.1138172149658203,out,1
105,2,right,194,0.1982855148897704,15.22,315,in,u,0.58669281005859375,in,1
105,2,right,195,0.0444444444444444,18.13,363,out,u,1.1867308616638184,in,0
105,2,right,196,0.0444444444444444,13.32,287,out,u,1.854586124420166,in,0
105,2,right,197,0.0444444444444444,18.63,372,out,u,2.5858023166656494,in,0
105,2,right,198,0.0444444444444444,6.5,206,out,i,0.9425568580627441,out,1
105,2,right,199,0.0444444444444444,20.02,398,out,i,1.1349141597747803,out,1
105,2,right,200,0.080198754627123,12.3,273,in,i,1.5612547397613525,out,0
106,1,centered,1,0.0444444444444444,6.96,211,out,i,5.080146312713623,out,1
106,1,centered,2,0.0444444444444444,12.3,273,out,i,2.6488537788391113,out,1
106,1,centered,3,0.1859275503839888,12,269,in,u,3.107422351837158,in,1
106,1,centered,4,0.0444444444444444,6.5,206,out,i,1.1639435291290283,out,1
106,1,centered,5,0.1987518543926337,11.08,258,in,u,1.3479759693145752,in,1
106,1,centered,6,0.0444444444444444,9.32,236,out,i,2.0579962730407715,out,1
106,1,centered,7,0.0444444444444444,3.0700000000000003,174,out,i,0.9500217437744141,out,1
106,1,centered,8,0.0444444444444444,14.38,303,out,i,1.168813943862915,out,1
106,1,centered,9,0.1909777795354792,11.84,267,in,u,1.0463707447052002,in,1
106,1,centered,10,0.0398314612530768,14.84,309,in,i,2.1115386486053467,out,0
106,1,centered,11,0.1960867343947061,11.62,264,in,u,1.3366315364837646,in,1
106,1,centered,12,0.1185659782091833,13.29,287,in,u,2.0892398357391357,in,1
106,1,centered,13,0.1276327607655081,9.36,237,in,i,1.042646884918213,out,0
106,1,centered,14,0.1471525176239591,9.69,241,in,i,1.6718745231628418,out,0
106,1,centered,15,0.1959029892252172,11.63,265,in,u,0.9599921703338623,in,1
106,1,centered,16,0.1957145233118584,10.86,255,in,u,0.8799161911010742,in,1
106,1,centered,17,0.0444444444444444,20.62,410,out,i,0.9441602230072021,out,1
106,1,centered,18,0.1990502058818987,11.38,261,in,i,1.4503858089447021,out,0
106,1,centered,19,0.1053427778222002,8.99,233,in,i,2.283494710922241,out,0
106,1,centered,20,0.0444444444444444,10.14,246,out,u,0.7419381141662598,in,0
106,1,centered,21,0.0444444444444444,9.63,240,out,u,1.126652479171753,in,0
106,1,centered,22,0.0444444444444444,5.18,193,out,u,0.9577367305755615,in,0
106,1,centered,23,0.0033877198476266,5.54,197,in,i,0.8453357219696045,out,0
106,1,centered,24,0.0357002283016132,7.54,217,in,u,1.3913729190826416,in,1
106,1,centered,25,0.1620098415617483,9.96,244,in,u,1.0162439346313477,in,1
106,1,centered,26,0.0444444444444444,3.13,175,out,i,0.8539063930511475,out,1
106,1,centered,27,0.0444444444444444,7.84,220,out,u,2.1356041431427,in,0
106,1,centered,28,0.0444444444444444,7.45,216,out,u,1.8961431980133057,in,0
106,1,centered,29,0.0444444444444444,11.66,265,out,u,2.1822056770324707,in,0
106,1,centered,30,0.1942642962616755,10.79,254,in,u,0.8353667259216309,in,1
106,1,centered,31,0.1947018830287704,10.81,254,in,u,0.903123140335083,in,1
106,1,centered,32,0.0444444444444444,13.12,285,out,i,0.9120674133300781,out,1
106,1,centered,33,0.0444444444444444,10.99,256,out,u,1.4653980731964111,in,0
106,1,centered,34,0.0444444444444444,13.32,287,out,i,1.0707676410675049,out,1
106,1,centered,35,0.0444444444444444,19.72,393,out,i,1.2383520603179932,out,1
106,1,centered,36,0.0431386602135123,14.75,308,in,i,1.0407841205596924,out,0
106,1,centered,37,0.0791123966527895,13.97,297,in,i,1.1410808563232422,out,0
106,1,centered,38,0.0994315615381727,8.89,231,in,i,1.0217995643615723,out,0
106,1,centered,39,0.075388676430454,8.46,227,in,u,0.6731448173522949,in,1
106,1,centered,40,0.1191707196299526,9.22,235,in,u,0.8385777473449707,in,1
106,1,centered,41,0.1751459425439598,12.27,273,in,u,1.2249045372009277,in,1
106,1,centered,42,0.1826313396990339,10.41,249,in,u,1.085292100906372,in,1
106,1,centered,43,0.1994312536614418,11.29,260,in,u,1.1603257656097412,in,1
106,1,centered,44,0.1651009464949659,12.48,276,in,u,1.3598368167877197,in,1
106,1,centered,45,0.0444444444444444,1.6,162,out,i,0.8825516700744629,out,1
106,1,centered,46,0.1928416881732751,10.73,253,in,u,1.3616116046905518,in,1
106,1,centered,47,0.0444444444444444,17.94,360,out,i,0.7369208335876465,out,1
106,1,centered,48,0.1620098415617483,9.96,244,in,u,1.2340092658996582,in,1
106,1,centered,49,0.0444444444444444,3.51,178,out,i,0.7569904327392578,out,1
106,1,centered,50,0.0444444444444444,22.39,447,out,i,0.8337604999542236,out,1
106,1,centered,51,0.0947715808039085,8.81,231,in,u,1.0216519832611084,in,1
106,1,centered,52,0.0444444444444444,3.48,178,out,i,0.8016319274902344,out,1
106,1,centered,53,0.1413472436493942,12.91,282,in,u,0.9924163818359375,in,1
106,1,centered,54,0.0444444444444444,16.41,334,out,u,0.7500152587890625,in,0
106,1,centered,55,0.0444444444444444,4.81,190,out,i,0.9985003471374512,out,1
106,1,centered,56,0.0444444444444444,16.99,344,out,i,1.6908314228057861,out,1
106,1,centered,57,0.0444444444444444,6.18,203,out,i,1.437753438949585,out,1
106,1,centered,58,0.0444444444444444,20.54,409,out,i,0.8260576725006104,out,1
106,1,centered,59,0.1982679867008721,11.47,263,in,u,0.6927638053894043,in,1
106,1,centered,60,0.0444444444444444,18.63,372,out,i,0.6233792304992676,out,1
106,1,centered,61,0.0829184076362549,8.6,228,in,u,3.002225637435913,in,1
106,1,centered,62,0.1197755510859387,9.23,235,in,u,0.763437032699585,in,1
106,1,centered,63,0.0444444444444444,17.77,357,out,i,2.062159299850464,out,1
106,1,centered,64,0.1876201769389729,11.95,269,in,u,1.536151647567749,in,1
106,1,centered,65,0.0444444444444444,12.67,278,out,u,2.568148612976074,in,0
106,1,centered,66,0.0444444444444444,1.82,164,out,i,0.5651063919067383,out,1
106,1,centered,67,0.1955213506148049,10.85,255,in,u,0.9649975299835205,in,1
106,1,centered,68,0.0672123549308823,14.2,300,in,i,1.0677518844604492,out,0
106,1,centered,69,0.0444444444444444,7.79,219,out,i,0.9180819988250732,out,1
106,1,centered,70,0.0444444444444444,8.55,228,out,u,1.3830199241638184,in,0
106,1,centered,71,0.1101253853844304,9.07,233,in,u,1.092848777770996,in,1
106,1,centered,72,0.0444444444444444,21.83,435,out,i,1.3183801174163818,out,1
106,1,centered,73,0.1306431530483112,13.09,284,in,i,1.7275292873382568,out,0
106,1,centered,74,0.0444444444444444,19.71,392,out,i,1.0138707160949707,out,1
106,1,centered,75,0.194038595231413,10.78,254,in,u,1.1184217929840088,in,1
106,1,centered,76,0.1252181083722413,13.18,285,in,u,1.13224196434021,in,1
106,1,centered,77,0.1240093646058412,13.2,286,in,u,1.1155452728271484,in,1
106,1,centered,78,0.0444444444444444,0.05,150,out,i,0.9106721878051758,out,1
106,1,centered,79,0.030976212888686,15.11,314,in,u,0.855135440826416,in,1
106,1,centered,80,0.1630500295989565,12.52,276,in,u,0.9860303401947021,in,1
106,1,centered,81,0.0435172357505136,7.76,219,in,i,0.8178067207336426,out,0
106,1,centered,82,0.1425181818883295,9.61,240,in,u,0.7012827396392822,in,1
106,1,centered,83,0.0444444444444444,7.65,218,out,u,0.750260591506958,in,0
106,1,centered,84,0.0444444444444444,15.72,323,out,i,1.7002325057983398,out,1
106,1,centered,85,0.0199884995120851,6.96,211,in,u,0.8530459403991699,in,1
106,1,centered,86,0.1901131809024136,10.63,252,in,u,1.1851966381072998,in,1
106,1,centered,87,0.0444444444444444,21.15,421,out,i,0.8966376781463623,out,1
106,1,centered,88,0.0444444444444444,16.16,330,out,i,2.0483217239379883,out,1
106,1,centered,89,0.0444444444444444,13.64,292,out,i,0.6285104751586914,out,1
106,1,centered,90,0.1967742403987658,11.58,264,in,i,0.6632721424102783,out,0
106,1,centered,91,0.0036890061427574,16.9,342,in,i,0.820443868637085,out,0
106,1,centered,92,0.0444444444444444,20.1,400,out,i,1.5057411193847656,out,1
106,1,centered,93,0.0444444444444444,5.72,198,out,i,1.4188919067382812,out,1
106,1,centered,94,0.1378091261331975,9.53,239,in,u,2.3977160453796387,in,1
106,1,centered,95,0.0444444444444444,11.49,263,out,u,1.4275538921356201,in,0
106,1,centered,96,0.0444444444444444,10.18,246,out,u,1.0205388069152832,in,0
106,1,centered,97,0.0444444444444444,22.17,442,out,i,0.7436695098876953,out,1
106,1,centered,98,0.0444444444444444,14.09,298,out,i,0.7640938758850098,out,1
106,1,centered,99,0.0092116554943145,16.21,331,in,i,0.5919196605682373,out,0
106,1,centered,100,0.194038595231413,11.72,266,in,u,0.9013020992279053,in,1
106,1,centered,101,0.1892099194769046,11.9,268,in,u,1.1745383739471436,in,1
106,1,centered,102,0.0444444444444444,16.02,328,out,i,1.2205307483673096,out,1
106,1,centered,103,0.1882685844091594,10.57,251,in,u,0.859454870223999,in,1
106,1,centered,104,0.0444444444444444,9.71,241,out,u,0.7954909801483154,in,0
106,1,centered,105,0.1786126659263078,12.19,272,in,u,1.4819955825805664,in,1
106,1,centered,106,0.1737916353701474,12.3,273,in,u,3.2760415077209473,in,1
106,1,centered,107,0.1270295305910936,9.35,237,in,u,0.9905486106872559,in,1
106,1,centered,108,0.0444444444444444,17.14,346,out,i,0.7550041675567627,out,1
106,1,centered,109,0.0444444444444444,18.43,369,out,i,1.1468737125396729,out,1
106,1,centered,110,0.0444444444444444,3.67,179,out,i,0.6996662616729736,out,1
106,1,centered,111,0.1407601085703317,12.92,282,in,u,0.8863739967346191,in,1
106,1,centered,112,0.1348357112665927,13.02,283,in,u,0.6317653656005859,in,1
106,1,centered,113,0.0444444444444444,12.64,278,out,u,0.7084808349609375,in,0
106,1,centered,114,0.1879464503643602,10.56,251,in,u,1.5978219509124756,in,1
106,1,centered,115,0.0444444444444444,5.42,195,out,i,0.9574124813079834,out,1
106,1,centered,116,0.1992219607431082,11.15,258,in,u,0.7682633399963379,in,1
106,1,centered,117,0.1419332793954191,9.6,240,in,i,2.2084012031555176,out,0
106,1,centered,118,0.1077290828835702,13.47,289,in,i,1.2180533409118652,out,0
106,1,centered,119,0.0444444444444444,10.73,253,out,u,0.8352749347686768,in,0
106,1,centered,120,0.0444444444444444,17.74,356,out,i,2.6572742462158203,out,1
106,1,centered,121,0.0377262856564977,7.6,217,in,i,1.0524778366088867,out,0
106,1,centered,122,0.0444444444444444,0.54,154,out,i,0.8512940406799316,out,1
106,1,centered,123,0.0444444444444444,8.55,228,out,u,0.6930763721466064,in,0
106,1,centered,124,0.1786126659263078,10.31,248,in,u,0.8789186477661133,in,1
106,1,centered,125,0.0444444444444444,17.61,354,out,i,1.5343713760375977,out,1
106,1,centered,126,0.0444444444444444,14.38,303,out,u,0.8168141841888428,in,0
106,1,centered,127,0.0444444444444444,22.26,444,out,i,4.510303497314453,out,1
106,1,centered,128,0.0444444444444444,1.89,164,out,i,0.804999828338623,out,1
106,1,centered,129,0.0444444444444444,17.48,352,out,u,2.812387466430664,in,0
106,1,centered,130,0.0444444444444444,8.91,232,out,i,1.0950145721435547,out,1
106,1,centered,131,0.0930425656652823,13.72,293,in,i,3.065281867980957,out,0
106,1,centered,132,0.0444444444444444,18.13,363,out,i,2.384976863861084,out,1
106,1,centered,133,0.0193534284327493,15.57,321,in,i,0.7038638591766357,out,0
106,1,centered,134,0.1577571907791234,9.88,243,in,i,2.7619755268096924,out,0
106,1,centered,135,0.1318440235027208,9.43,238,in,u,0.9430384635925293,in,1
106,1,centered,136,0.1270295305910936,13.15,285,in,u,0.924452543258667,in,1
106,1,centered,137,0.0444444444444444,5.72,198,out,i,1.1338531970977783,out,1
106,1,centered,138,0.1925887494848725,10.72,253,in,u,1.4773123264312744,in,1
106,1,centered,139,0.0148272926987287,6.69,208,in,i,0.8951070308685303,out,0
106,1,centered,140,0.0387689467142619,14.87,310,in,i,1.1942367553710938,out,0
106,1,centered,141,0.1967742403987658,11.58,264,in,i,1.9767343997955322,out,0
106,1,centered,142,0.0444444444444444,0.01,150,out,i,0.5322220325469971,out,1
106,1,centered,143,0.0444444444444444,5.09,192,out,u,0.6243207454681396,in,0
106,1,centered,144,0.0444444444444444,0.15,151,out,i,0.882910966873169,out,1
106,1,centered,145,0.0444444444444444,14.57,305,out,i,1.3497254848480225,out,1
106,1,centered,146,0.0444444444444444,2.68,171,out,i,1.9078845977783203,out,1
106,1,centered,147,0.0444444444444444,5.58,197,out,i,1.948540210723877,out,1
106,1,centered,148,0.1709988931660095,12.36,274,in,u,1.1876888275146484,in,1
106,1,centered,149,0.0444444444444444,18.45,369,out,i,5.677575349807739,out,1
106,1,centered,150,0.0444444444444444,15.36,317,out,i,3.572791814804077,out,1
106,1,centered,151,0.0444444444444444,11.17,259,out,u,3.5689311027526855,in,0
106,1,centered,152,0.1550301452926409,9.83,242,in,u,2.2396578788757324,in,1
106,1,centered,153,0.0444444444444444,14.34,302,out,i,1.4405896663665771,out,1
106,1,centered,154,0.1935734609872151,11.74,266,in,u,5.767791748046875,in,1
106,1,centered,155,0.1837648743698491,10.44,250,in,u,2.085022449493408,in,1
106,1,centered,156,0.1246138285532189,9.31,236,in,i,2.4075372219085693,out,0
106,1,centered,157,0.0444444444444444,2.09,166,out,i,0.6834414005279541,out,1
106,1,centered,158,0.0444444444444444,20.02,398,out,i,1.7629475593566895,out,1
106,1,centered,159,0.0444444444444444,4.44,186,out,i,0.8396890163421631,out,1
106,1,centered,160,0.0444444444444444,3.92,182,out,i,2.7867367267608643,out,1
106,1,centered,161,0.0959300791363791,13.67,292,in,u,1.0929193496704102,in,1
106,1,centered,162,0.0444444444444444,5.63,197,out,i,0.7839136123657227,out,1
106,1,centered,163,0.0856842976134157,13.85,295,in,u,1.1622648239135742,in,1
106,1,centered,164,0.0444444444444444,20.61,410,out,i,0.7116899490356445,out,1
106,1,centered,165,0.0614090417306493,8.18,224,in,i,1.1664917469024658,out,0
106,1,centered,166,0.1994487046596073,11.28,260,in,u,1.2181000709533691,in,1
106,1,centered,167,0.0444444444444444,3.28,176,out,i,1.0631721019744873,out,1
106,1,centered,168,0.0444444444444444,22.44,448,out,i,0.6581463813781738,out,1
106,1,centered,169,0.1918031496348406,11.81,267,in,u,2.5519659519195557,in,1
106,1,centered,170,0.1889003417696843,11.91,268,in,u,0.9999468326568604,in,1
106,1,centered,171,0.0444444444444444,21.94,438,out,i,1.0126512050628662,out,1
106,1,centered,172,0.0444444444444444,10.46,250,out,u,1.5382347106933594,in,0
