participant,computer_number,exp_condition,trial_type,set_type,set,difficulty_level,stim_order,stim_1_phy,stim_2_phy,stim_3_phy,stim_1_psy,stim_2_psy,stim_3_psy,stim_1_phy_shuffled,stim_2_phy_shuffled,stim_3_phy_shuffled,stim_1_psy_shuffled,stim_2_psy_shuffled,stim_3_psy_shuffled,key_correct_1,key_correct_2,key_resp,choice_num,choice_stim_phy,choice_stim_psy,correct,rt,stim_min,stim_max,choice
11,1,left,filler,trinary,NA,NA,[1 0 2],229,271,182.0,8.704308774276392,12.122597752022555,4.0,271,229,182,12.122597752022555,8.704308774276392,4,k,NA,k,2,229,8.704308774276392,1,7.227886199951172,12.1225977520226,8.70430877427639,NA
11,1,left,attraction,trinary,l-s-ds,difficult,[1 0 2],206,238,187.0,6.5,9.5,4.5,238,206,187,9.5,6.5,4.5,k,NA,k,2,206,6.5,1,3.8304343223571777,4.5,9.5,s
11,1,left,attraction,binary,l-s,difficult,[0 1],206,238,NA,6.5,9.5,NA,206,238,NA,6.5,9.5,NA,j,NA,j,1,206,6.5,1,2.3171041011810303,6.5,9.5,s
11,1,left,attraction,binary,l-s,equal_2_jnd,[0 1],196,238,NA,5.5,9.5,NA,196,238,NA,5.5,9.5,NA,j,k,j,1,196,5.5,1,4.1646130084991455,5.5,9.5,s
11,1,left,filler,binary,NA,NA,[0 1],226,237,NA,8.428297551202068,9.388482722570188,NA,226,237,NA,8.428297551202068,9.388482722570188,NA,j,NA,j,1,226,8.428297551202068,1,6.528928995132446,8.42829755120207,9.38848272257019,NA
11,1,left,attraction,binary,l-s,easy,[1 0],187,227,NA,4.5,8.5,NA,227,187,NA,8.5,4.5,NA,j,NA,k,2,187,4.5,0,3.0606658458709717,4.5,8.5,s
11,1,left,attraction,binary,l-s,easy,[0 1],206,250,NA,6.5,10.5,NA,206,250,NA,6.5,10.5,NA,j,NA,j,1,206,6.5,1,3.164578914642334,10.5,6.5,l
11,1,left,attraction,trinary,l-s-dl,equal_1_jnd,[0 2 1],206,227,250.0,6.5,8.5,10.5,206,250,227,6.5,10.5,8.5,j,l,j,1,206,6.5,1,5.648721694946289,10.5,8.5,l
11,1,left,attraction,trinary,l-s-ds,equal_1_jnd,[0 2 1],206,227,187.0,6.5,8.5,4.5,206,187,227,6.5,4.5,8.5,j,l,j,1,206,6.5,1,6.81452202796936,4.5,8.5,s
11,1,left,filler,binary,NA,NA,[1 0],200,219,NA,5.942925932172275,7.763479906716384,NA,219,200,NA,7.763479906716384,5.942925932172275,NA,k,NA,j,1,219,7.763479906716384,0,1.7411816120147705,5.94292593217228,7.76347990671638,NA
11,1,left,attraction,trinary,l-s-ds,difficult,[2 0 1],206,238,187.0,6.5,9.5,4.5,187,206,238,4.5,6.5,9.5,k,NA,j,1,187,4.5,0,6.3848655223846436,4.5,9.5,ds
11,1,left,attraction,trinary,l-s-dl,easy,[1 2 0],187,227,250.0,4.5,8.5,10.5,227,250,187,8.5,10.5,4.5,j,NA,j,1,227,8.5,1,4.615437030792236,10.5,8.5,dl
11,1,left,attraction,trinary,l-s-dl,equal_2_jnd,[2 0 1],196,238,263.0,5.5,9.5,11.5,263,196,238,11.5,5.5,9.5,k,l,k,2,196,5.5,1,1.4642043113708496,11.5,9.5,l
11,1,left,filler,trinary,NA,NA,[0 1 2],226,200,191.0,8.390217947418758,5.942907377611846,5.0,226,200,191,8.390217947418758,5.942907377611846,5,j,NA,k,2,200,5.942907377611846,0,1.5580377578735352,5.0,8.39021794741876,NA
11,1,left,attraction,trinary,l-s-dl,equal_2_jnd,[0 1 2],196,238,263.0,5.5,9.5,11.5,196,238,263,5.5,9.5,11.5,j,k,j,1,196,5.5,1,2.3683159351348877,11.5,9.5,l
11,1,left,attraction,trinary,l-s-dl,difficult,[1 2 0],206,238,263.0,6.5,9.5,11.5,238,263,206,9.5,11.5,6.5,l,NA,j,1,238,9.5,0,2.3169548511505127,11.5,9.5,dl
11,1,left,filler,trinary,NA,NA,[0 2 1],267,312,418.0,11.83609528635886,15.020702904439531,21.0,267,418,312,11.83609528635886,21,15.020702904439531,j,NA,j,1,267,11.83609528635886,1,4.230186462402344,11.8360952863589,21.0,NA
11,1,left,filler,binary,NA,NA,[1 0],218,192,NA,7.6608377207393055,5.025345634203404,NA,192,218,NA,5.025345634203404,7.6608377207393055,NA,k,NA,k,2,218,7.6608377207393055,1,8.805719137191772,5.0253456342034,7.66083772073931,NA
11,1,left,attraction,trinary,l-s-ds,easy,[2 1 0],206,250,187.0,6.5,10.5,4.5,187,250,206,4.5,10.5,6.5,l,NA,j,1,187,4.5,0,1.6456849575042725,10.5,6.5,s
11,1,left,attraction,trinary,l-s-ds,equal_2_jnd,[1 0 2],196,238,178.0,5.5,9.5,3.5,238,196,178,9.5,5.5,3.5,k,j,k,2,196,5.5,1,2.4539570808410645,3.5,9.5,s
11,1,left,attraction,binary,l-s,equal_1_jnd,[0 1],206,227,NA,6.5,8.5,NA,206,227,NA,6.5,8.5,NA,j,k,k,2,227,8.5,1,3.571694850921631,6.5,8.5,l
11,1,left,attraction,trinary,l-s-ds,equal_2_jnd,[1 0 2],196,238,178.0,5.5,9.5,3.5,238,196,178,9.5,5.5,3.5,k,j,k,2,196,5.5,1,2.7646608352661133,3.5,9.5,s
11,1,left,attraction,binary,l-s,easy,[0 1],206,250,NA,6.5,10.5,NA,206,250,NA,6.5,10.5,NA,j,NA,j,1,206,6.5,1,2.1690900325775146,10.5,6.5,l
11,1,left,attraction,binary,l-s,equal_1_jnd,[0 1],206,227,NA,6.5,8.5,NA,206,227,NA,6.5,8.5,NA,j,k,k,2,227,8.5,1,3.3327653408050537,6.5,8.5,l
11,1,left,attraction,trinary,l-s-ds,difficult,[2 1 0],206,238,187.0,6.5,9.5,4.5,187,238,206,4.5,9.5,6.5,l,NA,k,2,238,9.5,0,4.119290351867676,4.5,9.5,l
11,1,left,attraction,binary,l-s,difficult,[0 1],196,227,NA,5.5,8.5,NA,196,227,NA,5.5,8.5,NA,k,NA,j,1,196,5.5,0,1.7464783191680908,5.5,8.5,s
11,1,left,filler,binary,NA,NA,[1 0],193,171,NA,5.158381653481423,2.6258213486289605,NA,171,193,NA,2.6258213486289605,5.158381653481423,NA,k,NA,k,2,193,5.158381653481423,1,3.495229959487915,2.62582134862896,5.15838165348142,NA
11,1,left,attraction,binary,l-s,difficult,[1 0],206,238,NA,6.5,9.5,NA,238,206,NA,9.5,6.5,NA,k,NA,k,2,206,6.5,1,4.616897344589233,6.5,9.5,s
11,1,left,attraction,trinary,l-s-dl,easy,[0 2 1],187,227,250.0,4.5,8.5,10.5,187,250,227,4.5,10.5,8.5,l,NA,k,2,250,10.5,0,9.854647874832153,10.5,8.5,s
11,1,left,attraction,trinary,l-s-dl,difficult,[1 0 2],196,227,250.0,5.5,8.5,10.5,227,196,250,8.5,5.5,10.5,j,NA,k,2,196,5.5,0,1.6964147090911865,10.5,8.5,l
11,1,left,attraction,binary,l-s,easy,[0 1],206,250,NA,6.5,10.5,NA,206,250,NA,6.5,10.5,NA,j,NA,j,1,206,6.5,1,1.8541569709777832,10.5,6.5,l
11,1,left,attraction,binary,l-s,equal_2_jnd,[1 0],196,238,NA,5.5,9.5,NA,238,196,NA,9.5,5.5,NA,j,k,k,2,196,5.5,1,1.352581262588501,5.5,9.5,s
11,1,left,filler,trinary,NA,NA,[1 0 2],245,169,257.0,10.062996056050542,2.4959196138661355,11.0,169,245,257,2.4959196138661355,10.062996056050542,11,k,NA,k,2,245,10.062996056050542,1,1.8534784317016602,10.0629960560505,2.49591961386614,NA
11,1,left,filler,binary,NA,NA,[1 0],250,234,NA,10.48978476824527,9.095668499940077,NA,234,250,NA,9.095668499940077,10.48978476824527,NA,k,NA,j,1,234,9.095668499940077,0,1.5595853328704834,10.4897847682453,9.09566849994008,NA
11,1,left,attraction,trinary,l-s-dl,difficult,[1 0 2],196,227,250.0,5.5,8.5,10.5,227,196,250,8.5,5.5,10.5,j,NA,k,2,196,5.5,0,0.9697318077087402,10.5,8.5,l
11,1,left,filler,binary,NA,NA,[1 0],171,267,NA,2.7015017182121728,11.784537424100565,NA,267,171,NA,11.784537424100565,2.7015017182121728,NA,k,NA,j,1,267,11.784537424100565,0,1.2327213287353516,11.7845374241006,2.70150171821217,NA
11,1,left,attraction,binary,l-s,easy,[0 1],187,227,NA,4.5,8.5,NA,187,227,NA,4.5,8.5,NA,k,NA,j,1,187,4.5,0,1.1953296661376953,4.5,8.5,s
11,1,left,attraction,binary,l-s,equal_2_jnd,[0 1],196,238,NA,5.5,9.5,NA,196,238,NA,5.5,9.5,NA,j,k,j,1,196,5.5,1,0.8507153987884521,5.5,9.5,s
11,1,left,filler,trinary,NA,NA,[1 0 2],202,154,379.0,6.060867203340779,0.4888625058811158,19.0,154,202,379,0.4888625058811158,6.060867203340779,19,k,NA,k,2,202,6.060867203340779,1,1.1277334690093994,0.488862505881116,6.06086720334078,NA
11,1,left,attraction,binary,l-s,difficult,[0 1],196,227,NA,5.5,8.5,NA,196,227,NA,5.5,8.5,NA,k,NA,k,2,227,8.5,1,1.1859772205352783,5.5,8.5,l
11,1,left,attraction,binary,l-s,difficult,[1 0],196,227,NA,5.5,8.5,NA,227,196,NA,8.5,5.5,NA,j,NA,j,1,227,8.5,1,4.203058958053589,5.5,8.5,l
11,1,left,attraction,binary,l-s,difficult,[0 1],206,238,NA,6.5,9.5,NA,206,238,NA,6.5,9.5,NA,j,NA,j,1,206,6.5,1,2.609429121017456,6.5,9.5,s
11,1,left,filler,trinary,NA,NA,[0 1 2],217,331,158.0,7.611942909958636,16.24591615400277,1.0,217,331,158,7.611942909958636,16.24591615400277,1,j,NA,j,1,217,7.611942909958636,1,2.3563270568847656,1.0,7.61194290995864,NA
11,1,left,attraction,binary,l-s,equal_2_jnd,[1 0],196,238,NA,5.5,9.5,NA,238,196,NA,9.5,5.5,NA,j,k,k,2,196,5.5,1,1.5049231052398682,5.5,9.5,s
11,1,left,attraction,binary,l-s,easy,[0 1],187,227,NA,4.5,8.5,NA,187,227,NA,4.5,8.5,NA,k,NA,k,2,227,8.5,1,2.3923861980438232,4.5,8.5,l
11,1,left,attraction,binary,l-s,difficult,[1 0],206,238,NA,6.5,9.5,NA,238,206,NA,9.5,6.5,NA,k,NA,j,1,238,9.5,0,2.283665895462036,6.5,9.5,l
11,1,left,attraction,trinary,l-s-ds,equal_2_jnd,[0 1 2],196,238,178.0,5.5,9.5,3.5,196,238,178,5.5,9.5,3.5,j,k,j,1,196,5.5,1,3.247537612915039,3.5,9.5,s
11,1,left,filler,trinary,NA,NA,[0 2 1],178,344,361.0,3.5095864416604416,17.02235630946234,18.0,178,361,344,3.5095864416604416,18,17.02235630946234,j,NA,j,1,178,3.5095864416604416,1,1.6316683292388916,17.0223563094623,3.50958644166044,NA
11,1,left,attraction,binary,l-s,equal_1_jnd,[1 0],206,227,NA,6.5,8.5,NA,227,206,NA,8.5,6.5,NA,j,k,j,1,227,8.5,1,2.436479330062866,6.5,8.5,l
11,1,left,attraction,trinary,l-s-dl,easy,[1 0 2],206,250,276.0,6.5,10.5,12.5,250,206,276,10.5,6.5,12.5,k,NA,k,2,206,6.5,1,1.555187702178955,10.5,6.5,dl
11,1,left,attraction,binary,l-s,easy,[1 0],187,227,NA,4.5,8.5,NA,227,187,NA,8.5,4.5,NA,j,NA,j,1,227,8.5,1,2.6623001098632812,4.5,8.5,l
11,1,left,attraction,binary,l-s,easy,[1 0],206,250,NA,6.5,10.5,NA,250,206,NA,10.5,6.5,NA,k,NA,k,2,206,6.5,1,2.743760824203491,10.5,6.5,l
11,1,left,filler,trinary,NA,NA,[1 2 0],235,401,165.0,9.232958076801571,20.14122284366749,2.0,401,165,235,20.14122284366749,2,9.232958076801571,l,NA,k,2,165,2,0,2.0403597354888916,2.0,9.23295807680157,NA
11,1,left,attraction,trinary,l-s-dl,easy,[1 2 0],187,227,250.0,4.5,8.5,10.5,227,250,187,8.5,10.5,4.5,j,NA,j,1,227,8.5,1,2.196371555328369,10.5,8.5,dl
11,1,left,attraction,binary,l-s,difficult,[1 0],196,227,NA,5.5,8.5,NA,227,196,NA,8.5,5.5,NA,j,NA,j,1,227,8.5,1,1.6802124977111816,5.5,8.5,l
11,1,left,attraction,trinary,l-s-dl,easy,[0 1 2],206,250,276.0,6.5,10.5,12.5,206,250,276,6.5,10.5,12.5,j,NA,j,1,206,6.5,1,3.393874168395996,10.5,6.5,dl
11,1,left,filler,binary,NA,NA,[0 1],236,301,NA,9.26668875599818,14.257775298901834,NA,236,301,NA,9.26668875599818,14.257775298901834,NA,j,NA,j,1,236,9.26668875599818,1,0.9462475776672363,14.2577752989018,9.26668875599818,NA
11,1,left,attraction,trinary,l-s-ds,easy,[2 0 1],206,250,187.0,6.5,10.5,4.5,187,206,250,4.5,6.5,10.5,k,NA,k,2,206,6.5,1,1.385791540145874,10.5,6.5,l
11,1,left,attraction,binary,l-s,equal_1_jnd,[1 0],206,227,NA,6.5,8.5,NA,227,206,NA,8.5,6.5,NA,j,k,j,1,227,8.5,1,4.195558309555054,6.5,8.5,l
11,1,left,filler,trinary,NA,NA,[0 2 1],232,289,327.0,8.922850561937025,13.434216311434284,16.0,232,327,289,8.922850561937025,16,13.434216311434284,j,NA,j,1,232,8.922850561937025,1,1.237788438796997,13.4342163114343,8.92285056193703,NA
11,1,left,filler,binary,NA,NA,[1 0],207,246,NA,6.557605040797651,10.114881485933438,NA,246,207,NA,10.114881485933438,6.557605040797651,NA,k,NA,k,2,207,6.557605040797651,1,1.439711332321167,10.1148814859334,6.55760504079765,NA
11,1,left,attraction,binary,l-s,difficult,[0 1],196,227,NA,5.5,8.5,NA,196,227,NA,5.5,8.5,NA,k,NA,j,1,196,5.5,0,1.241166353225708,5.5,8.5,s
11,1,left,attraction,trinary,l-s-dl,difficult,[2 0 1],206,238,263.0,6.5,9.5,11.5,263,206,238,11.5,6.5,9.5,k,NA,k,2,206,6.5,1,1.7956950664520264,11.5,9.5,l
11,1,left,attraction,trinary,l-s-ds,equal_1_jnd,[0 2 1],206,227,187.0,6.5,8.5,4.5,206,187,227,6.5,4.5,8.5,j,l,j,1,206,6.5,1,1.605003833770752,4.5,8.5,s
11,1,left,attraction,binary,l-s,difficult,[0 1],206,238,NA,6.5,9.5,NA,206,238,NA,6.5,9.5,NA,j,NA,j,1,206,6.5,1,1.8795571327209473,6.5,9.5,s
11,1,left,attraction,trinary,l-s-ds,difficult,[2 0 1],196,227,178.0,5.5,8.5,3.5,178,196,227,3.5,5.5,8.5,l,NA,k,2,196,5.5,0,2.7145094871520996,3.5,8.5,s
11,1,left,attraction,trinary,l-s-ds,easy,[2 0 1],187,227,169.0,4.5,8.5,2.5,169,187,227,2.5,4.5,8.5,l,NA,j,1,169,2.5,0,1.933154821395874,2.5,8.5,ds
11,1,left,attraction,trinary,l-s-ds,equal_1_jnd,[0 2 1],206,227,187.0,6.5,8.5,4.5,206,187,227,6.5,4.5,8.5,j,l,k,2,187,4.5,0,0.925701379776001,4.5,8.5,ds
11,1,left,attraction,trinary,l-s-dl,difficult,[0 2 1],206,238,263.0,6.5,9.5,11.5,206,263,238,6.5,11.5,9.5,j,NA,j,1,206,6.5,1,2.8500378131866455,11.5,9.5,l
11,1,left,attraction,trinary,l-s-dl,equal_2_jnd,[2 1 0],196,238,263.0,5.5,9.5,11.5,263,238,196,11.5,9.5,5.5,l,k,k,2,238,9.5,1,1.6589162349700928,11.5,9.5,dl
11,1,left,attraction,binary,l-s,easy,[0 1],206,250,NA,6.5,10.5,NA,206,250,NA,6.5,10.5,NA,j,NA,j,1,206,6.5,1,3.874866008758545,10.5,6.5,l
11,1,left,attraction,trinary,l-s-dl,equal_1_jnd,[0 1 2],206,227,250.0,6.5,8.5,10.5,206,227,250,6.5,8.5,10.5,j,k,k,2,227,8.5,1,0.9933171272277832,10.5,8.5,dl
11,1,left,attraction,binary,l-s,equal_1_jnd,[1 0],206,227,NA,6.5,8.5,NA,227,206,NA,8.5,6.5,NA,j,k,j,1,227,8.5,1,1.9631145000457764,6.5,8.5,l
11,1,left,attraction,trinary,l-s-ds,easy,[1 0 2],187,227,169.0,4.5,8.5,2.5,227,187,169,8.5,4.5,2.5,j,NA,j,1,227,8.5,1,1.3543634414672852,2.5,8.5,l
11,1,left,attraction,trinary,l-s-ds,easy,[2 1 0],187,227,169.0,4.5,8.5,2.5,169,227,187,2.5,8.5,4.5,k,NA,k,2,227,8.5,1,1.3523638248443604,2.5,8.5,l
11,1,left,attraction,binary,l-s,easy,[0 1],206,250,NA,6.5,10.5,NA,206,250,NA,6.5,10.5,NA,j,NA,j,1,206,6.5,1,2.3836584091186523,10.5,6.5,l
11,1,left,filler,binary,NA,NA,[1 0],223,201,NA,8.0952781966490015,6.012441776110791,NA,201,223,NA,6.012441776110791,8.0952781966490015,NA,k,NA,k,2,223,8.0952781966490015,1,3.4546830654144287,6.01244177611079,8.095278196649,NA
11,1,left,attraction,binary,l-s,equal_1_jnd,[0 1],206,227,NA,6.5,8.5,NA,206,227,NA,6.5,8.5,NA,j,k,k,2,227,8.5,1,2.0206081867218018,6.5,8.5,l
11,1,left,attraction,trinary,l-s-ds,difficult,[2 1 0],196,227,178.0,5.5,8.5,3.5,178,227,196,3.5,8.5,5.5,k,NA,k,2,227,8.5,1,1.3248450756072998,3.5,8.5,l
11,1,left,attraction,binary,l-s,equal_2_jnd,[1 0],196,238,NA,5.5,9.5,NA,238,196,NA,9.5,5.5,NA,j,k,j,1,238,9.5,1,2.2920377254486084,5.5,9.5,l
11,1,left,attraction,trinary,l-s-ds,easy,[1 2 0],206,250,187.0,6.5,10.5,4.5,250,187,206,10.5,4.5,6.5,l,NA,j,1,250,10.5,0,5.033617734909058,10.5,6.5,ds
11,1,left,filler,trinary,NA,NA,[2 1 0],207,448,269.0,6.595305104835687,22.443864309461787,12.0,269,448,207,12,22.443864309461787,6.595305104835687,l,NA,j,1,269,12,0,1.8248438835144043,12.0,6.59530510483569,NA
11,1,left,attraction,binary,l-s,difficult,[1 0],206,238,NA,6.5,9.5,NA,238,206,NA,9.5,6.5,NA,k,NA,k,2,206,6.5,1,2.178114652633667,6.5,9.5,s
11,1,left,attraction,binary,l-s,equal_2_jnd,[1 0],196,238,NA,5.5,9.5,NA,238,196,NA,9.5,5.5,NA,j,k,j,1,238,9.5,1,1.583740234375,5.5,9.5,l
11,1,left,filler,binary,NA,NA,[1 0],203,284,NA,6.215048890455943,13.076051014359107,NA,284,203,NA,13.076051014359107,6.215048890455943,NA,k,NA,k,2,203,6.215048890455943,1,3.2831225395202637,13.0760510143591,6.21504889045594,NA
11,1,left,filler,binary,NA,NA,[1 0],215,204,NA,7.365965688412891,6.259801906999201,NA,204,215,NA,6.259801906999201,7.365965688412891,NA,k,NA,j,1,204,6.259801906999201,0,1.958235263824463,6.2598019069992,7.36596568841289,NA
11,1,left,attraction,trinary,l-s-dl,difficult,[2 1 0],196,227,250.0,5.5,8.5,10.5,250,227,196,10.5,8.5,5.5,k,NA,k,2,227,8.5,1,1.2463593482971191,10.5,8.5,dl
11,1,left,filler,trinary,NA,NA,[0 1 2],193,272,361.0,5.147313637584615,12.21474049554672,18.0,193,272,361,5.147313637584615,12.21474049554672,18,j,NA,j,1,193,5.147313637584615,1,1.3655304908752441,12.2147404955467,5.14731363758461,NA
11,1,left,attraction,binary,l-s,easy,[0 1],187,227,NA,4.5,8.5,NA,187,227,NA,4.5,8.5,NA,k,NA,k,2,227,8.5,1,2.627115488052368,4.5,8.5,l
11,1,left,attraction,trinary,l-s-dl,equal_1_jnd,[1 2 0],206,227,250.0,6.5,8.5,10.5,227,250,206,8.5,10.5,6.5,l,j,j,1,227,8.5,1,1.4053840637207031,10.5,8.5,dl
11,1,left,attraction,binary,l-s,difficult,[0 1],196,227,NA,5.5,8.5,NA,196,227,NA,5.5,8.5,NA,k,NA,k,2,227,8.5,1,1.2770586013793945,5.5,8.5,l
11,1,left,filler,binary,NA,NA,[0 1],229,392,NA,8.679210194719555,19.694879207527265,NA,229,392,NA,8.679210194719555,19.694879207527265,NA,j,NA,j,1,229,8.679210194719555,1,1.9900648593902588,19.6948792075273,8.67921019471956,NA
11,1,left,attraction,trinary,l-s-dl,easy,[2 1 0],206,250,276.0,6.5,10.5,12.5,276,250,206,12.5,10.5,6.5,l,NA,k,2,250,10.5,0,1.0067510604858398,10.5,6.5,s
11,1,left,attraction,trinary,l-s-ds,difficult,[2 0 1],196,227,178.0,5.5,8.5,3.5,178,196,227,3.5,5.5,8.5,l,NA,k,2,196,5.5,0,4.560104131698608,3.5,8.5,s
11,1,left,attraction,binary,l-s,easy,[0 1],187,227,NA,4.5,8.5,NA,187,227,NA,4.5,8.5,NA,k,NA,k,2,227,8.5,1,1.8999748229980469,4.5,8.5,l
11,1,left,attraction,binary,l-s,difficult,[1 0],206,238,NA,6.5,9.5,NA,238,206,NA,9.5,6.5,NA,k,NA,j,1,238,9.5,0,2.5309135913848877,6.5,9.5,l
11,1,left,attraction,trinary,l-s-dl,equal_2_jnd,[0 1 2],196,238,263.0,5.5,9.5,11.5,196,238,263,5.5,9.5,11.5,j,k,k,2,238,9.5,1,1.6951231956481934,11.5,9.5,dl
11,1,left,filler,binary,NA,NA,[1 0],215,204,NA,7.365965688412891,6.259801906999201,NA,204,215,NA,6.259801906999201,7.365965688412891,NA,k,NA,k,2,215,7.365965688412891,1,1.3630263805389404,6.2598019069992,7.36596568841289,NA
11,1,left,attraction,binary,l-s,difficult,[1 0],206,238,NA,6.5,9.5,NA,238,206,NA,9.5,6.5,NA,k,NA,j,1,238,9.5,0,1.6815338134765625,6.5,9.5,l
11,1,left,attraction,binary,l-s,equal_2_jnd,[0 1],196,238,NA,5.5,9.5,NA,196,238,NA,5.5,9.5,NA,j,k,k,2,238,9.5,1,0.8794596195220947,5.5,9.5,l
11,1,left,attraction,trinary,l-s-dl,equal_1_jnd,[1 2 0],206,227,250.0,6.5,8.5,10.5,227,250,206,8.5,10.5,6.5,l,j,k,2,250,10.5,0,0.9814612865447998,10.5,8.5,s
11,1,left,attraction,trinary,l-s-ds,easy,[0 2 1],187,227,169.0,4.5,8.5,2.5,187,169,227,4.5,2.5,8.5,l,NA,j,1,187,4.5,0,1.4659154415130615,2.5,8.5,s
11,1,left,attraction,trinary,l-s-dl,difficult,[0 2 1],196,227,250.0,5.5,8.5,10.5,196,250,227,5.5,10.5,8.5,l,NA,k,2,250,10.5,0,2.47715163230896,10.5,8.5,s
11,1,left,attraction,trinary,l-s-dl,easy,[1 0 2],206,250,276.0,6.5,10.5,12.5,250,206,276,10.5,6.5,12.5,k,NA,k,2,206,6.5,1,3.19663143157959,10.5,6.5,dl
11,1,left,filler,binary,NA,NA,[0 1],236,301,NA,9.26668875599818,14.257775298901834,NA,236,301,NA,9.26668875599818,14.257775298901834,NA,j,NA,j,1,236,9.26668875599818,1,1.4698991775512695,14.2577752989018,9.26668875599818,NA
11,1,left,attraction,binary,l-s,equal_2_jnd,[0 1],196,238,NA,5.5,9.5,NA,196,238,NA,5.5,9.5,NA,j,k,j,1,196,5.5,1,4.552619218826294,5.5,9.5,s
11,1,left,attraction,trinary,l-s-dl,equal_2_jnd,[2 0 1],196,238,263.0,5.5,9.5,11.5,263,196,238,11.5,5.5,9.5,k,l,k,2,196,5.5,1,1.6079819202423096,11.5,9.5,l
11,1,left,attraction,trinary,l-s-dl,difficult,[0 2 1],196,227,250.0,5.5,8.5,10.5,196,250,227,5.5,10.5,8.5,l,NA,j,1,196,5.5,0,2.5928938388824463,10.5,8.5,l
11,1,left,attraction,trinary,l-s-ds,equal_1_jnd,[0 2 1],206,227,187.0,6.5,8.5,4.5,206,187,227,6.5,4.5,8.5,j,l,j,1,206,6.5,1,1.1553006172180176,4.5,8.5,s
11,1,left,filler,binary,NA,NA,[0 1],171,267,NA,2.7015017182121728,11.784537424100565,NA,171,267,NA,2.7015017182121728,11.784537424100565,NA,j,NA,j,1,171,2.7015017182121728,1,0.9132721424102783,11.7845374241006,2.70150171821217,NA
11,1,left,filler,trinary,NA,NA,[2 1 0],232,289,327.0,8.922850561937025,13.434216311434284,16.0,327,289,232,16,13.434216311434284,8.922850561937025,l,NA,k,2,289,13.434216311434284,0,1.2009727954864502,13.4342163114343,8.92285056193703,NA
11,1,left,attraction,trinary,l-s-ds,equal_2_jnd,[0 2 1],196,238,178.0,5.5,9.5,3.5,196,178,238,5.5,3.5,9.5,j,l,j,1,196,5.5,1,2.240666627883911,3.5,9.5,s
11,1,left,attraction,binary,l-s,difficult,[1 0],196,227,NA,5.5,8.5,NA,227,196,NA,8.5,5.5,NA,j,NA,j,1,227,8.5,1,1.5503597259521484,5.5,8.5,l
11,1,left,filler,trinary,NA,NA,[2 1 0],217,331,158.0,7.611942909958636,16.24591615400277,1.0,158,331,217,1,16.24591615400277,7.611942909958636,l,NA,j,1,158,1,0,1.7923524379730225,1.0,7.61194290995864,NA
11,1,left,filler,binary,NA,NA,[1 0],200,219,NA,5.942925932172275,7.763479906716384,NA,219,200,NA,7.763479906716384,5.942925932172275,NA,k,NA,k,2,200,5.942925932172275,1,0.8344366550445557,5.94292593217228,7.76347990671638,NA
11,1,left,attraction,trinary,l-s-dl,difficult,[2 1 0],206,238,263.0,6.5,9.5,11.5,263,238,206,11.5,9.5,6.5,l,NA,k,2,238,9.5,0,1.3524565696716309,11.5,9.5,dl
11,1,left,attraction,binary,l-s,difficult,[0 1],196,227,NA,5.5,8.5,NA,196,227,NA,5.5,8.5,NA,k,NA,j,1,196,5.5,0,2.8116748332977295,5.5,8.5,s
11,1,left,attraction,trinary,l-s-dl,easy,[2 1 0],187,227,250.0,4.5,8.5,10.5,250,227,187,10.5,8.5,4.5,k,NA,k,2,227,8.5,1,1.3498773574829102,10.5,8.5,dl
11,1,left,attraction,binary,l-s,difficult,[1 0],206,238,NA,6.5,9.5,NA,238,206,NA,9.5,6.5,NA,k,NA,k,2,206,6.5,1,0.8768947124481201,6.5,9.5,s
11,1,left,attraction,binary,l-s,easy,[0 1],187,227,NA,4.5,8.5,NA,187,227,NA,4.5,8.5,NA,k,NA,j,1,187,4.5,0,0.8112771511077881,4.5,8.5,s
11,1,left,filler,trinary,NA,NA,[0 2 1],193,272,361.0,5.147313637584615,12.21474049554672,18.0,193,361,272,5.147313637584615,18,12.21474049554672,j,NA,j,1,193,5.147313637584615,1,0.7540862560272217,12.2147404955467,5.14731363758461,NA
11,1,left,attraction,binary,l-s,difficult,[1 0],206,238,NA,6.5,9.5,NA,238,206,NA,9.5,6.5,NA,k,NA,k,2,206,6.5,1,1.1136417388916016,6.5,9.5,s
11,1,left,filler,binary,NA,NA,[0 1],250,234,NA,10.48978476824527,9.095668499940077,NA,250,234,NA,10.48978476824527,9.095668499940077,NA,j,NA,k,2,234,9.095668499940077,0,0.9585843086242676,10.4897847682453,9.09566849994008,NA
11,1,left,attraction,binary,l-s,easy,[0 1],206,250,NA,6.5,10.5,NA,206,250,NA,6.5,10.5,NA,j,NA,j,1,206,6.5,1,0.5849313735961914,10.5,6.5,l
11,1,left,filler,trinary,NA,NA,[1 2 0],235,401,165.0,9.232958076801571,20.14122284366749,2.0,401,165,235,20.14122284366749,2,9.232958076801571,l,NA,k,2,165,2,0,1.8831429481506348,2.0,9.23295807680157,NA
11,1,left,attraction,trinary,l-s-ds,easy,[1 2 0],187,227,169.0,4.5,8.5,2.5,227,169,187,8.5,2.5,4.5,j,NA,j,1,227,8.5,1,1.175048828125,2.5,8.5,l
11,1,left,attraction,binary,l-s,difficult,[0 1],196,227,NA,5.5,8.5,NA,196,227,NA,5.5,8.5,NA,k,NA,j,1,196,5.5,0,0.6377160549163818,5.5,8.5,s
11,1,left,attraction,binary,l-s,equal_1_jnd,[0 1],206,227,NA,6.5,8.5,NA,206,227,NA,6.5,8.5,NA,j,k,j,1,206,6.5,1,0.8057875633239746,6.5,8.5,s
11,1,left,attraction,binary,l-s,easy,[0 1],206,250,NA,6.5,10.5,NA,206,250,NA,6.5,10.5,NA,j,NA,j,1,206,6.5,1,0.572810173034668,10.5,6.5,l
11,1,left,attraction,binary,l-s,easy,[1 0],187,227,NA,4.5,8.5,NA,227,187,NA,8.5,4.5,NA,j,NA,j,1,227,8.5,1,2.1850342750549316,4.5,8.5,l
11,1,left,attraction,binary,l-s,easy,[1 0],187,227,NA,4.5,8.5,NA,227,187,NA,8.5,4.5,NA,j,NA,j,1,227,8.5,1,1.1194250583648682,4.5,8.5,l
11,1,left,attraction,binary,l-s,difficult,[0 1],206,238,NA,6.5,9.5,NA,206,238,NA,6.5,9.5,NA,j,NA,k,2,238,9.5,0,0.9868636131286621,6.5,9.5,l
11,1,left,attraction,binary,l-s,easy,[1 0],206,250,NA,6.5,10.5,NA,250,206,NA,10.5,6.5,NA,k,NA,j,1,250,10.5,0,0.7700142860412598,10.5,6.5,s
11,1,left,attraction,binary,l-s,easy,[0 1],206,250,NA,6.5,10.5,NA,206,250,NA,6.5,10.5,NA,j,NA,j,1,206,6.5,1,0.6502540111541748,10.5,6.5,l
11,1,left,filler,binary,NA,NA,[0 1],193,171,NA,5.158381653481423,2.6258213486289605,NA,193,171,NA,5.158381653481423,2.6258213486289605,NA,j,NA,k,2,171,2.6258213486289605,0,0.6303756237030029,2.62582134862896,5.15838165348142,NA
11,1,left,attraction,trinary,l-s-ds,easy,[2 1 0],206,250,187.0,6.5,10.5,4.5,187,250,206,4.5,10.5,6.5,l,NA,j,1,187,4.5,0,1.5140347480773926,10.5,6.5,s
11,1,left,filler,binary,NA,NA,[0 1],223,201,NA,8.0952781966490015,6.012441776110791,NA,223,201,NA,8.0952781966490015,6.012441776110791,NA,j,NA,k,2,201,6.012441776110791,0,0.8092365264892578,6.01244177611079,8.095278196649,NA
11,1,left,attraction,trinary,l-s-ds,difficult,[1 0 2],196,227,178.0,5.5,8.5,3.5,227,196,178,8.5,5.5,3.5,j,NA,k,2,196,5.5,0,0.74263596534729,3.5,8.5,s
11,1,left,attraction,binary,l-s,equal_1_jnd,[1 0],206,227,NA,6.5,8.5,NA,227,206,NA,8.5,6.5,NA,j,k,j,1,227,8.5,1,0.8951845169067383,6.5,8.5,l
11,1,left,attraction,trinary,l-s-dl,equal_1_jnd,[1 2 0],206,227,250.0,6.5,8.5,10.5,227,250,206,8.5,10.5,6.5,l,j,j,1,227,8.5,1,0.9222033023834229,10.5,8.5,dl
11,1,left,attraction,binary,l-s,equal_2_jnd,[1 0],196,238,NA,5.5,9.5,NA,238,196,NA,9.5,5.5,NA,j,k,j,1,238,9.5,1,3.6855692863464355,5.5,9.5,l
11,1,left,filler,trinary,NA,NA,[1 0 2],267,312,418.0,11.83609528635886,15.020702904439531,21.0,312,267,418,15.020702904439531,11.83609528635886,21,k,NA,k,2,267,11.83609528635886,1,0.9757351875305176,11.8360952863589,21.0,NA
11,1,left,attraction,trinary,l-s-ds,equal_1_jnd,[0 2 1],206,227,187.0,6.5,8.5,4.5,206,187,227,6.5,4.5,8.5,j,l,j,1,206,6.5,1,1.500962257385254,4.5,8.5,s
11,1,left,attraction,binary,l-s,easy,[0 1],206,250,NA,6.5,10.5,NA,206,250,NA,6.5,10.5,NA,j,NA,j,1,206,6.5,1,0.8431274890899658,10.5,6.5,l
11,1,left,attraction,trinary,l-s-ds,difficult,[0 2 1],196,227,178.0,5.5,8.5,3.5,196,178,227,5.5,3.5,8.5,l,NA,j,1,196,5.5,0,1.4944570064544678,3.5,8.5,s
11,1,left,attraction,binary,l-s,difficult,[0 1],196,227,NA,5.5,8.5,NA,196,227,NA,5.5,8.5,NA,k,NA,j,1,196,5.5,0,0.8630795478820801,5.5,8.5,s
11,1,left,attraction,trinary,l-s-ds,easy,[0 2 1],206,250,187.0,6.5,10.5,4.5,206,187,250,6.5,4.5,10.5,j,NA,k,2,187,4.5,0,0.8192334175109863,10.5,6.5,s
11,1,left,filler,binary,NA,NA,[1 0],229,392,NA,8.679210194719555,19.694879207527265,NA,392,229,NA,19.694879207527265,8.679210194719555,NA,k,NA,k,2,229,8.679210194719555,1,0.6878266334533691,19.6948792075273,8.67921019471956,NA
11,1,left,attraction,binary,l-s,easy,[1 0],187,227,NA,4.5,8.5,NA,227,187,NA,8.5,4.5,NA,j,NA,j,1,227,8.5,1,0.9661633968353271,4.5,8.5,l
11,1,left,filler,trinary,NA,NA,[0 1 2],207,448,269.0,6.595305104835687,22.443864309461787,12.0,207,448,269,6.595305104835687,22.443864309461787,12,j,NA,j,1,207,6.595305104835687,1,1.0984971523284912,12.0,6.59530510483569,NA
11,1,left,attraction,trinary,l-s-dl,easy,[0 1 2],187,227,250.0,4.5,8.5,10.5,187,227,250,4.5,8.5,10.5,k,NA,k,2,227,8.5,1,0.9474561214447021,10.5,8.5,dl
11,1,left,attraction,trinary,l-s-ds,difficult,[1 0 2],206,238,187.0,6.5,9.5,4.5,238,206,187,9.5,6.5,4.5,k,NA,k,2,206,6.5,1,1.1615445613861084,4.5,9.5,s
11,1,left,attraction,binary,l-s,equal_1_jnd,[1 0],206,227,NA,6.5,8.5,NA,227,206,NA,8.5,6.5,NA,j,k,k,2,206,6.5,1,0.9590399265289307,6.5,8.5,s
11,1,left,attraction,trinary,l-s-ds,equal_2_jnd,[1 0 2],196,238,178.0,5.5,9.5,3.5,238,196,178,9.5,5.5,3.5,k,j,k,2,196,5.5,1,0.5661327838897705,3.5,9.5,s
11,1,left,attraction,binary,l-s,equal_2_jnd,[1 0],196,238,NA,5.5,9.5,NA,238,196,NA,9.5,5.5,NA,j,k,j,1,238,9.5,1,1.4678165912628174,5.5,9.5,l
11,1,left,attraction,binary,l-s,easy,[1 0],187,227,NA,4.5,8.5,NA,227,187,NA,8.5,4.5,NA,j,NA,j,1,227,8.5,1,0.8639554977416992,4.5,8.5,l
11,1,left,filler,trinary,NA,NA,[0 2 1],226,185,211.0,8.417162566676303,4.285864474950358,7.0,226,211,185,8.417162566676303,7,4.285864474950358,j,NA,k,2,211,7,0,0.9356751441955566,4.28586447495036,8.4171625666763,NA
11,1,left,filler,trinary,NA,NA,[2 0 1],202,154,379.0,6.060867203340779,0.4888625058811158,19.0,379,202,154,19,6.060867203340779,0.4888625058811158,k,NA,k,2,202,6.060867203340779,1,1.4724845886230469,0.488862505881116,6.06086720334078,NA
11,1,left,attraction,trinary,l-s-dl,equal_1_jnd,[1 0 2],206,227,250.0,6.5,8.5,10.5,227,206,250,8.5,6.5,10.5,k,j,k,2,206,6.5,1,0.9939224720001221,10.5,8.5,l
11,1,left,filler,trinary,NA,NA,[0 1 2],229,271,182.0,8.704308774276392,12.122597752022555,4.0,229,271,182,8.704308774276392,12.122597752022555,4,j,NA,j,1,229,8.704308774276392,1,1.1852312088012695,12.1225977520226,8.70430877427639,NA
11,1,left,filler,binary,NA,NA,[0 1],226,237,NA,8.428297551202068,9.388482722570188,NA,226,237,NA,8.428297551202068,9.388482722570188,NA,j,NA,j,1,226,8.428297551202068,1,1.4370462894439697,8.42829755120207,9.38848272257019,NA
11,1,left,filler,trinary,NA,NA,[0 2 1],245,169,257.0,10.062996056050542,2.4959196138661355,11.0,245,257,169,10.062996056050542,11,2.4959196138661355,j,NA,j,1,245,10.062996056050542,1,1.9498164653778076,10.0629960560505,2.49591961386614,NA
11,1,left,attraction,binary,l-s,equal_2_jnd,[1 0],196,238,NA,5.5,9.5,NA,238,196,NA,9.5,5.5,NA,j,k,j,1,238,9.5,1,2.804114580154419,5.5,9.5,l
11,1,left,filler,binary,NA,NA,[0 1],203,284,NA,6.215048890455943,13.076051014359107,NA,203,284,NA,6.215048890455943,13.076051014359107,NA,j,NA,j,1,203,6.215048890455943,1,0.6889002323150635,13.0760510143591,6.21504889045594,NA
11,1,left,attraction,trinary,l-s-dl,difficult,[0 1 2],196,227,250.0,5.5,8.5,10.5,196,227,250,5.5,8.5,10.5,k,NA,k,2,227,8.5,1,2.223763942718506,10.5,8.5,dl
11,1,left,attraction,binary,l-s,difficult,[1 0],196,227,NA,5.5,8.5,NA,227,196,NA,8.5,5.5,NA,j,NA,j,1,227,8.5,1,1.0899136066436768,5.5,8.5,l
11,1,left,attraction,trinary,l-s-ds,easy,[1 2 0],206,250,187.0,6.5,10.5,4.5,250,187,206,10.5,4.5,6.5,l,NA,k,2,187,4.5,0,1.6798880100250244,10.5,6.5,s
11,1,left,attraction,trinary,l-s-dl,easy,[1 2 0],187,227,250.0,4.5,8.5,10.5,227,250,187,8.5,10.5,4.5,j,NA,j,1,227,8.5,1,0.9306192398071289,10.5,8.5,dl
11,1,left,attraction,trinary,l-s-ds,equal_1_jnd,[1 2 0],206,227,187.0,6.5,8.5,4.5,227,187,206,8.5,4.5,6.5,l,j,k,2,187,4.5,0,3.698928117752075,4.5,8.5,ds
11,1,left,attraction,trinary,l-s-ds,difficult,[0 1 2],206,238,187.0,6.5,9.5,4.5,206,238,187,6.5,9.5,4.5,j,NA,j,1,206,6.5,1,0.7154467105865479,4.5,9.5,s
11,1,left,attraction,trinary,l-s-dl,difficult,[0 1 2],206,238,263.0,6.5,9.5,11.5,206,238,263,6.5,9.5,11.5,j,NA,j,1,206,6.5,1,0.5727035999298096,11.5,9.5,l
11,1,left,attraction,trinary,l-s-dl,difficult,[0 1 2],206,238,263.0,6.5,9.5,11.5,206,238,263,6.5,9.5,11.5,j,NA,j,1,206,6.5,1,0.9819808006286621,11.5,9.5,l
11,1,left,attraction,binary,l-s,easy,[1 0],206,250,NA,6.5,10.5,NA,250,206,NA,10.5,6.5,NA,k,NA,k,2,206,6.5,1,0.6231381893157959,10.5,6.5,l
11,1,left,attraction,trinary,l-s-ds,difficult,[2 0 1],206,238,187.0,6.5,9.5,4.5,187,206,238,4.5,6.5,9.5,k,NA,j,1,187,4.5,0,0.918438196182251,4.5,9.5,ds
11,1,left,attraction,trinary,l-s-dl,easy,[1 2 0],206,250,276.0,6.5,10.5,12.5,250,276,206,10.5,12.5,6.5,l,NA,j,1,250,10.5,0,2.8422579765319824,10.5,6.5,s
11,1,left,attraction,trinary,l-s-ds,difficult,[2 1 0],196,227,178.0,5.5,8.5,3.5,178,227,196,3.5,8.5,5.5,k,NA,k,2,227,8.5,1,1.1650640964508057,3.5,8.5,l
11,1,left,attraction,trinary,l-s-ds,easy,[0 2 1],187,227,169.0,4.5,8.5,2.5,187,169,227,4.5,2.5,8.5,l,NA,j,1,187,4.5,0,1.2407221794128418,2.5,8.5,s
11,1,left,attraction,binary,l-s,equal_1_jnd,[0 1],206,227,NA,6.5,8.5,NA,206,227,NA,6.5,8.5,NA,j,k,j,1,206,6.5,1,1.7638952732086182,6.5,8.5,s
11,1,left,filler,binary,NA,NA,[0 1],207,246,NA,6.557605040797651,10.114881485933438,NA,207,246,NA,6.557605040797651,10.114881485933438,NA,j,NA,j,1,207,6.557605040797651,1,0.9622447490692139,10.1148814859334,6.55760504079765,NA
11,1,left,attraction,binary,l-s,equal_2_jnd,[0 1],196,238,NA,5.5,9.5,NA,196,238,NA,5.5,9.5,NA,j,k,j,1,196,5.5,1,2.784538984298706,5.5,9.5,s
11,1,left,attraction,binary,l-s,easy,[0 1],187,227,NA,4.5,8.5,NA,187,227,NA,4.5,8.5,NA,k,NA,j,1,187,4.5,0,0.6869306564331055,4.5,8.5,s
11,1,left,filler,trinary,NA,NA,[1 2 0],178,344,361.0,3.5095864416604416,17.02235630946234,18.0,344,361,178,17.02235630946234,18,3.5095864416604416,l,NA,j,1,344,17.02235630946234,0,2.0792038440704346,17.0223563094623,3.50958644166044,NA
11,1,left,attraction,binary,l-s,equal_1_jnd,[0 1],206,227,NA,6.5,8.5,NA,206,227,NA,6.5,8.5,NA,j,k,j,1,206,6.5,1,1.4862701892852783,6.5,8.5,s
11,1,left,filler,trinary,NA,NA,[1 0 2],226,200,191.0,8.390217947418758,5.942907377611846,5.0,200,226,191,5.942907377611846,8.390217947418758,5,k,NA,k,2,226,8.390217947418758,1,0.7474911212921143,5.0,8.39021794741876,NA
11,1,left,attraction,binary,l-s,difficult,[0 1],196,227,NA,5.5,8.5,NA,196,227,NA,5.5,8.5,NA,k,NA,j,1,196,5.5,0,0.5996737480163574,5.5,8.5,s
11,1,left,filler,binary,NA,NA,[0 1],218,192,NA,7.6608377207393055,5.025345634203404,NA,218,192,NA,7.6608377207393055,5.025345634203404,NA,j,NA,j,1,218,7.6608377207393055,1,0.946997880935669,5.0253456342034,7.66083772073931,NA
11,1,left,attraction,binary,l-s,equal_1_jnd,[0 1],206,227,NA,6.5,8.5,NA,206,227,NA,6.5,8.5,NA,j,k,k,2,227,8.5,1,1.38307523727417,6.5,8.5,l
11,1,left,attraction,binary,l-s,difficult,[0 1],206,238,NA,6.5,9.5,NA,206,238,NA,6.5,9.5,NA,j,NA,j,1,206,6.5,1,1.484205722808838,6.5,9.5,s
11,1,left,attraction,trinary,l-s-ds,equal_2_jnd,[0 1 2],196,238,178.0,5.5,9.5,3.5,196,238,178,5.5,9.5,3.5,j,k,j,1,196,5.5,1,1.3240149021148682,3.5,9.5,s
11,1,left,attraction,trinary,l-s-dl,easy,[0 2 1],206,250,276.0,6.5,10.5,12.5,206,276,250,6.5,12.5,10.5,j,NA,j,1,206,6.5,1,1.8681323528289795,10.5,6.5,dl
11,1,left,attraction,trinary,l-s-dl,equal_2_jnd,[1 0 2],196,238,263.0,5.5,9.5,11.5,238,196,263,9.5,5.5,11.5,k,j,k,2,196,5.5,1,2.638120651245117,11.5,9.5,l
11,1,left,attraction,trinary,l-s-dl,equal_2_jnd,[0 1 2],196,238,263.0,5.5,9.5,11.5,196,238,263,5.5,9.5,11.5,j,k,j,1,196,5.5,1,0.9614195823669434,11.5,9.5,l
11,1,left,filler,binary,NA,NA,[0 1],200,219,NA,5.942925932172275,7.763479906716384,NA,200,219,NA,5.942925932172275,7.763479906716384,NA,j,NA,k,2,219,7.763479906716384,0,0.9821479320526123,5.94292593217228,7.76347990671638,NA
11,1,left,attraction,binary,l-s,easy,[1 0],206,250,NA,6.5,10.5,NA,250,206,NA,10.5,6.5,NA,k,NA,j,1,250,10.5,0,0.8326959609985352,10.5,6.5,s
11,1,left,attraction,trinary,l-s-ds,easy,[2 1 0],187,227,169.0,4.5,8.5,2.5,169,227,187,2.5,8.5,4.5,k,NA,j,1,169,2.5,0,0.9065184593200684,2.5,8.5,ds
11,1,left,filler,trinary,NA,NA,[2 0 1],202,154,379.0,6.060867203340779,0.4888625058811158,19.0,379,202,154,19,6.060867203340779,0.4888625058811158,k,NA,k,2,202,6.060867203340779,1,0.9764013290405273,0.488862505881116,6.06086720334078,NA
11,1,left,attraction,binary,l-s,equal_1_jnd,[1 0],206,227,NA,6.5,8.5,NA,227,206,NA,8.5,6.5,NA,j,k,k,2,206,6.5,1,0.981203556060791,6.5,8.5,s
11,1,left,attraction,trinary,l-s-dl,equal_1_jnd,[1 2 0],206,227,250.0,6.5,8.5,10.5,227,250,206,8.5,10.5,6.5,l,j,j,1,227,8.5,1,0.8532166481018066,10.5,8.5,dl
11,1,left,attraction,binary,l-s,difficult,[1 0],196,227,NA,5.5,8.5,NA,227,196,NA,8.5,5.5,NA,j,NA,k,2,196,5.5,0,1.852942705154419,5.5,8.5,s
11,1,left,attraction,binary,l-s,easy,[0 1],206,250,NA,6.5,10.5,NA,206,250,NA,6.5,10.5,NA,j,NA,j,1,206,6.5,1,1.0112552642822266,10.5,6.5,l
11,1,left,attraction,binary,l-s,easy,[1 0],187,227,NA,4.5,8.5,NA,227,187,NA,8.5,4.5,NA,j,NA,j,1,227,8.5,1,1.5243141651153564,4.5,8.5,l
11,1,left,attraction,binary,l-s,difficult,[1 0],196,227,NA,5.5,8.5,NA,227,196,NA,8.5,5.5,NA,j,NA,j,1,227,8.5,1,1.1501810550689697,5.5,8.5,l
11,1,left,attraction,trinary,l-s-dl,difficult,[0 1 2],206,238,263.0,6.5,9.5,11.5,206,238,263,6.5,9.5,11.5,j,NA,j,1,206,6.5,1,1.2638788223266602,11.5,9.5,l
11,1,left,attraction,binary,l-s,difficult,[1 0],206,238,NA,6.5,9.5,NA,238,206,NA,9.5,6.5,NA,k,NA,j,1,238,9.5,0,2.445727825164795,6.5,9.5,l
11,1,left,attraction,binary,l-s,equal_2_jnd,[1 0],196,238,NA,5.5,9.5,NA,238,196,NA,9.5,5.5,NA,j,k,k,2,196,5.5,1,1.406745433807373,5.5,9.5,s
11,1,left,attraction,binary,l-s,equal_1_jnd,[1 0],206,227,NA,6.5,8.5,NA,227,206,NA,8.5,6.5,NA,j,k,k,2,206,6.5,1,0.6043186187744141,6.5,8.5,s
11,1,left,attraction,trinary,l-s-dl,easy,[2 1 0],206,250,276.0,6.5,10.5,12.5,276,250,206,12.5,10.5,6.5,l,NA,k,2,250,10.5,0,1.2229108810424805,10.5,6.5,s
11,1,left,attraction,trinary,l-s-ds,equal_2_jnd,[0 2 1],196,238,178.0,5.5,9.5,3.5,196,178,238,5.5,3.5,9.5,j,l,j,1,196,5.5,1,1.0194299221038818,3.5,9.5,s
11,1,left,filler,trinary,NA,NA,[1 0 2],229,271,182.0,8.704308774276392,12.122597752022555,4.0,271,229,182,12.122597752022555,8.704308774276392,4,k,NA,k,2,229,8.704308774276392,1,0.6262030601501465,12.1225977520226,8.70430877427639,NA
11,1,left,attraction,binary,l-s,easy,[1 0],187,227,NA,4.5,8.5,NA,227,187,NA,8.5,4.5,NA,j,NA,j,1,227,8.5,1,0.97692108154296875,4.5,8.5,l
11,1,left,filler,binary,NA,NA,[1 0],223,201,NA,8.0952781966490015,6.012441776110791,NA,201,223,NA,6.012441776110791,8.0952781966490015,NA,k,NA,j,1,201,6.012441776110791,0,1.0529472827911377,6.01244177611079,8.095278196649,NA
11,1,left,filler,binary,NA,NA,[1 0],215,204,NA,7.365965688412891,6.259801906999201,NA,204,215,NA,6.259801906999201,7.365965688412891,NA,k,NA,k,2,215,7.365965688412891,1,0.5960476398468018,6.2598019069992,7.36596568841289,NA
11,1,left,filler,binary,NA,NA,[0 1],236,301,NA,9.26668875599818,14.257775298901834,NA,236,301,NA,9.26668875599818,14.257775298901834,NA,j,NA,j,1,236,9.26668875599818,1,0.5834255218505859,14.2577752989018,9.26668875599818,NA
11,1,left,attraction,binary,l-s,easy,[0 1],206,250,NA,6.5,10.5,NA,206,250,NA,6.5,10.5,NA,j,NA,j,1,206,6.5,1,0.6251828670501709,10.5,6.5,l
11,1,left,attraction,binary,l-s,easy,[1 0],187,227,NA,4.5,8.5,NA,227,187,NA,8.5,4.5,NA,j,NA,j,1,227,8.5,1,0.9101827144622803,4.5,8.5,l
11,1,left,attraction,trinary,l-s-dl,difficult,[2 1 0],196,227,250.0,5.5,8.5,10.5,250,227,196,10.5,8.5,5.5,k,NA,k,2,227,8.5,1,0.9280197620391846,10.5,8.5,dl
11,1,left,attraction,trinary,l-s-ds,easy,[2 1 0],187,227,169.0,4.5,8.5,2.5,169,227,187,2.5,8.5,4.5,k,NA,k,2,227,8.5,1,1.3224678039550781,2.5,8.5,l
11,1,left,attraction,trinary,l-s-ds,equal_1_jnd,[2 1 0],206,227,187.0,6.5,8.5,4.5,187,227,206,4.5,8.5,6.5,l,k,k,2,227,8.5,1,0.7936577796936035,4.5,8.5,l
11,1,left,attraction,binary,l-s,equal_2_jnd,[1 0],196,238,NA,5.5,9.5,NA,238,196,NA,9.5,5.5,NA,j,k,j,1,238,9.5,1,0.9803466796875,5.5,9.5,l
11,1,left,attraction,trinary,l-s-dl,easy,[2 0 1],206,250,276.0,6.5,10.5,12.5,276,206,250,12.5,6.5,10.5,k,NA,k,2,206,6.5,1,1.4841539859771729,10.5,6.5,dl
11,1,left,filler,trinary,NA,NA,[2 1 0],193,272,361.0,5.147313637584615,12.21474049554672,18.0,361,272,193,18,12.21474049554672,5.147313637584615,l,NA,k,2,272,12.21474049554672,0,1.6777114868164062,12.2147404955467,5.14731363758461,NA
11,1,left,attraction,trinary,l-s-ds,difficult,[1 0 2],206,238,187.0,6.5,9.5,4.5,238,206,187,9.5,6.5,4.5,k,NA,j,1,238,9.5,0,1.9734272956848145,4.5,9.5,l
11,1,left,attraction,trinary,l-s-ds,difficult,[1 2 0],196,227,178.0,5.5,8.5,3.5,227,178,196,8.5,3.5,5.5,j,NA,j,1,227,8.5,1,1.284499168395996,3.5,8.5,l
11,1,left,filler,binary,NA,NA,[0 1],203,284,NA,6.215048890455943,13.076051014359107,NA,203,284,NA,6.215048890455943,13.076051014359107,NA,j,NA,j,1,203,6.215048890455943,1,1.6685214042663574,13.0760510143591,6.21504889045594,NA
11,1,left,attraction,binary,l-s,equal_1_jnd,[0 1],206,227,NA,6.5,8.5,NA,206,227,NA,6.5,8.5,NA,j,k,j,1,206,6.5,1,0.6609396934509277,6.5,8.5,s
11,1,left,attraction,binary,l-s,difficult,[1 0],196,227,NA,5.5,8.5,NA,227,196,NA,8.5,5.5,NA,j,NA,j,1,227,8.5,1,0.9863801002502441,5.5,8.5,l
11,1,left,attraction,binary,l-s,equal_2_jnd,[0 1],196,238,NA,5.5,9.5,NA,196,238,NA,5.5,9.5,NA,j,k,k,2,238,9.5,1,0.8066725730895996,5.5,9.5,l
11,1,left,filler,trinary,NA,NA,[2 1 0],226,185,211.0,8.417162566676303,4.285864474950358,7.0,211,185,226,7,4.285864474950358,8.417162566676303,l,NA,j,1,211,7,0,1.4330382347106934,4.28586447495036,8.4171625666763,NA
11,1,left,attraction,binary,l-s,equal_2_jnd,[1 0],196,238,NA,5.5,9.5,NA,238,196,NA,9.5,5.5,NA,j,k,j,1,238,9.5,1,0.7509799003601074,5.5,9.5,l
11,1,left,attraction,binary,l-s,easy,[0 1],206,250,NA,6.5,10.5,NA,206,250,NA,6.5,10.5,NA,j,NA,k,2,250,10.5,0,0.7307231426239014,10.5,6.5,s
11,1,left,attraction,trinary,l-s-dl,difficult,[0 1 2],196,227,250.0,5.5,8.5,10.5,196,227,250,5.5,8.5,10.5,k,NA,j,1,196,5.5,0,0.911628007888794,10.5,8.5,l
11,1,left,attraction,trinary,l-s-ds,equal_1_jnd,[2 1 0],206,227,187.0,6.5,8.5,4.5,187,227,206,4.5,8.5,6.5,l,k,j,1,187,4.5,0,1.527918815612793,4.5,8.5,ds
11,1,left,attraction,binary,l-s,difficult,[0 1],196,227,NA,5.5,8.5,NA,196,227,NA,5.5,8.5,NA,k,NA,k,2,227,8.5,1,0.6901111602783203,5.5,8.5,l
11,1,left,attraction,binary,l-s,easy,[0 1],187,227,NA,4.5,8.5,NA,187,227,NA,4.5,8.5,NA,k,NA,k,2,227,8.5,1,0.6216011047363281,4.5,8.5,l
11,1,left,attraction,trinary,l-s-ds,easy,[2 0 1],206,250,187.0,6.5,10.5,4.5,187,206,250,4.5,6.5,10.5,k,NA,k,2,206,6.5,1,1.0170493125915527,10.5,6.5,l
11,1,left,filler,trinary,NA,NA,[0 1 2],207,448,269.0,6.595305104835687,22.443864309461787,12.0,207,448,269,6.595305104835687,22.443864309461787,12,j,NA,j,1,207,6.595305104835687,1,1.6496665477752686,12.0,6.59530510483569,NA
11,1,left,attraction,binary,l-s,difficult,[0 1],206,238,NA,6.5,9.5,NA,206,238,NA,6.5,9.5,NA,j,NA,j,1,206,6.5,1,1.427757978439331,6.5,9.5,s
11,1,left,attraction,binary,l-s,difficult,[1 0],206,238,NA,6.5,9.5,NA,238,206,NA,9.5,6.5,NA,k,NA,j,1,238,9.5,0,0.67333221435546875,6.5,9.5,l
11,1,left,attraction,trinary,l-s-ds,equal_2_jnd,[1 2 0],196,238,178.0,5.5,9.5,3.5,238,178,196,9.5,3.5,5.5,l,j,k,2,178,3.5,0,0.7308106422424316,3.5,9.5,ds
11,1,left,attraction,binary,l-s,difficult,[0 1],206,238,NA,6.5,9.5,NA,206,238,NA,6.5,9.5,NA,j,NA,j,1,206,6.5,1,0.6773152351379395,6.5,9.5,s
11,1,left,attraction,binary,l-s,easy,[1 0],206,250,NA,6.5,10.5,NA,250,206,NA,10.5,6.5,NA,k,NA,j,1,250,10.5,0,0.8999123573303223,10.5,6.5,s
11,1,left,attraction,binary,l-s,difficult,[1 0],196,227,NA,5.5,8.5,NA,227,196,NA,8.5,5.5,NA,j,NA,k,2,196,5.5,0,0.8456521034240723,5.5,8.5,s
11,1,left,filler,binary,NA,NA,[1 0],207,246,NA,6.557605040797651,10.114881485933438,NA,246,207,NA,10.114881485933438,6.557605040797651,NA,k,NA,j,1,246,10.114881485933438,0,0.6802678108215332,10.1148814859334,6.55760504079765,NA
11,1,left,attraction,trinary,l-s-dl,difficult,[2 1 0],196,227,250.0,5.5,8.5,10.5,250,227,196,10.5,8.5,5.5,k,NA,k,2,227,8.5,1,0.8764193058013916,10.5,8.5,dl
11,1,left,filler,binary,NA,NA,[0 1],218,192,NA,7.6608377207393055,5.025345634203404,NA,218,192,NA,7.6608377207393055,5.025345634203404,NA,j,NA,j,1,218,7.6608377207393055,1,1.026676893234253,5.0253456342034,7.66083772073931,NA
11,1,left,filler,trinary,NA,NA,[1 2 0],217,331,158.0,7.611942909958636,16.24591615400277,1.0,331,158,217,16.24591615400277,1,7.611942909958636,l,NA,k,2,158,1,0,1.7572100162506104,1.0,7.61194290995864,NA
11,1,left,filler,binary,NA,NA,[1 0],226,237,NA,8.428297551202068,9.388482722570188,NA,237,226,NA,9.388482722570188,8.428297551202068,NA,k,NA,j,1,237,9.388482722570188,0,0.9364283084869385,8.42829755120207,9.38848272257019,NA
11,1,left,attraction,trinary,l-s-ds,equal_1_jnd,[2 0 1],206,227,187.0,6.5,8.5,4.5,187,206,227,4.5,6.5,8.5,k,l,k,2,206,6.5,1,1.5614213943481445,4.5,8.5,s
11,1,left,filler,binary,NA,NA,[0 1],250,234,NA,10.48978476824527,9.095668499940077,NA,250,234,NA,10.48978476824527,9.095668499940077,NA,j,NA,j,1,250,10.48978476824527,1,1.1772046089172363,10.4897847682453,9.09566849994008,NA
11,1,left,attraction,binary,l-s,easy,[0 1],187,227,NA,4.5,8.5,NA,187,227,NA,4.5,8.5,NA,k,NA,k,2,227,8.5,1,1.0363616943359375,4.5,8.5,l
11,1,left,attraction,binary,l-s,equal_1_jnd,[1 0],206,227,NA,6.5,8.5,NA,227,206,NA,8.5,6.5,NA,j,k,k,2,206,6.5,1,0.7986972332000732,6.5,8.5,s
11,1,left,attraction,trinary,l-s-ds,difficult,[1 0 2],196,227,178.0,5.5,8.5,3.5,227,196,178,8.5,5.5,3.5,j,NA,k,2,196,5.5,0,1.8757646083831787,3.5,8.5,s
11,1,left,attraction,trinary,l-s-dl,difficult,[0 1 2],206,238,263.0,6.5,9.5,11.5,206,238,263,6.5,9.5,11.5,j,NA,k,2,238,9.5,0,0.8739838600158691,11.5,9.5,dl
11,1,left,filler,binary,NA,NA,[0 1],193,171,NA,5.158381653481423,2.6258213486289605,NA,193,171,NA,5.158381653481423,2.6258213486289605,NA,j,NA,j,1,193,5.158381653481423,1,0.7565960884094238,2.62582134862896,5.15838165348142,NA
11,1,left,attraction,trinary,l-s-ds,difficult,[2 0 1],206,238,187.0,6.5,9.5,4.5,187,206,238,4.5,6.5,9.5,k,NA,k,2,206,6.5,1,0.683509349822998,4.5,9.5,s
11,1,left,attraction,binary,l-s,difficult,[0 1],196,227,NA,5.5,8.5,NA,196,227,NA,5.5,8.5,NA,k,NA,k,2,227,8.5,1,1.5413432121276855,5.5,8.5,l
11,1,left,attraction,binary,l-s,equal_1_jnd,[0 1],206,227,NA,6.5,8.5,NA,206,227,NA,6.5,8.5,NA,j,k,k,2,227,8.5,1,0.6933820247650146,6.5,8.5,l
11,1,left,filler,trinary,NA,NA,[2 1 0],232,289,327.0,8.922850561937025,13.434216311434284,16.0,327,289,232,16,13.434216311434284,8.922850561937025,l,NA,k,2,289,13.434216311434284,0,1.4459521770477295,13.4342163114343,8.92285056193703,NA
11,1,left,attraction,binary,l-s,easy,[0 1],187,227,NA,4.5,8.5,NA,187,227,NA,4.5,8.5,NA,k,NA,j,1,187,4.5,0,0.6125211715698242,4.5,8.5,s
11,1,left,filler,trinary,NA,NA,[2 0 1],235,401,165.0,9.232958076801571,20.14122284366749,2.0,165,235,401,2,9.232958076801571,20.14122284366749,k,NA,k,2,235,9.232958076801571,1,0.7417545318603516,2.0,9.23295807680157,NA
11,1,left,attraction,trinary,l-s-dl,easy,[1 2 0],206,250,276.0,6.5,10.5,12.5,250,276,206,10.5,12.5,6.5,l,NA,j,1,250,10.5,0,0.9741253852844238,10.5,6.5,s
11,1,left,attraction,trinary,l-s-ds,easy,[2 1 0],187,227,169.0,4.5,8.5,2.5,169,227,187,2.5,8.5,4.5,k,NA,j,1,169,2.5,0,0.7435314655303955,2.5,8.5,ds
11,1,left,attraction,trinary,l-s-dl,equal_2_jnd,[1 0 2],196,238,263.0,5.5,9.5,11.5,238,196,263,9.5,5.5,11.5,k,j,j,1,238,9.5,1,1.3536369800567627,11.5,9.5,dl
11,1,left,filler,trinary,NA,NA,[2 0 1],178,344,361.0,3.5095864416604416,17.02235630946234,18.0,361,178,344,18,3.5095864416604416,17.02235630946234,k,NA,k,2,178,3.5095864416604416,1,0.668177604675293,17.0223563094623,3.50958644166044,NA
11,1,left,attraction,trinary,l-s-dl,easy,[2 0 1],187,227,250.0,4.5,8.5,10.5,250,187,227,10.5,4.5,8.5,l,NA,k,2,187,4.5,0,1.3074827194213867,10.5,8.5,l
11,1,left,attraction,binary,l-s,equal_2_jnd,[1 0],196,238,NA,5.5,9.5,NA,238,196,NA,9.5,5.5,NA,j,k,j,1,238,9.5,1,0.9067473411560059,5.5,9.5,l
11,1,left,attraction,binary,l-s,equal_1_jnd,[1 0],206,227,NA,6.5,8.5,NA,227,206,NA,8.5,6.5,NA,j,k,j,1,227,8.5,1,1.0535645484924316,6.5,8.5,l
11,1,left,attraction,trinary,l-s-ds,easy,[2 0 1],206,250,187.0,6.5,10.5,4.5,187,206,250,4.5,6.5,10.5,k,NA,k,2,206,6.5,1,0.7373065948486328,10.5,6.5,l
11,1,left,attraction,trinary,l-s-dl,equal_1_jnd,[2 1 0],206,227,250.0,6.5,8.5,10.5,250,227,206,10.5,8.5,6.5,l,k,k,2,227,8.5,1,1.2628297805786133,10.5,8.5,dl
11,1,left,filler,binary,NA,NA,[0 1],229,392,NA,8.679210194719555,19.694879207527265,NA,229,392,NA,8.679210194719555,19.694879207527265,NA,j,NA,j,1,229,8.679210194719555,1,1.057896614074707,19.6948792075273,8.67921019471956,NA
11,1,left,filler,trinary,NA,NA,[1 0 2],226,200,191.0,8.390217947418758,5.942907377611846,5.0,200,226,191,5.942907377611846,8.390217947418758,5,k,NA,k,2,226,8.390217947418758,1,1.1844654083251953,5.0,8.39021794741876,NA
11,1,left,attraction,trinary,l-s-ds,difficult,[1 2 0],206,238,187.0,6.5,9.5,4.5,238,187,206,9.5,4.5,6.5,l,NA,j,1,238,9.5,0,1.4805352687835693,4.5,9.5,l
11,1,left,attraction,binary,l-s,equal_2_jnd,[0 1],196,238,NA,5.5,9.5,NA,196,238,NA,5.5,9.5,NA,j,k,k,2,238,9.5,1,0.8551735877990723,5.5,9.5,l
11,1,left,attraction,binary,l-s,difficult,[0 1],206,238,NA,6.5,9.5,NA,206,238,NA,6.5,9.5,NA,j,NA,j,1,206,6.5,1,0.7856934070587158,6.5,9.5,s
11,1,left,filler,trinary,NA,NA,[2 0 1],267,312,418.0,11.83609528635886,15.020702904439531,21.0,418,267,312,21,11.83609528635886,15.020702904439531,k,NA,k,2,267,11.83609528635886,1,0.6869058609008789,11.8360952863589,21.0,NA
11,1,left,attraction,trinary,l-s-dl,equal_1_jnd,[2 1 0],206,227,250.0,6.5,8.5,10.5,250,227,206,10.5,8.5,6.5,l,k,k,2,227,8.5,1,1.0661768913269043,10.5,8.5,dl
11,1,left,attraction,binary,l-s,difficult,[1 0],206,238,NA,6.5,9.5,NA,238,206,NA,9.5,6.5,NA,k,NA,j,1,238,9.5,0,0.9960477352142334,6.5,9.5,l
11,1,left,attraction,trinary,l-s-dl,easy,[2 0 1],187,227,250.0,4.5,8.5,10.5,250,187,227,10.5,4.5,8.5,l,NA,j,1,250,10.5,0,0.9856929779052734,10.5,8.5,s
11,1,left,attraction,trinary,l-s-ds,difficult,[2 1 0],196,227,178.0,5.5,8.5,3.5,178,227,196,3.5,8.5,5.5,k,NA,k,2,227,8.5,1,0.7788956165313721,3.5,8.5,l
11,1,left,attraction,binary,l-s,easy,[1 0],206,250,NA,6.5,10.5,NA,250,206,NA,10.5,6.5,NA,k,NA,j,1,250,10.5,0,0.827873945236206,10.5,6.5,s
11,1,left,attraction,trinary,l-s-dl,equal_2_jnd,[1 0 2],196,238,263.0,5.5,9.5,11.5,238,196,263,9.5,5.5,11.5,k,j,j,1,238,9.5,1,1.3064544200897217,11.5,9.5,dl
11,1,left,attraction,trinary,l-s-dl,difficult,[1 2 0],206,238,263.0,6.5,9.5,11.5,238,263,206,9.5,11.5,6.5,l,NA,j,1,238,9.5,0,1.1691040992736816,11.5,9.5,dl
11,1,left,attraction,trinary,l-s-ds,equal_2_jnd,[0 1 2],196,238,178.0,5.5,9.5,3.5,196,238,178,5.5,9.5,3.5,j,k,k,2,238,9.5,1,1.101294755935669,3.5,9.5,l
11,1,left,attraction,trinary,l-s-ds,easy,[1 0 2],206,250,187.0,6.5,10.5,4.5,250,206,187,10.5,6.5,4.5,k,NA,j,1,250,10.5,0,0.9039962291717529,10.5,6.5,ds
11,1,left,attraction,trinary,l-s-dl,easy,[2 0 1],187,227,250.0,4.5,8.5,10.5,250,187,227,10.5,4.5,8.5,l,NA,j,1,250,10.5,0,1.0920088291168213,10.5,8.5,s
11,1,left,filler,trinary,NA,NA,[2 1 0],245,169,257.0,10.062996056050542,2.4959196138661355,11.0,257,169,245,11,2.4959196138661355,10.062996056050542,l,NA,j,1,257,11,0,0.9790706634521484,10.0629960560505,2.49591961386614,NA
11,1,left,filler,binary,NA,NA,[1 0],171,267,NA,2.7015017182121728,11.784537424100565,NA,267,171,NA,11.784537424100565,2.7015017182121728,NA,k,NA,j,1,267,11.784537424100565,0,0.7664804458618164,11.7845374241006,2.70150171821217,NA
12,2,centered,attraction,binary,l-s,equal_1_jnd,[1 0],247,273,NA,10.25,12.25,NA,273,247,NA,12.25,10.25,NA,j,k,k,2,247,10.25,1,8.407014846801758,10.25,12.25,s
12,2,centered,attraction,trinary,l-s-ds,difficult,[0 2 1],247,286,224.0,10.25,13.25,8.25,247,224,286,10.25,8.25,13.25,j,NA,j,1,247,10.25,1,4.509113788604736,10.25,8.25,ds
12,2,centered,attraction,trinary,l-s-ds,difficult,[2 1 0],247,286,224.0,10.25,13.25,8.25,224,286,247,8.25,13.25,10.25,l,NA,l,3,247,10.25,1,4.696685791015625,10.25,8.25,ds
12,2,centered,attraction,trinary,l-s-dl,easy,[0 2 1],247,301,331.0,10.25,14.25,16.25,247,331,301,10.25,16.25,14.25,j,NA,j,1,247,10.25,1,4.476866722106934,10.25,16.25,s
12,2,centered,attraction,binary,l-s,equal_1_jnd,[0 1],247,273,NA,10.25,12.25,NA,247,273,NA,10.25,12.25,NA,j,k,k,2,273,12.25,1,3.0611202716827393,10.25,12.25,l
12,2,centered,attraction,trinary,l-s-dl,difficult,[2 1 0],236,273,301.0,9.25,12.25,14.25,301,273,236,14.25,12.25,9.25,k,NA,k,2,273,12.25,1,4.95614767074585,12.25,9.25,s
12,2,centered,attraction,trinary,l-s-ds,equal_1_jnd,[2 0 1],247,273,224.0,10.25,12.25,8.25,224,247,273,8.25,10.25,12.25,k,l,k,2,247,10.25,1,2.6721670627593994,10.25,8.25,ds
12,2,centered,attraction,binary,l-s,easy,[1 0],224,273,NA,8.25,12.25,NA,273,224,NA,12.25,8.25,NA,j,NA,j,1,273,12.25,1,6.52654504776001,12.25,8.25,s
12,2,centered,attraction,trinary,l-s-ds,equal_2_jnd,[2 1 0],236,286,214.0,9.25,13.25,7.25,214,286,236,7.25,13.25,9.25,l,k,l,3,236,9.25,1,2.5803041458129883,13.25,9.25,l
12,2,centered,attraction,trinary,l-s-dl,difficult,[2 0 1],236,273,301.0,9.25,12.25,14.25,301,236,273,14.25,9.25,12.25,l,NA,k,2,236,9.25,0,4.2062273025512695,12.25,9.25,dl
12,2,centered,attraction,trinary,l-s-ds,difficult,[1 0 2],247,286,224.0,10.25,13.25,8.25,286,247,224,13.25,10.25,8.25,k,NA,k,2,247,10.25,1,2.225322723388672,10.25,8.25,ds
12,2,centered,filler,trinary,NA,NA,[2 0 1],242,154,379.0,9.81086720334078,0.4888625058811158,19.0,379,242,154,19,9.81086720334078,0.4888625058811158,k,NA,k,2,242,9.81086720334078,1,1.83500337600708,0.488862505881116,9.81086720334078,NA
12,2,centered,filler,trinary,NA,NA,[0 1 2],321,312,418.0,15.58609528635886,15.020702904439531,21.0,321,312,418,15.58609528635886,15.020702904439531,21,j,NA,k,2,312,15.020702904439531,0,8.010988712310791,15.0207029044395,21.0,NA
12,2,centered,attraction,binary,l-s,easy,[0 1],224,273,NA,8.25,12.25,NA,224,273,NA,8.25,12.25,NA,k,NA,j,1,224,8.25,0,5.598884582519531,12.25,8.25,l
12,2,centered,attraction,trinary,l-s-ds,equal_1_jnd,[2 0 1],247,273,224.0,10.25,12.25,8.25,224,247,273,8.25,10.25,12.25,k,l,k,2,247,10.25,1,5.2205798625946045,10.25,8.25,ds
12,2,centered,filler,binary,NA,NA,[0 1],300,234,NA,14.23978476824527,9.095668499940077,NA,300,234,NA,14.23978476824527,9.095668499940077,NA,j,NA,k,2,234,9.095668499940077,0,2.916797399520874,14.2397847682453,9.09566849994008,NA
12,2,centered,attraction,trinary,l-s-dl,difficult,[0 1 2],236,273,301.0,9.25,12.25,14.25,236,273,301,9.25,12.25,14.25,k,NA,j,1,236,9.25,0,2.178471803665161,12.25,9.25,dl
12,2,centered,filler,trinary,NA,NA,[1 2 0],283,401,165.0,12.982958076801571,20.14122284366749,2.0,401,165,283,20.14122284366749,2,12.982958076801571,l,NA,l,3,283,12.982958076801571,1,8.022653102874756,12.9829580768016,20.1412228436675,NA
12,2,centered,attraction,trinary,l-s-dl,easy,[1 2 0],247,301,331.0,10.25,14.25,16.25,301,331,247,14.25,16.25,10.25,l,NA,l,3,247,10.25,1,2.658529043197632,10.25,16.25,s
12,2,centered,filler,trinary,NA,NA,[1 2 0],294,169,257.0,13.812996056050542,2.4959196138661355,11.0,169,257,294,2.4959196138661355,11,13.812996056050542,l,NA,k,2,257,11,0,2.048555612564087,11.0,2.49591961386614,NA
12,2,centered,attraction,trinary,l-s-dl,difficult,[1 0 2],247,286,316.0,10.25,13.25,15.25,286,247,316,13.25,10.25,15.25,k,NA,k,2,247,10.25,1,7.891754865646362,10.25,15.25,s
12,2,centered,filler,binary,NA,NA,[1 0],232,171,NA,8.908381653481424,2.6258213486289605,NA,171,232,NA,2.6258213486289605,8.908381653481424,NA,k,NA,k,2,232,8.908381653481424,1,7.560015916824341,2.62582134862896,8.90838165348142,NA
12,2,centered,filler,binary,NA,NA,[1 0],283,301,NA,13.01668875599818,14.257775298901834,NA,301,283,NA,14.257775298901834,13.01668875599818,NA,k,NA,j,1,301,14.257775298901834,0,4.6547441482543945,13.0166887559982,14.2577752989018,NA
12,2,centered,attraction,binary,l-s,easy,[0 1],224,273,NA,8.25,12.25,NA,224,273,NA,8.25,12.25,NA,k,NA,k,2,273,12.25,1,1.2534739971160889,12.25,8.25,s
12,2,centered,filler,binary,NA,NA,[1 0],244,284,NA,9.965048890455945,13.076051014359107,NA,284,244,NA,13.076051014359107,9.965048890455945,NA,k,NA,j,1,284,13.076051014359107,0,2.4770750999450684,13.0760510143591,9.96504889045594,NA
12,2,centered,attraction,trinary,l-s-ds,difficult,[2 0 1],236,273,214.0,9.25,12.25,7.25,214,236,273,7.25,9.25,12.25,l,NA,k,2,236,9.25,0,2.2806527614593506,12.25,9.25,l
12,2,centered,attraction,binary,l-s,easy,[1 0],224,273,NA,8.25,12.25,NA,273,224,NA,12.25,8.25,NA,j,NA,k,2,224,8.25,0,2.3516573905944824,12.25,8.25,l
12,2,centered,attraction,trinary,l-s-dl,easy,[1 2 0],224,273,301.0,8.25,12.25,14.25,273,301,224,12.25,14.25,8.25,j,NA,j,1,273,12.25,1,1.6392409801483154,12.25,8.25,s
12,2,centered,attraction,binary,l-s,easy,[1 0],247,301,NA,10.25,14.25,NA,301,247,NA,14.25,10.25,NA,k,NA,k,2,247,10.25,1,2.7439043521881104,10.25,14.25,s
12,2,centered,attraction,binary,l-s,equal_1_jnd,[0 1],247,273,NA,10.25,12.25,NA,247,273,NA,10.25,12.25,NA,j,k,k,2,273,12.25,1,2.667065143585205,10.25,12.25,l
12,2,centered,filler,trinary,NA,NA,[0 2 1],271,200,191.0,12.140217947418758,5.942907377611846,5.0,271,191,200,12.140217947418758,5,5.942907377611846,j,NA,j,1,271,12.140217947418758,1,2.6046621799468994,12.1402179474188,5.94290737761185,NA
12,2,centered,attraction,binary,l-s,difficult,[1 0],236,273,NA,9.25,12.25,NA,273,236,NA,12.25,9.25,NA,j,NA,j,1,273,12.25,1,3.0251855850219727,12.25,9.25,s
12,2,centered,filler,binary,NA,NA,[0 1],248,246,NA,10.30760504079765,10.114881485933438,NA,248,246,NA,10.30760504079765,10.114881485933438,NA,j,NA,k,2,246,10.114881485933438,0,5.714321851730347,10.1148814859334,10.3076050407977,NA
12,2,centered,attraction,trinary,l-s-ds,easy,[1 0 2],224,273,203.0,8.25,12.25,6.25,273,224,203,12.25,8.25,6.25,j,NA,j,1,273,12.25,1,2.8966867923736572,12.25,8.25,ds
12,2,centered,filler,binary,NA,NA,[0 1],275,392,NA,12.429210194719555,19.694879207527265,NA,275,392,NA,12.429210194719555,19.694879207527265,NA,j,NA,j,1,275,12.429210194719555,1,1.532853364944458,12.4292101947196,19.6948792075273,NA
12,2,centered,attraction,binary,l-s,difficult,[1 0],247,286,NA,10.25,13.25,NA,286,247,NA,13.25,10.25,NA,k,NA,j,1,286,13.25,0,1.257491111755371,10.25,13.25,l
12,2,centered,attraction,binary,l-s,difficult,[0 1],247,286,NA,10.25,13.25,NA,247,286,NA,10.25,13.25,NA,j,NA,k,2,286,13.25,0,5.034190893173218,10.25,13.25,l
12,2,centered,attraction,binary,l-s,difficult,[0 1],236,273,NA,9.25,12.25,NA,236,273,NA,9.25,12.25,NA,k,NA,j,1,236,9.25,0,1.6045119762420654,12.25,9.25,l
12,2,centered,attraction,binary,l-s,difficult,[1 0],247,286,NA,10.25,13.25,NA,286,247,NA,13.25,10.25,NA,k,NA,j,1,286,13.25,0,2.300687313079834,10.25,13.25,l
12,2,centered,attraction,binary,l-s,easy,[0 1],247,301,NA,10.25,14.25,NA,247,301,NA,10.25,14.25,NA,j,NA,j,1,247,10.25,1,2.8333044052124023,10.25,14.25,s
12,2,centered,attraction,binary,l-s,equal_2_jnd,[0 1],236,286,NA,9.25,13.25,NA,236,286,NA,9.25,13.25,NA,j,k,k,2,286,13.25,1,3.178309202194214,13.25,9.25,s
12,2,centered,attraction,binary,l-s,easy,[0 1],247,301,NA,10.25,14.25,NA,247,301,NA,10.25,14.25,NA,j,NA,j,1,247,10.25,1,1.3617744445800781,10.25,14.25,s
12,2,centered,attraction,binary,l-s,equal_2_jnd,[0 1],236,286,NA,9.25,13.25,NA,236,286,NA,9.25,13.25,NA,j,k,k,2,286,13.25,1,2.8152217864990234,13.25,9.25,s
12,2,centered,filler,binary,NA,NA,[1 0],272,237,NA,12.178297551202068,9.388482722570188,NA,237,272,NA,9.388482722570188,12.178297551202068,NA,k,NA,j,1,237,9.388482722570188,0,0.9238207340240479,12.1782975512021,9.38848272257019,NA
12,2,centered,attraction,binary,l-s,difficult,[0 1],236,273,NA,9.25,12.25,NA,236,273,NA,9.25,12.25,NA,k,NA,k,2,273,12.25,1,1.0720255374908447,12.25,9.25,s
12,2,centered,filler,trinary,NA,NA,[2 1 0],232,272,361.0,8.897313637584615,12.21474049554672,18.0,361,272,232,18,12.21474049554672,8.897313637584615,l,NA,k,2,272,12.21474049554672,0,1.70859956741333,12.2147404955467,8.89731363758461,NA
12,2,centered,attraction,trinary,l-s-dl,easy,[2 0 1],247,301,331.0,10.25,14.25,16.25,331,247,301,16.25,10.25,14.25,k,NA,l,3,301,14.25,0,2.20611310005188,10.25,16.25,l
12,2,centered,attraction,trinary,l-s-ds,difficult,[0 1 2],236,273,214.0,9.25,12.25,7.25,236,273,214,9.25,12.25,7.25,k,NA,j,1,236,9.25,0,1.0563466548919678,12.25,9.25,l
12,2,centered,attraction,binary,l-s,easy,[0 1],224,273,NA,8.25,12.25,NA,224,273,NA,8.25,12.25,NA,k,NA,k,2,273,12.25,1,0.8314642906188965,12.25,8.25,s
12,2,centered,filler,binary,NA,NA,[1 0],241,219,NA,9.692925932172274,7.763479906716384,NA,219,241,NA,7.763479906716384,9.692925932172274,NA,k,NA,k,2,241,9.692925932172274,1,0.7002248764038086,7.76347990671638,9.69292593217227,NA
12,2,centered,filler,binary,NA,NA,[0 1],205,267,NA,6.451501718212173,11.784537424100565,NA,205,267,NA,6.451501718212173,11.784537424100565,NA,j,NA,j,1,205,6.451501718212173,1,2.8258399963378906,11.7845374241006,6.45150171821217,NA
12,2,centered,filler,binary,NA,NA,[0 1],267,201,NA,11.845278196649002,6.012441776110791,NA,267,201,NA,11.845278196649002,6.012441776110791,NA,j,NA,j,1,267,11.845278196649002,1,2.1748714447021484,11.845278196649,6.01244177611079,NA
12,2,centered,attraction,binary,l-s,equal_2_jnd,[1 0],236,286,NA,9.25,13.25,NA,286,236,NA,13.25,9.25,NA,j,k,j,1,286,13.25,1,1.594810962677002,13.25,9.25,s
12,2,centered,filler,binary,NA,NA,[1 0],262,192,NA,11.410837720739304,5.025345634203404,NA,192,262,NA,5.025345634203404,11.410837720739304,NA,k,NA,k,2,262,11.410837720739304,1,1.091583013534546,11.4108377207393,5.0253456342034,NA
12,2,centered,filler,trinary,NA,NA,[0 1 2],278,289,327.0,12.672850561937024,13.434216311434284,16.0,278,289,327,12.672850561937024,13.434216311434284,16,j,NA,j,1,278,12.672850561937024,1,2.175910472869873,12.672850561937,16.0,NA
12,2,centered,attraction,binary,l-s,equal_2_jnd,[1 0],236,286,NA,9.25,13.25,NA,286,236,NA,13.25,9.25,NA,j,k,k,2,236,9.25,1,1.1988341808319092,13.25,9.25,l
12,2,centered,attraction,trinary,l-s-dl,difficult,[1 2 0],247,286,316.0,10.25,13.25,15.25,286,316,247,13.25,15.25,10.25,l,NA,l,3,247,10.25,1,3.0335938930511475,10.25,15.25,s
12,2,centered,attraction,binary,l-s,difficult,[0 1],247,286,NA,10.25,13.25,NA,247,286,NA,10.25,13.25,NA,j,NA,k,2,286,13.25,0,3.478013515472412,10.25,13.25,l
12,2,centered,attraction,trinary,l-s-dl,equal_1_jnd,[0 1 2],247,273,301.0,10.25,12.25,14.25,247,273,301,10.25,12.25,14.25,j,k,j,1,247,10.25,1,0.9349966049194336,10.25,14.25,s
12,2,centered,attraction,trinary,l-s-ds,equal_1_jnd,[0 1 2],247,273,224.0,10.25,12.25,8.25,247,273,224,10.25,12.25,8.25,j,k,k,2,273,12.25,1,1.4847612380981445,10.25,8.25,s
12,2,centered,attraction,trinary,l-s-ds,easy,[2 1 0],224,273,203.0,8.25,12.25,6.25,203,273,224,6.25,12.25,8.25,k,NA,l,3,224,8.25,0,1.3755600452423096,12.25,8.25,l
12,2,centered,attraction,trinary,l-s-ds,easy,[1 0 2],247,301,224.0,10.25,14.25,8.25,301,247,224,14.25,10.25,8.25,k,NA,k,2,247,10.25,1,4.157166242599487,10.25,8.25,ds
12,2,centered,attraction,trinary,l-s-ds,equal_2_jnd,[1 0 2],236,286,214.0,9.25,13.25,7.25,286,236,214,13.25,9.25,7.25,k,j,j,1,286,13.25,1,1.5733087062835693,13.25,9.25,ds
12,2,centered,attraction,binary,l-s,equal_1_jnd,[0 1],247,273,NA,10.25,12.25,NA,247,273,NA,10.25,12.25,NA,j,k,k,2,273,12.25,1,1.014122486114502,10.25,12.25,l
12,2,centered,attraction,binary,l-s,equal_1_jnd,[1 0],247,273,NA,10.25,12.25,NA,273,247,NA,12.25,10.25,NA,j,k,j,1,273,12.25,1,0.7014570236206055,10.25,12.25,l
12,2,centered,attraction,trinary,l-s-ds,equal_2_jnd,[1 2 0],236,286,214.0,9.25,13.25,7.25,286,214,236,13.25,7.25,9.25,l,j,l,3,236,9.25,1,2.631467580795288,13.25,9.25,l
12,2,centered,attraction,binary,l-s,equal_2_jnd,[1 0],236,286,NA,9.25,13.25,NA,286,236,NA,13.25,9.25,NA,j,k,j,1,286,13.25,1,2.3405137062072754,13.25,9.25,s
12,2,centered,attraction,binary,l-s,easy,[1 0],224,273,NA,8.25,12.25,NA,273,224,NA,12.25,8.25,NA,j,NA,k,2,224,8.25,0,0.848548412322998,12.25,8.25,l
12,2,centered,filler,trinary,NA,NA,[1 2 0],272,185,211.0,12.167162566676303,4.285864474950358,7.0,185,211,272,4.285864474950358,7,12.167162566676303,l,NA,k,2,211,7,0,3.1789627075195312,12.1671625666763,7.0,NA
12,2,centered,attraction,binary,l-s,easy,[0 1],247,301,NA,10.25,14.25,NA,247,301,NA,10.25,14.25,NA,j,NA,j,1,247,10.25,1,1.8275232315063477,10.25,14.25,s
12,2,centered,attraction,trinary,l-s-dl,equal_1_jnd,[0 1 2],247,273,301.0,10.25,12.25,14.25,247,273,301,10.25,12.25,14.25,j,k,k,2,273,12.25,1,2.299656867980957,10.25,14.25,l
12,2,centered,attraction,trinary,l-s-dl,equal_2_jnd,[0 1 2],236,286,316.0,9.25,13.25,15.25,236,286,316,9.25,13.25,15.25,j,k,j,1,236,9.25,1,1.3556621074676514,13.25,9.25,dl
12,2,centered,attraction,trinary,l-s-ds,difficult,[1 0 2],236,273,214.0,9.25,12.25,7.25,273,236,214,12.25,9.25,7.25,j,NA,l,3,214,7.25,0,1.682107925415039,12.25,9.25,s
12,2,centered,filler,trinary,NA,NA,[0 2 1],261,331,158.0,11.361942909958636,16.24591615400277,1.0,261,158,331,11.361942909958636,1,16.24591615400277,j,NA,j,1,261,11.361942909958636,1,2.845308542251587,1.0,16.2459161540028,NA
12,2,centered,attraction,trinary,l-s-dl,difficult,[1 2 0],247,286,316.0,10.25,13.25,15.25,286,316,247,13.25,15.25,10.25,l,NA,l,3,247,10.25,1,1.562993049621582,10.25,15.25,s
12,2,centered,attraction,trinary,l-s-dl,easy,[2 0 1],224,273,301.0,8.25,12.25,14.25,301,224,273,14.25,8.25,12.25,l,NA,k,2,224,8.25,0,3.094326972961426,12.25,8.25,dl
12,2,centered,filler,trinary,NA,NA,[2 0 1],214,344,361.0,7.259586441660442,17.02235630946234,18.0,361,214,344,18,7.259586441660442,17.02235630946234,k,NA,k,2,214,7.259586441660442,1,2.601881742477417,17.0223563094623,7.25958644166044,NA
12,2,centered,attraction,binary,l-s,difficult,[0 1],236,273,NA,9.25,12.25,NA,236,273,NA,9.25,12.25,NA,k,NA,j,1,236,9.25,0,1.9765608310699463,12.25,9.25,l
12,2,centered,attraction,trinary,l-s-ds,easy,[1 2 0],247,301,224.0,10.25,14.25,8.25,301,224,247,14.25,8.25,10.25,l,NA,l,3,247,10.25,1,1.6647939682006836,10.25,8.25,ds
12,2,centered,attraction,trinary,l-s-ds,easy,[0 1 2],247,301,224.0,10.25,14.25,8.25,247,301,224,10.25,14.25,8.25,j,NA,j,1,247,10.25,1,0.8476786613464355,10.25,8.25,ds
12,2,centered,attraction,trinary,l-s-dl,equal_1_jnd,[0 1 2],247,273,301.0,10.25,12.25,14.25,247,273,301,10.25,12.25,14.25,j,k,j,1,247,10.25,1,2.31727933883667,10.25,14.25,s
12,2,centered,attraction,binary,l-s,easy,[0 1],247,301,NA,10.25,14.25,NA,247,301,NA,10.25,14.25,NA,j,NA,j,1,247,10.25,1,1.5613257884979248,10.25,14.25,s
12,2,centered,attraction,binary,l-s,equal_2_jnd,[1 0],236,286,NA,9.25,13.25,NA,286,236,NA,13.25,9.25,NA,j,k,k,2,236,9.25,1,0.6970047950744629,13.25,9.25,l
12,2,centered,attraction,binary,l-s,difficult,[1 0],247,286,NA,10.25,13.25,NA,286,247,NA,13.25,10.25,NA,k,NA,k,2,247,10.25,1,0.6239063739776611,10.25,13.25,s
12,2,centered,attraction,trinary,l-s-dl,easy,[2 1 0],224,273,301.0,8.25,12.25,14.25,301,273,224,14.25,12.25,8.25,k,NA,k,2,273,12.25,1,0.976557731628418,12.25,8.25,s
12,2,centered,attraction,binary,l-s,difficult,[0 1],236,273,NA,9.25,12.25,NA,236,273,NA,9.25,12.25,NA,k,NA,j,1,236,9.25,0,1.2452635765075684,12.25,9.25,l
12,2,centered,attraction,binary,l-s,difficult,[1 0],236,273,NA,9.25,12.25,NA,273,236,NA,12.25,9.25,NA,j,NA,k,2,236,9.25,0,3.9634134769439697,12.25,9.25,l
12,2,centered,attraction,trinary,l-s-dl,equal_2_jnd,[0 1 2],236,286,316.0,9.25,13.25,15.25,236,286,316,9.25,13.25,15.25,j,k,k,2,286,13.25,1,2.1069090366363525,13.25,9.25,s
12,2,centered,attraction,binary,l-s,easy,[1 0],247,301,NA,10.25,14.25,NA,301,247,NA,14.25,10.25,NA,k,NA,k,2,247,10.25,1,2.4858429431915283,10.25,14.25,s
12,2,centered,attraction,binary,l-s,difficult,[0 1],247,286,NA,10.25,13.25,NA,247,286,NA,10.25,13.25,NA,j,NA,j,1,247,10.25,1,0.636481523513794,10.25,13.25,s
12,2,centered,filler,binary,NA,NA,[0 1],258,204,NA,11.11596568841289,6.259801906999201,NA,258,204,NA,11.11596568841289,6.259801906999201,NA,j,NA,j,1,258,11.11596568841289,1,1.174170970916748,11.1159656884129,6.2598019069992,NA
12,2,centered,filler,trinary,NA,NA,[1 0 2],248,448,269.0,10.345305104835688,22.443864309461787,12.0,448,248,269,22.443864309461787,10.345305104835688,12,k,NA,k,2,248,10.345305104835688,1,1.7297499179840088,10.3453051048357,22.4438643094618,NA
12,2,centered,attraction,trinary,l-s-ds,easy,[1 0 2],224,273,203.0,8.25,12.25,6.25,273,224,203,12.25,8.25,6.25,j,NA,j,1,273,12.25,1,2.374424457550049,12.25,8.25,ds
12,2,centered,filler,trinary,NA,NA,[2 1 0],275,271,182.0,12.454308774276392,12.122597752022555,4.0,182,271,275,4,12.122597752022555,12.454308774276392,l,NA,k,2,271,12.122597752022555,0,1.877638816833496,12.1225977520226,4.0,NA
12,2,centered,attraction,trinary,l-s-dl,equal_2_jnd,[0 2 1],236,286,316.0,9.25,13.25,15.25,236,316,286,9.25,15.25,13.25,j,l,l,3,286,13.25,1,2.3869168758392334,13.25,9.25,s
12,2,centered,attraction,binary,l-s,equal_1_jnd,[0 1],247,273,NA,10.25,12.25,NA,247,273,NA,10.25,12.25,NA,j,k,k,2,273,12.25,1,2.5383143424987793,10.25,12.25,l
12,2,centered,filler,trinary,NA,NA,[0 2 1],283,401,165.0,12.982958076801571,20.14122284366749,2.0,283,165,401,12.982958076801571,2,20.14122284366749,j,NA,j,1,283,12.982958076801571,1,0.9884977340698242,12.9829580768016,20.1412228436675,NA
12,2,centered,filler,trinary,NA,NA,[1 2 0],294,169,257.0,13.812996056050542,2.4959196138661355,11.0,169,257,294,2.4959196138661355,11,13.812996056050542,l,NA,k,2,257,11,0,1.0775775909423828,11.0,2.49591961386614,NA
12,2,centered,attraction,binary,l-s,difficult,[0 1],247,286,NA,10.25,13.25,NA,247,286,NA,10.25,13.25,NA,j,NA,k,2,286,13.25,0,2.794856071472168,10.25,13.25,l
12,2,centered,attraction,trinary,l-s-ds,difficult,[1 0 2],236,273,214.0,9.25,12.25,7.25,273,236,214,12.25,9.25,7.25,j,NA,j,1,273,12.25,1,1.4400322437286377,12.25,9.25,ds
12,2,centered,attraction,trinary,l-s-ds,easy,[1 0 2],224,273,203.0,8.25,12.25,6.25,273,224,203,12.25,8.25,6.25,j,NA,j,1,273,12.25,1,0.9618723392486572,12.25,8.25,ds
12,2,centered,attraction,trinary,l-s-ds,equal_2_jnd,[0 2 1],236,286,214.0,9.25,13.25,7.25,236,214,286,9.25,7.25,13.25,j,l,l,3,286,13.25,1,1.5633482933044434,13.25,9.25,ds
12,2,centered,attraction,trinary,l-s-dl,difficult,[2 0 1],236,273,301.0,9.25,12.25,14.25,301,236,273,14.25,9.25,12.25,l,NA,k,2,236,9.25,0,3.2356696128845215,12.25,9.25,dl
12,2,centered,attraction,binary,l-s,easy,[0 1],247,301,NA,10.25,14.25,NA,247,301,NA,10.25,14.25,NA,j,NA,k,2,301,14.25,0,1.993366003036499,10.25,14.25,l
12,2,centered,attraction,binary,l-s,equal_1_jnd,[1 0],247,273,NA,10.25,12.25,NA,273,247,NA,12.25,10.25,NA,j,k,j,1,273,12.25,1,0.5839262008666992,10.25,12.25,l
12,2,centered,attraction,binary,l-s,easy,[1 0],247,301,NA,10.25,14.25,NA,301,247,NA,14.25,10.25,NA,k,NA,j,1,301,14.25,0,0.9112844467163086,10.25,14.25,l
12,2,centered,attraction,binary,l-s,equal_1_jnd,[1 0],247,273,NA,10.25,12.25,NA,273,247,NA,12.25,10.25,NA,j,k,k,2,247,10.25,1,1.9542245864868164,10.25,12.25,s
12,2,centered,attraction,trinary,l-s-ds,equal_1_jnd,[2 1 0],247,273,224.0,10.25,12.25,8.25,224,273,247,8.25,12.25,10.25,l,k,j,1,224,8.25,0,1.300724983215332,10.25,8.25,l
12,2,centered,attraction,binary,l-s,equal_2_jnd,[1 0],236,286,NA,9.25,13.25,NA,286,236,NA,13.25,9.25,NA,j,k,k,2,236,9.25,1,1.5479776859283447,13.25,9.25,l
12,2,centered,filler,binary,NA,NA,[1 0],205,267,NA,6.451501718212173,11.784537424100565,NA,267,205,NA,11.784537424100565,6.451501718212173,NA,k,NA,k,2,205,6.451501718212173,1,2.050447463989258,11.7845374241006,6.45150171821217,NA
12,2,centered,filler,binary,NA,NA,[0 1],258,204,NA,11.11596568841289,6.259801906999201,NA,258,204,NA,11.11596568841289,6.259801906999201,NA,j,NA,k,2,204,6.259801906999201,0,1.4594905376434326,11.1159656884129,6.2598019069992,NA
12,2,centered,attraction,trinary,l-s-dl,difficult,[0 2 1],247,286,316.0,10.25,13.25,15.25,247,316,286,10.25,15.25,13.25,j,NA,j,1,247,10.25,1,1.1103990077972412,10.25,15.25,s
12,2,centered,attraction,binary,l-s,difficult,[0 1],247,286,NA,10.25,13.25,NA,247,286,NA,10.25,13.25,NA,j,NA,k,2,286,13.25,0,1.0950005054473877,10.25,13.25,l
12,2,centered,attraction,binary,l-s,easy,[0 1],224,273,NA,8.25,12.25,NA,224,273,NA,8.25,12.25,NA,k,NA,j,1,224,8.25,0,0.91239166259765625,12.25,8.25,l
12,2,centered,attraction,binary,l-s,difficult,[0 1],236,273,NA,9.25,12.25,NA,236,273,NA,9.25,12.25,NA,k,NA,j,1,236,9.25,0,1.7536404132843018,12.25,9.25,l
12,2,centered,filler,trinary,NA,NA,[2 1 0],275,271,182.0,12.454308774276392,12.122597752022555,4.0,182,271,275,4,12.122597752022555,12.454308774276392,l,NA,k,2,271,12.122597752022555,0,1.7275168895721436,12.1225977520226,4.0,NA
12,2,centered,filler,binary,NA,NA,[0 1],248,246,NA,10.30760504079765,10.114881485933438,NA,248,246,NA,10.30760504079765,10.114881485933438,NA,j,NA,k,2,246,10.114881485933438,0,4.551839351654053,10.1148814859334,10.3076050407977,NA
12,2,centered,attraction,trinary,l-s-dl,difficult,[0 1 2],236,273,301.0,9.25,12.25,14.25,236,273,301,9.25,12.25,14.25,k,NA,j,1,236,9.25,0,1.1339054107666016,12.25,9.25,dl
12,2,centered,attraction,trinary,l-s-dl,difficult,[2 0 1],247,286,316.0,10.25,13.25,15.25,316,247,286,15.25,10.25,13.25,k,NA,k,2,247,10.25,1,2.333437919616699,10.25,15.25,s
12,2,centered,filler,binary,NA,NA,[1 0],283,301,NA,13.01668875599818,14.257775298901834,NA,301,283,NA,14.257775298901834,13.01668875599818,NA,k,NA,k,2,283,13.01668875599818,1,1.6543629169464111,13.0166887559982,14.2577752989018,NA
12,2,centered,filler,trinary,NA,NA,[2 1 0],261,331,158.0,11.361942909958636,16.24591615400277,1.0,158,331,261,1,16.24591615400277,11.361942909958636,l,NA,l,3,261,11.361942909958636,1,1.101738691329956,1.0,16.2459161540028,NA
12,2,centered,attraction,trinary,l-s-ds,equal_2_jnd,[2 1 0],236,286,214.0,9.25,13.25,7.25,214,286,236,7.25,13.25,9.25,l,k,l,3,236,9.25,1,1.7716779708862305,13.25,9.25,l
12,2,centered,attraction,binary,l-s,easy,[1 0],224,273,NA,8.25,12.25,NA,273,224,NA,12.25,8.25,NA,j,NA,j,1,273,12.25,1,2.189915657043457,12.25,8.25,s
12,2,centered,filler,binary,NA,NA,[0 1],267,201,NA,11.845278196649002,6.012441776110791,NA,267,201,NA,11.845278196649002,6.012441776110791,NA,j,NA,j,1,267,11.845278196649002,1,1.185009479522705,11.845278196649,6.01244177611079,NA
12,2,centered,attraction,binary,l-s,easy,[0 1],247,301,NA,10.25,14.25,NA,247,301,NA,10.25,14.25,NA,j,NA,j,1,247,10.25,1,1.9727146625518799,10.25,14.25,s
12,2,centered,attraction,binary,l-s,equal_1_jnd,[1 0],247,273,NA,10.25,12.25,NA,273,247,NA,12.25,10.25,NA,j,k,k,2,247,10.25,1,1.0675339698791504,10.25,12.25,s
12,2,centered,attraction,trinary,l-s-ds,easy,[0 1 2],247,301,224.0,10.25,14.25,8.25,247,301,224,10.25,14.25,8.25,j,NA,j,1,247,10.25,1,1.2590687274932861,10.25,8.25,ds
12,2,centered,filler,trinary,NA,NA,[2 1 0],242,154,379.0,9.81086720334078,0.4888625058811158,19.0,379,154,242,19,0.4888625058811158,9.81086720334078,l,NA,l,3,242,9.81086720334078,1,2.098236560821533,0.488862505881116,9.81086720334078,NA
12,2,centered,attraction,trinary,l-s-dl,easy,[2 0 1],224,273,301.0,8.25,12.25,14.25,301,224,273,14.25,8.25,12.25,l,NA,k,2,224,8.25,0,1.264758586883545,12.25,8.25,dl
12,2,centered,filler,binary,NA,NA,[0 1],300,234,NA,14.23978476824527,9.095668499940077,NA,300,234,NA,14.23978476824527,9.095668499940077,NA,j,NA,j,1,300,14.23978476824527,1,2.535914897918701,14.2397847682453,9.09566849994008,NA
12,2,centered,attraction,trinary,l-s-ds,difficult,[1 2 0],247,286,224.0,10.25,13.25,8.25,286,224,247,13.25,8.25,10.25,l,NA,l,3,247,10.25,1,1.878826379776001,10.25,8.25,ds
12,2,centered,attraction,binary,l-s,difficult,[0 1],236,273,NA,9.25,12.25,NA,236,273,NA,9.25,12.25,NA,k,NA,j,1,236,9.25,0,1.3638732433319092,12.25,9.25,l
12,2,centered,attraction,binary,l-s,difficult,[1 0],236,273,NA,9.25,12.25,NA,273,236,NA,12.25,9.25,NA,j,NA,j,1,273,12.25,1,1.9864542484283447,12.25,9.25,s
12,2,centered,attraction,trinary,l-s-ds,easy,[2 1 0],224,273,203.0,8.25,12.25,6.25,203,273,224,6.25,12.25,8.25,k,NA,l,3,224,8.25,0,1.1403379440307617,12.25,8.25,l
12,2,centered,filler,binary,NA,NA,[1 0],241,219,NA,9.692925932172274,7.763479906716384,NA,219,241,NA,7.763479906716384,9.692925932172274,NA,k,NA,k,2,241,9.692925932172274,1,1.397603988647461,7.76347990671638,9.69292593217227,NA
12,2,centered,attraction,trinary,l-s-dl,equal_1_jnd,[0 1 2],247,273,301.0,10.25,12.25,14.25,247,273,301,10.25,12.25,14.25,j,k,k,2,273,12.25,1,1.4050514698028564,10.25,14.25,l
12,2,centered,attraction,binary,l-s,equal_1_jnd,[1 0],247,273,NA,10.25,12.25,NA,273,247,NA,12.25,10.25,NA,j,k,j,1,273,12.25,1,1.5390021800994873,10.25,12.25,l
12,2,centered,attraction,binary,l-s,easy,[1 0],224,273,NA,8.25,12.25,NA,273,224,NA,12.25,8.25,NA,j,NA,j,1,273,12.25,1,3.7409822940826416,12.25,8.25,s
12,2,centered,attraction,trinary,l-s-dl,equal_1_jnd,[2 0 1],247,273,301.0,10.25,12.25,14.25,301,247,273,14.25,10.25,12.25,k,l,k,2,247,10.25,1,1.309382677078247,10.25,14.25,s
12,2,centered,filler,binary,NA,NA,[0 1],275,392,NA,12.429210194719555,19.694879207527265,NA,275,392,NA,12.429210194719555,19.694879207527265,NA,j,NA,j,1,275,12.429210194719555,1,0.8148424625396729,12.4292101947196,19.6948792075273,NA
12,2,centered,attraction,trinary,l-s-dl,easy,[2 1 0],247,301,331.0,10.25,14.25,16.25,331,301,247,16.25,14.25,10.25,l,NA,l,3,247,10.25,1,1.3328185081481934,10.25,16.25,s
12,2,centered,attraction,binary,l-s,easy,[0 1],224,273,NA,8.25,12.25,NA,224,273,NA,8.25,12.25,NA,k,NA,j,1,224,8.25,0,1.3563575744628906,12.25,8.25,l
12,2,centered,attraction,binary,l-s,equal_2_jnd,[1 0],236,286,NA,9.25,13.25,NA,286,236,NA,13.25,9.25,NA,j,k,k,2,236,9.25,1,3.4885094165802,13.25,9.25,l
12,2,centered,attraction,binary,l-s,difficult,[0 1],236,273,NA,9.25,12.25,NA,236,273,NA,9.25,12.25,NA,k,NA,k,2,273,12.25,1,1.9759459495544434,12.25,9.25,s
12,2,centered,attraction,binary,l-s,easy,[0 1],224,273,NA,8.25,12.25,NA,224,273,NA,8.25,12.25,NA,k,NA,k,2,273,12.25,1,1.5546152591705322,12.25,8.25,s
12,2,centered,attraction,binary,l-s,difficult,[1 0],247,286,NA,10.25,13.25,NA,286,247,NA,13.25,10.25,NA,k,NA,j,1,286,13.25,0,2.1857552528381348,10.25,13.25,l
12,2,centered,attraction,trinary,l-s-ds,easy,[2 1 0],247,301,224.0,10.25,14.25,8.25,224,301,247,8.25,14.25,10.25,l,NA,l,3,247,10.25,1,2.493802070617676,10.25,8.25,ds
12,2,centered,filler,trinary,NA,NA,[1 2 0],214,344,361.0,7.259586441660442,17.02235630946234,18.0,344,361,214,17.02235630946234,18,7.259586441660442,l,NA,l,3,214,7.259586441660442,1,4.4678497314453125,17.0223563094623,7.25958644166044,NA
12,2,centered,attraction,trinary,l-s-dl,equal_2_jnd,[2 1 0],236,286,316.0,9.25,13.25,15.25,316,286,236,15.25,13.25,9.25,l,k,l,3,236,9.25,1,1.1444973945617676,13.25,9.25,dl
12,2,centered,filler,trinary,NA,NA,[0 2 1],271,200,191.0,12.140217947418758,5.942907377611846,5.0,271,191,200,12.140217947418758,5,5.942907377611846,j,NA,j,1,271,12.140217947418758,1,1.664557695388794,12.1402179474188,5.94290737761185,NA
12,2,centered,attraction,binary,l-s,difficult,[0 1],236,273,NA,9.25,12.25,NA,236,273,NA,9.25,12.25,NA,k,NA,k,2,273,12.25,1,1.9623119831085205,12.25,9.25,s
12,2,centered,attraction,binary,l-s,equal_2_jnd,[1 0],236,286,NA,9.25,13.25,NA,286,236,NA,13.25,9.25,NA,j,k,j,1,286,13.25,1,1.7295777797698975,13.25,9.25,s
12,2,centered,attraction,trinary,l-s-ds,difficult,[1 2 0],236,273,214.0,9.25,12.25,7.25,273,214,236,12.25,7.25,9.25,j,NA,j,1,273,12.25,1,0.7649681568145752,12.25,9.25,ds
12,2,centered,attraction,binary,l-s,easy,[0 1],247,301,NA,10.25,14.25,NA,247,301,NA,10.25,14.25,NA,j,NA,k,2,301,14.25,0,1.8382718563079834,10.25,14.25,l
12,2,centered,attraction,trinary,l-s-dl,easy,[0 2 1],247,301,331.0,10.25,14.25,16.25,247,331,301,10.25,16.25,14.25,j,NA,l,3,301,14.25,0,1.8303015232086182,10.25,16.25,l
12,2,centered,attraction,trinary,l-s-dl,easy,[1 0 2],224,273,301.0,8.25,12.25,14.25,273,224,301,12.25,8.25,14.25,j,NA,j,1,273,12.25,1,1.1141955852508545,12.25,8.25,s
12,2,centered,attraction,binary,l-s,difficult,[0 1],247,286,NA,10.25,13.25,NA,247,286,NA,10.25,13.25,NA,j,NA,k,2,286,13.25,0,1.4030141830444336,10.25,13.25,l
12,2,centered,attraction,trinary,l-s-dl,difficult,[0 1 2],247,286,316.0,10.25,13.25,15.25,247,286,316,10.25,13.25,15.25,j,NA,k,2,286,13.25,0,2.329709053039551,10.25,15.25,l
12,2,centered,attraction,binary,l-s,equal_1_jnd,[1 0],247,273,NA,10.25,12.25,NA,273,247,NA,12.25,10.25,NA,j,k,j,1,273,12.25,1,1.5741322040557861,10.25,12.25,l
12,2,centered,filler,trinary,NA,NA,[2 1 0],272,185,211.0,12.167162566676303,4.285864474950358,7.0,211,185,272,7,4.285864474950358,12.167162566676303,l,NA,l,3,272,12.167162566676303,1,0.9652066230773926,12.1671625666763,7.0,NA
12,2,centered,filler,binary,NA,NA,[0 1],232,171,NA,8.908381653481424,2.6258213486289605,NA,232,171,NA,8.908381653481424,2.6258213486289605,NA,j,NA,j,1,232,8.908381653481424,1,3.303591012954712,2.62582134862896,8.90838165348142,NA
12,2,centered,attraction,trinary,l-s-ds,equal_1_jnd,[1 2 0],247,273,224.0,10.25,12.25,8.25,273,224,247,12.25,8.25,10.25,l,j,j,1,273,12.25,1,0.8769700527191162,10.25,8.25,s
12,2,centered,attraction,trinary,l-s-dl,easy,[0 2 1],247,301,331.0,10.25,14.25,16.25,247,331,301,10.25,16.25,14.25,j,NA,j,1,247,10.25,1,2.2348203659057617,10.25,16.25,s
12,2,centered,filler,trinary,NA,NA,[0 2 1],321,312,418.0,15.58609528635886,15.020702904439531,21.0,321,418,312,15.58609528635886,21,15.020702904439531,j,NA,l,3,312,15.020702904439531,0,2.814514398574829,15.0207029044395,21.0,NA
12,2,centered,attraction,trinary,l-s-ds,equal_2_jnd,[1 0 2],236,286,214.0,9.25,13.25,7.25,286,236,214,13.25,9.25,7.25,k,j,j,1,286,13.25,1,1.9971764087677002,13.25,9.25,ds
12,2,centered,filler,binary,NA,NA,[1 0],272,237,NA,12.178297551202068,9.388482722570188,NA,237,272,NA,9.388482722570188,12.178297551202068,NA,k,NA,k,2,272,12.178297551202068,1,1.4289233684539795,12.1782975512021,9.38848272257019,NA
12,2,centered,attraction,trinary,l-s-dl,difficult,[0 2 1],236,273,301.0,9.25,12.25,14.25,236,301,273,9.25,14.25,12.25,l,NA,l,3,273,12.25,1,1.3270306587219238,12.25,9.25,s
12,2,centered,attraction,binary,l-s,equal_2_jnd,[0 1],236,286,NA,9.25,13.25,NA,236,286,NA,9.25,13.25,NA,j,k,j,1,236,9.25,1,1.3971350193023682,13.25,9.25,l
12,2,centered,attraction,trinary,l-s-ds,difficult,[0 1 2],236,273,214.0,9.25,12.25,7.25,236,273,214,9.25,12.25,7.25,k,NA,j,1,236,9.25,0,2.949463367462158,12.25,9.25,l
12,2,centered,attraction,binary,l-s,difficult,[0 1],247,286,NA,10.25,13.25,NA,247,286,NA,10.25,13.25,NA,j,NA,k,2,286,13.25,0,1.4285030364990234,10.25,13.25,l
12,2,centered,filler,trinary,NA,NA,[1 0 2],278,289,327.0,12.672850561937024,13.434216311434284,16.0,289,278,327,13.434216311434284,12.672850561937024,16,k,NA,j,1,289,13.434216311434284,0,0.896134614944458,12.672850561937,16.0,NA
12,2,centered,attraction,binary,l-s,easy,[1 0],247,301,NA,10.25,14.25,NA,301,247,NA,14.25,10.25,NA,k,NA,j,1,301,14.25,0,2.63793683052063,10.25,14.25,l
12,2,centered,attraction,trinary,l-s-ds,equal_1_jnd,[1 2 0],247,273,224.0,10.25,12.25,8.25,273,224,247,12.25,8.25,10.25,l,j,l,3,247,10.25,1,1.4242801666259766,10.25,8.25,ds
12,2,centered,attraction,trinary,l-s-dl,easy,[1 2 0],224,273,301.0,8.25,12.25,14.25,273,301,224,12.25,14.25,8.25,j,NA,l,3,224,8.25,0,2.028480052947998,12.25,8.25,dl
12,2,centered,attraction,binary,l-s,difficult,[1 0],236,273,NA,9.25,12.25,NA,273,236,NA,12.25,9.25,NA,j,NA,j,1,273,12.25,1,3.10210919380188,12.25,9.25,s
12,2,centered,filler,trinary,NA,NA,[0 2 1],248,448,269.0,10.345305104835688,22.443864309461787,12.0,248,269,448,10.345305104835688,12,22.443864309461787,j,NA,k,2,269,12,0,1.456718921661377,10.3453051048357,22.4438643094618,NA
12,2,centered,attraction,binary,l-s,equal_1_jnd,[1 0],247,273,NA,10.25,12.25,NA,273,247,NA,12.25,10.25,NA,j,k,j,1,273,12.25,1,0.9607675075531006,10.25,12.25,l
12,2,centered,attraction,trinary,l-s-ds,easy,[0 1 2],247,301,224.0,10.25,14.25,8.25,247,301,224,10.25,14.25,8.25,j,NA,j,1,247,10.25,1,1.6388828754425049,10.25,8.25,ds
12,2,centered,attraction,trinary,l-s-dl,equal_1_jnd,[0 1 2],247,273,301.0,10.25,12.25,14.25,247,273,301,10.25,12.25,14.25,j,k,k,2,273,12.25,1,6.509482383728027,10.25,14.25,l
12,2,centered,attraction,trinary,l-s-dl,equal_2_jnd,[0 2 1],236,286,316.0,9.25,13.25,15.25,236,316,286,9.25,15.25,13.25,j,l,l,3,286,13.25,1,1.6933667659759521,13.25,9.25,s
12,2,centered,attraction,binary,l-s,easy,[0 1],224,273,NA,8.25,12.25,NA,224,273,NA,8.25,12.25,NA,k,NA,k,2,273,12.25,1,1.1570050716400146,12.25,8.25,s
12,2,centered,attraction,trinary,l-s-dl,equal_2_jnd,[1 2 0],236,286,316.0,9.25,13.25,15.25,286,316,236,13.25,15.25,9.25,l,j,j,1,286,13.25,1,2.9658780097961426,13.25,9.25,s
12,2,centered,attraction,binary,l-s,equal_2_jnd,[1 0],236,286,NA,9.25,13.25,NA,286,236,NA,13.25,9.25,NA,j,k,j,1,286,13.25,1,0.9219067096710205,13.25,9.25,s
12,2,centered,filler,binary,NA,NA,[1 0],262,192,NA,11.410837720739304,5.025345634203404,NA,192,262,NA,5.025345634203404,11.410837720739304,NA,k,NA,k,2,262,11.410837720739304,1,1.0126399993896484,11.4108377207393,5.0253456342034,NA
12,2,centered,attraction,trinary,l-s-ds,easy,[2 0 1],224,273,203.0,8.25,12.25,6.25,203,224,273,6.25,8.25,12.25,l,NA,l,3,273,12.25,1,2.7846357822418213,12.25,8.25,ds
12,2,centered,attraction,binary,l-s,easy,[1 0],247,301,NA,10.25,14.25,NA,301,247,NA,14.25,10.25,NA,k,NA,j,1,301,14.25,0,2.344815731048584,10.25,14.25,l
12,2,centered,attraction,binary,l-s,difficult,[1 0],247,286,NA,10.25,13.25,NA,286,247,NA,13.25,10.25,NA,k,NA,k,2,247,10.25,1,0.7303464412689209,10.25,13.25,s
12,2,centered,attraction,trinary,l-s-ds,difficult,[2 0 1],247,286,224.0,10.25,13.25,8.25,224,247,286,8.25,10.25,13.25,k,NA,k,2,247,10.25,1,1.3382172584533691,10.25,8.25,ds
12,2,centered,filler,binary,NA,NA,[0 1],244,284,NA,9.965048890455945,13.076051014359107,NA,244,284,NA,9.965048890455945,13.076051014359107,NA,j,NA,k,2,284,13.076051014359107,0,0.8355822563171387,13.0760510143591,9.96504889045594,NA
12,2,centered,filler,trinary,NA,NA,[0 1 2],232,272,361.0,8.897313637584615,12.21474049554672,18.0,232,272,361,8.897313637584615,12.21474049554672,18,j,NA,k,2,272,12.21474049554672,0,1.9602389335632324,12.2147404955467,8.89731363758461,NA
12,2,centered,attraction,trinary,l-s-ds,difficult,[2 0 1],247,286,224.0,10.25,13.25,8.25,224,247,286,8.25,10.25,13.25,k,NA,j,1,224,8.25,0,1.335374355316162,10.25,8.25,l
12,2,centered,attraction,binary,l-s,equal_2_jnd,[0 1],236,286,NA,9.25,13.25,NA,236,286,NA,9.25,13.25,NA,j,k,k,2,286,13.25,1,1.0508909225463867,13.25,9.25,s
12,2,centered,attraction,binary,l-s,easy,[1 0],224,273,NA,8.25,12.25,NA,273,224,NA,12.25,8.25,NA,j,NA,j,1,273,12.25,1,1.078129529953003,12.25,8.25,s
12,2,centered,attraction,trinary,l-s-ds,difficult,[0 2 1],236,273,214.0,9.25,12.25,7.25,236,214,273,9.25,7.25,12.25,l,NA,l,3,273,12.25,1,0.9186174869537354,12.25,9.25,ds
12,2,centered,attraction,binary,l-s,difficult,[1 0],247,286,NA,10.25,13.25,NA,286,247,NA,13.25,10.25,NA,k,NA,j,1,286,13.25,0,1.292438268661499,10.25,13.25,l
12,2,centered,attraction,binary,l-s,difficult,[0 1],236,273,NA,9.25,12.25,NA,236,273,NA,9.25,12.25,NA,k,NA,k,2,273,12.25,1,1.8853988647460938,12.25,9.25,s
12,2,centered,attraction,binary,l-s,difficult,[0 1],236,273,NA,9.25,12.25,NA,236,273,NA,9.25,12.25,NA,k,NA,k,2,273,12.25,1,0.7799358367919922,12.25,9.25,s
12,2,centered,attraction,trinary,l-s-ds,easy,[0 2 1],247,301,224.0,10.25,14.25,8.25,247,224,301,10.25,8.25,14.25,j,NA,j,1,247,10.25,1,0.9927141666412354,10.25,8.25,ds
12,2,centered,filler,binary,NA,NA,[1 0],244,284,NA,9.965048890455945,13.076051014359107,NA,284,244,NA,13.076051014359107,9.965048890455945,NA,k,NA,j,1,284,13.076051014359107,0,0.7602612972259521,13.0760510143591,9.96504889045594,NA
12,2,centered,attraction,trinary,l-s-dl,easy,[0 2 1],247,301,331.0,10.25,14.25,16.25,247,331,301,10.25,16.25,14.25,j,NA,l,3,301,14.25,0,2.4480538368225098,10.25,16.25,l
12,2,centered,attraction,trinary,l-s-ds,equal_1_jnd,[2 0 1],247,273,224.0,10.25,12.25,8.25,224,247,273,8.25,10.25,12.25,k,l,k,2,247,10.25,1,1.479614019393921,10.25,8.25,ds
12,2,centered,attraction,trinary,l-s-dl,equal_2_jnd,[2 1 0],236,286,316.0,9.25,13.25,15.25,316,286,236,15.25,13.25,9.25,l,k,k,2,286,13.25,1,0.9839329719543457,13.25,9.25,s
12,2,centered,attraction,binary,l-s,equal_2_jnd,[1 0],236,286,NA,9.25,13.25,NA,286,236,NA,13.25,9.25,NA,j,k,j,1,286,13.25,1,1.5872340202331543,13.25,9.25,s
12,2,centered,attraction,trinary,l-s-ds,difficult,[2 1 0],247,286,224.0,10.25,13.25,8.25,224,286,247,8.25,13.25,10.25,l,NA,l,3,247,10.25,1,1.3180546760559082,10.25,8.25,ds
12,2,centered,attraction,trinary,l-s-ds,equal_1_jnd,[0 1 2],247,273,224.0,10.25,12.25,8.25,247,273,224,10.25,12.25,8.25,j,k,j,1,247,10.25,1,1.0314347743988037,10.25,8.25,ds
12,2,centered,attraction,trinary,l-s-ds,equal_2_jnd,[0 1 2],236,286,214.0,9.25,13.25,7.25,236,286,214,9.25,13.25,7.25,j,k,j,1,236,9.25,1,1.6799700260162354,13.25,9.25,l
12,2,centered,attraction,binary,l-s,equal_2_jnd,[1 0],236,286,NA,9.25,13.25,NA,286,236,NA,13.25,9.25,NA,j,k,j,1,286,13.25,1,1.202890157699585,13.25,9.25,s
12,2,centered,attraction,binary,l-s,equal_2_jnd,[0 1],236,286,NA,9.25,13.25,NA,236,286,NA,9.25,13.25,NA,j,k,k,2,286,13.25,1,1.2254443168640137,13.25,9.25,s
12,2,centered,attraction,binary,l-s,equal_1_jnd,[1 0],247,273,NA,10.25,12.25,NA,273,247,NA,12.25,10.25,NA,j,k,j,1,273,12.25,1,2.168348789215088,10.25,12.25,l
12,2,centered,attraction,trinary,l-s-ds,difficult,[0 2 1],247,286,224.0,10.25,13.25,8.25,247,224,286,10.25,8.25,13.25,j,NA,j,1,247,10.25,1,1.237722396850586,10.25,8.25,ds
12,2,centered,attraction,binary,l-s,difficult,[0 1],247,286,NA,10.25,13.25,NA,247,286,NA,10.25,13.25,NA,j,NA,k,2,286,13.25,0,0.6963741779327393,10.25,13.25,l
12,2,centered,attraction,trinary,l-s-ds,easy,[0 1 2],247,301,224.0,10.25,14.25,8.25,247,301,224,10.25,14.25,8.25,j,NA,j,1,247,10.25,1,1.035238265991211,10.25,8.25,ds
12,2,centered,filler,trinary,NA,NA,[1 2 0],271,200,191.0,12.140217947418758,5.942907377611846,5.0,200,191,271,5.942907377611846,5,12.140217947418758,l,NA,l,3,271,12.140217947418758,1,1.0374016761779785,12.1402179474188,5.94290737761185,NA
12,2,centered,attraction,binary,l-s,easy,[1 0],247,301,NA,10.25,14.25,NA,301,247,NA,14.25,10.25,NA,k,NA,k,2,247,10.25,1,1.6024224758148193,10.25,14.25,s
12,2,centered,filler,binary,NA,NA,[0 1],275,392,NA,12.429210194719555,19.694879207527265,NA,275,392,NA,12.429210194719555,19.694879207527265,NA,j,NA,j,1,275,12.429210194719555,1,0.6548588275909424,12.4292101947196,19.6948792075273,NA
12,2,centered,attraction,trinary,l-s-dl,equal_2_jnd,[2 1 0],236,286,316.0,9.25,13.25,15.25,316,286,236,15.25,13.25,9.25,l,k,k,2,286,13.25,1,3.278087615966797,13.25,9.25,s
12,2,centered,attraction,trinary,l-s-ds,easy,[2 1 0],247,301,224.0,10.25,14.25,8.25,224,301,247,8.25,14.25,10.25,l,NA,l,3,247,10.25,1,1.0837233066558838,10.25,8.25,ds
12,2,centered,filler,trinary,NA,NA,[1 2 0],294,169,257.0,13.812996056050542,2.4959196138661355,11.0,169,257,294,2.4959196138661355,11,13.812996056050542,l,NA,k,2,257,11,0,1.2262930870056152,11.0,2.49591961386614,NA
12,2,centered,attraction,binary,l-s,easy,[1 0],224,273,NA,8.25,12.25,NA,273,224,NA,12.25,8.25,NA,j,NA,j,1,273,12.25,1,0.9560344219207764,12.25,8.25,s
12,2,centered,filler,binary,NA,NA,[1 0],205,267,NA,6.451501718212173,11.784537424100565,NA,267,205,NA,11.784537424100565,6.451501718212173,NA,k,NA,j,1,267,11.784537424100565,0,0.9036719799041748,11.7845374241006,6.45150171821217,NA
12,2,centered,attraction,binary,l-s,equal_1_jnd,[0 1],247,273,NA,10.25,12.25,NA,247,273,NA,10.25,12.25,NA,j,k,k,2,273,12.25,1,1.3052921295166016,10.25,12.25,l
12,2,centered,attraction,trinary,l-s-ds,difficult,[2 0 1],247,286,224.0,10.25,13.25,8.25,224,247,286,8.25,10.25,13.25,k,NA,k,2,247,10.25,1,3.0529184341430664,10.25,8.25,ds
12,2,centered,filler,trinary,NA,NA,[0 2 1],248,448,269.0,10.345305104835688,22.443864309461787,12.0,248,269,448,10.345305104835688,12,22.443864309461787,j,NA,k,2,269,12,0,1.3501121997833252,10.3453051048357,22.4438643094618,NA
12,2,centered,attraction,binary,l-s,easy,[0 1],224,273,NA,8.25,12.25,NA,224,273,NA,8.25,12.25,NA,k,NA,j,1,224,8.25,0,1.9562759399414062,12.25,8.25,l
12,2,centered,attraction,trinary,l-s-ds,easy,[2 0 1],224,273,203.0,8.25,12.25,6.25,203,224,273,6.25,8.25,12.25,l,NA,k,2,224,8.25,0,0.6611423492431641,12.25,8.25,l
12,2,centered,attraction,trinary,l-s-dl,easy,[1 2 0],224,273,301.0,8.25,12.25,14.25,273,301,224,12.25,14.25,8.25,j,NA,j,1,273,12.25,1,0.9702656269073486,12.25,8.25,s
12,2,centered,attraction,binary,l-s,equal_2_jnd,[0 1],236,286,NA,9.25,13.25,NA,236,286,NA,9.25,13.25,NA,j,k,k,2,286,13.25,1,0.9490439891815186,13.25,9.25,s
12,2,centered,attraction,binary,l-s,easy,[1 0],247,301,NA,10.25,14.25,NA,301,247,NA,14.25,10.25,NA,k,NA,j,1,301,14.25,0,0.927915096282959,10.25,14.25,l
12,2,centered,attraction,trinary,l-s-ds,easy,[1 2 0],224,273,203.0,8.25,12.25,6.25,273,203,224,12.25,6.25,8.25,j,NA,l,3,224,8.25,0,0.8148667812347412,12.25,8.25,l
12,2,centered,attraction,binary,l-s,easy,[0 1],224,273,NA,8.25,12.25,NA,224,273,NA,8.25,12.25,NA,k,NA,k,2,273,12.25,1,1.5102722644805908,12.25,8.25,s
12,2,centered,attraction,binary,l-s,difficult,[0 1],236,273,NA,9.25,12.25,NA,236,273,NA,9.25,12.25,NA,k,NA,k,2,273,12.25,1,0.9781098365783691,12.25,9.25,s
12,2,centered,filler,binary,NA,NA,[1 0],272,237,NA,12.178297551202068,9.388482722570188,NA,237,272,NA,9.388482722570188,12.178297551202068,NA,k,NA,k,2,272,12.178297551202068,1,0.9910731315612793,12.1782975512021,9.38848272257019,NA
12,2,centered,filler,binary,NA,NA,[0 1],248,246,NA,10.30760504079765,10.114881485933438,NA,248,246,NA,10.30760504079765,10.114881485933438,NA,j,NA,j,1,248,10.30760504079765,1,1.9214258193969727,10.1148814859334,10.3076050407977,NA
12,2,centered,attraction,trinary,l-s-dl,equal_1_jnd,[1 0 2],247,273,301.0,10.25,12.25,14.25,273,247,301,12.25,10.25,14.25,k,j,j,1,273,12.25,1,1.023423433303833,10.25,14.25,l
12,2,centered,attraction,binary,l-s,difficult,[1 0],247,286,NA,10.25,13.25,NA,286,247,NA,13.25,10.25,NA,k,NA,j,1,286,13.25,0,0.9560296535491943,10.25,13.25,l
12,2,centered,filler,trinary,NA,NA,[1 0 2],261,331,158.0,11.361942909958636,16.24591615400277,1.0,331,261,158,16.24591615400277,11.361942909958636,1,k,NA,k,2,261,11.361942909958636,1,0.8645339012145996,1.0,16.2459161540028,NA
12,2,centered,attraction,trinary,l-s-dl,difficult,[2 1 0],247,286,316.0,10.25,13.25,15.25,316,286,247,15.25,13.25,10.25,l,NA,k,2,286,13.25,0,1.2684552669525146,10.25,15.25,l
12,2,centered,attraction,trinary,l-s-ds,difficult,[1 2 0],236,273,214.0,9.25,12.25,7.25,273,214,236,12.25,7.25,9.25,j,NA,l,3,236,9.25,0,1.3742356300354004,12.25,9.25,l
12,2,centered,attraction,binary,l-s,equal_2_jnd,[0 1],236,286,NA,9.25,13.25,NA,236,286,NA,9.25,13.25,NA,j,k,k,2,286,13.25,1,3.050149917602539,13.25,9.25,s
12,2,centered,filler,binary,NA,NA,[1 0],258,204,NA,11.11596568841289,6.259801906999201,NA,204,258,NA,6.259801906999201,11.11596568841289,NA,k,NA,k,2,258,11.11596568841289,1,1.0592520236968994,11.1159656884129,6.2598019069992,NA
12,2,centered,attraction,binary,l-s,difficult,[1 0],236,273,NA,9.25,12.25,NA,273,236,NA,12.25,9.25,NA,j,NA,j,1,273,12.25,1,0.9575963020324707,12.25,9.25,s
12,2,centered,attraction,trinary,l-s-dl,difficult,[2 0 1],236,273,301.0,9.25,12.25,14.25,301,236,273,14.25,9.25,12.25,l,NA,l,3,273,12.25,1,0.7619431018829346,12.25,9.25,s
12,2,centered,attraction,trinary,l-s-dl,equal_2_jnd,[0 2 1],236,286,316.0,9.25,13.25,15.25,236,316,286,9.25,15.25,13.25,j,l,l,3,286,13.25,1,0.8703768253326416,13.25,9.25,s
12,2,centered,attraction,binary,l-s,easy,[0 1],247,301,NA,10.25,14.25,NA,247,301,NA,10.25,14.25,NA,j,NA,j,1,247,10.25,1,2.059016704559326,10.25,14.25,s
12,2,centered,attraction,binary,l-s,easy,[1 0],247,301,NA,10.25,14.25,NA,301,247,NA,14.25,10.25,NA,k,NA,j,1,301,14.25,0,1.7875137329101562,10.25,14.25,l
12,2,centered,attraction,binary,l-s,equal_1_jnd,[0 1],247,273,NA,10.25,12.25,NA,247,273,NA,10.25,12.25,NA,j,k,k,2,273,12.25,1,1.4674630165100098,10.25,12.25,l
12,2,centered,attraction,trinary,l-s-dl,easy,[2 1 0],224,273,301.0,8.25,12.25,14.25,301,273,224,14.25,12.25,8.25,k,NA,k,2,273,12.25,1,0.7544598579406738,12.25,8.25,s
12,2,centered,attraction,binary,l-s,difficult,[1 0],247,286,NA,10.25,13.25,NA,286,247,NA,13.25,10.25,NA,k,NA,k,2,247,10.25,1,1.6023285388946533,10.25,13.25,s
12,2,centered,filler,binary,NA,NA,[0 1],267,201,NA,11.845278196649002,6.012441776110791,NA,267,201,NA,11.845278196649002,6.012441776110791,NA,j,NA,j,1,267,11.845278196649002,1,0.6702234745025635,11.845278196649,6.01244177611079,NA
12,2,centered,filler,trinary,NA,NA,[2 1 0],214,344,361.0,7.259586441660442,17.02235630946234,18.0,361,344,214,18,17.02235630946234,7.259586441660442,l,NA,l,3,214,7.259586441660442,1,1.5003397464752197,17.0223563094623,7.25958644166044,NA
12,2,centered,attraction,binary,l-s,easy,[1 0],224,273,NA,8.25,12.25,NA,273,224,NA,12.25,8.25,NA,j,NA,j,1,273,12.25,1,0.8950221538543701,12.25,8.25,s
12,2,centered,attraction,trinary,l-s-ds,equal_1_jnd,[1 2 0],247,273,224.0,10.25,12.25,8.25,273,224,247,12.25,8.25,10.25,l,j,j,1,273,12.25,1,1.3105201721191406,10.25,8.25,s
12,2,centered,attraction,trinary,l-s-dl,equal_1_jnd,[2 0 1],247,273,301.0,10.25,12.25,14.25,301,247,273,14.25,10.25,12.25,k,l,l,3,273,12.25,1,1.3495213985443115,10.25,14.25,l
12,2,centered,filler,trinary,NA,NA,[0 2 1],275,271,182.0,12.454308774276392,12.122597752022555,4.0,275,182,271,12.454308774276392,4,12.122597752022555,j,NA,j,1,275,12.454308774276392,1,2.225670337677002,12.1225977520226,4.0,NA
12,2,centered,filler,trinary,NA,NA,[0 2 1],272,185,211.0,12.167162566676303,4.285864474950358,7.0,272,211,185,12.167162566676303,7,4.285864474950358,j,NA,j,1,272,12.167162566676303,1,0.6990272998809814,12.1671625666763,7.0,NA
12,2,centered,filler,binary,NA,NA,[0 1],262,192,NA,11.410837720739304,5.025345634203404,NA,262,192,NA,11.410837720739304,5.025345634203404,NA,j,NA,j,1,262,11.410837720739304,1,0.807894229888916,11.4108377207393,5.0253456342034,NA
12,2,centered,attraction,trinary,l-s-dl,easy,[2 1 0],247,301,331.0,10.25,14.25,16.25,331,301,247,16.25,14.25,10.25,l,NA,k,2,301,14.25,0,1.5048635005950928,10.25,16.25,l
12,2,centered,attraction,binary,l-s,difficult,[0 1],247,286,NA,10.25,13.25,NA,247,286,NA,10.25,13.25,NA,j,NA,k,2,286,13.25,0,1.6785330772399902,10.25,13.25,l
12,2,centered,attraction,binary,l-s,equal_2_jnd,[1 0],236,286,NA,9.25,13.25,NA,286,236,NA,13.25,9.25,NA,j,k,j,1,286,13.25,1,0.7032668590545654,13.25,9.25,s
12,2,centered,filler,trinary,NA,NA,[1 2 0],242,154,379.0,9.81086720334078,0.4888625058811158,19.0,154,379,242,0.4888625058811158,19,9.81086720334078,l,NA,l,3,242,9.81086720334078,1,1.0030114650726318,0.488862505881116,9.81086720334078,NA
12,2,centered,filler,binary,NA,NA,[1 0],300,234,NA,14.23978476824527,9.095668499940077,NA,234,300,NA,9.095668499940077,14.23978476824527,NA,k,NA,k,2,300,14.23978476824527,1,2.6779305934906006,14.2397847682453,9.09566849994008,NA
12,2,centered,attraction,binary,l-s,easy,[1 0],247,301,NA,10.25,14.25,NA,301,247,NA,14.25,10.25,NA,k,NA,j,1,301,14.25,0,0.9915916919708252,10.25,14.25,l
12,2,centered,attraction,trinary,l-s-ds,equal_2_jnd,[1 2 0],236,286,214.0,9.25,13.25,7.25,286,214,236,13.25,7.25,9.25,l,j,l,3,236,9.25,1,1.83967924118042,13.25,9.25,l
12,2,centered,filler,trinary,NA,NA,[0 1 2],283,401,165.0,12.982958076801571,20.14122284366749,2.0,283,401,165,12.982958076801571,20.14122284366749,2,j,NA,j,1,283,12.982958076801571,1,1.1388177871704102,12.9829580768016,20.1412228436675,NA
12,2,centered,filler,binary,NA,NA,[1 0],241,219,NA,9.692925932172274,7.763479906716384,NA,219,241,NA,7.763479906716384,9.692925932172274,NA,k,NA,k,2,241,9.692925932172274,1,1.3684191703796387,7.76347990671638,9.69292593217227,NA
12,2,centered,attraction,binary,l-s,difficult,[0 1],236,273,NA,9.25,12.25,NA,236,273,NA,9.25,12.25,NA,k,NA,k,2,273,12.25,1,0.7954821586608887,12.25,9.25,s
12,2,centered,attraction,binary,l-s,easy,[1 0],224,273,NA,8.25,12.25,NA,273,224,NA,12.25,8.25,NA,j,NA,j,1,273,12.25,1,0.9017612934112549,12.25,8.25,s
12,2,centered,attraction,trinary,l-s-dl,difficult,[0 2 1],236,273,301.0,9.25,12.25,14.25,236,301,273,9.25,14.25,12.25,l,NA,l,3,273,12.25,1,2.7661311626434326,12.25,9.25,s
12,2,centered,attraction,trinary,l-s-dl,difficult,[2 1 0],247,286,316.0,10.25,13.25,15.25,316,286,247,15.25,13.25,10.25,l,NA,l,3,247,10.25,1,3.400343894958496,10.25,15.25,s
12,2,centered,attraction,trinary,l-s-dl,easy,[1 2 0],247,301,331.0,10.25,14.25,16.25,301,331,247,14.25,16.25,10.25,l,NA,l,3,247,10.25,1,1.0976111888885498,10.25,16.25,s
12,2,centered,attraction,trinary,l-s-ds,equal_2_jnd,[0 1 2],236,286,214.0,9.25,13.25,7.25,236,286,214,9.25,13.25,7.25,j,k,j,1,236,9.25,1,1.5618007183074951,13.25,9.25,l
12,2,centered,attraction,trinary,l-s-ds,difficult,[1 2 0],236,273,214.0,9.25,12.25,7.25,273,214,236,12.25,7.25,9.25,j,NA,l,3,236,9.25,0,1.1720373630523682,12.25,9.25,l
12,2,centered,attraction,binary,l-s,equal_1_jnd,[1 0],247,273,NA,10.25,12.25,NA,273,247,NA,12.25,10.25,NA,j,k,j,1,273,12.25,1,1.059140920639038,10.25,12.25,l
12,2,centered,filler,trinary,NA,NA,[1 2 0],278,289,327.0,12.672850561937024,13.434216311434284,16.0,289,327,278,13.434216311434284,16,12.672850561937024,l,NA,l,3,278,12.672850561937024,1,1.6810333728790283,12.672850561937,16.0,NA
12,2,centered,attraction,trinary,l-s-dl,easy,[1 0 2],224,273,301.0,8.25,12.25,14.25,273,224,301,12.25,8.25,14.25,j,NA,j,1,273,12.25,1,0.9026734828948975,12.25,8.25,s
12,2,centered,attraction,binary,l-s,difficult,[0 1],247,286,NA,10.25,13.25,NA,247,286,NA,10.25,13.25,NA,j,NA,k,2,286,13.25,0,0.7077562808990479,10.25,13.25,l
12,2,centered,attraction,binary,l-s,difficult,[0 1],236,273,NA,9.25,12.25,NA,236,273,NA,9.25,12.25,NA,k,NA,k,2,273,12.25,1,1.3062512874603271,12.25,9.25,s
12,2,centered,filler,trinary,NA,NA,[1 2 0],321,312,418.0,15.58609528635886,15.020702904439531,21.0,312,418,321,15.020702904439531,21,15.58609528635886,l,NA,j,1,312,15.020702904439531,0,1.5558676719665527,15.0207029044395,21.0,NA
12,2,centered,filler,binary,NA,NA,[0 1],232,171,NA,8.908381653481424,2.6258213486289605,NA,232,171,NA,8.908381653481424,2.6258213486289605,NA,j,NA,j,1,232,8.908381653481424,1,1.3067679405212402,2.62582134862896,8.90838165348142,NA
12,2,centered,filler,binary,NA,NA,[1 0],283,301,NA,13.01668875599818,14.257775298901834,NA,301,283,NA,14.257775298901834,13.01668875599818,NA,k,NA,j,1,301,14.257775298901834,0,0.6225299835205078,13.0166887559982,14.2577752989018,NA
12,2,centered,filler,trinary,NA,NA,[2 1 0],232,272,361.0,8.897313637584615,12.21474049554672,18.0,361,272,232,18,12.21474049554672,8.897313637584615,l,NA,k,2,272,12.21474049554672,0,1.6971173286437988,12.2147404955467,8.89731363758461,NA
12,2,centered,attraction,trinary,l-s-dl,difficult,[1 2 0],247,286,316.0,10.25,13.25,15.25,286,316,247,13.25,15.25,10.25,l,NA,j,1,286,13.25,0,1.8324062824249268,10.25,15.25,l
12,2,centered,attraction,binary,l-s,equal_1_jnd,[0 1],247,273,NA,10.25,12.25,NA,247,273,NA,10.25,12.25,NA,j,k,j,1,247,10.25,1,2.3010127544403076,10.25,12.25,s
12,2,centered,attraction,binary,l-s,easy,[1 0],247,301,NA,10.25,14.25,NA,301,247,NA,14.25,10.25,NA,k,NA,j,1,301,14.25,0,2.2930490970611572,10.25,14.25,l
12,2,centered,attraction,trinary,l-s-dl,equal_1_jnd,[0 2 1],247,273,301.0,10.25,12.25,14.25,247,301,273,10.25,14.25,12.25,j,l,l,3,273,12.25,1,1.3942129611968994,10.25,14.25,l
12,2,centered,attraction,binary,l-s,equal_1_jnd,[0 1],247,273,NA,10.25,12.25,NA,247,273,NA,10.25,12.25,NA,j,k,k,2,273,12.25,1,1.718947172164917,10.25,12.25,l
12,2,centered,attraction,trinary,l-s-dl,difficult,[0 2 1],236,273,301.0,9.25,12.25,14.25,236,301,273,9.25,14.25,12.25,l,NA,l,3,273,12.25,1,1.9992835521697998,12.25,9.25,s
12,2,centered,attraction,trinary,l-s-ds,easy,[0 1 2],224,273,203.0,8.25,12.25,6.25,224,273,203,8.25,12.25,6.25,k,NA,k,2,273,12.25,1,1.7637062072753906,12.25,8.25,ds
13,1,right,attraction,trinary,l-s-dl,difficult,[2 1 0],297,344,379.0,14,17,19.0,379,344,297,19,17,14,l,NA,k,2,344,17,0,7.600417613983154,14,19.0,l
13,1,right,attraction,trinary,l-s-dl,easy,[0 2 1],269,327,361.0,12,16,18.0,269,361,327,12,18,16,l,NA,j,1,269,12,0,7.89176082611084,12,18.0,s
13,1,right,attraction,binary,l-s,equal_1_jnd,[0 1],297,327,NA,14,16,NA,297,327,NA,14,16,NA,j,k,j,1,297,14,1,2.2452476024627686,14,16,s
