participant,computer_number,exp_condition,trial_type,set_type,set,difficulty_level,stim_order,stim_1_phy,stim_2_phy,stim_3_phy,stim_1_psy,stim_2_psy,stim_3_psy,stim_1_phy_shuffled,stim_2_phy_shuffled,stim_3_phy_shuffled,stim_1_psy_shuffled,stim_2_psy_shuffled,stim_3_psy_shuffled,key_correct_1,key_correct_2,key_resp,choice_num,choice_stim_phy,choice_stim_psy,correct,rt,stim_min,stim_max,choice
1,1,centered,attraction,binary,l-s,equal_2_jnd,[1 0],236,286,NA,9.25,13.25,NA,286,236,NA,13.25,9.25,NA,j,k,k,2,236,9.25,1,8.760498046875,13.25,9.25,l
1,1,centered,filler,trinary,NA,NA,[0 2 1],232,272,361.0,8.897313637584615,12.21474049554672,18.0,232,361,272,8.897313637584615,18,12.21474049554672,j,NA,j,1,232,8.897313637584615,1,7.963935136795044,12.2147404955467,8.89731363758461,NA
1,1,centered,attraction,binary,l-s,equal_1_jnd,[1 0],247,273,NA,10.25,12.25,NA,273,247,NA,12.25,10.25,NA,j,k,j,1,273,12.25,1,5.205684661865234,10.25,12.25,l
1,1,centered,attraction,trinary,l-s-dl,easy,[2 1 0],247,301,331.0,10.25,14.25,16.25,331,301,247,16.25,14.25,10.25,l,NA,k,2,301,14.25,0,8.836004257202148,10.25,16.25,l
1,1,centered,filler,binary,NA,NA,[1 0],241,219,NA,9.692925932172274,7.763479906716384,NA,219,241,NA,7.763479906716384,9.692925932172274,NA,k,NA,k,2,241,9.692925932172274,1,2.763643741607666,7.76347990671638,9.69292593217227,NA
1,1,centered,attraction,trinary,l-s-dl,easy,[0 1 2],224,273,301.0,8.25,12.25,14.25,224,273,301,8.25,12.25,14.25,k,NA,k,2,273,12.25,1,3.8856558799743652,12.25,8.25,s
1,1,centered,attraction,trinary,l-s-dl,easy,[1 0 2],224,273,301.0,8.25,12.25,14.25,273,224,301,12.25,8.25,14.25,j,NA,j,1,273,12.25,1,3.0150842666625977,12.25,8.25,s
1,1,centered,attraction,trinary,l-s-dl,equal_1_jnd,[2 1 0],247,273,301.0,10.25,12.25,14.25,301,273,247,14.25,12.25,10.25,l,k,k,2,273,12.25,1,7.782300233840942,10.25,14.25,l
1,1,centered,filler,binary,NA,NA,[1 0],258,204,NA,11.11596568841289,6.259801906999201,NA,204,258,NA,6.259801906999201,11.11596568841289,NA,k,NA,k,2,258,11.11596568841289,1,1.4464507102966309,11.1159656884129,6.2598019069992,NA
1,1,centered,attraction,binary,l-s,easy,[1 0],224,273,NA,8.25,12.25,NA,273,224,NA,12.25,8.25,NA,j,NA,k,2,224,8.25,0,1.7628464698791504,12.25,8.25,l
1,1,centered,attraction,binary,l-s,difficult,[0 1],247,286,NA,10.25,13.25,NA,247,286,NA,10.25,13.25,NA,j,NA,j,1,247,10.25,1,1.7504911422729492,10.25,13.25,s
1,1,centered,filler,trinary,NA,NA,[1 0 2],294,169,257.0,13.812996056050542,2.4959196138661355,11.0,169,294,257,2.4959196138661355,13.812996056050542,11,k,NA,k,2,294,13.812996056050542,1,2.524911880493164,11.0,2.49591961386614,NA
1,1,centered,filler,binary,NA,NA,[1 0],275,392,NA,12.429210194719555,19.694879207527265,NA,392,275,NA,19.694879207527265,12.429210194719555,NA,k,NA,k,2,275,12.429210194719555,1,2.462280035018921,12.4292101947196,19.6948792075273,NA
1,1,centered,attraction,trinary,l-s-ds,easy,[1 2 0],247,301,224.0,10.25,14.25,8.25,301,224,247,14.25,8.25,10.25,l,NA,j,1,301,14.25,0,4.179828882217407,10.25,8.25,s
1,1,centered,attraction,trinary,l-s-dl,easy,[0 2 1],224,273,301.0,8.25,12.25,14.25,224,301,273,8.25,14.25,12.25,l,NA,k,2,301,14.25,0,3.9782373905181885,12.25,8.25,l
1,1,centered,attraction,binary,l-s,equal_2_jnd,[0 1],236,286,NA,9.25,13.25,NA,236,286,NA,9.25,13.25,NA,j,k,j,1,236,9.25,1,2.002859592437744,13.25,9.25,l
1,1,centered,attraction,trinary,l-s-dl,difficult,[2 1 0],236,273,301.0,9.25,12.25,14.25,301,273,236,14.25,12.25,9.25,k,NA,k,2,273,12.25,1,1.9317395687103271,12.25,9.25,s
1,1,centered,filler,binary,NA,NA,[1 0],205,267,NA,6.451501718212173,11.784537424100565,NA,267,205,NA,11.784537424100565,6.451501718212173,NA,k,NA,j,1,267,11.784537424100565,0,1.5032424926757812,11.7845374241006,6.45150171821217,NA
1,1,centered,attraction,trinary,l-s-ds,equal_1_jnd,[2 0 1],247,273,224.0,10.25,12.25,8.25,224,247,273,8.25,10.25,12.25,k,l,j,1,224,8.25,0,5.831698417663574,10.25,8.25,l
1,1,centered,filler,binary,NA,NA,[1 0],262,192,NA,11.410837720739304,5.025345634203404,NA,192,262,NA,5.025345634203404,11.410837720739304,NA,k,NA,k,2,262,11.410837720739304,1,1.1088216304779053,11.4108377207393,5.0253456342034,NA
1,1,centered,attraction,binary,l-s,equal_2_jnd,[1 0],236,286,NA,9.25,13.25,NA,286,236,NA,13.25,9.25,NA,j,k,j,1,286,13.25,1,1.4197514057159424,13.25,9.25,s
1,1,centered,filler,binary,NA,NA,[0 1],283,301,NA,13.01668875599818,14.257775298901834,NA,283,301,NA,13.01668875599818,14.257775298901834,NA,j,NA,j,1,283,13.01668875599818,1,2.820895195007324,13.0166887559982,14.2577752989018,NA
1,1,centered,filler,binary,NA,NA,[0 1],244,284,NA,9.965048890455945,13.076051014359107,NA,244,284,NA,9.965048890455945,13.076051014359107,NA,j,NA,k,2,284,13.076051014359107,0,2.480645179748535,13.0760510143591,9.96504889045594,NA
1,1,centered,attraction,binary,l-s,easy,[1 0],224,273,NA,8.25,12.25,NA,273,224,NA,12.25,8.25,NA,j,NA,j,1,273,12.25,1,2.4547412395477295,12.25,8.25,s
1,1,centered,attraction,trinary,l-s-dl,easy,[2 1 0],247,301,331.0,10.25,14.25,16.25,331,301,247,16.25,14.25,10.25,l,NA,k,2,301,14.25,0,5.164372444152832,10.25,16.25,l
1,1,centered,attraction,binary,l-s,equal_1_jnd,[0 1],247,273,NA,10.25,12.25,NA,247,273,NA,10.25,12.25,NA,j,k,j,1,247,10.25,1,2.004542589187622,10.25,12.25,s
1,1,centered,attraction,trinary,l-s-dl,difficult,[1 2 0],247,286,316.0,10.25,13.25,15.25,286,316,247,13.25,15.25,10.25,l,NA,k,2,316,15.25,0,3.415895938873291,10.25,15.25,dl
1,1,centered,attraction,trinary,l-s-ds,difficult,[0 2 1],236,273,214.0,9.25,12.25,7.25,236,214,273,9.25,7.25,12.25,l,NA,j,1,236,9.25,0,2.8961679935455322,12.25,9.25,l
1,1,centered,attraction,binary,l-s,difficult,[1 0],236,273,NA,9.25,12.25,NA,273,236,NA,12.25,9.25,NA,j,NA,k,2,236,9.25,0,2.1420094966888428,12.25,9.25,l
1,1,centered,filler,trinary,NA,NA,[0 2 1],242,154,379.0,9.81086720334078,0.4888625058811158,19.0,242,379,154,9.81086720334078,19,0.4888625058811158,j,NA,j,1,242,9.81086720334078,1,8.40861201286316,0.488862505881116,9.81086720334078,NA
1,1,centered,attraction,trinary,l-s-dl,equal_1_jnd,[0 2 1],247,273,301.0,10.25,12.25,14.25,247,301,273,10.25,14.25,12.25,j,l,j,1,247,10.25,1,1.4103953838348389,10.25,14.25,s
1,1,centered,attraction,binary,l-s,equal_1_jnd,[0 1],247,273,NA,10.25,12.25,NA,247,273,NA,10.25,12.25,NA,j,k,j,1,247,10.25,1,1.2357633113861084,10.25,12.25,s
1,1,centered,attraction,trinary,l-s-ds,difficult,[0 1 2],236,273,214.0,9.25,12.25,7.25,236,273,214,9.25,12.25,7.25,k,NA,j,1,236,9.25,0,0.9282751083374023,12.25,9.25,l
1,1,centered,filler,trinary,NA,NA,[0 2 1],271,200,191.0,12.140217947418758,5.942907377611846,5.0,271,191,200,12.140217947418758,5,5.942907377611846,j,NA,j,1,271,12.140217947418758,1,1.7096333503723145,12.1402179474188,5.94290737761185,NA
1,1,centered,attraction,binary,l-s,equal_2_jnd,[0 1],236,286,NA,9.25,13.25,NA,236,286,NA,9.25,13.25,NA,j,k,j,1,236,9.25,1,1.537045955657959,13.25,9.25,l
1,1,centered,attraction,trinary,l-s-dl,difficult,[1 0 2],247,286,316.0,10.25,13.25,15.25,286,247,316,13.25,10.25,15.25,k,NA,k,2,247,10.25,1,2.049808979034424,10.25,15.25,s
1,1,centered,filler,trinary,NA,NA,[2 1 0],275,271,182.0,12.454308774276392,12.122597752022555,4.0,182,271,275,4,12.122597752022555,12.454308774276392,l,NA,k,2,271,12.122597752022555,0,1.3106176853179932,12.1225977520226,4.0,NA
1,1,centered,attraction,binary,l-s,difficult,[0 1],247,286,NA,10.25,13.25,NA,247,286,NA,10.25,13.25,NA,j,NA,j,1,247,10.25,1,1.978942632675171,10.25,13.25,s
1,1,centered,attraction,binary,l-s,easy,[1 0],247,301,NA,10.25,14.25,NA,301,247,NA,14.25,10.25,NA,k,NA,k,2,247,10.25,1,1.561464548110962,10.25,14.25,s
1,1,centered,attraction,trinary,l-s-dl,difficult,[1 2 0],236,273,301.0,9.25,12.25,14.25,273,301,236,12.25,14.25,9.25,j,NA,k,2,301,14.25,0,4.57899022102356,12.25,9.25,l
1,1,centered,filler,binary,NA,NA,[1 0],272,237,NA,12.178297551202068,9.388482722570188,NA,237,272,NA,9.388482722570188,12.178297551202068,NA,k,NA,j,1,237,9.388482722570188,0,1.4361279010772705,12.1782975512021,9.38848272257019,NA
1,1,centered,attraction,binary,l-s,easy,[0 1],247,301,NA,10.25,14.25,NA,247,301,NA,10.25,14.25,NA,j,NA,j,1,247,10.25,1,1.8763628005981445,10.25,14.25,s
1,1,centered,filler,trinary,NA,NA,[1 0 2],261,331,158.0,11.361942909958636,16.24591615400277,1.0,331,261,158,16.24591615400277,11.361942909958636,1,k,NA,k,2,261,11.361942909958636,1,2.030179500579834,1.0,16.2459161540028,NA
1,1,centered,attraction,trinary,l-s-ds,easy,[2 1 0],224,273,203.0,8.25,12.25,6.25,203,273,224,6.25,12.25,8.25,k,NA,k,2,273,12.25,1,2.057687997817993,12.25,8.25,ds
1,1,centered,attraction,binary,l-s,difficult,[0 1],236,273,NA,9.25,12.25,NA,236,273,NA,9.25,12.25,NA,k,NA,j,1,236,9.25,0,1.9644298553466797,12.25,9.25,l
1,1,centered,attraction,binary,l-s,easy,[0 1],224,273,NA,8.25,12.25,NA,224,273,NA,8.25,12.25,NA,k,NA,k,2,273,12.25,1,2.7634212970733643,12.25,8.25,s
1,1,centered,attraction,binary,l-s,difficult,[1 0],247,286,NA,10.25,13.25,NA,286,247,NA,13.25,10.25,NA,k,NA,k,2,247,10.25,1,2.000109910964966,10.25,13.25,s
1,1,centered,attraction,binary,l-s,difficult,[1 0],247,286,NA,10.25,13.25,NA,286,247,NA,13.25,10.25,NA,k,NA,j,1,286,13.25,0,1.6459546089172363,10.25,13.25,l
1,1,centered,attraction,binary,l-s,equal_2_jnd,[0 1],236,286,NA,9.25,13.25,NA,236,286,NA,9.25,13.25,NA,j,k,j,1,236,9.25,1,2.9181630611419678,13.25,9.25,l
1,1,centered,attraction,binary,l-s,difficult,[0 1],236,273,NA,9.25,12.25,NA,236,273,NA,9.25,12.25,NA,k,NA,j,1,236,9.25,0,0.8108994960784912,12.25,9.25,l
1,1,centered,filler,binary,NA,NA,[0 1],300,234,NA,14.23978476824527,9.095668499940077,NA,300,234,NA,14.23978476824527,9.095668499940077,NA,j,NA,k,2,234,9.095668499940077,0,1.6491572856903076,14.2397847682453,9.09566849994008,NA
1,1,centered,attraction,trinary,l-s-ds,difficult,[0 2 1],247,286,224.0,10.25,13.25,8.25,247,224,286,10.25,8.25,13.25,j,NA,j,1,247,10.25,1,3.345078706741333,10.25,8.25,ds
1,1,centered,attraction,trinary,l-s-ds,equal_2_jnd,[1 0 2],236,286,214.0,9.25,13.25,7.25,286,236,214,13.25,9.25,7.25,k,j,k,2,236,9.25,1,1.5594451427459717,13.25,9.25,l
1,1,centered,filler,binary,NA,NA,[0 1],248,246,NA,10.30760504079765,10.114881485933438,NA,248,246,NA,10.30760504079765,10.114881485933438,NA,j,NA,j,1,248,10.30760504079765,1,6.548851251602173,10.1148814859334,10.3076050407977,NA
1,1,centered,attraction,binary,l-s,easy,[1 0],247,301,NA,10.25,14.25,NA,301,247,NA,14.25,10.25,NA,k,NA,k,2,247,10.25,1,2.2121732234954834,10.25,14.25,s
1,1,centered,attraction,trinary,l-s-dl,difficult,[2 0 1],247,286,316.0,10.25,13.25,15.25,316,247,286,15.25,10.25,13.25,k,NA,k,2,247,10.25,1,2.110422372817993,10.25,15.25,s
1,1,centered,attraction,trinary,l-s-ds,easy,[2 1 0],224,273,203.0,8.25,12.25,6.25,203,273,224,6.25,12.25,8.25,k,NA,k,2,273,12.25,1,7.114697456359863,12.25,8.25,ds
1,1,centered,attraction,binary,l-s,difficult,[0 1],236,273,NA,9.25,12.25,NA,236,273,NA,9.25,12.25,NA,k,NA,j,1,236,9.25,0,1.9679224491119385,12.25,9.25,l
1,1,centered,attraction,trinary,l-s-dl,equal_1_jnd,[0 2 1],247,273,301.0,10.25,12.25,14.25,247,301,273,10.25,14.25,12.25,j,l,j,1,247,10.25,1,1.5879979133605957,10.25,14.25,s
1,1,centered,attraction,binary,l-s,difficult,[1 0],247,286,NA,10.25,13.25,NA,286,247,NA,13.25,10.25,NA,k,NA,j,1,286,13.25,0,2.908914089202881,10.25,13.25,l
1,1,centered,attraction,trinary,l-s-ds,difficult,[2 0 1],236,273,214.0,9.25,12.25,7.25,214,236,273,7.25,9.25,12.25,l,NA,k,2,236,9.25,0,2.724729299545288,12.25,9.25,l
1,1,centered,attraction,binary,l-s,difficult,[0 1],236,273,NA,9.25,12.25,NA,236,273,NA,9.25,12.25,NA,k,NA,j,1,236,9.25,0,1.1712584495544434,12.25,9.25,l
1,1,centered,attraction,binary,l-s,equal_2_jnd,[0 1],236,286,NA,9.25,13.25,NA,236,286,NA,9.25,13.25,NA,j,k,k,2,286,13.25,1,2.377068042755127,13.25,9.25,s
1,1,centered,attraction,trinary,l-s-ds,equal_2_jnd,[1 0 2],236,286,214.0,9.25,13.25,7.25,286,236,214,13.25,9.25,7.25,k,j,k,2,236,9.25,1,3.289534330368042,13.25,9.25,l
1,1,centered,attraction,trinary,l-s-dl,equal_2_jnd,[1 0 2],236,286,316.0,9.25,13.25,15.25,286,236,316,13.25,9.25,15.25,k,j,k,2,236,9.25,1,3.1586127281188965,13.25,9.25,dl
1,1,centered,attraction,trinary,l-s-ds,easy,[1 2 0],247,301,224.0,10.25,14.25,8.25,301,224,247,14.25,8.25,10.25,l,NA,k,2,224,8.25,0,1.176555871963501,10.25,8.25,l
1,1,centered,attraction,binary,l-s,easy,[0 1],247,301,NA,10.25,14.25,NA,247,301,NA,10.25,14.25,NA,j,NA,j,1,247,10.25,1,4.268108367919922,10.25,14.25,s
1,1,centered,filler,trinary,NA,NA,[1 0 2],214,344,361.0,7.259586441660442,17.02235630946234,18.0,344,214,361,17.02235630946234,7.259586441660442,18,k,NA,k,2,214,7.259586441660442,1,3.9347920417785645,17.0223563094623,7.25958644166044,NA
1,1,centered,filler,trinary,NA,NA,[1 0 2],283,401,165.0,12.982958076801571,20.14122284366749,2.0,401,283,165,20.14122284366749,12.982958076801571,2,k,NA,k,2,283,12.982958076801571,1,2.0262069702148438,12.9829580768016,20.1412228436675,NA
1,1,centered,attraction,binary,l-s,difficult,[0 1],236,273,NA,9.25,12.25,NA,236,273,NA,9.25,12.25,NA,k,NA,k,2,273,12.25,1,3.566694736480713,12.25,9.25,s
1,1,centered,attraction,trinary,l-s-ds,easy,[2 1 0],247,301,224.0,10.25,14.25,8.25,224,301,247,8.25,14.25,10.25,l,NA,k,2,301,14.25,0,3.0258214473724365,10.25,8.25,s
1,1,centered,filler,trinary,NA,NA,[2 0 1],321,312,418.0,15.58609528635886,15.020702904439531,21.0,418,321,312,21,15.58609528635886,15.020702904439531,k,NA,k,2,321,15.58609528635886,1,1.5538794994354248,15.0207029044395,21.0,NA
1,1,centered,filler,binary,NA,NA,[0 1],232,171,NA,8.908381653481424,2.6258213486289605,NA,232,171,NA,8.908381653481424,2.6258213486289605,NA,j,NA,j,1,232,8.908381653481424,1,1.2512421607971191,2.62582134862896,8.90838165348142,NA
1,1,centered,attraction,binary,l-s,easy,[1 0],224,273,NA,8.25,12.25,NA,273,224,NA,12.25,8.25,NA,j,NA,k,2,224,8.25,0,2.2070705890655518,12.25,8.25,l
1,1,centered,filler,trinary,NA,NA,[1 2 0],248,448,269.0,10.345305104835688,22.443864309461787,12.0,448,269,248,22.443864309461787,12,10.345305104835688,l,NA,k,2,269,12,0,1.0162131786346436,10.3453051048357,22.4438643094618,NA
1,1,centered,attraction,trinary,l-s-ds,equal_2_jnd,[2 0 1],236,286,214.0,9.25,13.25,7.25,214,236,286,7.25,9.25,13.25,k,l,k,2,236,9.25,1,2.079685688018799,13.25,9.25,l
1,1,centered,attraction,trinary,l-s-dl,easy,[0 2 1],247,301,331.0,10.25,14.25,16.25,247,331,301,10.25,16.25,14.25,j,NA,j,1,247,10.25,1,1.5259854793548584,10.25,16.25,s
1,1,centered,attraction,trinary,l-s-dl,equal_2_jnd,[2 0 1],236,286,316.0,9.25,13.25,15.25,316,236,286,15.25,9.25,13.25,k,l,k,2,236,9.25,1,1.027494192123413,13.25,9.25,dl
1,1,centered,attraction,binary,l-s,easy,[0 1],247,301,NA,10.25,14.25,NA,247,301,NA,10.25,14.25,NA,j,NA,j,1,247,10.25,1,2.1258864402770996,10.25,14.25,s
1,1,centered,attraction,binary,l-s,equal_1_jnd,[1 0],247,273,NA,10.25,12.25,NA,273,247,NA,12.25,10.25,NA,j,k,k,2,247,10.25,1,1.425157070159912,10.25,12.25,s
1,1,centered,filler,trinary,NA,NA,[0 2 1],278,289,327.0,12.672850561937024,13.434216311434284,16.0,278,327,289,12.672850561937024,16,13.434216311434284,j,NA,j,1,278,12.672850561937024,1,1.315988540649414,12.672850561937,16.0,NA
1,1,centered,attraction,trinary,l-s-ds,easy,[2 0 1],224,273,203.0,8.25,12.25,6.25,203,224,273,6.25,8.25,12.25,l,NA,j,1,203,6.25,0,1.5947551727294922,12.25,8.25,s
1,1,centered,attraction,binary,l-s,difficult,[1 0],247,286,NA,10.25,13.25,NA,286,247,NA,13.25,10.25,NA,k,NA,k,2,247,10.25,1,1.9714207649230957,10.25,13.25,s
1,1,centered,attraction,trinary,l-s-dl,equal_2_jnd,[1 2 0],236,286,316.0,9.25,13.25,15.25,286,316,236,13.25,15.25,9.25,l,j,j,1,286,13.25,1,2.188875198364258,13.25,9.25,s
1,1,centered,attraction,binary,l-s,equal_1_jnd,[0 1],247,273,NA,10.25,12.25,NA,247,273,NA,10.25,12.25,NA,j,k,j,1,247,10.25,1,1.823943853378296,10.25,12.25,s
1,1,centered,attraction,binary,l-s,easy,[0 1],224,273,NA,8.25,12.25,NA,224,273,NA,8.25,12.25,NA,k,NA,j,1,224,8.25,0,1.7806365489959717,12.25,8.25,l
1,1,centered,attraction,binary,l-s,equal_1_jnd,[0 1],247,273,NA,10.25,12.25,NA,247,273,NA,10.25,12.25,NA,j,k,j,1,247,10.25,1,1.4194996356964111,10.25,12.25,s
1,1,centered,attraction,trinary,l-s-dl,difficult,[2 0 1],236,273,301.0,9.25,12.25,14.25,301,236,273,14.25,9.25,12.25,l,NA,k,2,236,9.25,0,1.556107521057129,12.25,9.25,dl
1,1,centered,attraction,binary,l-s,easy,[0 1],247,301,NA,10.25,14.25,NA,247,301,NA,10.25,14.25,NA,j,NA,k,2,301,14.25,0,3.865896701812744,10.25,14.25,l
1,1,centered,attraction,binary,l-s,easy,[1 0],224,273,NA,8.25,12.25,NA,273,224,NA,12.25,8.25,NA,j,NA,k,2,224,8.25,0,2.075857400894165,12.25,8.25,l
1,1,centered,attraction,trinary,l-s-ds,equal_1_jnd,[1 2 0],247,273,224.0,10.25,12.25,8.25,273,224,247,12.25,8.25,10.25,l,j,k,2,224,8.25,0,5.55005955696106,10.25,8.25,l
1,1,centered,filler,binary,NA,NA,[1 0],267,201,NA,11.845278196649002,6.012441776110791,NA,201,267,NA,6.012441776110791,11.845278196649002,NA,k,NA,j,1,201,6.012441776110791,0,4.61522650718689,11.845278196649,6.01244177611079,NA
1,1,centered,attraction,trinary,l-s-dl,easy,[1 0 2],224,273,301.0,8.25,12.25,14.25,273,224,301,12.25,8.25,14.25,j,NA,j,1,273,12.25,1,4.531480073928833,12.25,8.25,s
1,1,centered,attraction,binary,l-s,easy,[1 0],224,273,NA,8.25,12.25,NA,273,224,NA,12.25,8.25,NA,j,NA,j,1,273,12.25,1,1.2132632732391357,12.25,8.25,s
1,1,centered,attraction,trinary,l-s-ds,easy,[1 0 2],247,301,224.0,10.25,14.25,8.25,301,247,224,14.25,10.25,8.25,k,NA,k,2,247,10.25,1,0.9538211822509766,10.25,8.25,ds
1,1,centered,attraction,binary,l-s,difficult,[1 0],236,273,NA,9.25,12.25,NA,273,236,NA,12.25,9.25,NA,j,NA,k,2,236,9.25,0,1.3270435333251953,12.25,9.25,l
1,1,centered,attraction,binary,l-s,easy,[1 0],247,301,NA,10.25,14.25,NA,301,247,NA,14.25,10.25,NA,k,NA,k,2,247,10.25,1,1.3856146335601807,10.25,14.25,s
1,1,centered,filler,binary,NA,NA,[1 0],248,246,NA,10.30760504079765,10.114881485933438,NA,246,248,NA,10.114881485933438,10.30760504079765,NA,k,NA,j,1,246,10.114881485933438,0,1.3066136837005615,10.1148814859334,10.3076050407977,NA
1,1,centered,attraction,binary,l-s,difficult,[0 1],236,273,NA,9.25,12.25,NA,236,273,NA,9.25,12.25,NA,k,NA,j,1,236,9.25,0,2.7170302867889404,12.25,9.25,l
1,1,centered,attraction,binary,l-s,equal_2_jnd,[1 0],236,286,NA,9.25,13.25,NA,286,236,NA,13.25,9.25,NA,j,k,k,2,236,9.25,1,4.7340240478515625,13.25,9.25,l
1,1,centered,filler,binary,NA,NA,[1 0],244,284,NA,9.965048890455945,13.076051014359107,NA,284,244,NA,13.076051014359107,9.965048890455945,NA,k,NA,j,1,284,13.076051014359107,0,1.6223185062408447,13.0760510143591,9.96504889045594,NA
1,1,centered,attraction,binary,l-s,equal_1_jnd,[1 0],247,273,NA,10.25,12.25,NA,273,247,NA,12.25,10.25,NA,j,k,j,1,273,12.25,1,1.4358069896697998,10.25,12.25,l
1,1,centered,filler,trinary,NA,NA,[1 2 0],271,200,191.0,12.140217947418758,5.942907377611846,5.0,200,191,271,5.942907377611846,5,12.140217947418758,l,NA,j,1,200,5.942907377611846,0,1.2285759449005127,12.1402179474188,5.94290737761185,NA
1,1,centered,attraction,binary,l-s,difficult,[1 0],247,286,NA,10.25,13.25,NA,286,247,NA,13.25,10.25,NA,k,NA,j,1,286,13.25,0,1.6426963806152344,10.25,13.25,l
1,1,centered,attraction,binary,l-s,difficult,[1 0],236,273,NA,9.25,12.25,NA,273,236,NA,12.25,9.25,NA,j,NA,k,2,236,9.25,0,1.2456109523773193,12.25,9.25,l
1,1,centered,attraction,trinary,l-s-dl,equal_2_jnd,[0 1 2],236,286,316.0,9.25,13.25,15.25,236,286,316,9.25,13.25,15.25,j,k,j,1,236,9.25,1,3.8491601943969727,13.25,9.25,dl
1,1,centered,filler,binary,NA,NA,[0 1],283,301,NA,13.01668875599818,14.257775298901834,NA,283,301,NA,13.01668875599818,14.257775298901834,NA,j,NA,j,1,283,13.01668875599818,1,2.1761128902435303,13.0166887559982,14.2577752989018,NA
1,1,centered,attraction,trinary,l-s-dl,difficult,[2 1 0],236,273,301.0,9.25,12.25,14.25,301,273,236,14.25,12.25,9.25,k,NA,k,2,273,12.25,1,4.260368585586548,12.25,9.25,s
1,1,centered,attraction,trinary,l-s-ds,easy,[2 0 1],224,273,203.0,8.25,12.25,6.25,203,224,273,6.25,8.25,12.25,l,NA,j,1,203,6.25,0,2.144092082977295,12.25,8.25,s
1,1,centered,attraction,binary,l-s,equal_1_jnd,[0 1],247,273,NA,10.25,12.25,NA,247,273,NA,10.25,12.25,NA,j,k,j,1,247,10.25,1,1.83467698097229,10.25,12.25,s
1,1,centered,filler,binary,NA,NA,[1 0],205,267,NA,6.451501718212173,11.784537424100565,NA,267,205,NA,11.784537424100565,6.451501718212173,NA,k,NA,k,2,205,6.451501718212173,1,2.254751443862915,11.7845374241006,6.45150171821217,NA
1,1,centered,attraction,trinary,l-s-ds,equal_2_jnd,[2 1 0],236,286,214.0,9.25,13.25,7.25,214,286,236,7.25,13.25,9.25,l,k,j,1,214,7.25,0,1.237116813659668,13.25,9.25,s
1,1,centered,attraction,trinary,l-s-dl,equal_2_jnd,[0 2 1],236,286,316.0,9.25,13.25,15.25,236,316,286,9.25,15.25,13.25,j,l,j,1,236,9.25,1,3.736264944076538,13.25,9.25,dl
1,1,centered,attraction,binary,l-s,easy,[1 0],247,301,NA,10.25,14.25,NA,301,247,NA,14.25,10.25,NA,k,NA,k,2,247,10.25,1,2.5425548553466797,10.25,14.25,s
1,1,centered,attraction,binary,l-s,equal_2_jnd,[1 0],236,286,NA,9.25,13.25,NA,286,236,NA,13.25,9.25,NA,j,k,k,2,236,9.25,1,0.7776343822479248,13.25,9.25,l
1,1,centered,attraction,binary,l-s,equal_2_jnd,[1 0],236,286,NA,9.25,13.25,NA,286,236,NA,13.25,9.25,NA,j,k,k,2,236,9.25,1,0.7264425754547119,13.25,9.25,l
1,1,centered,filler,binary,NA,NA,[1 0],272,237,NA,12.178297551202068,9.388482722570188,NA,237,272,NA,9.388482722570188,12.178297551202068,NA,k,NA,j,1,237,9.388482722570188,0,0.9154324531555176,12.1782975512021,9.38848272257019,NA
1,1,centered,filler,trinary,NA,NA,[0 1 2],272,185,211.0,12.167162566676303,4.285864474950358,7.0,272,185,211,12.167162566676303,4.285864474950358,7,j,NA,j,1,272,12.167162566676303,1,1.364969253540039,12.1671625666763,7.0,NA
1,1,centered,attraction,trinary,l-s-dl,easy,[0 2 1],247,301,331.0,10.25,14.25,16.25,247,331,301,10.25,16.25,14.25,j,NA,j,1,247,10.25,1,1.678579330444336,10.25,16.25,s
1,1,centered,attraction,trinary,l-s-dl,equal_1_jnd,[0 1 2],247,273,301.0,10.25,12.25,14.25,247,273,301,10.25,12.25,14.25,j,k,j,1,247,10.25,1,1.3825621604919434,10.25,14.25,s
1,1,centered,attraction,binary,l-s,easy,[1 0],247,301,NA,10.25,14.25,NA,301,247,NA,14.25,10.25,NA,k,NA,k,2,247,10.25,1,2.545043706893921,10.25,14.25,s
1,1,centered,attraction,binary,l-s,difficult,[1 0],247,286,NA,10.25,13.25,NA,286,247,NA,13.25,10.25,NA,k,NA,k,2,247,10.25,1,1.8529443740844727,10.25,13.25,s
1,1,centered,attraction,binary,l-s,difficult,[1 0],247,286,NA,10.25,13.25,NA,286,247,NA,13.25,10.25,NA,k,NA,k,2,247,10.25,1,0.6343705654144287,10.25,13.25,s
1,1,centered,attraction,binary,l-s,easy,[1 0],224,273,NA,8.25,12.25,NA,273,224,NA,12.25,8.25,NA,j,NA,k,2,224,8.25,0,0.7787373065948486,12.25,8.25,l
1,1,centered,attraction,trinary,l-s-dl,equal_2_jnd,[0 1 2],236,286,316.0,9.25,13.25,15.25,236,286,316,9.25,13.25,15.25,j,k,j,1,236,9.25,1,1.6244120597839355,13.25,9.25,dl
1,1,centered,attraction,trinary,l-s-ds,easy,[1 0 2],247,301,224.0,10.25,14.25,8.25,301,247,224,14.25,10.25,8.25,k,NA,k,2,247,10.25,1,1.1535229682922363,10.25,8.25,ds
1,1,centered,attraction,binary,l-s,easy,[0 1],247,301,NA,10.25,14.25,NA,247,301,NA,10.25,14.25,NA,j,NA,j,1,247,10.25,1,1.1178812980651855,10.25,14.25,s
1,1,centered,attraction,binary,l-s,easy,[1 0],247,301,NA,10.25,14.25,NA,301,247,NA,14.25,10.25,NA,k,NA,k,2,247,10.25,1,1.5827512741088867,10.25,14.25,s
1,1,centered,attraction,trinary,l-s-ds,difficult,[1 0 2],236,273,214.0,9.25,12.25,7.25,273,236,214,12.25,9.25,7.25,j,NA,k,2,236,9.25,0,2.449110984802246,12.25,9.25,l
1,1,centered,attraction,trinary,l-s-dl,easy,[1 2 0],247,301,331.0,10.25,14.25,16.25,301,331,247,14.25,16.25,10.25,l,NA,j,1,301,14.25,0,3.8559913635253906,10.25,16.25,l
1,1,centered,filler,binary,NA,NA,[0 1],300,234,NA,14.23978476824527,9.095668499940077,NA,300,234,NA,14.23978476824527,9.095668499940077,NA,j,NA,j,1,300,14.23978476824527,1,1.7831873893737793,14.2397847682453,9.09566849994008,NA
1,1,centered,attraction,binary,l-s,equal_2_jnd,[1 0],236,286,NA,9.25,13.25,NA,286,236,NA,13.25,9.25,NA,j,k,j,1,286,13.25,1,1.1189370155334473,13.25,9.25,s
1,1,centered,filler,binary,NA,NA,[1 0],262,192,NA,11.410837720739304,5.025345634203404,NA,192,262,NA,5.025345634203404,11.410837720739304,NA,k,NA,k,2,262,11.410837720739304,1,0.8798224925994873,11.4108377207393,5.0253456342034,NA
1,1,centered,attraction,binary,l-s,equal_1_jnd,[0 1],247,273,NA,10.25,12.25,NA,247,273,NA,10.25,12.25,NA,j,k,k,2,273,12.25,1,1.4923887252807617,10.25,12.25,l
1,1,centered,attraction,trinary,l-s-dl,difficult,[2 1 0],236,273,301.0,9.25,12.25,14.25,301,273,236,14.25,12.25,9.25,k,NA,j,1,301,14.25,0,1.5311801433563232,12.25,9.25,l
1,1,centered,filler,binary,NA,NA,[1 0],258,204,NA,11.11596568841289,6.259801906999201,NA,204,258,NA,6.259801906999201,11.11596568841289,NA,k,NA,k,2,258,11.11596568841289,1,5.479124307632446,11.1159656884129,6.2598019069992,NA
1,1,centered,attraction,trinary,l-s-dl,difficult,[1 2 0],247,286,316.0,10.25,13.25,15.25,286,316,247,13.25,15.25,10.25,l,NA,j,1,286,13.25,0,2.262310028076172,10.25,15.25,l
1,1,centered,attraction,binary,l-s,equal_2_jnd,[0 1],236,286,NA,9.25,13.25,NA,236,286,NA,9.25,13.25,NA,j,k,j,1,236,9.25,1,2.8486177921295166,13.25,9.25,l
1,1,centered,attraction,trinary,l-s-dl,equal_1_jnd,[1 0 2],247,273,301.0,10.25,12.25,14.25,273,247,301,12.25,10.25,14.25,k,j,k,2,247,10.25,1,1.0408337116241455,10.25,14.25,s
1,1,centered,filler,trinary,NA,NA,[2 0 1],248,448,269.0,10.345305104835688,22.443864309461787,12.0,269,248,448,12,10.345305104835688,22.443864309461787,k,NA,k,2,248,10.345305104835688,1,1.2700917720794678,10.3453051048357,22.4438643094618,NA
1,1,centered,attraction,trinary,l-s-dl,easy,[2 0 1],224,273,301.0,8.25,12.25,14.25,301,224,273,14.25,8.25,12.25,l,NA,j,1,301,14.25,0,3.1864418983459473,12.25,8.25,l
1,1,centered,filler,trinary,NA,NA,[0 1 2],214,344,361.0,7.259586441660442,17.02235630946234,18.0,214,344,361,7.259586441660442,17.02235630946234,18,j,NA,j,1,214,7.259586441660442,1,1.738300085067749,17.0223563094623,7.25958644166044,NA
1,1,centered,filler,trinary,NA,NA,[1 2 0],242,154,379.0,9.81086720334078,0.4888625058811158,19.0,154,379,242,0.4888625058811158,19,9.81086720334078,l,NA,j,1,154,0.4888625058811158,0,1.2307381629943848,0.488862505881116,9.81086720334078,NA
1,1,centered,filler,trinary,NA,NA,[1 2 0],294,169,257.0,13.812996056050542,2.4959196138661355,11.0,169,257,294,2.4959196138661355,11,13.812996056050542,l,NA,j,1,169,2.4959196138661355,0,2.676696300506592,11.0,2.49591961386614,NA
1,1,centered,attraction,trinary,l-s-ds,difficult,[0 1 2],236,273,214.0,9.25,12.25,7.25,236,273,214,9.25,12.25,7.25,k,NA,j,1,236,9.25,0,1.4996776580810547,12.25,9.25,l
1,1,centered,attraction,binary,l-s,easy,[0 1],224,273,NA,8.25,12.25,NA,224,273,NA,8.25,12.25,NA,k,NA,k,2,273,12.25,1,2.2594499588012695,12.25,8.25,s
1,1,centered,filler,trinary,NA,NA,[2 1 0],278,289,327.0,12.672850561937024,13.434216311434284,16.0,327,289,278,16,13.434216311434284,12.672850561937024,l,NA,j,1,327,16,0,1.6896493434906006,12.672850561937,16.0,NA
1,1,centered,filler,binary,NA,NA,[1 0],267,201,NA,11.845278196649002,6.012441776110791,NA,201,267,NA,6.012441776110791,11.845278196649002,NA,k,NA,k,2,267,11.845278196649002,1,1.4860424995422363,11.845278196649,6.01244177611079,NA
1,1,centered,filler,trinary,NA,NA,[0 1 2],275,271,182.0,12.454308774276392,12.122597752022555,4.0,275,271,182,12.454308774276392,12.122597752022555,4,j,NA,k,2,271,12.122597752022555,0,2.3510091304779053,12.1225977520226,4.0,NA
1,1,centered,attraction,binary,l-s,difficult,[0 1],236,273,NA,9.25,12.25,NA,236,273,NA,9.25,12.25,NA,k,NA,j,1,236,9.25,0,2.7922921180725098,12.25,9.25,l
1,1,centered,attraction,binary,l-s,difficult,[1 0],247,286,NA,10.25,13.25,NA,286,247,NA,13.25,10.25,NA,k,NA,j,1,286,13.25,0,1.8947882652282715,10.25,13.25,l
1,1,centered,attraction,binary,l-s,difficult,[0 1],247,286,NA,10.25,13.25,NA,247,286,NA,10.25,13.25,NA,j,NA,j,1,247,10.25,1,1.3096399307250977,10.25,13.25,s
1,1,centered,attraction,binary,l-s,equal_1_jnd,[1 0],247,273,NA,10.25,12.25,NA,273,247,NA,12.25,10.25,NA,j,k,k,2,247,10.25,1,1.608144760131836,10.25,12.25,s
1,1,centered,attraction,trinary,l-s-ds,difficult,[0 1 2],247,286,224.0,10.25,13.25,8.25,247,286,224,10.25,13.25,8.25,j,NA,k,2,286,13.25,0,1.614037275314331,10.25,8.25,s
1,1,centered,attraction,trinary,l-s-dl,difficult,[0 1 2],247,286,316.0,10.25,13.25,15.25,247,286,316,10.25,13.25,15.25,j,NA,j,1,247,10.25,1,3.8431599140167236,10.25,15.25,s
1,1,centered,attraction,trinary,l-s-ds,easy,[2 0 1],224,273,203.0,8.25,12.25,6.25,203,224,273,6.25,8.25,12.25,l,NA,j,1,203,6.25,0,0.5373053550720215,12.25,8.25,s
1,1,centered,attraction,binary,l-s,easy,[1 0],224,273,NA,8.25,12.25,NA,273,224,NA,12.25,8.25,NA,j,NA,k,2,224,8.25,0,2.3612093925476074,12.25,8.25,l
1,1,centered,attraction,trinary,l-s-ds,equal_2_jnd,[1 2 0],236,286,214.0,9.25,13.25,7.25,286,214,236,13.25,7.25,9.25,l,j,k,2,214,7.25,0,2.327504873275757,13.25,9.25,s
1,1,centered,attraction,trinary,l-s-ds,difficult,[2 0 1],247,286,224.0,10.25,13.25,8.25,224,247,286,8.25,10.25,13.25,k,NA,j,1,224,8.25,0,2.857618570327759,10.25,8.25,l
1,1,centered,attraction,trinary,l-s-ds,equal_1_jnd,[1 2 0],247,273,224.0,10.25,12.25,8.25,273,224,247,12.25,8.25,10.25,l,j,k,2,224,8.25,0,3.2417540550231934,10.25,8.25,l
1,1,centered,attraction,trinary,l-s-dl,easy,[0 2 1],247,301,331.0,10.25,14.25,16.25,247,331,301,10.25,16.25,14.25,j,NA,j,1,247,10.25,1,2.0972301959991455,10.25,16.25,s
1,1,centered,attraction,trinary,l-s-ds,equal_1_jnd,[0 1 2],247,273,224.0,10.25,12.25,8.25,247,273,224,10.25,12.25,8.25,j,k,j,1,247,10.25,1,1.9344542026519775,10.25,8.25,ds
1,1,centered,filler,binary,NA,NA,[1 0],275,392,NA,12.429210194719555,19.694879207527265,NA,392,275,NA,19.694879207527265,12.429210194719555,NA,k,NA,k,2,275,12.429210194719555,1,2.080918550491333,12.4292101947196,19.6948792075273,NA
1,1,centered,filler,trinary,NA,NA,[2 0 1],283,401,165.0,12.982958076801571,20.14122284366749,2.0,165,283,401,2,12.982958076801571,20.14122284366749,k,NA,j,1,165,2,0,4.320302724838257,12.9829580768016,20.1412228436675,NA
1,1,centered,attraction,trinary,l-s-ds,easy,[0 1 2],247,301,224.0,10.25,14.25,8.25,247,301,224,10.25,14.25,8.25,j,NA,j,1,247,10.25,1,1.81819748878479,10.25,8.25,ds
1,1,centered,filler,trinary,NA,NA,[1 2 0],232,272,361.0,8.897313637584615,12.21474049554672,18.0,272,361,232,12.21474049554672,18,8.897313637584615,l,NA,j,1,272,12.21474049554672,0,1.5420565605163574,12.2147404955467,8.89731363758461,NA
1,1,centered,attraction,binary,l-s,easy,[0 1],247,301,NA,10.25,14.25,NA,247,301,NA,10.25,14.25,NA,j,NA,j,1,247,10.25,1,1.6655933856964111,10.25,14.25,s
1,1,centered,attraction,trinary,l-s-dl,difficult,[1 2 0],247,286,316.0,10.25,13.25,15.25,286,316,247,13.25,15.25,10.25,l,NA,k,2,316,15.25,0,2.32524037361145,10.25,15.25,dl
1,1,centered,attraction,binary,l-s,easy,[1 0],224,273,NA,8.25,12.25,NA,273,224,NA,12.25,8.25,NA,j,NA,k,2,224,8.25,0,1.1515579223632812,12.25,8.25,l
1,1,centered,attraction,binary,l-s,equal_1_jnd,[1 0],247,273,NA,10.25,12.25,NA,273,247,NA,12.25,10.25,NA,j,k,k,2,247,10.25,1,4.4524853229522705,10.25,12.25,s
1,1,centered,attraction,binary,l-s,equal_1_jnd,[1 0],247,273,NA,10.25,12.25,NA,273,247,NA,12.25,10.25,NA,j,k,k,2,247,10.25,1,0.6900217533111572,10.25,12.25,s
1,1,centered,filler,binary,NA,NA,[0 1],241,219,NA,9.692925932172274,7.763479906716384,NA,241,219,NA,9.692925932172274,7.763479906716384,NA,j,NA,j,1,241,9.692925932172274,1,0.9979913234710693,7.76347990671638,9.69292593217227,NA
1,1,centered,attraction,binary,l-s,equal_2_jnd,[0 1],236,286,NA,9.25,13.25,NA,236,286,NA,9.25,13.25,NA,j,k,j,1,236,9.25,1,0.9974350929260254,13.25,9.25,l
1,1,centered,filler,trinary,NA,NA,[0 2 1],261,331,158.0,11.361942909958636,16.24591615400277,1.0,261,158,331,11.361942909958636,1,16.24591615400277,j,NA,j,1,261,11.361942909958636,1,3.973539113998413,1.0,16.2459161540028,NA
1,1,centered,attraction,trinary,l-s-ds,equal_1_jnd,[0 1 2],247,273,224.0,10.25,12.25,8.25,247,273,224,10.25,12.25,8.25,j,k,j,1,247,10.25,1,3.684022903442383,10.25,8.25,ds
1,1,centered,attraction,binary,l-s,difficult,[1 0],247,286,NA,10.25,13.25,NA,286,247,NA,13.25,10.25,NA,k,NA,k,2,247,10.25,1,1.119307041168213,10.25,13.25,s
1,1,centered,attraction,binary,l-s,difficult,[1 0],236,273,NA,9.25,12.25,NA,273,236,NA,12.25,9.25,NA,j,NA,k,2,236,9.25,0,2.2273035049438477,12.25,9.25,l
1,1,centered,filler,binary,NA,NA,[0 1],232,171,NA,8.908381653481424,2.6258213486289605,NA,232,171,NA,8.908381653481424,2.6258213486289605,NA,j,NA,j,1,232,8.908381653481424,1,2.3303143978118896,2.62582134862896,8.90838165348142,NA
1,1,centered,attraction,trinary,l-s-dl,easy,[0 1 2],224,273,301.0,8.25,12.25,14.25,224,273,301,8.25,12.25,14.25,k,NA,j,1,224,8.25,0,1.3862583637237549,12.25,8.25,dl
1,1,centered,attraction,trinary,l-s-ds,equal_2_jnd,[0 2 1],236,286,214.0,9.25,13.25,7.25,236,214,286,9.25,7.25,13.25,j,l,j,1,236,9.25,1,3.2618777751922607,13.25,9.25,l
1,1,centered,attraction,binary,l-s,easy,[1 0],224,273,NA,8.25,12.25,NA,273,224,NA,12.25,8.25,NA,j,NA,k,2,224,8.25,0,2.048717498779297,12.25,8.25,l
1,1,centered,attraction,trinary,l-s-ds,difficult,[2 0 1],247,286,224.0,10.25,13.25,8.25,224,247,286,8.25,10.25,13.25,k,NA,j,1,224,8.25,0,1.4716565608978271,10.25,8.25,l
1,1,centered,filler,trinary,NA,NA,[1 0 2],321,312,418.0,15.58609528635886,15.020702904439531,21.0,312,321,418,15.020702904439531,15.58609528635886,21,k,NA,j,1,312,15.020702904439531,0,6.172548532485962,15.0207029044395,21.0,NA
1,1,centered,attraction,trinary,l-s-dl,difficult,[0 1 2],236,273,301.0,9.25,12.25,14.25,236,273,301,9.25,12.25,14.25,k,NA,j,1,236,9.25,0,1.1972453594207764,12.25,9.25,dl
1,1,centered,attraction,trinary,l-s-ds,difficult,[2 0 1],236,273,214.0,9.25,12.25,7.25,214,236,273,7.25,9.25,12.25,l,NA,k,2,236,9.25,0,0.8417413234710693,12.25,9.25,l
1,1,centered,attraction,trinary,l-s-ds,easy,[1 0 2],224,273,203.0,8.25,12.25,6.25,273,224,203,12.25,8.25,6.25,j,NA,k,2,224,8.25,0,7.229394197463989,12.25,8.25,l
1,1,centered,attraction,trinary,l-s-dl,equal_1_jnd,[1 0 2],247,273,301.0,10.25,12.25,14.25,273,247,301,12.25,10.25,14.25,k,j,k,2,247,10.25,1,1.1761584281921387,10.25,14.25,s
1,1,centered,attraction,binary,l-s,difficult,[1 0],236,273,NA,9.25,12.25,NA,273,236,NA,12.25,9.25,NA,j,NA,k,2,236,9.25,0,0.8975050449371338,12.25,9.25,l
1,1,centered,attraction,binary,l-s,difficult,[1 0],247,286,NA,10.25,13.25,NA,286,247,NA,13.25,10.25,NA,k,NA,k,2,247,10.25,1,0.9506676197052002,10.25,13.25,s
1,1,centered,attraction,binary,l-s,equal_2_jnd,[1 0],236,286,NA,9.25,13.25,NA,286,236,NA,13.25,9.25,NA,j,k,j,1,286,13.25,1,1.1857209205627441,13.25,9.25,s
1,1,centered,attraction,binary,l-s,equal_2_jnd,[0 1],236,286,NA,9.25,13.25,NA,236,286,NA,9.25,13.25,NA,j,k,k,2,286,13.25,1,3.747016429901123,13.25,9.25,s
1,1,centered,filler,trinary,NA,NA,[0 2 1],278,289,327.0,12.672850561937024,13.434216311434284,16.0,278,327,289,12.672850561937024,16,13.434216311434284,j,NA,j,1,278,12.672850561937024,1,2.42918062210083,12.672850561937,16.0,NA
1,1,centered,filler,trinary,NA,NA,[0 1 2],261,331,158.0,11.361942909958636,16.24591615400277,1.0,261,331,158,11.361942909958636,16.24591615400277,1,j,NA,j,1,261,11.361942909958636,1,1.2150824069976807,1.0,16.2459161540028,NA
1,1,centered,attraction,binary,l-s,equal_1_jnd,[0 1],247,273,NA,10.25,12.25,NA,247,273,NA,10.25,12.25,NA,j,k,k,2,273,12.25,1,1.635679006576538,10.25,12.25,l
1,1,centered,filler,trinary,NA,NA,[1 2 0],272,185,211.0,12.167162566676303,4.285864474950358,7.0,185,211,272,4.285864474950358,7,12.167162566676303,l,NA,j,1,185,4.285864474950358,0,1.8789091110229492,12.1671625666763,7.0,NA
1,1,centered,filler,trinary,NA,NA,[2 1 0],248,448,269.0,10.345305104835688,22.443864309461787,12.0,269,448,248,12,22.443864309461787,10.345305104835688,l,NA,j,1,269,12,0,2.680199384689331,10.3453051048357,22.4438643094618,NA
1,1,centered,attraction,trinary,l-s-ds,difficult,[0 1 2],236,273,214.0,9.25,12.25,7.25,236,273,214,9.25,12.25,7.25,k,NA,j,1,236,9.25,0,5.835589408874512,12.25,9.25,l
1,1,centered,filler,binary,NA,NA,[0 1],272,237,NA,12.178297551202068,9.388482722570188,NA,272,237,NA,12.178297551202068,9.388482722570188,NA,j,NA,k,2,237,9.388482722570188,0,2.1447362899780273,12.1782975512021,9.38848272257019,NA
1,1,centered,attraction,trinary,l-s-dl,difficult,[2 0 1],236,273,301.0,9.25,12.25,14.25,301,236,273,14.25,9.25,12.25,l,NA,k,2,236,9.25,0,4.576333522796631,12.25,9.25,dl
1,1,centered,attraction,binary,l-s,difficult,[0 1],247,286,NA,10.25,13.25,NA,247,286,NA,10.25,13.25,NA,j,NA,j,1,247,10.25,1,1.6375494003295898,10.25,13.25,s
1,1,centered,attraction,trinary,l-s-ds,equal_2_jnd,[2 0 1],236,286,214.0,9.25,13.25,7.25,214,236,286,7.25,9.25,13.25,k,l,k,2,236,9.25,1,1.4681551456451416,13.25,9.25,l
1,1,centered,filler,trinary,NA,NA,[2 1 0],242,154,379.0,9.81086720334078,0.4888625058811158,19.0,379,154,242,19,0.4888625058811158,9.81086720334078,l,NA,k,2,154,0.4888625058811158,0,3.6508736610412598,0.488862505881116,9.81086720334078,NA
1,1,centered,attraction,trinary,l-s-dl,equal_1_jnd,[2 0 1],247,273,301.0,10.25,12.25,14.25,301,247,273,14.25,10.25,12.25,k,l,k,2,247,10.25,1,1.873884677886963,10.25,14.25,s
1,1,centered,attraction,binary,l-s,equal_2_jnd,[1 0],236,286,NA,9.25,13.25,NA,286,236,NA,13.25,9.25,NA,j,k,k,2,236,9.25,1,2.594963312149048,13.25,9.25,l
1,1,centered,attraction,binary,l-s,difficult,[0 1],236,273,NA,9.25,12.25,NA,236,273,NA,9.25,12.25,NA,k,NA,j,1,236,9.25,0,1.755370855331421,12.25,9.25,l
1,1,centered,attraction,trinary,l-s-ds,equal_2_jnd,[0 1 2],236,286,214.0,9.25,13.25,7.25,236,286,214,9.25,13.25,7.25,j,k,j,1,236,9.25,1,2.891937732696533,13.25,9.25,l
1,1,centered,attraction,trinary,l-s-dl,difficult,[1 2 0],247,286,316.0,10.25,13.25,15.25,286,316,247,13.25,15.25,10.25,l,NA,k,2,316,15.25,0,2.8266680240631104,10.25,15.25,dl
1,1,centered,attraction,trinary,l-s-ds,equal_1_jnd,[0 2 1],247,273,224.0,10.25,12.25,8.25,247,224,273,10.25,8.25,12.25,j,l,j,1,247,10.25,1,3.632845640182495,10.25,8.25,ds
1,1,centered,attraction,binary,l-s,difficult,[1 0],236,273,NA,9.25,12.25,NA,273,236,NA,12.25,9.25,NA,j,NA,j,1,273,12.25,1,0.9928045272827148,12.25,9.25,s
1,1,centered,attraction,binary,l-s,difficult,[0 1],247,286,NA,10.25,13.25,NA,247,286,NA,10.25,13.25,NA,j,NA,k,2,286,13.25,0,0.7418158054351807,10.25,13.25,l
1,1,centered,filler,binary,NA,NA,[0 1],241,219,NA,9.692925932172274,7.763479906716384,NA,241,219,NA,9.692925932172274,7.763479906716384,NA,j,NA,j,1,241,9.692925932172274,1,1.2399060726165771,7.76347990671638,9.69292593217227,NA
1,1,centered,attraction,trinary,l-s-dl,easy,[2 0 1],247,301,331.0,10.25,14.25,16.25,331,247,301,16.25,10.25,14.25,k,NA,k,2,247,10.25,1,1.2414581775665283,10.25,16.25,s
1,1,centered,filler,binary,NA,NA,[1 0],258,204,NA,11.11596568841289,6.259801906999201,NA,204,258,NA,6.259801906999201,11.11596568841289,NA,k,NA,k,2,258,11.11596568841289,1,1.2065324783325195,11.1159656884129,6.2598019069992,NA
1,1,centered,attraction,binary,l-s,easy,[1 0],224,273,NA,8.25,12.25,NA,273,224,NA,12.25,8.25,NA,j,NA,j,1,273,12.25,1,1.4856839179992676,12.25,8.25,s
1,1,centered,filler,trinary,NA,NA,[0 2 1],275,271,182.0,12.454308774276392,12.122597752022555,4.0,275,182,271,12.454308774276392,4,12.122597752022555,j,NA,k,2,182,4,0,1.6479618549346924,12.1225977520226,4.0,NA
1,1,centered,filler,binary,NA,NA,[1 0],244,284,NA,9.965048890455945,13.076051014359107,NA,284,244,NA,13.076051014359107,9.965048890455945,NA,k,NA,k,2,244,9.965048890455945,1,1.487870454788208,13.0760510143591,9.96504889045594,NA
1,1,centered,attraction,trinary,l-s-ds,easy,[0 2 1],224,273,203.0,8.25,12.25,6.25,224,203,273,8.25,6.25,12.25,l,NA,j,1,224,8.25,0,2.783184289932251,12.25,8.25,l
1,1,centered,attraction,binary,l-s,easy,[1 0],247,301,NA,10.25,14.25,NA,301,247,NA,14.25,10.25,NA,k,NA,k,2,247,10.25,1,0.987116813659668,10.25,14.25,s
1,1,centered,attraction,trinary,l-s-dl,difficult,[2 1 0],236,273,301.0,9.25,12.25,14.25,301,273,236,14.25,12.25,9.25,k,NA,k,2,273,12.25,1,3.5159718990325928,12.25,9.25,s
1,1,centered,attraction,binary,l-s,equal_2_jnd,[1 0],236,286,NA,9.25,13.25,NA,286,236,NA,13.25,9.25,NA,j,k,j,1,286,13.25,1,0.9354722499847412,13.25,9.25,s
1,1,centered,attraction,trinary,l-s-ds,difficult,[1 2 0],247,286,224.0,10.25,13.25,8.25,286,224,247,13.25,8.25,10.25,l,NA,k,2,224,8.25,0,3.379582405090332,10.25,8.25,l
1,1,centered,attraction,trinary,l-s-dl,equal_2_jnd,[0 1 2],236,286,316.0,9.25,13.25,15.25,236,286,316,9.25,13.25,15.25,j,k,j,1,236,9.25,1,2.405022621154785,13.25,9.25,dl
1,1,centered,attraction,binary,l-s,easy,[1 0],247,301,NA,10.25,14.25,NA,301,247,NA,14.25,10.25,NA,k,NA,k,2,247,10.25,1,1.1962597370147705,10.25,14.25,s
1,1,centered,filler,trinary,NA,NA,[0 1 2],214,344,361.0,7.259586441660442,17.02235630946234,18.0,214,344,361,7.259586441660442,17.02235630946234,18,j,NA,k,2,344,17.02235630946234,0,4.120134115219116,17.0223563094623,7.25958644166044,NA
1,1,centered,attraction,binary,l-s,easy,[0 1],247,301,NA,10.25,14.25,NA,247,301,NA,10.25,14.25,NA,j,NA,j,1,247,10.25,1,3.2499120235443115,10.25,14.25,s
1,1,centered,attraction,trinary,l-s-ds,difficult,[0 1 2],247,286,224.0,10.25,13.25,8.25,247,286,224,10.25,13.25,8.25,j,NA,j,1,247,10.25,1,1.244507074356079,10.25,8.25,ds
1,1,centered,attraction,trinary,l-s-dl,difficult,[0 1 2],247,286,316.0,10.25,13.25,15.25,247,286,316,10.25,13.25,15.25,j,NA,j,1,247,10.25,1,0.5937073230743408,10.25,15.25,s
1,1,centered,attraction,trinary,l-s-dl,equal_1_jnd,[0 2 1],247,273,301.0,10.25,12.25,14.25,247,301,273,10.25,14.25,12.25,j,l,j,1,247,10.25,1,0.7944939136505127,10.25,14.25,s
1,1,centered,filler,trinary,NA,NA,[2 1 0],271,200,191.0,12.140217947418758,5.942907377611846,5.0,191,200,271,5,5.942907377611846,12.140217947418758,l,NA,k,2,200,5.942907377611846,0,2.210144281387329,12.1402179474188,5.94290737761185,NA
1,1,centered,attraction,trinary,l-s-dl,difficult,[0 1 2],247,286,316.0,10.25,13.25,15.25,247,286,316,10.25,13.25,15.25,j,NA,j,1,247,10.25,1,2.205051898956299,10.25,15.25,s
1,1,centered,filler,trinary,NA,NA,[1 2 0],283,401,165.0,12.982958076801571,20.14122284366749,2.0,401,165,283,20.14122284366749,2,12.982958076801571,l,NA,j,1,401,20.14122284366749,0,1.9397926330566406,12.9829580768016,20.1412228436675,NA
1,1,centered,attraction,binary,l-s,equal_2_jnd,[0 1],236,286,NA,9.25,13.25,NA,236,286,NA,9.25,13.25,NA,j,k,j,1,236,9.25,1,2.0754940509796143,13.25,9.25,l
1,1,centered,attraction,binary,l-s,difficult,[1 0],236,273,NA,9.25,12.25,NA,273,236,NA,12.25,9.25,NA,j,NA,j,1,273,12.25,1,1.4281718730926514,12.25,9.25,s
1,1,centered,attraction,binary,l-s,difficult,[0 1],236,273,NA,9.25,12.25,NA,236,273,NA,9.25,12.25,NA,k,NA,j,1,236,9.25,0,0.8210394382476807,12.25,9.25,l
1,1,centered,attraction,binary,l-s,difficult,[1 0],247,286,NA,10.25,13.25,NA,286,247,NA,13.25,10.25,NA,k,NA,j,1,286,13.25,0,2.6398792266845703,10.25,13.25,l
1,1,centered,attraction,binary,l-s,equal_1_jnd,[1 0],247,273,NA,10.25,12.25,NA,273,247,NA,12.25,10.25,NA,j,k,j,1,273,12.25,1,0.7177767753601074,10.25,12.25,l
1,1,centered,attraction,binary,l-s,easy,[0 1],247,301,NA,10.25,14.25,NA,247,301,NA,10.25,14.25,NA,j,NA,j,1,247,10.25,1,2.6508774757385254,10.25,14.25,s
1,1,centered,filler,binary,NA,NA,[0 1],275,392,NA,12.429210194719555,19.694879207527265,NA,275,392,NA,12.429210194719555,19.694879207527265,NA,j,NA,j,1,275,12.429210194719555,1,0.8532688617706299,12.4292101947196,19.6948792075273,NA
1,1,centered,attraction,binary,l-s,easy,[1 0],224,273,NA,8.25,12.25,NA,273,224,NA,12.25,8.25,NA,j,NA,j,1,273,12.25,1,2.0783257484436035,12.25,8.25,s
1,1,centered,attraction,trinary,l-s-dl,easy,[0 2 1],224,273,301.0,8.25,12.25,14.25,224,301,273,8.25,14.25,12.25,l,NA,j,1,224,8.25,0,1.8411314487457275,12.25,8.25,dl
1,1,centered,attraction,binary,l-s,difficult,[1 0],236,273,NA,9.25,12.25,NA,273,236,NA,12.25,9.25,NA,j,NA,k,2,236,9.25,0,1.8798742294311523,12.25,9.25,l
1,1,centered,attraction,trinary,l-s-dl,easy,[1 0 2],247,301,331.0,10.25,14.25,16.25,301,247,331,14.25,10.25,16.25,k,NA,k,2,247,10.25,1,1.0708520412445068,10.25,16.25,s
1,1,centered,attraction,binary,l-s,difficult,[0 1],236,273,NA,9.25,12.25,NA,236,273,NA,9.25,12.25,NA,k,NA,j,1,236,9.25,0,1.427722454071045,12.25,9.25,l
1,1,centered,attraction,trinary,l-s-ds,easy,[0 2 1],247,301,224.0,10.25,14.25,8.25,247,224,301,10.25,8.25,14.25,j,NA,j,1,247,10.25,1,4.326265335083008,10.25,8.25,ds
1,1,centered,attraction,trinary,l-s-dl,easy,[2 0 1],224,273,301.0,8.25,12.25,14.25,301,224,273,14.25,8.25,12.25,l,NA,k,2,224,8.25,0,1.0357396602630615,12.25,8.25,dl
1,1,centered,attraction,trinary,l-s-ds,equal_1_jnd,[0 2 1],247,273,224.0,10.25,12.25,8.25,247,224,273,10.25,8.25,12.25,j,l,j,1,247,10.25,1,1.6192774772644043,10.25,8.25,ds
1,1,centered,attraction,binary,l-s,equal_1_jnd,[0 1],247,273,NA,10.25,12.25,NA,247,273,NA,10.25,12.25,NA,j,k,j,1,247,10.25,1,0.6477010250091553,10.25,12.25,s
1,1,centered,filler,trinary,NA,NA,[2 1 0],294,169,257.0,13.812996056050542,2.4959196138661355,11.0,257,169,294,11,2.4959196138661355,13.812996056050542,l,NA,j,1,257,11,0,0.8914248943328857,11.0,2.49591961386614,NA
1,1,centered,filler,trinary,NA,NA,[2 1 0],321,312,418.0,15.58609528635886,15.020702904439531,21.0,418,312,321,21,15.020702904439531,15.58609528635886,l,NA,k,2,312,15.020702904439531,0,3.9210660457611084,15.0207029044395,21.0,NA
1,1,centered,filler,binary,NA,NA,[1 0],283,301,NA,13.01668875599818,14.257775298901834,NA,301,283,NA,14.257775298901834,13.01668875599818,NA,k,NA,k,2,283,13.01668875599818,1,4.302119016647339,13.0166887559982,14.2577752989018,NA
1,1,centered,attraction,binary,l-s,equal_1_jnd,[0 1],247,273,NA,10.25,12.25,NA,247,273,NA,10.25,12.25,NA,j,k,j,1,247,10.25,1,0.9418768882751465,10.25,12.25,s
1,1,centered,attraction,trinary,l-s-ds,difficult,[0 1 2],247,286,224.0,10.25,13.25,8.25,247,286,224,10.25,13.25,8.25,j,NA,j,1,247,10.25,1,1.294604778289795,10.25,8.25,ds
1,1,centered,filler,binary,NA,NA,[1 0],262,192,NA,11.410837720739304,5.025345634203404,NA,192,262,NA,5.025345634203404,11.410837720739304,NA,k,NA,j,1,192,5.025345634203404,0,0.6290993690490723,11.4108377207393,5.0253456342034,NA
1,1,centered,filler,trinary,NA,NA,[2 0 1],232,272,361.0,8.897313637584615,12.21474049554672,18.0,361,232,272,18,8.897313637584615,12.21474049554672,k,NA,k,2,232,8.897313637584615,1,0.8355672359466553,12.2147404955467,8.89731363758461,NA
1,1,centered,attraction,trinary,l-s-dl,difficult,[1 2 0],236,273,301.0,9.25,12.25,14.25,273,301,236,12.25,14.25,9.25,j,NA,j,1,273,12.25,1,0.9984807968139648,12.25,9.25,s
1,1,centered,attraction,trinary,l-s-ds,easy,[0 1 2],224,273,203.0,8.25,12.25,6.25,224,273,203,8.25,12.25,6.25,k,NA,j,1,224,8.25,0,1.6082611083984375,12.25,8.25,l
1,1,centered,attraction,trinary,l-s-ds,easy,[1 0 2],247,301,224.0,10.25,14.25,8.25,301,247,224,14.25,10.25,8.25,k,NA,k,2,247,10.25,1,1.169217586517334,10.25,8.25,ds
1,1,centered,attraction,binary,l-s,easy,[0 1],224,273,NA,8.25,12.25,NA,224,273,NA,8.25,12.25,NA,k,NA,k,2,273,12.25,1,1.4420406818389893,12.25,8.25,s
1,1,centered,attraction,trinary,l-s-ds,difficult,[2 1 0],236,273,214.0,9.25,12.25,7.25,214,273,236,7.25,12.25,9.25,k,NA,k,2,273,12.25,1,1.2173185348510742,12.25,9.25,ds
1,1,centered,attraction,trinary,l-s-dl,easy,[1 2 0],247,301,331.0,10.25,14.25,16.25,301,331,247,14.25,16.25,10.25,l,NA,j,1,301,14.25,0,2.6439080238342285,10.25,16.25,l
1,1,centered,attraction,binary,l-s,equal_1_jnd,[0 1],247,273,NA,10.25,12.25,NA,247,273,NA,10.25,12.25,NA,j,k,j,1,247,10.25,1,0.9152357578277588,10.25,12.25,s
1,1,centered,attraction,binary,l-s,easy,[0 1],224,273,NA,8.25,12.25,NA,224,273,NA,8.25,12.25,NA,k,NA,k,2,273,12.25,1,0.8964090347290039,12.25,8.25,s
1,1,centered,attraction,trinary,l-s-ds,equal_1_jnd,[1 0 2],247,273,224.0,10.25,12.25,8.25,273,247,224,12.25,10.25,8.25,k,j,k,2,247,10.25,1,1.0703294277191162,10.25,8.25,ds
1,1,centered,attraction,trinary,l-s-dl,easy,[2 1 0],224,273,301.0,8.25,12.25,14.25,301,273,224,14.25,12.25,8.25,k,NA,j,1,301,14.25,0,2.157296657562256,12.25,8.25,l
1,1,centered,filler,binary,NA,NA,[1 0],232,171,NA,8.908381653481424,2.6258213486289605,NA,171,232,NA,2.6258213486289605,8.908381653481424,NA,k,NA,k,2,232,8.908381653481424,1,1.3068358898162842,2.62582134862896,8.90838165348142,NA
1,1,centered,filler,binary,NA,NA,[1 0],300,234,NA,14.23978476824527,9.095668499940077,NA,234,300,NA,9.095668499940077,14.23978476824527,NA,k,NA,j,1,234,9.095668499940077,0,1.6561293601989746,14.2397847682453,9.09566849994008,NA
1,1,centered,attraction,binary,l-s,easy,[0 1],247,301,NA,10.25,14.25,NA,247,301,NA,10.25,14.25,NA,j,NA,j,1,247,10.25,1,1.9703688621520996,10.25,14.25,s
1,1,centered,attraction,trinary,l-s-ds,equal_2_jnd,[1 2 0],236,286,214.0,9.25,13.25,7.25,286,214,236,13.25,7.25,9.25,l,j,j,1,286,13.25,1,1.321199655532837,13.25,9.25,ds
1,1,centered,attraction,binary,l-s,equal_2_jnd,[1 0],236,286,NA,9.25,13.25,NA,286,236,NA,13.25,9.25,NA,j,k,j,1,286,13.25,1,0.7537925243377686,13.25,9.25,s
1,1,centered,attraction,binary,l-s,difficult,[0 1],247,286,NA,10.25,13.25,NA,247,286,NA,10.25,13.25,NA,j,NA,j,1,247,10.25,1,1.0392649173736572,10.25,13.25,s
1,1,centered,filler,binary,NA,NA,[1 0],205,267,NA,6.451501718212173,11.784537424100565,NA,267,205,NA,11.784537424100565,6.451501718212173,NA,k,NA,j,1,267,11.784537424100565,0,2.2291862964630127,11.7845374241006,6.45150171821217,NA
1,1,centered,filler,binary,NA,NA,[1 0],267,201,NA,11.845278196649002,6.012441776110791,NA,201,267,NA,6.012441776110791,11.845278196649002,NA,k,NA,k,2,267,11.845278196649002,1,1.4350905418395996,11.845278196649,6.01244177611079,NA
1,1,centered,attraction,trinary,l-s-ds,difficult,[0 1 2],236,273,214.0,9.25,12.25,7.25,236,273,214,9.25,12.25,7.25,k,NA,k,2,273,12.25,1,1.5298900604248047,12.25,9.25,ds
1,1,centered,attraction,trinary,l-s-ds,easy,[0 2 1],224,273,203.0,8.25,12.25,6.25,224,203,273,8.25,6.25,12.25,l,NA,k,2,203,6.25,0,2.1848626136779785,12.25,8.25,s
1,1,centered,attraction,binary,l-s,equal_1_jnd,[0 1],247,273,NA,10.25,12.25,NA,247,273,NA,10.25,12.25,NA,j,k,k,2,273,12.25,1,1.5438365936279297,10.25,12.25,l
1,1,centered,attraction,trinary,l-s-dl,equal_2_jnd,[2 1 0],236,286,316.0,9.25,13.25,15.25,316,286,236,15.25,13.25,9.25,l,k,j,1,316,15.25,0,2.0360419750213623,13.25,9.25,l
1,1,centered,attraction,trinary,l-s-dl,equal_1_jnd,[0 1 2],247,273,301.0,10.25,12.25,14.25,247,273,301,10.25,12.25,14.25,j,k,k,2,273,12.25,1,0.9787304401397705,10.25,14.25,l
1,1,centered,attraction,binary,l-s,difficult,[1 0],247,286,NA,10.25,13.25,NA,286,247,NA,13.25,10.25,NA,k,NA,j,1,286,13.25,0,0.9675562381744385,10.25,13.25,l
1,1,centered,attraction,trinary,l-s-dl,equal_2_jnd,[1 0 2],236,286,316.0,9.25,13.25,15.25,286,236,316,13.25,9.25,15.25,k,j,k,2,236,9.25,1,3.787731885910034,13.25,9.25,dl
1,1,centered,attraction,binary,l-s,easy,[0 1],247,301,NA,10.25,14.25,NA,247,301,NA,10.25,14.25,NA,j,NA,j,1,247,10.25,1,0.9229714870452881,10.25,14.25,s
1,1,centered,attraction,binary,l-s,easy,[1 0],224,273,NA,8.25,12.25,NA,273,224,NA,12.25,8.25,NA,j,NA,k,2,224,8.25,0,0.7521882057189941,12.25,8.25,l
1,1,centered,attraction,trinary,l-s-ds,easy,[1 2 0],247,301,224.0,10.25,14.25,8.25,301,224,247,14.25,8.25,10.25,l,NA,k,2,224,8.25,0,3.1238815784454346,10.25,8.25,l
1,1,centered,attraction,binary,l-s,easy,[0 1],224,273,NA,8.25,12.25,NA,224,273,NA,8.25,12.25,NA,k,NA,k,2,273,12.25,1,3.728271722793579,12.25,8.25,s
1,1,centered,filler,binary,NA,NA,[0 1],248,246,NA,10.30760504079765,10.114881485933438,NA,248,246,NA,10.30760504079765,10.114881485933438,NA,j,NA,k,2,246,10.114881485933438,0,2.9290032386779785,10.1148814859334,10.3076050407977,NA
2,4,centered,filler,trinary,NA,NA,[0 1 2],248,448,269.0,10.345305104835688,22.443864309461787,12.0,248,448,269,10.345305104835688,22.443864309461787,12,j,NA,j,1,248,10.345305104835688,1,9.497683048248291,10.3453051048357,22.4438643094618,NA
2,4,centered,filler,trinary,NA,NA,[1 0 2],232,272,361.0,8.897313637584615,12.21474049554672,18.0,272,232,361,12.21474049554672,8.897313637584615,18,k,NA,j,1,272,12.21474049554672,0,4.138612270355225,12.2147404955467,8.89731363758461,NA
2,4,centered,filler,binary,NA,NA,[1 0],262,192,NA,11.410837720739304,5.025345634203404,NA,192,262,NA,5.025345634203404,11.410837720739304,NA,k,NA,k,2,262,11.410837720739304,1,2.248805046081543,11.4108377207393,5.0253456342034,NA
2,4,centered,filler,binary,NA,NA,[1 0],283,301,NA,13.01668875599818,14.257775298901834,NA,301,283,NA,14.257775298901834,13.01668875599818,NA,k,NA,j,1,301,14.257775298901834,0,3.5701184272766113,13.0166887559982,14.2577752989018,NA
2,4,centered,filler,binary,NA,NA,[0 1],300,234,NA,14.23978476824527,9.095668499940077,NA,300,234,NA,14.23978476824527,9.095668499940077,NA,j,NA,k,2,234,9.095668499940077,0,0.8659501075744629,14.2397847682453,9.09566849994008,NA
2,4,centered,attraction,binary,l-s,equal_1_jnd,[0 1],247,273,NA,10.25,12.25,NA,247,273,NA,10.25,12.25,NA,j,k,k,2,273,12.25,1,3.4809324741363525,10.25,12.25,l
2,4,centered,attraction,trinary,l-s-dl,difficult,[1 2 0],247,286,316.0,10.25,13.25,15.25,286,316,247,13.25,15.25,10.25,l,NA,j,1,286,13.25,0,3.234545946121216,10.25,15.25,l
2,4,centered,filler,binary,NA,NA,[1 0],241,219,NA,9.692925932172274,7.763479906716384,NA,219,241,NA,7.763479906716384,9.692925932172274,NA,k,NA,k,2,241,9.692925932172274,1,4.332595586776733,7.76347990671638,9.69292593217227,NA
2,4,centered,filler,binary,NA,NA,[1 0],275,392,NA,12.429210194719555,19.694879207527265,NA,392,275,NA,19.694879207527265,12.429210194719555,NA,k,NA,k,2,275,12.429210194719555,1,1.1723520755767822,12.4292101947196,19.6948792075273,NA
2,4,centered,attraction,binary,l-s,easy,[1 0],224,273,NA,8.25,12.25,NA,273,224,NA,12.25,8.25,NA,j,NA,k,2,224,8.25,0,1.1835978031158447,12.25,8.25,l
2,4,centered,attraction,binary,l-s,equal_2_jnd,[1 0],236,286,NA,9.25,13.25,NA,286,236,NA,13.25,9.25,NA,j,k,k,2,236,9.25,1,1.0605080127716064,13.25,9.25,l
2,4,centered,attraction,binary,l-s,easy,[1 0],247,301,NA,10.25,14.25,NA,301,247,NA,14.25,10.25,NA,k,NA,k,2,247,10.25,1,0.6998767852783203,10.25,14.25,s
2,4,centered,attraction,binary,l-s,easy,[0 1],247,301,NA,10.25,14.25,NA,247,301,NA,10.25,14.25,NA,j,NA,j,1,247,10.25,1,0.5388786792755127,10.25,14.25,s
2,4,centered,attraction,binary,l-s,easy,[0 1],224,273,NA,8.25,12.25,NA,224,273,NA,8.25,12.25,NA,k,NA,k,2,273,12.25,1,1.3493976593017578,12.25,8.25,s
2,4,centered,attraction,binary,l-s,difficult,[1 0],247,286,NA,10.25,13.25,NA,286,247,NA,13.25,10.25,NA,k,NA,k,2,247,10.25,1,2.4489943981170654,10.25,13.25,s
2,4,centered,attraction,trinary,l-s-ds,equal_1_jnd,[1 0 2],247,273,224.0,10.25,12.25,8.25,273,247,224,12.25,10.25,8.25,k,j,j,1,273,12.25,1,2.292506217956543,10.25,8.25,s
2,4,centered,attraction,trinary,l-s-dl,equal_2_jnd,[2 0 1],236,286,316.0,9.25,13.25,15.25,316,236,286,15.25,9.25,13.25,k,l,k,2,236,9.25,1,2.5067903995513916,13.25,9.25,dl
2,4,centered,filler,trinary,NA,NA,[1 0 2],271,200,191.0,12.140217947418758,5.942907377611846,5.0,200,271,191,5.942907377611846,12.140217947418758,5,k,NA,k,2,271,12.140217947418758,1,2.725790500640869,12.1402179474188,5.94290737761185,NA
2,4,centered,attraction,binary,l-s,easy,[1 0],247,301,NA,10.25,14.25,NA,301,247,NA,14.25,10.25,NA,k,NA,k,2,247,10.25,1,3.69594407081604,10.25,14.25,s
2,4,centered,attraction,trinary,l-s-dl,easy,[2 0 1],224,273,301.0,8.25,12.25,14.25,301,224,273,14.25,8.25,12.25,l,NA,j,1,301,14.25,0,3.031363010406494,12.25,8.25,l
2,4,centered,filler,binary,NA,NA,[1 0],258,204,NA,11.11596568841289,6.259801906999201,NA,204,258,NA,6.259801906999201,11.11596568841289,NA,k,NA,k,2,258,11.11596568841289,1,2.8415513038635254,11.1159656884129,6.2598019069992,NA
2,4,centered,attraction,binary,l-s,equal_1_jnd,[1 0],247,273,NA,10.25,12.25,NA,273,247,NA,12.25,10.25,NA,j,k,k,2,247,10.25,1,2.5088486671447754,10.25,12.25,s
2,4,centered,attraction,trinary,l-s-dl,difficult,[1 2 0],247,286,316.0,10.25,13.25,15.25,286,316,247,13.25,15.25,10.25,l,NA,j,1,286,13.25,0,2.1885273456573486,10.25,15.25,l
2,4,centered,attraction,trinary,l-s-ds,equal_1_jnd,[2 0 1],247,273,224.0,10.25,12.25,8.25,224,247,273,8.25,10.25,12.25,k,l,j,1,224,8.25,0,3.2376978397369385,10.25,8.25,l
2,4,centered,attraction,binary,l-s,equal_2_jnd,[1 0],236,286,NA,9.25,13.25,NA,286,236,NA,13.25,9.25,NA,j,k,k,2,236,9.25,1,0.6864254474639893,13.25,9.25,l
2,4,centered,attraction,trinary,l-s-ds,easy,[0 1 2],224,273,203.0,8.25,12.25,6.25,224,273,203,8.25,12.25,6.25,k,NA,j,1,224,8.25,0,2.089306592941284,12.25,8.25,l
2,4,centered,attraction,binary,l-s,easy,[0 1],247,301,NA,10.25,14.25,NA,247,301,NA,10.25,14.25,NA,j,NA,j,1,247,10.25,1,0.602424144744873,10.25,14.25,s
2,4,centered,attraction,binary,l-s,difficult,[1 0],247,286,NA,10.25,13.25,NA,286,247,NA,13.25,10.25,NA,k,NA,k,2,247,10.25,1,0.7178571224212646,10.25,13.25,s
2,4,centered,attraction,trinary,l-s-dl,easy,[0 1 2],247,301,331.0,10.25,14.25,16.25,247,301,331,10.25,14.25,16.25,j,NA,j,1,247,10.25,1,0.9688215255737305,10.25,16.25,s
2,4,centered,attraction,trinary,l-s-dl,difficult,[2 1 0],236,273,301.0,9.25,12.25,14.25,301,273,236,14.25,12.25,9.25,k,NA,k,2,273,12.25,1,0.8387210369110107,12.25,9.25,s
2,4,centered,attraction,trinary,l-s-dl,equal_2_jnd,[0 2 1],236,286,316.0,9.25,13.25,15.25,236,316,286,9.25,15.25,13.25,j,l,j,1,236,9.25,1,0.8547160625457764,13.25,9.25,dl
2,4,centered,attraction,binary,l-s,equal_2_jnd,[0 1],236,286,NA,9.25,13.25,NA,236,286,NA,9.25,13.25,NA,j,k,j,1,236,9.25,1,0.8551435470581055,13.25,9.25,l
2,4,centered,filler,trinary,NA,NA,[1 0 2],321,312,418.0,15.58609528635886,15.020702904439531,21.0,312,321,418,15.020702904439531,15.58609528635886,21,k,NA,j,1,312,15.020702904439531,0,1.9802742004394531,15.0207029044395,21.0,NA
2,4,centered,attraction,binary,l-s,difficult,[1 0],247,286,NA,10.25,13.25,NA,286,247,NA,13.25,10.25,NA,k,NA,k,2,247,10.25,1,0.815159797668457,10.25,13.25,s
2,4,centered,filler,binary,NA,NA,[0 1],248,246,NA,10.30760504079765,10.114881485933438,NA,248,246,NA,10.30760504079765,10.114881485933438,NA,j,NA,k,2,246,10.114881485933438,0,0.9937169551849365,10.1148814859334,10.3076050407977,NA
2,4,centered,attraction,trinary,l-s-ds,equal_2_jnd,[0 1 2],236,286,214.0,9.25,13.25,7.25,236,286,214,9.25,13.25,7.25,j,k,j,1,236,9.25,1,1.2389843463897705,13.25,9.25,l
2,4,centered,attraction,binary,l-s,equal_1_jnd,[0 1],247,273,NA,10.25,12.25,NA,247,273,NA,10.25,12.25,NA,j,k,j,1,247,10.25,1,1.3572230339050293,10.25,12.25,s
2,4,centered,filler,trinary,NA,NA,[0 1 2],242,154,379.0,9.81086720334078,0.4888625058811158,19.0,242,154,379,9.81086720334078,0.4888625058811158,19,j,NA,k,2,154,0.4888625058811158,0,1.8849058151245117,0.488862505881116,9.81086720334078,NA
2,4,centered,filler,trinary,NA,NA,[1 0 2],283,401,165.0,12.982958076801571,20.14122284366749,2.0,401,283,165,20.14122284366749,12.982958076801571,2,k,NA,k,2,283,12.982958076801571,1,0.8277299404144287,12.9829580768016,20.1412228436675,NA
2,4,centered,attraction,binary,l-s,difficult,[0 1],236,273,NA,9.25,12.25,NA,236,273,NA,9.25,12.25,NA,k,NA,k,2,273,12.25,1,2.0254712104797363,12.25,9.25,s
2,4,centered,filler,trinary,NA,NA,[2 1 0],278,289,327.0,12.672850561937024,13.434216311434284,16.0,327,289,278,16,13.434216311434284,12.672850561937024,l,NA,k,2,289,13.434216311434284,0,1.3456361293792725,12.672850561937,16.0,NA
2,4,centered,attraction,binary,l-s,equal_2_jnd,[1 0],236,286,NA,9.25,13.25,NA,286,236,NA,13.25,9.25,NA,j,k,k,2,236,9.25,1,0.7986905574798584,13.25,9.25,l
2,4,centered,attraction,trinary,l-s-dl,easy,[0 2 1],247,301,331.0,10.25,14.25,16.25,247,331,301,10.25,16.25,14.25,j,NA,j,1,247,10.25,1,1.5064833164215088,10.25,16.25,s
2,4,centered,attraction,trinary,l-s-ds,difficult,[1 2 0],247,286,224.0,10.25,13.25,8.25,286,224,247,13.25,8.25,10.25,l,NA,k,2,224,8.25,0,1.0311031341552734,10.25,8.25,l
2,4,centered,attraction,binary,l-s,easy,[0 1],224,273,NA,8.25,12.25,NA,224,273,NA,8.25,12.25,NA,k,NA,j,1,224,8.25,0,0.7887115478515625,12.25,8.25,l
2,4,centered,attraction,binary,l-s,difficult,[1 0],247,286,NA,10.25,13.25,NA,286,247,NA,13.25,10.25,NA,k,NA,k,2,247,10.25,1,1.3635077476501465,10.25,13.25,s
2,4,centered,attraction,binary,l-s,easy,[1 0],247,301,NA,10.25,14.25,NA,301,247,NA,14.25,10.25,NA,k,NA,k,2,247,10.25,1,1.6483168601989746,10.25,14.25,s
2,4,centered,filler,trinary,NA,NA,[1 2 0],261,331,158.0,11.361942909958636,16.24591615400277,1.0,331,158,261,16.24591615400277,1,11.361942909958636,l,NA,j,1,331,16.24591615400277,0,3.1947455406188965,1.0,16.2459161540028,NA
2,4,centered,attraction,trinary,l-s-ds,easy,[0 2 1],224,273,203.0,8.25,12.25,6.25,224,203,273,8.25,6.25,12.25,l,NA,l,3,273,12.25,1,3.167506694793701,12.25,8.25,ds
2,4,centered,attraction,binary,l-s,difficult,[1 0],236,273,NA,9.25,12.25,NA,273,236,NA,12.25,9.25,NA,j,NA,k,2,236,9.25,0,3.8628640174865723,12.25,9.25,l
2,4,centered,filler,binary,NA,NA,[1 0],244,284,NA,9.965048890455945,13.076051014359107,NA,284,244,NA,13.076051014359107,9.965048890455945,NA,k,NA,k,2,244,9.965048890455945,1,2.1429033279418945,13.0760510143591,9.96504889045594,NA
2,4,centered,attraction,binary,l-s,easy,[1 0],247,301,NA,10.25,14.25,NA,301,247,NA,14.25,10.25,NA,k,NA,k,2,247,10.25,1,1.0841655731201172,10.25,14.25,s
2,4,centered,attraction,binary,l-s,difficult,[1 0],236,273,NA,9.25,12.25,NA,273,236,NA,12.25,9.25,NA,j,NA,k,2,236,9.25,0,0.7195558547973633,12.25,9.25,l
2,4,centered,attraction,trinary,l-s-dl,equal_1_jnd,[1 0 2],247,273,301.0,10.25,12.25,14.25,273,247,301,12.25,10.25,14.25,k,j,l,3,301,14.25,0,0.5260970592498779,10.25,14.25,dl
2,4,centered,attraction,binary,l-s,difficult,[0 1],236,273,NA,9.25,12.25,NA,236,273,NA,9.25,12.25,NA,k,NA,j,1,236,9.25,0,1.9484405517578125,12.25,9.25,l
2,4,centered,attraction,trinary,l-s-ds,difficult,[2 0 1],236,273,214.0,9.25,12.25,7.25,214,236,273,7.25,9.25,12.25,l,NA,k,2,236,9.25,0,0.43314361572265625,12.25,9.25,l
2,4,centered,attraction,trinary,l-s-ds,equal_1_jnd,[2 1 0],247,273,224.0,10.25,12.25,8.25,224,273,247,8.25,12.25,10.25,l,k,j,1,224,8.25,0,0.5861239433288574,10.25,8.25,l
2,4,centered,attraction,trinary,l-s-dl,difficult,[0 1 2],236,273,301.0,9.25,12.25,14.25,236,273,301,9.25,12.25,14.25,k,NA,k,2,273,12.25,1,0.81308746337890625,12.25,9.25,s
2,4,centered,filler,binary,NA,NA,[1 0],205,267,NA,6.451501718212173,11.784537424100565,NA,267,205,NA,11.784537424100565,6.451501718212173,NA,k,NA,k,2,205,6.451501718212173,1,1.9445505142211914,11.7845374241006,6.45150171821217,NA
2,4,centered,attraction,trinary,l-s-ds,difficult,[0 2 1],236,273,214.0,9.25,12.25,7.25,236,214,273,9.25,7.25,12.25,l,NA,k,2,214,7.25,0,1.0188343524932861,12.25,9.25,s
2,4,centered,attraction,trinary,l-s-ds,equal_2_jnd,[2 1 0],236,286,214.0,9.25,13.25,7.25,214,286,236,7.25,13.25,9.25,l,k,j,1,214,7.25,0,1.0730254650115967,13.25,9.25,s
2,4,centered,attraction,binary,l-s,equal_1_jnd,[0 1],247,273,NA,10.25,12.25,NA,247,273,NA,10.25,12.25,NA,j,k,j,1,247,10.25,1,0.9160501956939697,10.25,12.25,s
2,4,centered,attraction,binary,l-s,equal_1_jnd,[1 0],247,273,NA,10.25,12.25,NA,273,247,NA,12.25,10.25,NA,j,k,k,2,247,10.25,1,0.8213002681732178,10.25,12.25,s
2,4,centered,attraction,binary,l-s,easy,[1 0],224,273,NA,8.25,12.25,NA,273,224,NA,12.25,8.25,NA,j,NA,k,2,224,8.25,0,0.6205453872680664,12.25,8.25,l
2,4,centered,attraction,trinary,l-s-ds,easy,[2 1 0],247,301,224.0,10.25,14.25,8.25,224,301,247,8.25,14.25,10.25,l,NA,j,1,224,8.25,0,1.2967357635498047,10.25,8.25,l
2,4,centered,attraction,binary,l-s,easy,[0 1],224,273,NA,8.25,12.25,NA,224,273,NA,8.25,12.25,NA,k,NA,j,1,224,8.25,0,0.8869118690490723,12.25,8.25,l
2,4,centered,filler,binary,NA,NA,[1 0],267,201,NA,11.845278196649002,6.012441776110791,NA,201,267,NA,6.012441776110791,11.845278196649002,NA,k,NA,k,2,267,11.845278196649002,1,0.4335463047027588,11.845278196649,6.01244177611079,NA
2,4,centered,attraction,trinary,l-s-dl,equal_2_jnd,[1 2 0],236,286,316.0,9.25,13.25,15.25,286,316,236,13.25,15.25,9.25,l,j,j,1,286,13.25,1,0.47492098808288574,13.25,9.25,s
2,4,centered,attraction,trinary,l-s-dl,easy,[0 1 2],224,273,301.0,8.25,12.25,14.25,224,273,301,8.25,12.25,14.25,k,NA,k,2,273,12.25,1,0.7919857501983643,12.25,8.25,s
2,4,centered,filler,binary,NA,NA,[0 1],272,237,NA,12.178297551202068,9.388482722570188,NA,272,237,NA,12.178297551202068,9.388482722570188,NA,j,NA,j,1,272,12.178297551202068,1,0.47174787521362305,12.1782975512021,9.38848272257019,NA
2,4,centered,attraction,trinary,l-s-dl,equal_1_jnd,[2 1 0],247,273,301.0,10.25,12.25,14.25,301,273,247,14.25,12.25,10.25,l,k,k,2,273,12.25,1,0.5440194606781006,10.25,14.25,l
2,4,centered,attraction,binary,l-s,difficult,[1 0],247,286,NA,10.25,13.25,NA,286,247,NA,13.25,10.25,NA,k,NA,k,2,247,10.25,1,0.6555094718933105,10.25,13.25,s
2,4,centered,attraction,trinary,l-s-ds,easy,[1 0 2],247,301,224.0,10.25,14.25,8.25,301,247,224,14.25,10.25,8.25,k,NA,k,2,247,10.25,1,2.2626373767852783,10.25,8.25,ds
2,4,centered,filler,trinary,NA,NA,[0 2 1],214,344,361.0,7.259586441660442,17.02235630946234,18.0,214,361,344,7.259586441660442,18,17.02235630946234,j,NA,j,1,214,7.259586441660442,1,1.7554829120635986,17.0223563094623,7.25958644166044,NA
2,4,centered,attraction,trinary,l-s-ds,difficult,[1 2 0],236,273,214.0,9.25,12.25,7.25,273,214,236,12.25,7.25,9.25,j,NA,j,1,273,12.25,1,1.8510475158691406,12.25,9.25,ds
2,4,centered,attraction,binary,l-s,equal_1_jnd,[1 0],247,273,NA,10.25,12.25,NA,273,247,NA,12.25,10.25,NA,j,k,k,2,247,10.25,1,0.737619161605835,10.25,12.25,s
2,4,centered,attraction,trinary,l-s-ds,equal_2_jnd,[2 0 1],236,286,214.0,9.25,13.25,7.25,214,236,286,7.25,9.25,13.25,k,l,k,2,236,9.25,1,1.2132844924926758,13.25,9.25,l
2,4,centered,attraction,trinary,l-s-ds,easy,[1 0 2],247,301,224.0,10.25,14.25,8.25,301,247,224,14.25,10.25,8.25,k,NA,k,2,247,10.25,1,0.9764432907104492,10.25,8.25,ds
2,4,centered,attraction,trinary,l-s-ds,easy,[1 0 2],224,273,203.0,8.25,12.25,6.25,273,224,203,12.25,8.25,6.25,j,NA,k,2,224,8.25,0,1.6147518157958984,12.25,8.25,l
2,4,centered,filler,trinary,NA,NA,[0 2 1],275,271,182.0,12.454308774276392,12.122597752022555,4.0,275,182,271,12.454308774276392,4,12.122597752022555,j,NA,k,2,182,4,0,0.818697452545166,12.1225977520226,4.0,NA
2,4,centered,attraction,trinary,l-s-dl,difficult,[1 0 2],247,286,316.0,10.25,13.25,15.25,286,247,316,13.25,10.25,15.25,k,NA,k,2,247,10.25,1,0.9333207607269287,10.25,15.25,s
2,4,centered,attraction,binary,l-s,easy,[0 1],224,273,NA,8.25,12.25,NA,224,273,NA,8.25,12.25,NA,k,NA,j,1,224,8.25,0,1.030400276184082,12.25,8.25,l
2,4,centered,attraction,trinary,l-s-dl,easy,[1 0 2],247,301,331.0,10.25,14.25,16.25,301,247,331,14.25,10.25,16.25,k,NA,k,2,247,10.25,1,0.9003148078918457,10.25,16.25,s
2,4,centered,attraction,binary,l-s,difficult,[1 0],247,286,NA,10.25,13.25,NA,286,247,NA,13.25,10.25,NA,k,NA,k,2,247,10.25,1,0.9336326122283936,10.25,13.25,s
2,4,centered,attraction,trinary,l-s-dl,difficult,[0 1 2],236,273,301.0,9.25,12.25,14.25,236,273,301,9.25,12.25,14.25,k,NA,k,2,273,12.25,1,1.2486917972564697,12.25,9.25,s
2,4,centered,attraction,trinary,l-s-dl,equal_1_jnd,[0 2 1],247,273,301.0,10.25,12.25,14.25,247,301,273,10.25,14.25,12.25,j,l,j,1,247,10.25,1,2.235250473022461,10.25,14.25,s
2,4,centered,attraction,trinary,l-s-dl,easy,[1 0 2],224,273,301.0,8.25,12.25,14.25,273,224,301,12.25,8.25,14.25,j,NA,k,2,224,8.25,0,1.4611072540283203,12.25,8.25,dl
2,4,centered,attraction,binary,l-s,equal_2_jnd,[1 0],236,286,NA,9.25,13.25,NA,286,236,NA,13.25,9.25,NA,j,k,k,2,236,9.25,1,1.0554609298706055,13.25,9.25,l
2,4,centered,filler,binary,NA,NA,[1 0],232,171,NA,8.908381653481424,2.6258213486289605,NA,171,232,NA,2.6258213486289605,8.908381653481424,NA,k,NA,j,1,171,2.6258213486289605,0,1.2541859149932861,2.62582134862896,8.90838165348142,NA
2,4,centered,attraction,binary,l-s,difficult,[0 1],236,273,NA,9.25,12.25,NA,236,273,NA,9.25,12.25,NA,k,NA,j,1,236,9.25,0,0.8498544692993164,12.25,9.25,l
2,4,centered,filler,trinary,NA,NA,[0 1 2],294,169,257.0,13.812996056050542,2.4959196138661355,11.0,294,169,257,13.812996056050542,2.4959196138661355,11,j,NA,k,2,169,2.4959196138661355,0,0.6799170970916748,11.0,2.49591961386614,NA
2,4,centered,attraction,trinary,l-s-ds,difficult,[2 0 1],247,286,224.0,10.25,13.25,8.25,224,247,286,8.25,10.25,13.25,k,NA,j,1,224,8.25,0,1.8071649074554443,10.25,8.25,l
2,4,centered,attraction,binary,l-s,equal_2_jnd,[0 1],236,286,NA,9.25,13.25,NA,236,286,NA,9.25,13.25,NA,j,k,j,1,236,9.25,1,1.0066962242126465,13.25,9.25,l
2,4,centered,attraction,binary,l-s,difficult,[0 1],236,273,NA,9.25,12.25,NA,236,273,NA,9.25,12.25,NA,k,NA,j,1,236,9.25,0,1.133789300918579,12.25,9.25,l
2,4,centered,filler,trinary,NA,NA,[2 0 1],272,185,211.0,12.167162566676303,4.285864474950358,7.0,211,272,185,7,12.167162566676303,4.285864474950358,k,NA,k,2,272,12.167162566676303,1,0.9289495944976807,12.1671625666763,7.0,NA
2,4,centered,attraction,trinary,l-s-ds,equal_2_jnd,[2 1 0],236,286,214.0,9.25,13.25,7.25,214,286,236,7.25,13.25,9.25,l,k,j,1,214,7.25,0,1.3747406005859375,13.25,9.25,s
2,4,centered,attraction,binary,l-s,equal_1_jnd,[1 0],247,273,NA,10.25,12.25,NA,273,247,NA,12.25,10.25,NA,j,k,k,2,247,10.25,1,0.1981644630432129,10.25,12.25,s
2,4,centered,filler,binary,NA,NA,[1 0],248,246,NA,10.30760504079765,10.114881485933438,NA,246,248,NA,10.114881485933438,10.30760504079765,NA,k,NA,j,1,246,10.114881485933438,0,1.2028322219848633,10.1148814859334,10.3076050407977,NA
2,4,centered,attraction,trinary,l-s-dl,difficult,[2 1 0],247,286,316.0,10.25,13.25,15.25,316,286,247,15.25,13.25,10.25,l,NA,k,2,286,13.25,0,0.7958767414093018,10.25,15.25,l
2,4,centered,filler,trinary,NA,NA,[0 2 1],242,154,379.0,9.81086720334078,0.4888625058811158,19.0,242,379,154,9.81086720334078,19,0.4888625058811158,j,NA,j,1,242,9.81086720334078,1,0.5814447402954102,0.488862505881116,9.81086720334078,NA
2,4,centered,attraction,binary,l-s,difficult,[1 0],247,286,NA,10.25,13.25,NA,286,247,NA,13.25,10.25,NA,k,NA,k,2,247,10.25,1,1.3862042427062988,10.25,13.25,s
2,4,centered,attraction,binary,l-s,equal_2_jnd,[0 1],236,286,NA,9.25,13.25,NA,236,286,NA,9.25,13.25,NA,j,k,j,1,236,9.25,1,1.166276454925537,13.25,9.25,l
2,4,centered,attraction,binary,l-s,equal_2_jnd,[1 0],236,286,NA,9.25,13.25,NA,286,236,NA,13.25,9.25,NA,j,k,j,1,286,13.25,1,4.054210186004639,13.25,9.25,s
2,4,centered,filler,trinary,NA,NA,[1 2 0],278,289,327.0,12.672850561937024,13.434216311434284,16.0,289,327,278,13.434216311434284,16,12.672850561937024,l,NA,k,2,327,16,0,1.0748097896575928,12.672850561937,16.0,NA
2,4,centered,attraction,trinary,l-s-dl,easy,[1 0 2],224,273,301.0,8.25,12.25,14.25,273,224,301,12.25,8.25,14.25,j,NA,j,1,273,12.25,1,0.34963560104370117,12.25,8.25,s
2,4,centered,attraction,binary,l-s,difficult,[1 0],247,286,NA,10.25,13.25,NA,286,247,NA,13.25,10.25,NA,k,NA,k,2,247,10.25,1,1.4160757064819336,10.25,13.25,s
2,4,centered,attraction,binary,l-s,easy,[1 0],224,273,NA,8.25,12.25,NA,273,224,NA,12.25,8.25,NA,j,NA,k,2,224,8.25,0,0.71055006980896,12.25,8.25,l
2,4,centered,attraction,trinary,l-s-ds,easy,[1 2 0],224,273,203.0,8.25,12.25,6.25,273,203,224,12.25,6.25,8.25,j,NA,k,2,203,6.25,0,1.2778141498565674,12.25,8.25,s
2,4,centered,filler,binary,NA,NA,[0 1],244,284,NA,9.965048890455945,13.076051014359107,NA,244,284,NA,9.965048890455945,13.076051014359107,NA,j,NA,k,2,284,13.076051014359107,0,0.38774561882019043,13.0760510143591,9.96504889045594,NA
2,4,centered,attraction,binary,l-s,easy,[1 0],224,273,NA,8.25,12.25,NA,273,224,NA,12.25,8.25,NA,j,NA,j,1,273,12.25,1,0.7899625301361084,12.25,8.25,s
2,4,centered,attraction,binary,l-s,easy,[1 0],247,301,NA,10.25,14.25,NA,301,247,NA,14.25,10.25,NA,k,NA,k,2,247,10.25,1,1.120680809020996,10.25,14.25,s
2,4,centered,attraction,trinary,l-s-ds,difficult,[1 0 2],236,273,214.0,9.25,12.25,7.25,273,236,214,12.25,9.25,7.25,j,NA,k,2,236,9.25,0,1.9793834686279297,12.25,9.25,l
2,4,centered,attraction,trinary,l-s-ds,easy,[1 2 0],247,301,224.0,10.25,14.25,8.25,301,224,247,14.25,8.25,10.25,l,NA,k,2,224,8.25,0,2.0276904106140137,10.25,8.25,l
2,4,centered,attraction,binary,l-s,difficult,[0 1],236,273,NA,9.25,12.25,NA,236,273,NA,9.25,12.25,NA,k,NA,k,2,273,12.25,1,3.8202641010284424,12.25,9.25,s
2,4,centered,attraction,trinary,l-s-ds,equal_1_jnd,[2 0 1],247,273,224.0,10.25,12.25,8.25,224,247,273,8.25,10.25,12.25,k,l,j,1,224,8.25,0,0.6184544563293457,10.25,8.25,l
2,4,centered,attraction,trinary,l-s-ds,easy,[2 0 1],224,273,203.0,8.25,12.25,6.25,203,224,273,6.25,8.25,12.25,l,NA,k,2,224,8.25,0,0.6536555290222168,12.25,8.25,l
2,4,centered,attraction,binary,l-s,equal_2_jnd,[1 0],236,286,NA,9.25,13.25,NA,286,236,NA,13.25,9.25,NA,j,k,j,1,286,13.25,1,2.4120407104492188,13.25,9.25,s
2,4,centered,filler,binary,NA,NA,[0 1],258,204,NA,11.11596568841289,6.259801906999201,NA,258,204,NA,11.11596568841289,6.259801906999201,NA,j,NA,k,2,204,6.259801906999201,0,0.5377707481384277,11.1159656884129,6.2598019069992,NA
2,4,centered,filler,binary,NA,NA,[0 1],241,219,NA,9.692925932172274,7.763479906716384,NA,241,219,NA,9.692925932172274,7.763479906716384,NA,j,NA,k,2,219,7.763479906716384,0,0.8418185710906982,7.76347990671638,9.69292593217227,NA
2,4,centered,attraction,trinary,l-s-dl,difficult,[0 2 1],247,286,316.0,10.25,13.25,15.25,247,316,286,10.25,15.25,13.25,j,NA,k,2,316,15.25,0,0.7478952407836914,10.25,15.25,dl
2,4,centered,attraction,trinary,l-s-dl,equal_2_jnd,[2 0 1],236,286,316.0,9.25,13.25,15.25,316,236,286,15.25,9.25,13.25,k,l,k,2,236,9.25,1,0.9980461597442627,13.25,9.25,dl
2,4,centered,attraction,binary,l-s,equal_1_jnd,[1 0],247,273,NA,10.25,12.25,NA,273,247,NA,12.25,10.25,NA,j,k,j,1,273,12.25,1,0.2655372619628906,10.25,12.25,l
2,4,centered,attraction,binary,l-s,difficult,[1 0],247,286,NA,10.25,13.25,NA,286,247,NA,13.25,10.25,NA,k,NA,j,1,286,13.25,0,0.2685716152191162,10.25,13.25,l
2,4,centered,filler,trinary,NA,NA,[2 0 1],271,200,191.0,12.140217947418758,5.942907377611846,5.0,191,271,200,5,12.140217947418758,5.942907377611846,k,NA,j,1,191,5,0,1.3321025371551514,12.1402179474188,5.94290737761185,NA
2,4,centered,attraction,trinary,l-s-dl,difficult,[2 0 1],247,286,316.0,10.25,13.25,15.25,316,247,286,15.25,10.25,13.25,k,NA,k,2,247,10.25,1,0.38379645347595215,10.25,15.25,s
2,4,centered,attraction,trinary,l-s-dl,difficult,[1 0 2],236,273,301.0,9.25,12.25,14.25,273,236,301,12.25,9.25,14.25,j,NA,k,2,236,9.25,0,1.3400280475616455,12.25,9.25,dl
2,4,centered,attraction,trinary,l-s-dl,difficult,[2 1 0],236,273,301.0,9.25,12.25,14.25,301,273,236,14.25,12.25,9.25,k,NA,k,2,273,12.25,1,3.3227546215057373,12.25,9.25,s
2,4,centered,filler,trinary,NA,NA,[1 2 0],248,448,269.0,10.345305104835688,22.443864309461787,12.0,448,269,248,22.443864309461787,12,10.345305104835688,l,NA,k,2,269,12,0,3.350994825363159,10.3453051048357,22.4438643094618,NA
2,4,centered,attraction,trinary,l-s-ds,easy,[2 0 1],247,301,224.0,10.25,14.25,8.25,224,247,301,8.25,10.25,14.25,k,NA,k,2,247,10.25,1,2.2743234634399414,10.25,8.25,ds
2,4,centered,attraction,binary,l-s,easy,[1 0],224,273,NA,8.25,12.25,NA,273,224,NA,12.25,8.25,NA,j,NA,k,2,224,8.25,0,0.7607941627502441,12.25,8.25,l
2,4,centered,attraction,trinary,l-s-ds,equal_1_jnd,[2 1 0],247,273,224.0,10.25,12.25,8.25,224,273,247,8.25,12.25,10.25,l,k,j,1,224,8.25,0,1.1063532829284668,10.25,8.25,l
2,4,centered,attraction,trinary,l-s-dl,easy,[2 1 0],247,301,331.0,10.25,14.25,16.25,331,301,247,16.25,14.25,10.25,l,NA,k,2,301,14.25,0,0.532146692276001,10.25,16.25,l
2,4,centered,filler,trinary,NA,NA,[0 2 1],232,272,361.0,8.897313637584615,12.21474049554672,18.0,232,361,272,8.897313637584615,18,12.21474049554672,j,NA,j,1,232,8.897313637584615,1,0.635045051574707,12.2147404955467,8.89731363758461,NA
2,4,centered,filler,trinary,NA,NA,[1 0 2],321,312,418.0,15.58609528635886,15.020702904439531,21.0,312,321,418,15.020702904439531,15.58609528635886,21,k,NA,k,2,321,15.58609528635886,1,1.005286693572998,15.0207029044395,21.0,NA
2,4,centered,attraction,binary,l-s,equal_1_jnd,[0 1],247,273,NA,10.25,12.25,NA,247,273,NA,10.25,12.25,NA,j,k,j,1,247,10.25,1,1.125619888305664,10.25,12.25,s
2,4,centered,attraction,binary,l-s,easy,[0 1],247,301,NA,10.25,14.25,NA,247,301,NA,10.25,14.25,NA,j,NA,k,2,301,14.25,0,0.3486013412475586,10.25,14.25,l
2,4,centered,attraction,trinary,l-s-ds,difficult,[1 2 0],236,273,214.0,9.25,12.25,7.25,273,214,236,12.25,7.25,9.25,j,NA,k,2,214,7.25,0,4.575141191482544,12.25,9.25,s
2,4,centered,attraction,trinary,l-s-ds,difficult,[1 0 2],236,273,214.0,9.25,12.25,7.25,273,236,214,12.25,9.25,7.25,j,NA,k,2,236,9.25,0,5.195266485214233,12.25,9.25,l
2,4,centered,attraction,binary,l-s,difficult,[1 0],247,286,NA,10.25,13.25,NA,286,247,NA,13.25,10.25,NA,k,NA,k,2,247,10.25,1,0.9783282279968262,10.25,13.25,s
2,4,centered,filler,binary,NA,NA,[0 1],272,237,NA,12.178297551202068,9.388482722570188,NA,272,237,NA,12.178297551202068,9.388482722570188,NA,j,NA,k,2,237,9.388482722570188,0,0.644974946975708,12.1782975512021,9.38848272257019,NA
2,4,centered,attraction,binary,l-s,difficult,[1 0],236,273,NA,9.25,12.25,NA,273,236,NA,12.25,9.25,NA,j,NA,k,2,236,9.25,0,1.0325889587402344,12.25,9.25,l
2,4,centered,attraction,trinary,l-s-dl,equal_1_jnd,[0 2 1],247,273,301.0,10.25,12.25,14.25,247,301,273,10.25,14.25,12.25,j,l,j,1,247,10.25,1,1.5805425643920898,10.25,14.25,s
2,4,centered,attraction,binary,l-s,easy,[1 0],247,301,NA,10.25,14.25,NA,301,247,NA,14.25,10.25,NA,k,NA,k,2,247,10.25,1,1.5433526039123535,10.25,14.25,s
2,4,centered,attraction,binary,l-s,easy,[0 1],224,273,NA,8.25,12.25,NA,224,273,NA,8.25,12.25,NA,k,NA,j,1,224,8.25,0,1.6153509616851807,12.25,8.25,l
2,4,centered,attraction,trinary,l-s-ds,equal_2_jnd,[1 2 0],236,286,214.0,9.25,13.25,7.25,286,214,236,13.25,7.25,9.25,l,j,k,2,214,7.25,0,6.465587854385376,13.25,9.25,s
2,4,centered,attraction,binary,l-s,difficult,[0 1],236,273,NA,9.25,12.25,NA,236,273,NA,9.25,12.25,NA,k,NA,j,1,236,9.25,0,0.3126528263092041,12.25,9.25,l
2,4,centered,attraction,trinary,l-s-ds,equal_1_jnd,[0 2 1],247,273,224.0,10.25,12.25,8.25,247,224,273,10.25,8.25,12.25,j,l,j,1,247,10.25,1,8.51161503791809,10.25,8.25,ds
2,4,centered,attraction,trinary,l-s-dl,difficult,[1 0 2],236,273,301.0,9.25,12.25,14.25,273,236,301,12.25,9.25,14.25,j,NA,k,2,236,9.25,0,1.3581163883209229,12.25,9.25,dl
2,4,centered,attraction,binary,l-s,easy,[1 0],247,301,NA,10.25,14.25,NA,301,247,NA,14.25,10.25,NA,k,NA,j,1,301,14.25,0,0.24841904640197754,10.25,14.25,l
2,4,centered,attraction,trinary,l-s-ds,difficult,[0 2 1],247,286,224.0,10.25,13.25,8.25,247,224,286,10.25,8.25,13.25,j,NA,j,1,247,10.25,1,0.3796579837799072,10.25,8.25,ds
2,4,centered,attraction,binary,l-s,difficult,[1 0],236,273,NA,9.25,12.25,NA,273,236,NA,12.25,9.25,NA,j,NA,k,2,236,9.25,0,4.277951240539551,12.25,9.25,l
2,4,centered,attraction,binary,l-s,equal_2_jnd,[0 1],236,286,NA,9.25,13.25,NA,236,286,NA,9.25,13.25,NA,j,k,j,1,236,9.25,1,0.3666527271270752,13.25,9.25,l
2,4,centered,attraction,trinary,l-s-dl,equal_1_jnd,[0 2 1],247,273,301.0,10.25,12.25,14.25,247,301,273,10.25,14.25,12.25,j,l,k,2,301,14.25,0,1.4148986339569092,10.25,14.25,dl
2,4,centered,attraction,binary,l-s,difficult,[0 1],247,286,NA,10.25,13.25,NA,247,286,NA,10.25,13.25,NA,j,NA,j,1,247,10.25,1,0.841672420501709,10.25,13.25,s
2,4,centered,filler,binary,NA,NA,[0 1],300,234,NA,14.23978476824527,9.095668499940077,NA,300,234,NA,14.23978476824527,9.095668499940077,NA,j,NA,j,1,300,14.23978476824527,1,0.7411832809448242,14.2397847682453,9.09566849994008,NA
2,4,centered,attraction,binary,l-s,difficult,[1 0],236,273,NA,9.25,12.25,NA,273,236,NA,12.25,9.25,NA,j,NA,k,2,236,9.25,0,0.5368630886077881,12.25,9.25,l
2,4,centered,attraction,trinary,l-s-dl,easy,[1 0 2],247,301,331.0,10.25,14.25,16.25,301,247,331,14.25,10.25,16.25,k,NA,k,2,247,10.25,1,0.4710068702697754,10.25,16.25,s
2,4,centered,filler,binary,NA,NA,[0 1],267,201,NA,11.845278196649002,6.012441776110791,NA,267,201,NA,11.845278196649002,6.012441776110791,NA,j,NA,k,2,201,6.012441776110791,0,0.5338215827941895,11.845278196649,6.01244177611079,NA
2,4,centered,attraction,binary,l-s,easy,[0 1],247,301,NA,10.25,14.25,NA,247,301,NA,10.25,14.25,NA,j,NA,j,1,247,10.25,1,0.7782888412475586,10.25,14.25,s
2,4,centered,attraction,binary,l-s,easy,[0 1],247,301,NA,10.25,14.25,NA,247,301,NA,10.25,14.25,NA,j,NA,j,1,247,10.25,1,0.3139474391937256,10.25,14.25,s
2,4,centered,attraction,trinary,l-s-dl,easy,[1 0 2],247,301,331.0,10.25,14.25,16.25,301,247,331,14.25,10.25,16.25,k,NA,k,2,247,10.25,1,1.1316931247711182,10.25,16.25,s
2,4,centered,filler,trinary,NA,NA,[2 0 1],294,169,257.0,13.812996056050542,2.4959196138661355,11.0,257,294,169,11,13.812996056050542,2.4959196138661355,k,NA,j,1,257,11,0,0.9857723712921143,11.0,2.49591961386614,NA
2,4,centered,filler,trinary,NA,NA,[2 1 0],261,331,158.0,11.361942909958636,16.24591615400277,1.0,158,331,261,1,16.24591615400277,11.361942909958636,l,NA,k,2,331,16.24591615400277,0,0.5371189117431641,1.0,16.2459161540028,NA
2,4,centered,filler,binary,NA,NA,[1 0],283,301,NA,13.01668875599818,14.257775298901834,NA,301,283,NA,14.257775298901834,13.01668875599818,NA,k,NA,j,1,301,14.257775298901834,0,0.42636799812316895,13.0166887559982,14.2577752989018,NA
2,4,centered,attraction,trinary,l-s-dl,easy,[1 2 0],224,273,301.0,8.25,12.25,14.25,273,301,224,12.25,14.25,8.25,j,NA,k,2,301,14.25,0,0.44672632217407227,12.25,8.25,l
2,4,centered,filler,binary,NA,NA,[1 0],262,192,NA,11.410837720739304,5.025345634203404,NA,192,262,NA,5.025345634203404,11.410837720739304,NA,k,NA,j,1,192,5.025345634203404,0,0.4120209217071533,11.4108377207393,5.0253456342034,NA
2,4,centered,filler,binary,NA,NA,[1 0],205,267,NA,6.451501718212173,11.784537424100565,NA,267,205,NA,11.784537424100565,6.451501718212173,NA,k,NA,k,2,205,6.451501718212173,1,0.6940691471099854,11.7845374241006,6.45150171821217,NA
2,4,centered,attraction,trinary,l-s-ds,easy,[0 1 2],247,301,224.0,10.25,14.25,8.25,247,301,224,10.25,14.25,8.25,j,NA,j,1,247,10.25,1,2.290916681289673,10.25,8.25,ds
2,4,centered,filler,trinary,NA,NA,[2 0 1],214,344,361.0,7.259586441660442,17.02235630946234,18.0,361,214,344,18,7.259586441660442,17.02235630946234,k,NA,k,2,214,7.259586441660442,1,0.5773379802703857,17.0223563094623,7.25958644166044,NA
2,4,centered,attraction,trinary,l-s-dl,equal_1_jnd,[1 0 2],247,273,301.0,10.25,12.25,14.25,273,247,301,12.25,10.25,14.25,k,j,k,2,247,10.25,1,0.8519570827484131,10.25,14.25,s
2,4,centered,attraction,trinary,l-s-dl,equal_2_jnd,[0 2 1],236,286,316.0,9.25,13.25,15.25,236,316,286,9.25,15.25,13.25,j,l,j,1,236,9.25,1,1.0908191204071045,13.25,9.25,dl
2,4,centered,filler,binary,NA,NA,[1 0],275,392,NA,12.429210194719555,19.694879207527265,NA,392,275,NA,19.694879207527265,12.429210194719555,NA,k,NA,k,2,275,12.429210194719555,1,0.7654333114624023,12.4292101947196,19.6948792075273,NA
2,4,centered,attraction,binary,l-s,equal_1_jnd,[1 0],247,273,NA,10.25,12.25,NA,273,247,NA,12.25,10.25,NA,j,k,k,2,247,10.25,1,0.9586832523345947,10.25,12.25,s
2,4,centered,attraction,trinary,l-s-ds,equal_2_jnd,[0 1 2],236,286,214.0,9.25,13.25,7.25,236,286,214,9.25,13.25,7.25,j,k,k,2,286,13.25,1,1.0414848327636719,13.25,9.25,ds
2,4,centered,attraction,binary,l-s,difficult,[1 0],236,273,NA,9.25,12.25,NA,273,236,NA,12.25,9.25,NA,j,NA,j,1,273,12.25,1,0.8747584819793701,12.25,9.25,s
2,4,centered,filler,trinary,NA,NA,[1 0 2],275,271,182.0,12.454308774276392,12.122597752022555,4.0,271,275,182,12.122597752022555,12.454308774276392,4,k,NA,k,2,275,12.454308774276392,1,1.4129860401153564,12.1225977520226,4.0,NA
2,4,centered,attraction,trinary,l-s-ds,easy,[1 2 0],224,273,203.0,8.25,12.25,6.25,273,203,224,12.25,6.25,8.25,j,NA,j,1,273,12.25,1,2.85846209526062,12.25,8.25,ds
2,4,centered,attraction,binary,l-s,equal_1_jnd,[1 0],247,273,NA,10.25,12.25,NA,273,247,NA,12.25,10.25,NA,j,k,k,2,247,10.25,1,0.6959834098815918,10.25,12.25,s
2,4,centered,filler,trinary,NA,NA,[1 0 2],272,185,211.0,12.167162566676303,4.285864474950358,7.0,185,272,211,4.285864474950358,12.167162566676303,7,k,NA,k,2,272,12.167162566676303,1,1.4473886489868164,12.1671625666763,7.0,NA
2,4,centered,attraction,trinary,l-s-ds,difficult,[0 2 1],247,286,224.0,10.25,13.25,8.25,247,224,286,10.25,8.25,13.25,j,NA,j,1,247,10.25,1,1.2478234767913818,10.25,8.25,ds
2,4,centered,attraction,binary,l-s,easy,[0 1],224,273,NA,8.25,12.25,NA,224,273,NA,8.25,12.25,NA,k,NA,j,1,224,8.25,0,0.8194260597229004,12.25,8.25,l
2,4,centered,attraction,binary,l-s,equal_2_jnd,[1 0],236,286,NA,9.25,13.25,NA,286,236,NA,13.25,9.25,NA,j,k,k,2,236,9.25,1,1.0559749603271484,13.25,9.25,l
2,4,centered,attraction,trinary,l-s-ds,difficult,[0 1 2],247,286,224.0,10.25,13.25,8.25,247,286,224,10.25,13.25,8.25,j,NA,k,2,286,13.25,0,1.3000764846801758,10.25,8.25,s
2,4,centered,attraction,binary,l-s,difficult,[0 1],247,286,NA,10.25,13.25,NA,247,286,NA,10.25,13.25,NA,j,NA,j,1,247,10.25,1,4.035314321517944,10.25,13.25,s
2,4,centered,attraction,trinary,l-s-dl,easy,[0 2 1],224,273,301.0,8.25,12.25,14.25,224,301,273,8.25,14.25,12.25,l,NA,j,1,224,8.25,0,0.7384641170501709,12.25,8.25,dl
2,4,centered,filler,trinary,NA,NA,[0 2 1],283,401,165.0,12.982958076801571,20.14122284366749,2.0,283,165,401,12.982958076801571,2,20.14122284366749,j,NA,k,2,165,2,0,0.7300295829772949,12.9829580768016,20.1412228436675,NA
2,4,centered,attraction,binary,l-s,equal_2_jnd,[0 1],236,286,NA,9.25,13.25,NA,236,286,NA,9.25,13.25,NA,j,k,j,1,236,9.25,1,2.565735340118408,13.25,9.25,l
2,4,centered,attraction,binary,l-s,equal_1_jnd,[0 1],247,273,NA,10.25,12.25,NA,247,273,NA,10.25,12.25,NA,j,k,j,1,247,10.25,1,0.5812017917633057,10.25,12.25,s
2,4,centered,filler,binary,NA,NA,[1 0],232,171,NA,8.908381653481424,2.6258213486289605,NA,171,232,NA,2.6258213486289605,8.908381653481424,NA,k,NA,k,2,232,8.908381653481424,1,2.2659785747528076,2.62582134862896,8.90838165348142,NA
2,4,centered,attraction,trinary,l-s-dl,equal_2_jnd,[0 2 1],236,286,316.0,9.25,13.25,15.25,236,316,286,9.25,15.25,13.25,j,l,j,1,236,9.25,1,0.9539320468902588,13.25,9.25,dl
2,4,centered,attraction,trinary,l-s-ds,equal_1_jnd,[1 2 0],247,273,224.0,10.25,12.25,8.25,273,224,247,12.25,8.25,10.25,l,j,k,2,224,8.25,0,0.35312342643737793,10.25,8.25,l
2,4,centered,attraction,trinary,l-s-ds,difficult,[1 0 2],236,273,214.0,9.25,12.25,7.25,273,236,214,12.25,9.25,7.25,j,NA,k,2,236,9.25,0,0.8099164962768555,12.25,9.25,l
2,4,centered,attraction,binary,l-s,easy,[1 0],247,301,NA,10.25,14.25,NA,301,247,NA,14.25,10.25,NA,k,NA,j,1,301,14.25,0,2.2148172855377197,10.25,14.25,l
2,4,centered,attraction,trinary,l-s-ds,difficult,[2 1 0],236,273,214.0,9.25,12.25,7.25,214,273,236,7.25,12.25,9.25,k,NA,k,2,273,12.25,1,0.9853003025054932,12.25,9.25,ds
2,4,centered,filler,binary,NA,NA,[0 1],241,219,NA,9.692925932172274,7.763479906716384,NA,241,219,NA,9.692925932172274,7.763479906716384,NA,j,NA,j,1,241,9.692925932172274,1,1.0603201389312744,7.76347990671638,9.69292593217227,NA
2,4,centered,attraction,binary,l-s,equal_2_jnd,[1 0],236,286,NA,9.25,13.25,NA,286,236,NA,13.25,9.25,NA,j,k,k,2,236,9.25,1,0.51712799072265625,13.25,9.25,l
2,4,centered,filler,trinary,NA,NA,[2 1 0],294,169,257.0,13.812996056050542,2.4959196138661355,11.0,257,169,294,11,2.4959196138661355,13.812996056050542,l,NA,j,1,257,11,0,1.8174943923950195,11.0,2.49591961386614,NA
2,4,centered,attraction,binary,l-s,difficult,[1 0],236,273,NA,9.25,12.25,NA,273,236,NA,12.25,9.25,NA,j,NA,k,2,236,9.25,0,0.8473324775695801,12.25,9.25,l
2,4,centered,attraction,binary,l-s,difficult,[0 1],236,273,NA,9.25,12.25,NA,236,273,NA,9.25,12.25,NA,k,NA,k,2,273,12.25,1,1.3351433277130127,12.25,9.25,s
2,4,centered,attraction,binary,l-s,difficult,[1 0],247,286,NA,10.25,13.25,NA,286,247,NA,13.25,10.25,NA,k,NA,j,1,286,13.25,0,1.141256332397461,10.25,13.25,l
2,4,centered,filler,binary,NA,NA,[0 1],272,237,NA,12.178297551202068,9.388482722570188,NA,272,237,NA,12.178297551202068,9.388482722570188,NA,j,NA,k,2,237,9.388482722570188,0,3.49947190284729,12.1782975512021,9.38848272257019,NA
2,4,centered,attraction,trinary,l-s-dl,easy,[1 0 2],247,301,331.0,10.25,14.25,16.25,301,247,331,14.25,10.25,16.25,k,NA,k,2,247,10.25,1,0.8409192562103271,10.25,16.25,s
2,4,centered,attraction,binary,l-s,easy,[0 1],224,273,NA,8.25,12.25,NA,224,273,NA,8.25,12.25,NA,k,NA,j,1,224,8.25,0,5.454199552536011,12.25,8.25,l
2,4,centered,attraction,trinary,l-s-dl,equal_1_jnd,[1 0 2],247,273,301.0,10.25,12.25,14.25,273,247,301,12.25,10.25,14.25,k,j,k,2,247,10.25,1,0.8782055377960205,10.25,14.25,s
2,4,centered,filler,trinary,NA,NA,[0 2 1],278,289,327.0,12.672850561937024,13.434216311434284,16.0,278,327,289,12.672850561937024,16,13.434216311434284,j,NA,j,1,278,12.672850561937024,1,0.6790549755096436,12.672850561937,16.0,NA
2,4,centered,attraction,trinary,l-s-ds,equal_1_jnd,[2 0 1],247,273,224.0,10.25,12.25,8.25,224,247,273,8.25,10.25,12.25,k,l,j,1,224,8.25,0,0.8266825675964355,10.25,8.25,l
2,4,centered,attraction,binary,l-s,equal_1_jnd,[1 0],247,273,NA,10.25,12.25,NA,273,247,NA,12.25,10.25,NA,j,k,k,2,247,10.25,1,0.7366249561309814,10.25,12.25,s
2,4,centered,filler,binary,NA,NA,[0 1],205,267,NA,6.451501718212173,11.784537424100565,NA,205,267,NA,6.451501718212173,11.784537424100565,NA,j,NA,j,1,205,6.451501718212173,1,1.2844834327697754,11.7845374241006,6.45150171821217,NA
2,4,centered,attraction,binary,l-s,equal_1_jnd,[0 1],247,273,NA,10.25,12.25,NA,247,273,NA,10.25,12.25,NA,j,k,k,2,273,12.25,1,2.149627447128296,10.25,12.25,l
2,4,centered,filler,binary,NA,NA,[0 1],283,301,NA,13.01668875599818,14.257775298901834,NA,283,301,NA,13.01668875599818,14.257775298901834,NA,j,NA,j,1,283,13.01668875599818,1,1.7269871234893799,13.0166887559982,14.2577752989018,NA
2,4,centered,attraction,trinary,l-s-ds,easy,[1 0 2],224,273,203.0,8.25,12.25,6.25,273,224,203,12.25,8.25,6.25,j,NA,k,2,224,8.25,0,1.572511911392212,12.25,8.25,l
2,4,centered,attraction,trinary,l-s-dl,difficult,[2 0 1],247,286,316.0,10.25,13.25,15.25,316,247,286,15.25,10.25,13.25,k,NA,j,1,316,15.25,0,0.9132797718048096,10.25,15.25,dl
2,4,centered,attraction,trinary,l-s-dl,equal_2_jnd,[1 0 2],236,286,316.0,9.25,13.25,15.25,286,236,316,13.25,9.25,15.25,k,j,k,2,236,9.25,1,2.4144036769866943,13.25,9.25,dl
2,4,centered,attraction,binary,l-s,easy,[1 0],224,273,NA,8.25,12.25,NA,273,224,NA,12.25,8.25,NA,j,NA,j,1,273,12.25,1,9.13097882270813,12.25,8.25,s
2,4,centered,filler,binary,NA,NA,[0 1],300,234,NA,14.23978476824527,9.095668499940077,NA,300,234,NA,14.23978476824527,9.095668499940077,NA,j,NA,k,2,234,9.095668499940077,0,6.459512233734131,14.2397847682453,9.09566849994008,NA
2,4,centered,attraction,binary,l-s,easy,[1 0],247,301,NA,10.25,14.25,NA,301,247,NA,14.25,10.25,NA,k,NA,k,2,247,10.25,1,6.309272527694702,10.25,14.25,s
2,4,centered,filler,binary,NA,NA,[0 1],262,192,NA,11.410837720739304,5.025345634203404,NA,262,192,NA,11.410837720739304,5.025345634203404,NA,j,NA,j,1,262,11.410837720739304,1,0.8987488746643066,11.4108377207393,5.0253456342034,NA
2,4,centered,attraction,trinary,l-s-ds,easy,[1 0 2],247,301,224.0,10.25,14.25,8.25,301,247,224,14.25,10.25,8.25,k,NA,k,2,247,10.25,1,0.5528676509857178,10.25,8.25,ds
2,4,centered,attraction,trinary,l-s-ds,difficult,[1 0 2],247,286,224.0,10.25,13.25,8.25,286,247,224,13.25,10.25,8.25,k,NA,k,2,247,10.25,1,1.0754022598266602,10.25,8.25,ds
2,4,centered,attraction,binary,l-s,easy,[0 1],247,301,NA,10.25,14.25,NA,247,301,NA,10.25,14.25,NA,j,NA,j,1,247,10.25,1,2.2390313148498535,10.25,14.25,s
2,4,centered,attraction,binary,l-s,equal_1_jnd,[0 1],247,273,NA,10.25,12.25,NA,247,273,NA,10.25,12.25,NA,j,k,j,1,247,10.25,1,2.4055275917053223,10.25,12.25,s
2,4,centered,attraction,binary,l-s,difficult,[0 1],247,286,NA,10.25,13.25,NA,247,286,NA,10.25,13.25,NA,j,NA,j,1,247,10.25,1,1.885857343673706,10.25,13.25,s
2,4,centered,filler,binary,NA,NA,[1 0],244,284,NA,9.965048890455945,13.076051014359107,NA,284,244,NA,13.076051014359107,9.965048890455945,NA,k,NA,k,2,244,9.965048890455945,1,0.5678341388702393,13.0760510143591,9.96504889045594,NA
2,4,centered,filler,trinary,NA,NA,[1 2 0],275,271,182.0,12.454308774276392,12.122597752022555,4.0,271,182,275,12.122597752022555,4,12.454308774276392,l,NA,k,2,182,4,0,0.5382542610168457,12.1225977520226,4.0,NA
2,4,centered,filler,binary,NA,NA,[0 1],275,392,NA,12.429210194719555,19.694879207527265,NA,275,392,NA,12.429210194719555,19.694879207527265,NA,j,NA,j,1,275,12.429210194719555,1,1.0194010734558105,12.4292101947196,19.6948792075273,NA
2,4,centered,attraction,trinary,l-s-dl,equal_2_jnd,[0 1 2],236,286,316.0,9.25,13.25,15.25,236,286,316,9.25,13.25,15.25,j,k,j,1,236,9.25,1,1.7902228832244873,13.25,9.25,dl
2,4,centered,attraction,binary,l-s,difficult,[1 0],247,286,NA,10.25,13.25,NA,286,247,NA,13.25,10.25,NA,k,NA,k,2,247,10.25,1,0.42977070808410645,10.25,13.25,s
2,4,centered,attraction,trinary,l-s-dl,difficult,[2 1 0],236,273,301.0,9.25,12.25,14.25,301,273,236,14.25,12.25,9.25,k,NA,k,2,273,12.25,1,0.7967963218688965,12.25,9.25,s
2,4,centered,attraction,trinary,l-s-dl,easy,[2 1 0],224,273,301.0,8.25,12.25,14.25,301,273,224,14.25,12.25,8.25,k,NA,k,2,273,12.25,1,0.7831907272338867,12.25,8.25,s
2,4,centered,attraction,trinary,l-s-ds,equal_2_jnd,[1 0 2],236,286,214.0,9.25,13.25,7.25,286,236,214,13.25,9.25,7.25,k,j,k,2,236,9.25,1,0.42391180992126465,13.25,9.25,l
2,4,centered,attraction,binary,l-s,easy,[0 1],224,273,NA,8.25,12.25,NA,224,273,NA,8.25,12.25,NA,k,NA,j,1,224,8.25,0,0.6919779777526855,12.25,8.25,l
2,4,centered,filler,trinary,NA,NA,[2 1 0],283,401,165.0,12.982958076801571,20.14122284366749,2.0,165,401,283,2,20.14122284366749,12.982958076801571,l,NA,j,1,165,2,0,0.7210979461669922,12.9829580768016,20.1412228436675,NA
2,4,centered,filler,binary,NA,NA,[1 0],267,201,NA,11.845278196649002,6.012441776110791,NA,201,267,NA,6.012441776110791,11.845278196649002,NA,k,NA,j,1,201,6.012441776110791,0,1.923006534576416,11.845278196649,6.01244177611079,NA
2,4,centered,filler,binary,NA,NA,[0 1],232,171,NA,8.908381653481424,2.6258213486289605,NA,232,171,NA,8.908381653481424,2.6258213486289605,NA,j,NA,k,2,171,2.6258213486289605,0,0.7324364185333252,2.62582134862896,8.90838165348142,NA
2,4,centered,attraction,binary,l-s,easy,[0 1],247,301,NA,10.25,14.25,NA,247,301,NA,10.25,14.25,NA,j,NA,j,1,247,10.25,1,0.9890379905700684,10.25,14.25,s
2,4,centered,attraction,trinary,l-s-ds,easy,[1 2 0],247,301,224.0,10.25,14.25,8.25,301,224,247,14.25,8.25,10.25,l,NA,k,2,224,8.25,0,0.5314037799835205,10.25,8.25,l
2,4,centered,attraction,binary,l-s,difficult,[1 0],247,286,NA,10.25,13.25,NA,286,247,NA,13.25,10.25,NA,k,NA,k,2,247,10.25,1,0.5046849250793457,10.25,13.25,s
2,4,centered,attraction,binary,l-s,equal_2_jnd,[1 0],236,286,NA,9.25,13.25,NA,286,236,NA,13.25,9.25,NA,j,k,k,2,236,9.25,1,0.5594472885131836,13.25,9.25,l
2,4,centered,attraction,trinary,l-s-ds,easy,[2 1 0],224,273,203.0,8.25,12.25,6.25,203,273,224,6.25,12.25,8.25,k,NA,j,1,203,6.25,0,0.5178694725036621,12.25,8.25,s
2,4,centered,attraction,binary,l-s,difficult,[1 0],247,286,NA,10.25,13.25,NA,286,247,NA,13.25,10.25,NA,k,NA,k,2,247,10.25,1,0.510009765625,10.25,13.25,s
2,4,centered,attraction,trinary,l-s-dl,easy,[0 2 1],224,273,301.0,8.25,12.25,14.25,224,301,273,8.25,14.25,12.25,l,NA,j,1,224,8.25,0,0.7195122241973877,12.25,8.25,dl
2,4,centered,attraction,trinary,l-s-ds,equal_1_jnd,[2 1 0],247,273,224.0,10.25,12.25,8.25,224,273,247,8.25,12.25,10.25,l,k,k,2,273,12.25,1,0.9050967693328857,10.25,8.25,s
2,4,centered,filler,trinary,NA,NA,[2 1 0],242,154,379.0,9.81086720334078,0.4888625058811158,19.0,379,154,242,19,0.4888625058811158,9.81086720334078,l,NA,l,3,242,9.81086720334078,1,1.8924763202667236,0.488862505881116,9.81086720334078,NA
2,4,centered,attraction,binary,l-s,difficult,[1 0],247,286,NA,10.25,13.25,NA,286,247,NA,13.25,10.25,NA,k,NA,k,2,247,10.25,1,1.1190552711486816,10.25,13.25,s
2,4,centered,filler,trinary,NA,NA,[0 1 2],232,272,361.0,8.897313637584615,12.21474049554672,18.0,232,272,361,8.897313637584615,12.21474049554672,18,j,NA,k,2,272,12.21474049554672,0,1.28947114944458,12.2147404955467,8.89731363758461,NA
2,4,centered,attraction,binary,l-s,equal_2_jnd,[1 0],236,286,NA,9.25,13.25,NA,286,236,NA,13.25,9.25,NA,j,k,k,2,236,9.25,1,0.9438111782073975,13.25,9.25,l
2,4,centered,attraction,trinary,l-s-ds,difficult,[2 0 1],247,286,224.0,10.25,13.25,8.25,224,247,286,8.25,10.25,13.25,k,NA,j,1,224,8.25,0,0.8217871189117432,10.25,8.25,l
2,4,centered,filler,trinary,NA,NA,[2 0 1],261,331,158.0,11.361942909958636,16.24591615400277,1.0,158,261,331,1,11.361942909958636,16.24591615400277,k,NA,j,1,158,1,0,0.5868165493011475,1.0,16.2459161540028,NA
2,4,centered,attraction,binary,l-s,difficult,[0 1],236,273,NA,9.25,12.25,NA,236,273,NA,9.25,12.25,NA,k,NA,j,1,236,9.25,0,1.0212743282318115,12.25,9.25,l
2,4,centered,attraction,trinary,l-s-ds,difficult,[2 1 0],247,286,224.0,10.25,13.25,8.25,224,286,247,8.25,13.25,10.25,l,NA,j,1,224,8.25,0,0.7164838314056396,10.25,8.25,l
2,4,centered,attraction,trinary,l-s-ds,easy,[1 0 2],224,273,203.0,8.25,12.25,6.25,273,224,203,12.25,8.25,6.25,j,NA,k,2,224,8.25,0,0.5436050891876221,12.25,8.25,l
2,4,centered,attraction,trinary,l-s-dl,equal_2_jnd,[0 2 1],236,286,316.0,9.25,13.25,15.25,236,316,286,9.25,15.25,13.25,j,l,j,1,236,9.25,1,0.4334232807159424,13.25,9.25,dl
2,4,centered,attraction,trinary,l-s-ds,difficult,[2 1 0],236,273,214.0,9.25,12.25,7.25,214,273,236,7.25,12.25,9.25,k,NA,j,1,214,7.25,0,0.65297698974609375,12.25,9.25,s
2,4,centered,attraction,binary,l-s,easy,[1 0],224,273,NA,8.25,12.25,NA,273,224,NA,12.25,8.25,NA,j,NA,k,2,224,8.25,0,0.5225555896759033,12.25,8.25,l
2,4,centered,filler,trinary,NA,NA,[0 1 2],272,185,211.0,12.167162566676303,4.285864474950358,7.0,272,185,211,12.167162566676303,4.285864474950358,7,j,NA,j,1,272,12.167162566676303,1,0.364152193069458,12.1671625666763,7.0,NA
2,4,centered,attraction,binary,l-s,equal_2_jnd,[0 1],236,286,NA,9.25,13.25,NA,236,286,NA,9.25,13.25,NA,j,k,j,1,236,9.25,1,0.77271270751953125,13.25,9.25,l
2,4,centered,attraction,binary,l-s,difficult,[1 0],236,273,NA,9.25,12.25,NA,273,236,NA,12.25,9.25,NA,j,NA,k,2,236,9.25,0,0.6156125068664551,12.25,9.25,l
2,4,centered,attraction,trinary,l-s-ds,equal_2_jnd,[0 2 1],236,286,214.0,9.25,13.25,7.25,236,214,286,9.25,7.25,13.25,j,l,j,1,236,9.25,1,0.6106045246124268,13.25,9.25,l
2,4,centered,attraction,binary,l-s,equal_1_jnd,[1 0],247,273,NA,10.25,12.25,NA,273,247,NA,12.25,10.25,NA,j,k,j,1,273,12.25,1,1.8675153255462646,10.25,12.25,l
2,4,centered,filler,trinary,NA,NA,[0 1 2],271,200,191.0,12.140217947418758,5.942907377611846,5.0,271,200,191,12.140217947418758,5.942907377611846,5,j,NA,k,2,200,5.942907377611846,0,0.8938202857971191,12.1402179474188,5.94290737761185,NA
2,4,centered,filler,binary,NA,NA,[0 1],258,204,NA,11.11596568841289,6.259801906999201,NA,258,204,NA,11.11596568841289,6.259801906999201,NA,j,NA,k,2,204,6.259801906999201,0,0.5873339176177979,11.1159656884129,6.2598019069992,NA
2,4,centered,filler,binary,NA,NA,[1 0],248,246,NA,10.30760504079765,10.114881485933438,NA,246,248,NA,10.114881485933438,10.30760504079765,NA,k,NA,k,2,248,10.30760504079765,1,4.47981858253479,10.1148814859334,10.3076050407977,NA
2,4,centered,filler,trinary,NA,NA,[2 1 0],321,312,418.0,15.58609528635886,15.020702904439531,21.0,418,312,321,21,15.020702904439531,15.58609528635886,l,NA,k,2,312,15.020702904439531,0,1.4328124523162842,15.0207029044395,21.0,NA
2,4,centered,attraction,binary,l-s,equal_2_jnd,[0 1],236,286,NA,9.25,13.25,NA,236,286,NA,9.25,13.25,NA,j,k,j,1,236,9.25,1,1.3240344524383545,13.25,9.25,l
2,4,centered,attraction,binary,l-s,difficult,[1 0],236,273,NA,9.25,12.25,NA,273,236,NA,12.25,9.25,NA,j,NA,k,2,236,9.25,0,0.6165039539337158,12.25,9.25,l
2,4,centered,attraction,trinary,l-s-ds,equal_2_jnd,[2 0 1],236,286,214.0,9.25,13.25,7.25,214,236,286,7.25,9.25,13.25,k,l,k,2,236,9.25,1,0.3607363700866699,13.25,9.25,l
2,4,centered,attraction,trinary,l-s-dl,difficult,[2 0 1],236,273,301.0,9.25,12.25,14.25,301,236,273,14.25,9.25,12.25,l,NA,k,2,236,9.25,0,4.004921913146973,12.25,9.25,dl
2,4,centered,attraction,trinary,l-s-dl,difficult,[0 2 1],247,286,316.0,10.25,13.25,15.25,247,316,286,10.25,15.25,13.25,j,NA,j,1,247,10.25,1,0.5228931903839111,10.25,15.25,s
2,4,centered,filler,trinary,NA,NA,[0 1 2],214,344,361.0,7.259586441660442,17.02235630946234,18.0,214,344,361,7.259586441660442,17.02235630946234,18,j,NA,j,1,214,7.259586441660442,1,0.80470871925354,17.0223563094623,7.25958644166044,NA
2,4,centered,attraction,trinary,l-s-dl,difficult,[2 1 0],247,286,316.0,10.25,13.25,15.25,316,286,247,15.25,13.25,10.25,l,NA,k,2,286,13.25,0,0.6007416248321533,10.25,15.25,l
2,4,centered,attraction,binary,l-s,easy,[0 1],224,273,NA,8.25,12.25,NA,224,273,NA,8.25,12.25,NA,k,NA,j,1,224,8.25,0,0.7677209377288818,12.25,8.25,l
2,4,centered,attraction,trinary,l-s-ds,easy,[2 0 1],247,301,224.0,10.25,14.25,8.25,224,247,301,8.25,10.25,14.25,k,NA,j,1,224,8.25,0,0.8323924541473389,10.25,8.25,l
2,4,centered,attraction,trinary,l-s-dl,difficult,[1 0 2],236,273,301.0,9.25,12.25,14.25,273,236,301,12.25,9.25,14.25,j,NA,j,1,273,12.25,1,0.7666270732879639,12.25,9.25,s
2,4,centered,attraction,binary,l-s,equal_1_jnd,[1 0],247,273,NA,10.25,12.25,NA,273,247,NA,12.25,10.25,NA,j,k,k,2,247,10.25,1,0.6129965782165527,10.25,12.25,s
