success,screen_id,trial_type,trial_index,time_elapsed,internal_node_id,exp_name,date,sub_n,rt,response,url,timeout,failed_images,failed_audio,failed_video,view_history,stim,stim_vals,line_lens_order,stim_vals_order_psy,choices,stim_names,corr_ans,give_fb,in_cat,key_choice,choice,choice_psy,correct,fb_in_cat,line_1_in_order,line_2_in_order,line_3_in_order,psy_1_in_order,psy_2_in_order,psy_3_in_order,line_length,exp_trial_type,jnds,dens,distribution,correct_1_psy,correct_2_psy,correct_1_phy,transfer_trial_type,trial_choice_set,difficulty,target_side,competitor_side,tc_correct,side_correct,stim_1_psy,stim_2_psy,stim_3_psy,stim_1_phy,stim_2_phy,stim_3_phy,target_phy,competitor_phy,decoy_phy,target_psy,competitor_psy,decoy_psy,attr_choice,question_order,stimulus
TRUE,enter-fullscreen-mode,fullscreen,0,2290,0.0-0.0,line_cat_multi_stim_2,20211130,301,,,,,,,,,,,,,,,,,,,,,,,,,,,,,,,,,,,,,,,,,,,,,,,,,,,,,,,,,,
,enter-sub-number,survey-html-form,1,4398,0.0-1.0,line_cat_multi_stim_2,20211130,301,2094,"{""response"":""162""}",,,,,,,,,,,,,,,,,,,,,,,,,,,,,,,,,,,,,,,,,,,,,,,,,,,,,,,,
,,external-html,2,22426,0.0-2.0,line_cat_multi_stim_2,20211130,301,18016,,consent.html,,,,,,,,,,,,,,,,,,,,,,,,,,,,,,,,,,,,,,,,,,,,,,,,,,,,,,,
TRUE,,preload,3,22450,0.0-3.0-0.0,line_cat_multi_stim_2,20211130,301,,,,FALSE,[],[],[],,,,,,,,,,,,,,,,,,,,,,,,,,,,,,,,,,,,,,,,,,,,,,,,,,,
,instructions,instructions,4,93892,0.0-3.0-1.0,line_cat_multi_stim_2,20211130,301,71442,,,,,,,"[{""page_index"":0,""viewing_time"":1878},{""page_index"":1,""viewing_time"":8504},{""page_index"":2,""viewing_time"":13952},{""page_index"":3,""viewing_time"":31752},{""page_index"":4,""viewing_time"":9024},{""page_index"":5,""viewing_time"":1690},{""page_index"":6,""viewing_time"":4640}]",,,,,,,,,,,,,,,,,,,,,,,,,,,,,,,,,,,,,,,,,,,,,,,,,,
,demo-lines,draw-demo-lines,5,153906,0.0-3.0-2.0,line_cat_multi_stim_2,20211130,301,,,,,,,,,lines,,,,,,,,,,,,,,,,,,,,,,,,,,,,,,,,,,,,,,,,,,,,,,,,,
,click-to-begin-the-experiment,instructions,6,157690,0.0-3.0-3.0,line_cat_multi_stim_2,20211130,301,3780,,,,,,,"[{""page_index"":0,""viewing_time"":3778}]",,,,,,,,,,,,,,,,,,,,,,,,,,,,,,,,,,,,,,,,,,,,,,,,,,
,learn_trial,categorize-lines-2,7,164312,0.0-4.0-0.0,line_cat_multi_stim_2,20211130,301,4580,,,,,,,,,[160.2908],[160.2908],"[1.359994839380912,null,null]","[""u"",""i""]","[""""]",null,TRUE,in,u,YES,NA,1,in,160.2908,,,1.359994839,NaN,NaN,160.2908,learning,1.36,0.0444,in,,,,,,,,,,,,,,,,,,,,,,,,,
,learn_trial,categorize-lines-2,8,169402,0.0-4.0-0.1,line_cat_multi_stim_2,20211130,301,1050,,,,,,,,,[278.0583],[278.0583],"[12.649998628714304,null,null]","[""u"",""i""]","[""""]",null,TRUE,out,u,YES,NA,0,out,278.0583,,,12.64999863,NaN,NaN,278.0583,learning,12.65,0.1461,out,,,,,,,,,,,,,,,,,,,,,,,,,
,learn_trial,categorize-lines-2,9,174542,0.0-4.0-0.2,line_cat_multi_stim_2,20211130,301,1100,,,,,,,,,[271.0925],[271.0925],"[12.130002164006402,null,null]","[""u"",""i""]","[""""]",null,TRUE,out,u,YES,NA,0,out,271.0925,,,12.13000216,NaN,NaN,271.0925,learning,12.13,0.1643,out,,,,,,,,,,,,,,,,,,,,,,,,,
,learn_trial,categorize-lines-2,10,177432,0.0-4.0-0.3,line_cat_multi_stim_2,20211130,301,838,,,,,,,,,[260.715],[260.715],"[11.330000052216096,null,null]","[""u"",""i""]","[""""]",null,TRUE,out,i,NO,NA,1,out,260.715,,,11.33000005,NaN,NaN,260.715,learning,11.33,0.1772,out,,,,,,,,,,,,,,,,,,,,,,,,,
,learn_trial,categorize-lines-2,11,181900,0.0-4.0-0.4,line_cat_multi_stim_2,20211130,301,2432,,,,,,,,,[282.5715],[282.5715],"[12.979999813331535,null,null]","[""u"",""i""]","[""""]",null,TRUE,in,u,YES,NA,1,in,282.5715,,,12.97999981,NaN,NaN,282.5715,learning,12.98,0.0444,in,,,,,,,,,,,,,,,,,,,,,,,,,
,learn_trial,categorize-lines-2,12,186910,0.0-4.0-0.5,line_cat_multi_stim_2,20211130,301,966,,,,,,,,,[349.0423],[349.0423],"[17.310001689421547,null,null]","[""u"",""i""]","[""""]",null,TRUE,out,u,YES,NA,0,out,349.0423,,,17.31000169,NaN,NaN,349.0423,learning,17.31,0.0047,out,,,,,,,,,,,,,,,,,,,,,,,,,
,learn_trial,categorize-lines-2,13,191594,0.0-4.0-0.6,line_cat_multi_stim_2,20211130,301,652,,,,,,,,,[338.1466],[338.1466],"[16.66000205168315,null,null]","[""u"",""i""]","[""""]",null,TRUE,in,i,NO,NA,0,in,338.1466,,,16.66000205,NaN,NaN,338.1466,learning,16.66,0.0444,in,,,,,,,,,,,,,,,,,,,,,,,,,
,learn_trial,categorize-lines-2,14,200032,0.0-4.0-0.7,line_cat_multi_stim_2,20211130,301,4392,,,,,,,,,[235.555],[235.555],"[9.25000244256176,null,null]","[""u"",""i""]","[""""]",null,TRUE,out,u,YES,NA,0,out,235.555,,,9.250002443,NaN,NaN,235.555,learning,9.25,0.1194,out,,,,,,,,,,,,,,,,,,,,,,,,,
,learn_trial,categorize-lines-2,15,204232,0.0-4.0-0.8,line_cat_multi_stim_2,20211130,301,2158,,,,,,,,,[219.0384],[219.0384],"[7.760001821279225,null,null]","[""u"",""i""]","[""""]",null,TRUE,out,i,NO,NA,1,out,219.0384,,,7.760001821,NaN,NaN,219.0384,learning,7.76,0.0532,out,,,,,,,,,,,,,,,,,,,,,,,,,
,learn_trial,categorize-lines-2,16,207236,0.0-4.0-0.9,line_cat_multi_stim_2,20211130,301,962,,,,,,,,,[302.3998],[302.3998],"[14.3700006091085,null,null]","[""u"",""i""]","[""""]",null,TRUE,in,u,YES,NA,1,in,302.3998,,,14.37000061,NaN,NaN,302.3998,learning,14.37,0.0444,in,,,,,,,,,,,,,,,,,,,,,,,,,
,learn_trial,categorize-lines-2,17,212832,0.0-4.0-0.10,line_cat_multi_stim_2,20211130,301,1556,,,,,,,,,[219.1453],[219.1453],"[7.770002263658368,null,null]","[""u"",""i""]","[""""]",null,TRUE,out,u,YES,NA,0,out,219.1453,,,7.770002264,NaN,NaN,219.1453,learning,7.77,0.0536,out,,,,,,,,,,,,,,,,,,,,,,,,,
,learn_trial,categorize-lines-2,18,216724,0.0-4.0-0.11,line_cat_multi_stim_2,20211130,301,1852,,,,,,,,,[256.4258],[256.4258],"[10.990002986071206,null,null]","[""u"",""i""]","[""""]",null,TRUE,in,u,YES,NA,1,in,256.4258,,,10.99000299,NaN,NaN,256.4258,learning,10.99,0.0444,in,,,,,,,,,,,,,,,,,,,,,,,,,
,learn_trial,categorize-lines-2,19,221956,0.0-4.0-0.12,line_cat_multi_stim_2,20211130,301,1198,,,,,,,,,[316.5916],[316.5916],"[15.309998107471449,null,null]","[""u"",""i""]","[""""]",null,TRUE,in,i,NO,NA,0,in,316.5916,,,15.30999811,NaN,NaN,316.5916,learning,15.31,0.0444,in,,,,,,,,,,,,,,,,,,,,,,,,,
,learn_trial,categorize-lines-2,20,227342,0.0-4.0-0.13,line_cat_multi_stim_2,20211130,301,1352,,,,,,,,,[190.3246],[190.3246],"[4.879994676771028,null,null]","[""u"",""i""]","[""""]",null,TRUE,out,u,YES,NA,0,out,190.3246,,,4.879994677,NaN,NaN,190.3246,learning,4.88,0.0032,out,,,,,,,,,,,,,,,,,,,,,,,,,
,learn_trial,categorize-lines-2,21,230916,0.0-4.0-0.14,line_cat_multi_stim_2,20211130,301,1538,,,,,,,,,[235.0957],[235.0957],"[9.209999163616454,null,null]","[""u"",""i""]","[""""]",null,TRUE,out,i,NO,NA,1,out,235.0957,,,9.209999164,NaN,NaN,235.0957,learning,9.21,0.1176,out,,,,,,,,,,,,,,,,,,,,,,,,,
,learn_trial,categorize-lines-2,22,236342,0.0-4.0-0.15,line_cat_multi_stim_2,20211130,301,1390,,,,,,,,,[215.6451],[215.6451],"[7.4399976494366316,null,null]","[""u"",""i""]","[""""]",null,TRUE,in,i,NO,NA,0,in,215.6451,,,7.439997649,NaN,NaN,215.6451,learning,7.44,0.0444,in,,,,,,,,,,,,,,,,,,,,,,,,,
,learn_trial,categorize-lines-2,23,239126,0.0-4.0-0.16,line_cat_multi_stim_2,20211130,301,740,,,,,,,,,[304.621],[304.621],"[14.519998014438004,null,null]","[""u"",""i""]","[""""]",null,TRUE,in,u,YES,NA,1,in,304.621,,,14.51999801,NaN,NaN,304.621,learning,14.52,0.0444,in,,,,,,,,,,,,,,,,,,,,,,,,,
,learn_trial,categorize-lines-2,24,242480,0.0-4.0-0.17,line_cat_multi_stim_2,20211130,301,1310,,,,,,,,,[245.4095],[245.4095],"[10.090003961210742,null,null]","[""u"",""i""]","[""""]",null,TRUE,out,i,NO,NA,1,out,245.4095,,,10.09000396,NaN,NaN,245.4095,learning,10.09,0.1552,out,,,,,,,,,,,,,,,,,,,,,,,,,
,learn_trial,categorize-lines-2,25,245264,0.0-4.0-0.18,line_cat_multi_stim_2,20211130,301,736,,,,,,,,,[426.7543],[426.7543],"[21.4299984737416,null,null]","[""u"",""i""]","[""""]",null,TRUE,in,u,YES,NA,1,in,426.7543,,,21.42999847,NaN,NaN,426.7543,learning,21.43,0.0444,in,,,,,,,,,,,,,,,,,,,,,,,,,
,learn_trial,categorize-lines-2,26,248604,0.0-4.0-0.19,line_cat_multi_stim_2,20211130,301,1304,,,,,,,,,[233.8373],[233.8373],"[9.099995620874756,null,null]","[""u"",""i""]","[""""]",null,TRUE,out,i,NO,NA,1,out,233.8373,,,9.099995621,NaN,NaN,233.8373,learning,9.1,0.1123,out,,,,,,,,,,,,,,,,,,,,,,,,,
,learn_trial,categorize-lines-2,27,251734,0.0-4.0-0.20,line_cat_multi_stim_2,20211130,301,1090,,,,,,,,,[236.9381],[236.9381],"[9.369995761909873,null,null]","[""u"",""i""]","[""""]",null,TRUE,out,i,NO,NA,1,out,236.9381,,,9.369995762,NaN,NaN,236.9381,learning,9.37,0.1251,out,,,,,,,,,,,,,,,,,,,,,,,,,
,learn_trial,categorize-lines-2,28,254468,0.0-4.0-0.21,line_cat_multi_stim_2,20211130,301,694,,,,,,,,,[391.0651],[391.0651],"[19.63999844038646,null,null]","[""u"",""i""]","[""""]",null,TRUE,in,u,YES,NA,1,in,391.0651,,,19.63999844,NaN,NaN,391.0651,learning,19.64,0.0444,in,,,,,,,,,,,,,,,,,,,,,,,,,
,learn_trial,categorize-lines-2,29,257506,0.0-4.0-0.22,line_cat_multi_stim_2,20211130,301,1002,,,,,,,,,[249.5144],[249.5144],"[10.42999841307219,null,null]","[""u"",""i""]","[""""]",null,TRUE,out,i,NO,NA,1,out,249.5144,,,10.42999841,NaN,NaN,249.5144,learning,10.43,0.1659,out,,,,,,,,,,,,,,,,,,,,,,,,,
,learn_trial,categorize-lines-2,30,260780,0.0-4.0-0.23,line_cat_multi_stim_2,20211130,301,1236,,,,,,,,,[251.4699],[251.4699],"[10.590003439591888,null,null]","[""u"",""i""]","[""""]",null,TRUE,out,i,NO,NA,1,out,251.4699,,,10.59000344,NaN,NaN,251.4699,learning,10.59,0.1698,out,,,,,,,,,,,,,,,,,,,,,,,,,
,learn_trial,categorize-lines-2,31,263718,0.0-4.0-0.24,line_cat_multi_stim_2,20211130,301,900,,,,,,,,,[348.1918],[348.1918],"[17.25999896930144,null,null]","[""u"",""i""]","[""""]",null,TRUE,in,u,YES,NA,1,in,348.1918,,,17.25999897,NaN,NaN,348.1918,learning,17.26,0.0444,in,,,,,,,,,,,,,,,,,,,,,,,,,
,learn_trial,categorize-lines-2,32,266592,0.0-4.0-0.25,line_cat_multi_stim_2,20211130,301,830,,,,,,,,,[241.019],[241.019],"[9.720001613731565,null,null]","[""u"",""i""]","[""""]",null,TRUE,out,i,NO,NA,1,out,241.019,,,9.720001614,NaN,NaN,241.019,learning,9.72,0.1407,out,,,,,,,,,,,,,,,,,,,,,,,,,
,learn_trial,categorize-lines-2,33,269710,0.0-4.0-0.26,line_cat_multi_stim_2,20211130,301,1082,,,,,,,,,[272.6843],[272.6843],"[12.249998167632315,null,null]","[""u"",""i""]","[""""]",null,TRUE,out,i,NO,NA,1,out,272.6843,,,12.24999817,NaN,NaN,272.6843,learning,12.25,0.1606,out,,,,,,,,,,,,,,,,,,,,,,,,,
,learn_trial,categorize-lines-2,34,272610,0.0-4.0-0.27,line_cat_multi_stim_2,20211130,301,864,,,,,,,,,[275.2239],[275.2239],"[12.4400002429699,null,null]","[""u"",""i""]","[""""]",null,TRUE,out,i,NO,NA,1,out,275.2239,,,12.44000024,NaN,NaN,275.2239,learning,12.44,0.1542,out,,,,,,,,,,,,,,,,,,,,,,,,,
,learn_trial,categorize-lines-2,35,275334,0.0-4.0-0.28,line_cat_multi_stim_2,20211130,301,684,,,,,,,,,[395.4783],[395.4783],"[19.87000127695692,null,null]","[""u"",""i""]","[""""]",null,TRUE,in,u,YES,NA,1,in,395.4783,,,19.87000128,NaN,NaN,395.4783,learning,19.87,0.0444,in,,,,,,,,,,,,,,,,,,,,,,,,,
,learn_trial,categorize-lines-2,36,278050,0.0-4.0-0.29,line_cat_multi_stim_2,20211130,301,676,,,,,,,,,[286.8779],[286.8779],"[13.290002332194836,null,null]","[""u"",""i""]","[""""]",null,TRUE,out,i,NO,NA,1,out,286.8779,,,13.29000233,NaN,NaN,286.8779,learning,13.29,0.1176,out,,,,,,,,,,,,,,,,,,,,,,,,,
,learn_trial,categorize-lines-2,37,282878,0.0-4.0-0.30,line_cat_multi_stim_2,20211130,301,788,,,,,,,,,[204.8759],[204.8759],"[6.389999730231122,null,null]","[""u"",""i""]","[""""]",null,TRUE,in,i,NO,NA,0,in,204.8759,,,6.38999973,NaN,NaN,204.8759,learning,6.39,0.0444,in,,,,,,,,,,,,,,,,,,,,,,,,,
,learn_trial,categorize-lines-2,38,287160,0.0-4.0-0.31,line_cat_multi_stim_2,20211130,301,2240,,,,,,,,,[255.1777],[255.1777],"[10.889999657841992,null,null]","[""u"",""i""]","[""""]",null,TRUE,out,i,NO,NA,1,out,255.1777,,,10.88999966,NaN,NaN,255.1777,learning,10.89,0.1751,out,,,,,,,,,,,,,,,,,,,,,,,,,
,learn_trial,categorize-lines-2,39,290160,0.0-4.0-0.32,line_cat_multi_stim_2,20211130,301,958,,,,,,,,,[258.5615],[258.5615],"[11.1600010340234,null,null]","[""u"",""i""]","[""""]",null,TRUE,out,i,NO,NA,1,out,258.5615,,,11.16000103,NaN,NaN,258.5615,learning,11.16,0.1772,out,,,,,,,,,,,,,,,,,,,,,,,,,
,learn_trial,categorize-lines-2,40,295188,0.0-4.0-0.33,line_cat_multi_stim_2,20211130,301,990,,,,,,,,,[206.4815],[206.4815],"[6.549998987583844,null,null]","[""u"",""i""]","[""""]",null,TRUE,in,i,NO,NA,0,in,206.4815,,,6.549998988,NaN,NaN,206.4815,learning,6.55,0.0444,in,,,,,,,,,,,,,,,,,,,,,,,,,
,learn_trial,categorize-lines-2,41,297890,0.0-4.0-0.34,line_cat_multi_stim_2,20211130,301,664,,,,,,,,,[300.928],[300.928],"[14.270001981618636,null,null]","[""u"",""i""]","[""""]",null,TRUE,in,u,YES,NA,1,in,300.928,,,14.27000198,NaN,NaN,300.928,learning,14.27,0.0444,in,,,,,,,,,,,,,,,,,,,,,,,,,
,learn_trial,categorize-lines-2,42,302704,0.0-4.0-0.35,line_cat_multi_stim_2,20211130,301,774,,,,,,,,,[223.4641],[223.4641],"[8.16999670821145,null,null]","[""u"",""i""]","[""""]",null,TRUE,in,i,NO,NA,0,in,223.4641,,,8.169996708,NaN,NaN,223.4641,learning,8.17,0.0444,in,,,,,,,,,,,,,,,,,,,,,,,,,
,learn_trial,categorize-lines-2,43,305948,0.0-4.0-0.36,line_cat_multi_stim_2,20211130,301,1208,,,,,,,,,[243.7389],[243.7389],"[9.95000292676626,null,null]","[""u"",""i""]","[""""]",null,TRUE,out,i,NO,NA,1,out,243.7389,,,9.950002927,NaN,NaN,243.7389,learning,9.95,0.1501,out,,,,,,,,,,,,,,,,,,,,,,,,,
,learn_trial,categorize-lines-2,44,309158,0.0-4.0-0.37,line_cat_multi_stim_2,20211130,301,1172,,,,,,,,,[278.7375],[278.7375],"[12.700002042860085,null,null]","[""u"",""i""]","[""""]",null,TRUE,out,i,NO,NA,1,out,278.7375,,,12.70000204,NaN,NaN,278.7375,learning,12.7,0.1441,out,,,,,,,,,,,,,,,,,,,,,,,,,
,learn_trial,categorize-lines-2,45,311966,0.0-4.0-0.38,line_cat_multi_stim_2,20211130,301,780,,,,,,,,,[169.8728],[169.8728],"[2.5499940348652426,null,null]","[""u"",""i""]","[""""]",null,TRUE,in,u,YES,NA,1,in,169.8728,,,2.549994035,NaN,NaN,169.8728,learning,2.55,0.0444,in,,,,,,,,,,,,,,,,,,,,,,,,,
,learn_trial,categorize-lines-2,46,315674,0.0-4.0-0.39,line_cat_multi_stim_2,20211130,301,1674,,,,,,,,,[228.7593],[228.7593],"[8.650002969964806,null,null]","[""u"",""i""]","[""""]",null,TRUE,out,i,NO,NA,1,out,228.7593,,,8.65000297,NaN,NaN,228.7593,learning,8.65,0.0909,out,,,,,,,,,,,,,,,,,,,,,,,,,
,learn_trial,categorize-lines-2,47,318556,0.0-4.0-0.40,line_cat_multi_stim_2,20211130,301,844,,,,,,,,,[318.7615],[318.7615],"[15.449996797289248,null,null]","[""u"",""i""]","[""""]",null,TRUE,in,u,YES,NA,1,in,318.7615,,,15.4499968,NaN,NaN,318.7615,learning,15.45,0.0444,in,,,,,,,,,,,,,,,,,,,,,,,,,
,learn_trial,categorize-lines-2,48,322542,0.0-4.0-0.41,line_cat_multi_stim_2,20211130,301,1950,,,,,,,,,[241.7256],[241.7256],"[9.780002026078613,null,null]","[""u"",""i""]","[""""]",null,TRUE,out,i,NO,NA,1,out,241.7256,,,9.780002026,NaN,NaN,241.7256,learning,9.78,0.1432,out,,,,,,,,,,,,,,,,,,,,,,,,,
,learn_trial,categorize-lines-2,49,327552,0.0-4.0-0.42,line_cat_multi_stim_2,20211130,301,966,,,,,,,,,[257.4286],[257.4286],"[11.069999767348328,null,null]","[""u"",""i""]","[""""]",null,TRUE,in,i,NO,NA,0,in,257.4286,,,11.06999977,NaN,NaN,257.4286,learning,11.07,0.0444,in,,,,,,,,,,,,,,,,,,,,,,,,,
,learn_trial,categorize-lines-2,50,331214,0.0-4.0-0.43,line_cat_multi_stim_2,20211130,301,1622,,,,,,,,,[217.0172],[217.0172],"[7.569995413282384,null,null]","[""u"",""i""]","[""""]",null,TRUE,in,u,YES,NA,1,in,217.0172,,,7.569995413,NaN,NaN,217.0172,learning,7.57,0.0444,in,,,,,,,,,,,,,,,,,,,,,,,,,
,learn_trial,categorize-lines-2,51,336316,0.0-4.0-0.44,line_cat_multi_stim_2,20211130,301,1060,,,,,,,,,[232.019],[232.019],"[8.939998013815176,null,null]","[""u"",""i""]","[""""]",null,TRUE,out,u,YES,NA,0,out,232.019,,,8.939998014,NaN,NaN,232.019,learning,8.94,0.1047,out,,,,,,,,,,,,,,,,,,,,,,,,,
,learn_trial,categorize-lines-2,52,342708,0.0-4.0-0.45,line_cat_multi_stim_2,20211130,301,2356,,,,,,,,,[214.2817],[214.2817],"[7.3100022617546285,null,null]","[""u"",""i""]","[""""]",null,TRUE,in,i,NO,NA,0,in,214.2817,,,7.310002262,NaN,NaN,214.2817,learning,7.31,0.0444,in,,,,,,,,,,,,,,,,,,,,,,,,,
,learn_trial,categorize-lines-2,53,345942,0.0-4.0-0.46,line_cat_multi_stim_2,20211130,301,1196,,,,,,,,,[172.2094],[172.2094],"[2.829994250824066,null,null]","[""u"",""i""]","[""""]",null,TRUE,in,u,YES,NA,1,in,172.2094,,,2.829994251,NaN,NaN,172.2094,learning,2.83,0.0444,in,,,,,,,,,,,,,,,,,,,,,,,,,
,learn_trial,categorize-lines-2,54,348824,0.0-4.0-0.47,line_cat_multi_stim_2,20211130,301,838,,,,,,,,,[414.0384],[414.0384],"[20.81000230958466,null,null]","[""u"",""i""]","[""""]",null,TRUE,in,u,YES,NA,1,in,414.0384,,,20.81000231,NaN,NaN,414.0384,learning,20.81,0.0444,in,,,,,,,,,,,,,,,,,,,,,,,,,
,learn_trial,categorize-lines-2,55,353942,0.0-4.0-0.48,line_cat_multi_stim_2,20211130,301,1086,,,,,,,,,[243.0264],[243.0264],"[9.890001264246749,null,null]","[""u"",""i""]","[""""]",null,TRUE,in,i,NO,NA,0,in,243.0264,,,9.890001264,NaN,NaN,243.0264,learning,9.89,0.0444,in,,,,,,,,,,,,,,,,,,,,,,,,,
,learn_trial,categorize-lines-2,56,356764,0.0-4.0-0.49,line_cat_multi_stim_2,20211130,301,786,,,,,,,,,[425.0919],[425.0919],"[21.350001675120883,null,null]","[""u"",""i""]","[""""]",null,TRUE,in,u,YES,NA,1,in,425.0919,,,21.35000168,NaN,NaN,425.0919,learning,21.35,0.0444,in,,,,,,,,,,,,,,,,,,,,,,,,,
,learn_trial,categorize-lines-2,57,361872,0.0-4.0-0.50,line_cat_multi_stim_2,20211130,301,1068,,,,,,,,,[306.8586],[306.8586],"[14.670001080211483,null,null]","[""u"",""i""]","[""""]",null,TRUE,out,u,YES,NA,0,out,306.8586,,,14.67000108,NaN,NaN,306.8586,learning,14.67,0.0559,out,,,,,,,,,,,,,,,,,,,,,,,,,
,learn_trial,categorize-lines-2,58,365076,0.0-4.0-0.51,line_cat_multi_stim_2,20211130,301,1162,,,,,,,,,[160.4473],[160.4473],"[1.3799962921222333,null,null]","[""u"",""i""]","[""""]",null,TRUE,in,u,YES,NA,1,in,160.4473,,,1.379996292,NaN,NaN,160.4473,learning,1.38,0.0444,in,,,,,,,,,,,,,,,,,,,,,,,,,
,learn_trial,categorize-lines-2,59,367922,0.0-4.0-0.52,line_cat_multi_stim_2,20211130,301,808,,,,,,,,,[189.4907],[189.4907],"[4.789995210780694,null,null]","[""u"",""i""]","[""""]",null,TRUE,in,u,YES,NA,1,in,189.4907,,,4.789995211,NaN,NaN,189.4907,learning,4.79,0.0444,in,,,,,,,,,,,,,,,,,,,,,,,,,
,learn_trial,categorize-lines-2,60,373208,0.0-4.0-0.53,line_cat_multi_stim_2,20211130,301,1240,,,,,,,,,[309.2634],[309.2634],"[14.829998201349792,null,null]","[""u"",""i""]","[""""]",null,TRUE,in,i,NO,NA,0,in,309.2634,,,14.8299982,NaN,NaN,309.2634,learning,14.83,0.0444,in,,,,,,,,,,,,,,,,,,,,,,,,,
,learn_trial,categorize-lines-2,61,376206,0.0-4.0-0.54,line_cat_multi_stim_2,20211130,301,958,,,,,,,,,[315.3583],[315.3583],"[15.229999145904438,null,null]","[""u"",""i""]","[""""]",null,TRUE,in,u,YES,NA,1,in,315.3583,,,15.22999915,NaN,NaN,315.3583,learning,15.23,0.0444,in,,,,,,,,,,,,,,,,,,,,,,,,,
,learn_trial,categorize-lines-2,62,379208,0.0-4.0-0.55,line_cat_multi_stim_2,20211130,301,960,,,,,,,,,[157.5],[157.5],"[1,null,null]","[""u"",""i""]","[""""]",null,TRUE,in,u,YES,NA,1,in,157.5,,,1,NaN,NaN,157.5,learning,1,0.0444,in,,,,,,,,,,,,,,,,,,,,,,,,,
,learn_trial,categorize-lines-2,63,384248,0.0-4.0-0.56,line_cat_multi_stim_2,20211130,301,1000,,,,,,,,,[251.8382],[251.8382],"[10.619999594850716,null,null]","[""u"",""i""]","[""""]",null,TRUE,out,u,YES,NA,0,out,251.8382,,,10.61999959,NaN,NaN,251.8382,learning,10.62,0.1705,out,,,,,,,,,,,,,,,,,,,,,,,,,
,learn_trial,categorize-lines-2,64,387044,0.0-4.0-0.57,line_cat_multi_stim_2,20211130,301,762,,,,,,,,,[261.0969],[261.0969],"[11.36000089624506,null,null]","[""u"",""i""]","[""""]",null,TRUE,in,u,YES,NA,1,in,261.0969,,,11.3600009,NaN,NaN,261.0969,learning,11.36,0.0444,in,,,,,,,,,,,,,,,,,,,,,,,,,
,learn_trial,categorize-lines-2,65,392302,0.0-4.0-0.58,line_cat_multi_stim_2,20211130,301,1218,,,,,,,,,[246.0089],[246.0089],"[10.14000318435935,null,null]","[""u"",""i""]","[""""]",null,TRUE,out,u,YES,NA,0,out,246.0089,,,10.14000318,NaN,NaN,246.0089,learning,10.14,0.157,out,,,,,,,,,,,,,,,,,,,,,,,,,
,learn_trial,categorize-lines-2,66,394892,0.0-4.0-0.59,line_cat_multi_stim_2,20211130,301,550,,,,,,,,,[325.361],[325.361],"[15.870002780225683,null,null]","[""u"",""i""]","[""""]",null,TRUE,in,u,YES,NA,1,in,325.361,,,15.87000278,NaN,NaN,325.361,learning,15.87,0.0444,in,,,,,,,,,,,,,,,,,,,,,,,,,
,learn_trial,categorize-lines-2,67,398030,0.0-4.0-0.60,line_cat_multi_stim_2,20211130,301,1100,,,,,,,,,[155.8185],[155.8185],"[0.7800050464240563,null,null]","[""u"",""i""]","[""""]",null,TRUE,in,u,YES,NA,1,in,155.8185,,,0.780005046,NaN,NaN,155.8185,learning,0.78,0.0444,in,,,,,,,,,,,,,,,,,,,,,,,,,
,learn_trial,categorize-lines-2,68,401392,0.0-4.0-0.61,line_cat_multi_stim_2,20211130,301,1322,,,,,,,,,[248.5424],[248.5424],"[10.349999210387681,null,null]","[""u"",""i""]","[""""]",null,TRUE,out,i,NO,NA,1,out,248.5424,,,10.34999921,NaN,NaN,248.5424,learning,10.35,0.1637,out,,,,,,,,,,,,,,,,,,,,,,,,,
,learn_trial,categorize-lines-2,69,405932,0.0-4.0-0.62,line_cat_multi_stim_2,20211130,301,506,,,,,,,,,[319.0728],[319.0728],"[15.470003199762868,null,null]","[""u"",""i""]","[""""]",null,TRUE,out,u,YES,NA,0,out,319.0728,,,15.4700032,NaN,NaN,319.0728,learning,15.47,0.0305,out,,,,,,,,,,,,,,,,,,,,,,,,,
,learn_trial,categorize-lines-2,70,409950,0.0-4.0-0.63,line_cat_multi_stim_2,20211130,301,1980,,,,,,,,,[228.4247],[228.4247],"[8.620002178834698,null,null]","[""u"",""i""]","[""""]",null,TRUE,in,u,YES,NA,1,in,228.4247,,,8.620002179,NaN,NaN,228.4247,learning,8.62,0.0444,in,,,,,,,,,,,,,,,,,,,,,,,,,
,learn_trial,categorize-lines-2,71,414668,0.0-4.0-0.64,line_cat_multi_stim_2,20211130,301,672,,,,,,,,,[249.5144],[249.5144],"[10.42999841307219,null,null]","[""u"",""i""]","[""""]",null,TRUE,out,u,YES,NA,0,out,249.5144,,,10.42999841,NaN,NaN,249.5144,learning,10.43,0.1659,out,,,,,,,,,,,,,,,,,,,,,,,,,
,learn_trial,categorize-lines-2,72,419556,0.0-4.0-0.65,line_cat_multi_stim_2,20211130,301,850,,,,,,,,,[237.7488],[237.7488],"[9.440004309033577,null,null]","[""u"",""i""]","[""""]",null,TRUE,out,u,YES,NA,0,out,237.7488,,,9.440004309,NaN,NaN,237.7488,learning,9.44,0.1283,out,,,,,,,,,,,,,,,,,,,,,,,,,
,learn_trial,categorize-lines-2,73,422230,0.0-4.0-0.66,line_cat_multi_stim_2,20211130,301,634,,,,,,,,,[383.8815],[383.8815],"[19.26000113164941,null,null]","[""u"",""i""]","[""""]",null,TRUE,in,u,YES,NA,1,in,383.8815,,,19.26000113,NaN,NaN,383.8815,learning,19.26,0.0444,in,,,,,,,,,,,,,,,,,,,,,,,,,
,learn_trial,categorize-lines-2,74,425718,0.0-4.0-0.67,line_cat_multi_stim_2,20211130,301,1452,,,,,,,,,[250.9796],[250.9796],"[10.550002763766843,null,null]","[""u"",""i""]","[""""]",null,TRUE,out,i,NO,NA,1,out,250.9796,,,10.55000276,NaN,NaN,250.9796,learning,10.55,0.1689,out,,,,,,,,,,,,,,,,,,,,,,,,,
,learn_trial,categorize-lines-2,75,431580,0.0-4.0-0.68,line_cat_multi_stim_2,20211130,301,1818,,,,,,,,,[214.9099],[214.9099],"[7.370001362999636,null,null]","[""u"",""i""]","[""""]",null,TRUE,in,i,NO,NA,0,in,214.9099,,,7.370001363,NaN,NaN,214.9099,learning,7.37,0.0444,in,,,,,,,,,,,,,,,,,,,,,,,,,
,learn_trial,categorize-lines-2,76,437186,0.0-4.0-0.69,line_cat_multi_stim_2,20211130,301,1572,,,,,,,,,[259.5727],[259.5727],"[11.24000160179845,null,null]","[""u"",""i""]","[""""]",null,TRUE,out,u,YES,NA,0,out,259.5727,,,11.2400016,NaN,NaN,259.5727,learning,11.24,0.1773,out,,,,,,,,,,,,,,,,,,,,,,,,,
,learn_trial,categorize-lines-2,77,441680,0.0-4.0-0.70,line_cat_multi_stim_2,20211130,301,2456,,,,,,,,,[244.5727],[244.5727],"[10.01999727725916,null,null]","[""u"",""i""]","[""""]",null,TRUE,out,i,NO,NA,1,out,244.5727,,,10.01999728,NaN,NaN,244.5727,learning,10.02,0.1527,out,,,,,,,,,,,,,,,,,,,,,,,,,
,learn_trial,categorize-lines-2,78,446084,0.0-4.0-0.71,line_cat_multi_stim_2,20211130,301,2368,,,,,,,,,[179.6767],[179.6767],"[3.7000045770362586,null,null]","[""u"",""i""]","[""""]",null,TRUE,in,u,YES,NA,1,in,179.6767,,,3.700004577,NaN,NaN,179.6767,learning,3.7,0.0444,in,,,,,,,,,,,,,,,,,,,,,,,,,
,learn_trial,categorize-lines-2,79,449460,0.0-4.0-0.72,line_cat_multi_stim_2,20211130,301,1334,,,,,,,,,[269.773],[269.773],"[12.029997859863691,null,null]","[""u"",""i""]","[""""]",null,TRUE,out,i,NO,NA,1,out,269.773,,,12.02999786,NaN,NaN,269.773,learning,12.03,0.167,out,,,,,,,,,,,,,,,,,,,,,,,,,
,learn_trial,categorize-lines-2,80,454474,0.0-4.0-0.73,line_cat_multi_stim_2,20211130,301,978,,,,,,,,,[244.931],[244.931],"[10.050001931264145,null,null]","[""u"",""i""]","[""""]",null,TRUE,in,i,NO,NA,0,in,244.931,,,10.05000193,NaN,NaN,244.931,learning,10.05,0.0444,in,,,,,,,,,,,,,,,,,,,,,,,,,
,learn_trial,categorize-lines-2,81,459336,0.0-4.0-0.74,line_cat_multi_stim_2,20211130,301,818,,,,,,,,,[268.8532],[268.8532],"[11.959996888103902,null,null]","[""u"",""i""]","[""""]",null,TRUE,out,u,YES,NA,0,out,268.8532,,,11.95999689,NaN,NaN,268.8532,learning,11.96,0.1687,out,,,,,,,,,,,,,,,,,,,,,,,,,
,learn_trial,categorize-lines-2,82,462036,0.0-4.0-0.75,line_cat_multi_stim_2,20211130,301,658,,,,,,,,,[380.8964],[380.8964],"[19.099999844393498,null,null]","[""u"",""i""]","[""""]",null,TRUE,in,u,YES,NA,1,in,380.8964,,,19.09999984,NaN,NaN,380.8964,learning,19.1,0.0444,in,,,,,,,,,,,,,,,,,,,,,,,,,
,learn_trial,categorize-lines-2,83,465220,0.0-4.0-0.76,line_cat_multi_stim_2,20211130,301,1144,,,,,,,,,[234.2942],[234.2942],"[9.140004017497253,null,null]","[""u"",""i""]","[""""]",null,TRUE,out,i,NO,NA,1,out,234.2942,,,9.140004017,NaN,NaN,234.2942,learning,9.14,0.1142,out,,,,,,,,,,,,,,,,,,,,,,,,,
,learn_trial,categorize-lines-2,84,470438,0.0-4.0-0.77,line_cat_multi_stim_2,20211130,301,1174,,,,,,,,,[173.1362],[173.1362],"[2.940003919550253,null,null]","[""u"",""i""]","[""""]",null,TRUE,in,i,NO,NA,0,in,173.1362,,,2.94000392,NaN,NaN,173.1362,learning,2.94,0.0444,in,,,,,,,,,,,,,,,,,,,,,,,,,
,learn_trial,categorize-lines-2,85,474204,0.0-4.0-0.78,line_cat_multi_stim_2,20211130,301,1728,,,,,,,,,[183.2177],[183.2177],"[4.1000019697131656,null,null]","[""u"",""i""]","[""""]",null,TRUE,in,u,YES,NA,1,in,183.2177,,,4.10000197,NaN,NaN,183.2177,learning,4.1,0.0444,in,,,,,,,,,,,,,,,,,,,,,,,,,
,learn_trial,categorize-lines-2,86,478958,0.0-4.0-0.79,line_cat_multi_stim_2,20211130,301,712,,,,,,,,,[317.2101],[317.2101],"[15.350000333396045,null,null]","[""u"",""i""]","[""""]",null,TRUE,out,u,YES,NA,0,out,317.2101,,,15.35000033,NaN,NaN,317.2101,learning,15.35,0.0337,out,,,,,,,,,,,,,,,,,,,,,,,,,
,learn_trial,categorize-lines-2,87,484610,0.0-4.0-0.80,line_cat_multi_stim_2,20211130,301,1612,,,,,,,,,[207.8967],[207.8967],"[6.689996502007272,null,null]","[""u"",""i""]","[""""]",null,TRUE,out,u,YES,NA,0,out,207.8967,,,6.689996502,NaN,NaN,207.8967,learning,6.69,0.0227,out,,,,,,,,,,,,,,,,,,,,,,,,,
,learn_trial,categorize-lines-2,88,488252,0.0-4.0-0.81,line_cat_multi_stim_2,20211130,301,1604,,,,,,,,,[260.715],[260.715],"[11.330000052216096,null,null]","[""u"",""i""]","[""""]",null,TRUE,out,i,NO,NA,1,out,260.715,,,11.33000005,NaN,NaN,260.715,learning,11.33,0.1772,out,,,,,,,,,,,,,,,,,,,,,,,,,
,learn_trial,categorize-lines-2,89,490868,0.0-4.0-0.82,line_cat_multi_stim_2,20211130,301,574,,,,,,,,,[431.9916],[431.9916],"[21.680001851214875,null,null]","[""u"",""i""]","[""""]",null,TRUE,in,u,YES,NA,1,in,431.9916,,,21.68000185,NaN,NaN,431.9916,learning,21.68,0.0444,in,,,,,,,,,,,,,,,,,,,,,,,,,
,learn_trial,categorize-lines-2,90,493546,0.0-4.0-0.83,line_cat_multi_stim_2,20211130,301,638,,,,,,,,,[441.7966],[441.7966],"[22.140001360089144,null,null]","[""u"",""i""]","[""""]",null,TRUE,in,u,YES,NA,1,in,441.7966,,,22.14000136,NaN,NaN,441.7966,learning,22.14,0.0444,in,,,,,,,,,,,,,,,,,,,,,,,,,
,learn_trial,categorize-lines-2,91,498870,0.0-4.0-0.84,line_cat_multi_stim_2,20211130,301,3272,,,,,,,,,[340.7966],[340.7966],"[16.819999240696763,null,null]","[""u"",""i""]","[""""]",null,TRUE,in,u,YES,NA,1,in,340.7966,,,16.81999924,NaN,NaN,340.7966,learning,16.82,0.0444,in,,,,,,,,,,,,,,,,,,,,,,,,,
,learn_trial,categorize-lines-2,92,502036,0.0-4.0-0.85,line_cat_multi_stim_2,20211130,301,1130,,,,,,,,,[233.9515],[233.9515],"[9.110002853819157,null,null]","[""u"",""i""]","[""""]",null,TRUE,out,i,NO,NA,1,out,233.9515,,,9.110002854,NaN,NaN,233.9515,learning,9.11,0.1128,out,,,,,,,,,,,,,,,,,,,,,,,,,
,learn_trial,categorize-lines-2,93,506946,0.0-4.0-0.86,line_cat_multi_stim_2,20211130,301,876,,,,,,,,,[319.0728],[319.0728],"[15.470003199762868,null,null]","[""u"",""i""]","[""""]",null,TRUE,out,u,YES,NA,0,out,319.0728,,,15.4700032,NaN,NaN,319.0728,learning,15.47,0.0305,out,,,,,,,,,,,,,,,,,,,,,,,,,
,learn_trial,categorize-lines-2,94,510532,0.0-4.0-0.87,line_cat_multi_stim_2,20211130,301,1544,,,,,,,,,[316.4372],[316.4372],"[15.299999913642417,null,null]","[""u"",""i""]","[""""]",null,TRUE,out,i,NO,NA,1,out,316.4372,,,15.29999991,NaN,NaN,316.4372,learning,15.3,0.0351,out,,,,,,,,,,,,,,,,,,,,,,,,,
,learn_trial,categorize-lines-2,95,516788,0.0-4.0-0.88,line_cat_multi_stim_2,20211130,301,2218,,,,,,,,,[266.3725],[266.3725],"[11.770003663425562,null,null]","[""u"",""i""]","[""""]",null,TRUE,out,u,YES,NA,0,out,266.3725,,,11.77000366,NaN,NaN,266.3725,learning,11.77,0.1726,out,,,,,,,,,,,,,,,,,,,,,,,,,
,learn_trial,categorize-lines-2,96,521782,0.0-4.0-0.89,line_cat_multi_stim_2,20211130,301,956,,,,,,,,,[314.8971],[314.8971],"[15.200002650537618,null,null]","[""u"",""i""]","[""""]",null,TRUE,out,u,YES,NA,0,out,314.8971,,,15.20000265,NaN,NaN,314.8971,learning,15.2,0.038,out,,,,,,,,,,,,,,,,,,,,,,,,,
,learn_trial,categorize-lines-2,97,524624,0.0-4.0-0.90,line_cat_multi_stim_2,20211130,301,796,,,,,,,,,[221.9429],[221.9429],"[8.029996499393423,null,null]","[""u"",""i""]","[""""]",null,TRUE,out,i,NO,NA,1,out,221.9429,,,8.029996499,NaN,NaN,221.9429,learning,8.03,0.0637,out,,,,,,,,,,,,,,,,,,,,,,,,,
,learn_trial,categorize-lines-2,98,527540,0.0-4.0-0.91,line_cat_multi_stim_2,20211130,301,876,,,,,,,,,[427.3794],[427.3794],"[21.459998486215678,null,null]","[""u"",""i""]","[""""]",null,TRUE,in,u,YES,NA,1,in,427.3794,,,21.45999849,NaN,NaN,427.3794,learning,21.46,0.0444,in,,,,,,,,,,,,,,,,,,,,,,,,,
,learn_trial,categorize-lines-2,99,530278,0.0-4.0-0.92,line_cat_multi_stim_2,20211130,301,696,,,,,,,,,[367.2103],[367.2103],"[18.349997988458032,null,null]","[""u"",""i""]","[""""]",null,TRUE,in,u,YES,NA,1,in,367.2103,,,18.34999799,NaN,NaN,367.2103,learning,18.35,0.0444,in,,,,,,,,,,,,,,,,,,,,,,,,,
,learn_trial,categorize-lines-2,100,533500,0.0-4.0-0.93,line_cat_multi_stim_2,20211130,301,1186,,,,,,,,,[158.6569],[158.6569],"[1.1500005360874677,null,null]","[""u"",""i""]","[""""]",null,TRUE,in,u,YES,NA,1,in,158.6569,,,1.150000536,NaN,NaN,158.6569,learning,1.15,0.0444,in,,,,,,,,,,,,,,,,,,,,,,,,,
,learn_trial,categorize-lines-2,101,540158,0.0-4.0-0.94,line_cat_multi_stim_2,20211130,301,2616,,,,,,,,,[240.0801],[240.0801],"[9.640002889317357,null,null]","[""u"",""i""]","[""""]",null,TRUE,in,i,NO,NA,0,in,240.0801,,,9.640002889,NaN,NaN,240.0801,learning,9.64,0.0444,in,,,,,,,,,,,,,,,,,,,,,,,,,
,learn_trial,categorize-lines-2,102,544308,0.0-4.0-0.95,line_cat_multi_stim_2,20211130,301,2114,,,,,,,,,[211.2711],[211.2711],"[7.01999787540331,null,null]","[""u"",""i""]","[""""]",null,TRUE,in,u,YES,NA,1,in,211.2711,,,7.019997875,NaN,NaN,211.2711,learning,7.02,0.0444,in,,,,,,,,,,,,,,,,,,,,,,,,,
,learn_trial,categorize-lines-2,103,547468,0.0-4.0-0.96,line_cat_multi_stim_2,20211130,301,1114,,,,,,,,,[228.0906],[228.0906],"[8.590002339280797,null,null]","[""u"",""i""]","[""""]",null,TRUE,in,u,YES,NA,1,in,228.0906,,,8.590002339,NaN,NaN,228.0906,learning,8.59,0.0444,in,,,,,,,,,,,,,,,,,,,,,,,,,
,learn_trial,categorize-lines-2,104,552746,0.0-4.0-0.97,line_cat_multi_stim_2,20211130,301,1246,,,,,,,,,[266.7626],[266.7626],"[11.799997807134822,null,null]","[""u"",""i""]","[""""]",null,TRUE,in,i,NO,NA,0,in,266.7626,,,11.79999781,NaN,NaN,266.7626,learning,11.8,0.0444,in,,,,,,,,,,,,,,,,,,,,,,,,,
,learn_trial,categorize-lines-2,105,557396,0.0-4.0-0.98,line_cat_multi_stim_2,20211130,301,606,,,,,,,,,[293.6756],[293.6756],"[13.769997992901917,null,null]","[""u"",""i""]","[""""]",null,TRUE,out,u,YES,NA,0,out,293.6756,,,13.76999799,NaN,NaN,293.6756,learning,13.77,0.0947,out,,,,,,,,,,,,,,,,,,,,,,,,,
,learn_trial,categorize-lines-2,106,564948,0.0-4.0-0.99,line_cat_multi_stim_2,20211130,301,3516,,,,,,,,,[237.6328],[237.6328],"[9.430001698803624,null,null]","[""u"",""i""]","[""""]",null,TRUE,out,u,YES,NA,0,out,237.6328,,,9.430001699,NaN,NaN,237.6328,learning,9.43,0.1278,out,,,,,,,,,,,,,,,,,,,,,,,,,
,learn_trial,categorize-lines-2,107,569728,0.0-4.0-0.100,line_cat_multi_stim_2,20211130,301,740,,,,,,,,,[276.705],[276.705],"[12.550002097124002,null,null]","[""u"",""i""]","[""""]",null,TRUE,out,u,YES,NA,0,out,276.705,,,12.5500021,NaN,NaN,276.705,learning,12.55,0.1501,out,,,,,,,,,,,,,,,,,,,,,,,,,
,learn_trial,categorize-lines-2,108,574688,0.0-4.0-0.101,line_cat_multi_stim_2,20211130,301,922,,,,,,,,,[287.8593],[287.8593],"[13.359998600005731,null,null]","[""u"",""i""]","[""""]",null,TRUE,out,u,YES,NA,0,out,287.8593,,,13.3599986,NaN,NaN,287.8593,learning,13.36,0.1142,out,,,,,,,,,,,,,,,,,,,,,,,,,
,learn_trial,categorize-lines-2,109,579154,0.0-4.0-0.102,line_cat_multi_stim_2,20211130,301,428,,,,,,,,,[249.3927],[249.3927],"[10.419999135629464,null,null]","[""u"",""i""]","[""""]",null,TRUE,in,i,NO,NA,0,in,249.3927,,,10.41999914,NaN,NaN,249.3927,learning,10.42,0.0444,in,,,,,,,,,,,,,,,,,,,,,,,,,
,learn_trial,categorize-lines-2,110,583678,0.0-4.0-0.103,line_cat_multi_stim_2,20211130,301,484,,,,,,,,,[290.8239],[290.8239],"[13.570002202839374,null,null]","[""u"",""i""]","[""""]",null,TRUE,out,u,YES,NA,0,out,290.8239,,,13.5700022,NaN,NaN,290.8239,learning,13.57,0.1042,out,,,,,,,,,,,,,,,,,,,,,,,,,
,learn_trial,categorize-lines-2,111,586300,0.0-4.0-0.104,line_cat_multi_stim_2,20211130,301,586,,,,,,,,,[245.1701],[245.1701],"[10.07000016543801,null,null]","[""u"",""i""]","[""""]",null,TRUE,out,i,NO,NA,1,out,245.1701,,,10.07000017,NaN,NaN,245.1701,learning,10.07,0.1545,out,,,,,,,,,,,,,,,,,,,,,,,,,
,learn_trial,categorize-lines-2,112,588982,0.0-4.0-0.105,line_cat_multi_stim_2,20211130,301,642,,,,,,,,,[226.0962],[226.0962],"[8.409999952015355,null,null]","[""u"",""i""]","[""""]",null,TRUE,out,i,NO,NA,1,out,226.0962,,,8.409999952,NaN,NaN,226.0962,learning,8.41,0.0799,out,,,,,,,,,,,,,,,,,,,,,,,,,
,learn_trial,categorize-lines-2,113,593600,0.0-4.0-0.106,line_cat_multi_stim_2,20211130,301,574,,,,,,,,,[188.2927],[188.2927],"[4.6600042603315535,null,null]","[""u"",""i""]","[""""]",null,TRUE,in,i,NO,NA,0,in,188.2927,,,4.66000426,NaN,NaN,188.2927,learning,4.66,0.0444,in,,,,,,,,,,,,,,,,,,,,,,,,,
,learn_trial,categorize-lines-2,114,598424,0.0-4.0-0.107,line_cat_multi_stim_2,20211130,301,786,,,,,,,,,[262.5019],[262.5019],"[11.469996781750533,null,null]","[""u"",""i""]","[""""]",null,TRUE,out,u,YES,NA,0,out,262.5019,,,11.46999678,NaN,NaN,262.5019,learning,11.47,0.1765,out,,,,,,,,,,,,,,,,,,,,,,,,,
,learn_trial,categorize-lines-2,115,601038,0.0-4.0-0.108,line_cat_multi_stim_2,20211130,301,576,,,,,,,,,[402.0934],[402.0934],"[20.209997704058477,null,null]","[""u"",""i""]","[""""]",null,TRUE,in,u,YES,NA,1,in,402.0934,,,20.2099977,NaN,NaN,402.0934,learning,20.21,0.0444,in,,,,,,,,,,,,,,,,,,,,,,,,,
,learn_trial,categorize-lines-2,116,606804,0.0-4.0-0.109,line_cat_multi_stim_2,20211130,301,1730,,,,,,,,,[270.9602],[270.9602],"[12.119997187871704,null,null]","[""u"",""i""]","[""""]",null,TRUE,out,u,YES,NA,0,out,270.9602,,,12.11999719,NaN,NaN,270.9602,learning,12.12,0.1645,out,,,,,,,,,,,,,,,,,,,,,,,,,
,learn_trial,categorize-lines-2,117,611670,0.0-4.0-0.110,line_cat_multi_stim_2,20211130,301,828,,,,,,,,,[242.9078],[242.9078],"[9.87999654402767,null,null]","[""u"",""i""]","[""""]",null,TRUE,out,u,YES,NA,0,out,242.9078,,,9.879996544,NaN,NaN,242.9078,learning,9.88,0.1473,out,,,,,,,,,,,,,,,,,,,,,,,,,
,learn_trial,categorize-lines-2,118,614278,0.0-4.0-0.111,line_cat_multi_stim_2,20211130,301,568,,,,,,,,,[274.6873],[274.6873],"[12.400000614507137,null,null]","[""u"",""i""]","[""""]",null,TRUE,in,u,YES,NA,1,in,274.6873,,,12.40000061,NaN,NaN,274.6873,learning,12.4,0.0444,in,,,,,,,,,,,,,,,,,,,,,,,,,
,learn_trial,categorize-lines-2,119,618010,0.0-4.0-0.112,line_cat_multi_stim_2,20211130,301,1696,,,,,,,,,[234.4085],[234.4085],"[9.15000048365187,null,null]","[""u"",""i""]","[""""]",null,TRUE,in,u,YES,NA,1,in,234.4085,,,9.150000484,NaN,NaN,234.4085,learning,9.15,0.0444,in,,,,,,,,,,,,,,,,,,,,,,,,,
,learn_trial,categorize-lines-2,120,623688,0.0-4.0-0.113,line_cat_multi_stim_2,20211130,301,1630,,,,,,,,,[216.1718],[216.1718],"[7.489996683549617,null,null]","[""u"",""i""]","[""""]",null,TRUE,out,u,YES,NA,0,out,216.1718,,,7.489996684,NaN,NaN,216.1718,learning,7.49,0.0439,out,,,,,,,,,,,,,,,,,,,,,,,,,
,learn_trial,categorize-lines-2,121,626314,0.0-4.0-0.114,line_cat_multi_stim_2,20211130,301,590,,,,,,,,,[220.3246],[220.3246],"[7.880002577012562,null,null]","[""u"",""i""]","[""""]",null,TRUE,out,i,NO,NA,1,out,220.3246,,,7.880002577,NaN,NaN,220.3246,learning,7.88,0.0578,out,,,,,,,,,,,,,,,,,,,,,,,,,
,learn_trial,categorize-lines-2,122,628982,0.0-4.0-0.115,line_cat_multi_stim_2,20211130,301,628,,,,,,,,,[240.0801],[240.0801],"[9.640002889317357,null,null]","[""u"",""i""]","[""""]",null,TRUE,out,i,NO,NA,1,out,240.0801,,,9.640002889,NaN,NaN,240.0801,learning,9.64,0.1373,out,,,,,,,,,,,,,,,,,,,,,,,,,
,learn_trial,categorize-lines-2,123,633718,0.0-4.0-0.116,line_cat_multi_stim_2,20211130,301,696,,,,,,,,,[305.9616],[305.9616],"[14.61000023099104,null,null]","[""u"",""i""]","[""""]",null,TRUE,out,u,YES,NA,0,out,305.9616,,,14.61000023,NaN,NaN,305.9616,learning,14.61,0.0581,out,,,,,,,,,,,,,,,,,,,,,,,,,
,learn_trial,categorize-lines-2,124,637566,0.0-4.0-0.117,line_cat_multi_stim_2,20211130,301,1812,,,,,,,,,[196.841],[196.841],"[5.569995649391948,null,null]","[""u"",""i""]","[""""]",null,TRUE,in,u,YES,NA,1,in,196.841,,,5.569995649,NaN,NaN,196.841,learning,5.57,0.0444,in,,,,,,,,,,,,,,,,,,,,,,,,,
,learn_trial,categorize-lines-2,125,642622,0.0-4.0-0.118,line_cat_multi_stim_2,20211130,301,1014,,,,,,,,,[286.0393],[286.0393],"[13.23000098194338,null,null]","[""u"",""i""]","[""""]",null,TRUE,out,u,YES,NA,0,out,286.0393,,,13.23000098,NaN,NaN,286.0393,learning,13.23,0.1204,out,,,,,,,,,,,,,,,,,,,,,,,,,
,learn_trial,categorize-lines-2,126,645140,0.0-4.0-0.119,line_cat_multi_stim_2,20211130,301,474,,,,,,,,,[282.1582],[282.1582],"[12.949999722440344,null,null]","[""u"",""i""]","[""""]",null,TRUE,out,i,NO,NA,1,out,282.1582,,,12.94999972,NaN,NaN,282.1582,learning,12.95,0.1333,out,,,,,,,,,,,,,,,,,,,,,,,,,
,learn_trial,categorize-lines-2,127,647866,0.0-4.0-0.120,line_cat_multi_stim_2,20211130,301,690,,,,,,,,,[274.8213],[274.8213],"[12.40999665552471,null,null]","[""u"",""i""]","[""""]",null,TRUE,in,u,YES,NA,1,in,274.8213,,,12.40999666,NaN,NaN,274.8213,learning,12.41,0.0444,in,,,,,,,,,,,,,,,,,,,,,,,,,
,learn_trial,categorize-lines-2,128,652776,0.0-4.0-0.121,line_cat_multi_stim_2,20211130,301,872,,,,,,,,,[281.4707],[281.4707],"[12.899998873195443,null,null]","[""u"",""i""]","[""""]",null,TRUE,out,u,YES,NA,0,out,281.4707,,,12.89999887,NaN,NaN,281.4707,learning,12.9,0.1355,out,,,,,,,,,,,,,,,,,,,,,,,,,
,learn_trial,categorize-lines-2,129,656874,0.0-4.0-0.122,line_cat_multi_stim_2,20211130,301,2058,,,,,,,,,[270.3],[270.3],"[12.06999749254997,null,null]","[""u"",""i""]","[""""]",null,TRUE,out,i,NO,NA,1,out,270.3,,,12.06999749,NaN,NaN,270.3,learning,12.07,0.1659,out,,,,,,,,,,,,,,,,,,,,,,,,,
,learn_trial,categorize-lines-2,130,660718,0.0-4.0-0.123,line_cat_multi_stim_2,20211130,301,1806,,,,,,,,,[299.0253],[299.0253],"[14.139999379866756,null,null]","[""u"",""i""]","[""""]",null,TRUE,out,i,NO,NA,1,out,299.0253,,,14.13999938,NaN,NaN,299.0253,learning,14.14,0.0777,out,,,,,,,,,,,,,,,,,,,,,,,,,
,learn_trial,categorize-lines-2,131,666720,0.0-4.0-0.124,line_cat_multi_stim_2,20211130,301,1964,,,,,,,,,[310.6244],[310.6244],"[14.919998396301942,null,null]","[""u"",""i""]","[""""]",null,TRUE,out,u,YES,NA,0,out,310.6244,,,14.9199984,NaN,NaN,310.6244,learning,14.92,0.0469,out,,,,,,,,,,,,,,,,,,,,,,,,,
,learn_trial,categorize-lines-2,132,670350,0.0-4.0-0.125,line_cat_multi_stim_2,20211130,301,1588,,,,,,,,,[280.511],[280.511],"[12.82999671019844,null,null]","[""u"",""i""]","[""""]",null,TRUE,out,i,NO,NA,1,out,280.511,,,12.82999671,NaN,NaN,280.511,learning,12.83,0.1386,out,,,,,,,,,,,,,,,,,,,,,,,,,
,learn_trial,categorize-lines-2,133,675128,0.0-4.0-0.126,line_cat_multi_stim_2,20211130,301,734,,,,,,,,,[255.801],[255.801],"[10.940002220353307,null,null]","[""u"",""i""]","[""""]",null,TRUE,in,i,NO,NA,0,in,255.801,,,10.94000222,NaN,NaN,255.801,learning,10.94,0.0444,in,,,,,,,,,,,,,,,,,,,,,,,,,
,learn_trial,categorize-lines-2,134,680074,0.0-4.0-0.127,line_cat_multi_stim_2,20211130,301,908,,,,,,,,,[286.1789],[286.1789],"[13.240001476464661,null,null]","[""u"",""i""]","[""""]",null,TRUE,out,u,YES,NA,0,out,286.1789,,,13.24000148,NaN,NaN,286.1789,learning,13.24,0.1199,out,,,,,,,,,,,,,,,,,,,,,,,,,
,learn_trial,categorize-lines-2,135,683382,0.0-4.0-0.128,line_cat_multi_stim_2,20211130,301,1268,,,,,,,,,[242.6709],[242.6709],"[9.859997778742917,null,null]","[""u"",""i""]","[""""]",null,TRUE,out,i,NO,NA,1,out,242.6709,,,9.859997779,NaN,NaN,242.6709,learning,9.86,0.1465,out,,,,,,,,,,,,,,,,,,,,,,,,,
,learn_trial,categorize-lines-2,136,688688,0.0-4.0-0.129,line_cat_multi_stim_2,20211130,301,1264,,,,,,,,,[271.8872],[271.8872],"[12.18999752158543,null,null]","[""u"",""i""]","[""""]",null,TRUE,out,u,YES,NA,0,out,271.8872,,,12.18999752,NaN,NaN,271.8872,learning,12.19,0.1625,out,,,,,,,,,,,,,,,,,,,,,,,,,
,learn_trial,categorize-lines-2,137,694062,0.0-4.0-0.130,line_cat_multi_stim_2,20211130,301,1334,,,,,,,,,[282.2959],[282.2959],"[12.959999792281504,null,null]","[""u"",""i""]","[""""]",null,TRUE,out,u,YES,NA,0,out,282.2959,,,12.95999979,NaN,NaN,282.2959,learning,12.96,0.1328,out,,,,,,,,,,,,,,,,,,,,,,,,,
,learn_trial,categorize-lines-2,138,696696,0.0-4.0-0.131,line_cat_multi_stim_2,20211130,301,590,,,,,,,,,[259.6994],[259.6994],"[11.250003429083813,null,null]","[""u"",""i""]","[""""]",null,TRUE,out,i,NO,NA,1,out,259.6994,,,11.25000343,NaN,NaN,259.6994,learning,11.25,0.1773,out,,,,,,,,,,,,,,,,,,,,,,,,,
,learn_trial,categorize-lines-2,139,702012,0.0-4.0-0.132,line_cat_multi_stim_2,20211130,301,1274,,,,,,,,,[238.6785],[238.6785],"[9.519995922944162,null,null]","[""u"",""i""]","[""""]",null,TRUE,in,i,NO,NA,0,in,238.6785,,,9.519995923,NaN,NaN,238.6785,learning,9.52,0.0444,in,,,,,,,,,,,,,,,,,,,,,,,,,
,learn_trial,categorize-lines-2,140,707638,0.0-4.0-0.133,line_cat_multi_stim_2,20211130,301,1588,,,,,,,,,[264.3011],[264.3011],"[11.609997610899892,null,null]","[""u"",""i""]","[""""]",null,TRUE,out,u,YES,NA,0,out,264.3011,,,11.60999761,NaN,NaN,264.3011,learning,11.61,0.1751,out,,,,,,,,,,,,,,,,,,,,,,,,,
,learn_trial,categorize-lines-2,141,710172,0.0-4.0-0.134,line_cat_multi_stim_2,20211130,301,498,,,,,,,,,[286.5981],[286.5981],"[13.270002322164117,null,null]","[""u"",""i""]","[""""]",null,TRUE,out,i,NO,NA,1,out,286.5981,,,13.27000232,NaN,NaN,286.5981,learning,13.27,0.1185,out,,,,,,,,,,,,,,,,,,,,,,,,,
,learn_trial,categorize-lines-2,142,713766,0.0-4.0-0.135,line_cat_multi_stim_2,20211130,301,1554,,,,,,,,,[160.7608],[160.7608],"[1.4200044827487652,null,null]","[""u"",""i""]","[""""]",null,TRUE,in,u,YES,NA,1,in,160.7608,,,1.420004483,NaN,NaN,160.7608,learning,1.42,0.0444,in,,,,,,,,,,,,,,,,,,,,,,,,,
,learn_trial,categorize-lines-2,143,719012,0.0-4.0-0.136,line_cat_multi_stim_2,20211130,301,1208,,,,,,,,,[223.0284],[223.0284],"[8.129995671619499,null,null]","[""u"",""i""]","[""""]",null,TRUE,out,u,YES,NA,0,out,223.0284,,,8.129995672,NaN,NaN,223.0284,learning,8.13,0.0678,out,,,,,,,,,,,,,,,,,,,,,,,,,
,learn_trial,categorize-lines-2,144,724004,0.0-4.0-0.137,line_cat_multi_stim_2,20211130,301,958,,,,,,,,,[288.4217],[288.4217],"[13.400003101690814,null,null]","[""u"",""i""]","[""""]",null,TRUE,out,u,YES,NA,0,out,288.4217,,,13.4000031,NaN,NaN,288.4217,learning,13.4,0.1123,out,,,,,,,,,,,,,,,,,,,,,,,,,
,learn_trial,categorize-lines-2,145,729116,0.0-4.0-0.138,line_cat_multi_stim_2,20211130,301,1072,,,,,,,,,[268.0673],[268.0673],"[11.899996324590045,null,null]","[""u"",""i""]","[""""]",null,TRUE,in,i,NO,NA,0,in,268.0673,,,11.89999632,NaN,NaN,268.0673,learning,11.9,0.0444,in,,,,,,,,,,,,,,,,,,,,,,,,,
,learn_trial,categorize-lines-2,146,732370,0.0-4.0-0.139,line_cat_multi_stim_2,20211130,301,1218,,,,,,,,,[235.3252],[235.3252],"[9.229997498292109,null,null]","[""u"",""i""]","[""""]",null,TRUE,in,u,YES,NA,1,in,235.3252,,,9.229997498,NaN,NaN,235.3252,learning,9.23,0.0444,in,,,,,,,,,,,,,,,,,,,,,,,,,
,learn_trial,categorize-lines-2,147,737240,0.0-4.0-0.140,line_cat_multi_stim_2,20211130,301,828,,,,,,,,,[229.318],[229.318],"[8.699999266133698,null,null]","[""u"",""i""]","[""""]",null,TRUE,out,u,YES,NA,0,out,229.318,,,8.699999266,NaN,NaN,229.318,learning,8.7,0.0933,out,,,,,,,,,,,,,,,,,,,,,,,,,
,learn_trial,categorize-lines-2,148,740366,0.0-4.0-0.141,line_cat_multi_stim_2,20211130,301,1078,,,,,,,,,[328.3911],[328.3911],"[16.059998882099954,null,null]","[""u"",""i""]","[""""]",null,TRUE,in,u,YES,NA,1,in,328.3911,,,16.05999888,NaN,NaN,328.3911,learning,16.06,0.0444,in,,,,,,,,,,,,,,,,,,,,,,,,,
,learn_trial,categorize-lines-2,149,745214,0.0-4.0-0.142,line_cat_multi_stim_2,20211130,301,806,,,,,,,,,[188.2927],[188.2927],"[4.6600042603315535,null,null]","[""u"",""i""]","[""""]",null,TRUE,in,i,NO,NA,0,in,188.2927,,,4.66000426,NaN,NaN,188.2927,learning,4.66,0.0444,in,,,,,,,,,,,,,,,,,,,,,,,,,
,learn_trial,categorize-lines-2,150,748764,0.0-4.0-0.143,line_cat_multi_stim_2,20211130,301,1512,,,,,,,,,[170.787],[170.787],"[2.6600007226589746,null,null]","[""u"",""i""]","[""""]",null,TRUE,in,u,YES,NA,1,in,170.787,,,2.660000723,NaN,NaN,170.787,learning,2.66,0.0444,in,,,,,,,,,,,,,,,,,,,,,,,,,
,learn_trial,categorize-lines-2,151,751852,0.0-4.0-0.144,line_cat_multi_stim_2,20211130,301,1052,,,,,,,,,[186.3733],[186.3733],"[4.450002602943424,null,null]","[""u"",""i""]","[""""]",null,TRUE,in,u,YES,NA,1,in,186.3733,,,4.450002603,NaN,NaN,186.3733,learning,4.45,0.0444,in,,,,,,,,,,,,,,,,,,,,,,,,,
,learn_trial,categorize-lines-2,152,754714,0.0-4.0-0.145,line_cat_multi_stim_2,20211130,301,822,,,,,,,,,[378.8576],[378.8576],"[18.989997893272964,null,null]","[""u"",""i""]","[""""]",null,TRUE,in,u,YES,NA,1,in,378.8576,,,18.98999789,NaN,NaN,378.8576,learning,18.99,0.0444,in,,,,,,,,,,,,,,,,,,,,,,,,,
,learn_trial,categorize-lines-2,153,759512,0.0-4.0-0.146,line_cat_multi_stim_2,20211130,301,752,,,,,,,,,[258.8139],[258.8139],"[11.179998792831885,null,null]","[""u"",""i""]","[""""]",null,TRUE,out,u,YES,NA,0,out,258.8139,,,11.17999879,NaN,NaN,258.8139,learning,11.18,0.1772,out,,,,,,,,,,,,,,,,,,,,,,,,,
,learn_trial,categorize-lines-2,154,762272,0.0-4.0-0.147,line_cat_multi_stim_2,20211130,301,722,,,,,,,,,[259.5727],[259.5727],"[11.24000160179845,null,null]","[""u"",""i""]","[""""]",null,TRUE,out,i,NO,NA,1,out,259.5727,,,11.2400016,NaN,NaN,259.5727,learning,11.24,0.1773,out,,,,,,,,,,,,,,,,,,,,,,,,,
,learn_trial,categorize-lines-2,155,767398,0.0-4.0-0.148,line_cat_multi_stim_2,20211130,301,1082,,,,,,,,,[290.1153],[290.1153],"[13.520002387858053,null,null]","[""u"",""i""]","[""""]",null,TRUE,out,u,YES,NA,0,out,290.1153,,,13.52000239,NaN,NaN,290.1153,learning,13.52,0.1066,out,,,,,,,,,,,,,,,,,,,,,,,,,
,learn_trial,categorize-lines-2,156,770540,0.0-4.0-0.149,line_cat_multi_stim_2,20211130,301,1102,,,,,,,,,[162.972],[162.972],"[1.6999965920516682,null,null]","[""u"",""i""]","[""""]",null,TRUE,in,u,YES,NA,1,in,162.972,,,1.699996592,NaN,NaN,162.972,learning,1.7,0.0444,in,,,,,,,,,,,,,,,,,,,,,,,,,
,learn_trial,categorize-lines-2,157,775656,0.0-4.0-0.150,line_cat_multi_stim_2,20211130,301,1070,,,,,,,,,[177.9319],[177.9319],"[3.5000004945488787,null,null]","[""u"",""i""]","[""""]",null,TRUE,in,i,NO,NA,0,in,177.9319,,,3.500000495,NaN,NaN,177.9319,learning,3.5,0.0444,in,,,,,,,,,,,,,,,,,,,,,,,,,
,learn_trial,categorize-lines-2,158,778452,0.0-4.0-0.151,line_cat_multi_stim_2,20211130,301,758,,,,,,,,,[197.1294],[197.1294],"[5.600003124634237,null,null]","[""u"",""i""]","[""""]",null,TRUE,in,u,YES,NA,1,in,197.1294,,,5.600003125,NaN,NaN,197.1294,learning,5.6,0.0444,in,,,,,,,,,,,,,,,,,,,,,,,,,
,learn_trial,categorize-lines-2,159,781604,0.0-4.0-0.152,line_cat_multi_stim_2,20211130,301,1114,,,,,,,,,[261.6069],[261.6069],"[11.399996510653413,null,null]","[""u"",""i""]","[""""]",null,TRUE,out,i,NO,NA,1,out,261.6069,,,11.39999651,NaN,NaN,261.6069,learning,11.4,0.1769,out,,,,,,,,,,,,,,,,,,,,,,,,,
,learn_trial,categorize-lines-2,160,786476,0.0-4.0-0.153,line_cat_multi_stim_2,20211130,301,834,,,,,,,,,[254.3077],[254.3077],"[10.820001655209756,null,null]","[""u"",""i""]","[""""]",null,TRUE,out,u,YES,NA,0,out,254.3077,,,10.82000166,NaN,NaN,254.3077,learning,10.82,0.1741,out,,,,,,,,,,,,,,,,,,,,,,,,,
,learn_trial,categorize-lines-2,161,789166,0.0-4.0-0.154,line_cat_multi_stim_2,20211130,301,652,,,,,,,,,[215.1197],[215.1197],"[7.390000206615534,null,null]","[""u"",""i""]","[""""]",null,TRUE,out,i,NO,NA,1,out,215.1197,,,7.390000207,NaN,NaN,215.1197,learning,7.39,0.0407,out,,,,,,,,,,,,,,,,,,,,,,,,,
,learn_trial,categorize-lines-2,162,793798,0.0-4.0-0.155,line_cat_multi_stim_2,20211130,301,594,,,,,,,,,[261.8623],[261.8623],"[11.419996396183375,null,null]","[""u"",""i""]","[""""]",null,TRUE,out,u,YES,NA,0,out,261.8623,,,11.4199964,NaN,NaN,261.8623,learning,11.42,0.1768,out,,,,,,,,,,,,,,,,,,,,,,,,,
,learn_trial,categorize-lines-2,163,798256,0.0-4.0-0.156,line_cat_multi_stim_2,20211130,301,424,,,,,,,,,[272.5513],[272.5513],"[12.239998969788788,null,null]","[""u"",""i""]","[""""]",null,TRUE,in,i,NO,NA,0,in,272.5513,,,12.23999897,NaN,NaN,272.5513,learning,12.24,0.0444,in,,,,,,,,,,,,,,,,,,,,,,,,,
,learn_trial,categorize-lines-2,164,800660,0.0-4.0-0.157,line_cat_multi_stim_2,20211130,301,366,,,,,,,,,[199.354],[199.354],"[5.83000384573321,null,null]","[""u"",""i""]","[""""]",null,TRUE,in,u,YES,NA,1,in,199.354,,,5.830003846,NaN,NaN,199.354,learning,5.83,0.0444,in,,,,,,,,,,,,,,,,,,,,,,,,,
,learn_trial,categorize-lines-2,165,805648,0.0-4.0-0.158,line_cat_multi_stim_2,20211130,301,938,,,,,,,,,[273.0837],[273.0837],"[12.279996546527665,null,null]","[""u"",""i""]","[""""]",null,TRUE,in,i,NO,NA,0,in,273.0837,,,12.27999655,NaN,NaN,273.0837,learning,12.28,0.0444,in,,,,,,,,,,,,,,,,,,,,,,,,,
,learn_trial,categorize-lines-2,166,808202,0.0-4.0-0.159,line_cat_multi_stim_2,20211130,301,522,,,,,,,,,[176.8932],[176.8932],"[3.3800022881964513,null,null]","[""u"",""i""]","[""""]",null,TRUE,in,u,YES,NA,1,in,176.8932,,,3.380002288,NaN,NaN,176.8932,learning,3.38,0.0444,in,,,,,,,,,,,,,,,,,,,,,,,,,
,learn_trial,categorize-lines-2,167,811256,0.0-4.0-0.160,line_cat_multi_stim_2,20211130,301,1014,,,,,,,,,[271.7546],[271.7546],"[12.179999169935613,null,null]","[""u"",""i""]","[""""]",null,TRUE,out,i,NO,NA,1,out,271.7546,,,12.17999917,NaN,NaN,271.7546,learning,12.18,0.1628,out,,,,,,,,,,,,,,,,,,,,,,,,,
,learn_trial,categorize-lines-2,168,816190,0.0-4.0-0.161,line_cat_multi_stim_2,20211130,301,892,,,,,,,,,[335.8447],[335.8447],"[16.520000913268767,null,null]","[""u"",""i""]","[""""]",null,TRUE,in,i,NO,NA,0,in,335.8447,,,16.52000091,NaN,NaN,335.8447,learning,16.52,0.0444,in,,,,,,,,,,,,,,,,,,,,,,,,,
,learn_trial,categorize-lines-2,169,818746,0.0-4.0-0.162,line_cat_multi_stim_2,20211130,301,514,,,,,,,,,[217.0172],[217.0172],"[7.569995413282384,null,null]","[""u"",""i""]","[""""]",null,TRUE,in,u,YES,NA,1,in,217.0172,,,7.569995413,NaN,NaN,217.0172,learning,7.57,0.0444,in,,,,,,,,,,,,,,,,,,,,,,,,,
,learn_trial,categorize-lines-2,170,821532,0.0-4.0-0.163,line_cat_multi_stim_2,20211130,301,752,,,,,,,,,[235.4401],[235.4401],"[9.240002411141354,null,null]","[""u"",""i""]","[""""]",null,TRUE,out,i,NO,NA,1,out,235.4401,,,9.240002411,NaN,NaN,235.4401,learning,9.24,0.119,out,,,,,,,,,,,,,,,,,,,,,,,,,
,learn_trial,categorize-lines-2,171,824652,0.0-4.0-0.164,line_cat_multi_stim_2,20211130,301,1086,,,,,,,,,[381.2683],[381.2683],"[19.120001921572992,null,null]","[""u"",""i""]","[""""]",null,TRUE,in,u,YES,NA,1,in,381.2683,,,19.12000192,NaN,NaN,381.2683,learning,19.12,0.0444,in,,,,,,,,,,,,,,,,,,,,,,,,,
,learn_trial,categorize-lines-2,172,830376,0.0-4.0-0.165,line_cat_multi_stim_2,20211130,301,1682,,,,,,,,,[289.5496],[289.5496],"[13.479998055277388,null,null]","[""u"",""i""]","[""""]",null,TRUE,out,u,YES,NA,0,out,289.5496,,,13.47999806,NaN,NaN,289.5496,learning,13.48,0.1085,out,,,,,,,,,,,,,,,,,,,,,,,,,
,learn_trial,categorize-lines-2,173,833364,0.0-4.0-0.166,line_cat_multi_stim_2,20211130,301,950,,,,,,,,,[352.1211],[352.1211],"[17.489997645083264,null,null]","[""u"",""i""]","[""""]",null,TRUE,in,u,YES,NA,1,in,352.1211,,,17.48999765,NaN,NaN,352.1211,learning,17.49,0.0444,in,,,,,,,,,,,,,,,,,,,,,,,,,
,learn_trial,categorize-lines-2,174,838742,0.0-4.0-0.167,line_cat_multi_stim_2,20211130,301,1338,,,,,,,,,[282.8474],[282.8474],"[13.000002076171068,null,null]","[""u"",""i""]","[""""]",null,TRUE,in,i,NO,NA,0,in,282.8474,,,13.00000208,NaN,NaN,282.8474,learning,13,0.0444,in,,,,,,,,,,,,,,,,,,,,,,,,,
,learn_trial,categorize-lines-2,175,843806,0.0-4.0-0.168,line_cat_multi_stim_2,20211130,301,1024,,,,,,,,,[211.3742],[211.3742],"[7.029997422871212,null,null]","[""u"",""i""]","[""""]",null,TRUE,out,u,YES,NA,0,out,211.3742,,,7.029997423,NaN,NaN,211.3742,learning,7.03,0.0305,out,,,,,,,,,,,,,,,,,,,,,,,,,
,learn_trial,categorize-lines-2,176,846526,0.0-4.0-0.169,line_cat_multi_stim_2,20211130,301,680,,,,,,,,,[302.2523],[302.2523],"[14.360000973379707,null,null]","[""u"",""i""]","[""""]",null,TRUE,in,u,YES,NA,1,in,302.2523,,,14.36000097,NaN,NaN,302.2523,learning,14.36,0.0444,in,,,,,,,,,,,,,,,,,,,,,,,,,
,learn_trial,categorize-lines-2,177,852934,0.0-4.0-0.170,line_cat_multi_stim_2,20211130,301,2368,,,,,,,,,[204.3767],[204.3767],"[6.339998457256303,null,null]","[""u"",""i""]","[""""]",null,TRUE,in,i,NO,NA,0,in,204.3767,,,6.339998457,NaN,NaN,204.3767,learning,6.34,0.0444,in,,,,,,,,,,,,,,,,,,,,,,,,,
,learn_trial,categorize-lines-2,178,857488,0.0-4.0-0.171,line_cat_multi_stim_2,20211130,301,508,,,,,,,,,[269.5099],[269.5099],"[12.009999151408726,null,null]","[""u"",""i""]","[""""]",null,TRUE,out,u,YES,NA,0,out,269.5099,,,12.00999915,NaN,NaN,269.5099,learning,12.01,0.1675,out,,,,,,,,,,,,,,,,,,,,,,,,,
,learn_trial,categorize-lines-2,179,860252,0.0-4.0-0.172,line_cat_multi_stim_2,20211130,301,728,,,,,,,,,[433.4695],[433.4695],"[21.750001463598235,null,null]","[""u"",""i""]","[""""]",null,TRUE,in,u,YES,NA,1,in,433.4695,,,21.75000146,NaN,NaN,433.4695,learning,21.75,0.0444,in,,,,,,,,,,,,,,,,,,,,,,,,,
,learn_trial,categorize-lines-2,180,865208,0.0-4.0-0.173,line_cat_multi_stim_2,20211130,301,910,,,,,,,,,[189.1213],[189.1213],"[4.750000701688976,null,null]","[""u"",""i""]","[""""]",null,TRUE,in,i,NO,NA,0,in,189.1213,,,4.750000702,NaN,NaN,189.1213,learning,4.75,0.0444,in,,,,,,,,,,,,,,,,,,,,,,,,,
,learn_trial,categorize-lines-2,181,879462,0.0-4.0-0.174,line_cat_multi_stim_2,20211130,301,12216,,,,,,,,,[433.4695],[433.4695],"[21.750001463598235,null,null]","[""u"",""i""]","[""""]",null,TRUE,in,u,YES,NA,1,in,433.4695,,,21.75000146,NaN,NaN,433.4695,learning,21.75,0.0444,in,,,,,,,,,,,,,,,,,,,,,,,,,
,learn_trial,categorize-lines-2,182,883086,0.0-4.0-0.175,line_cat_multi_stim_2,20211130,301,1582,,,,,,,,,[338.8071],[338.8071],"[16.69999760502873,null,null]","[""u"",""i""]","[""""]",null,TRUE,in,u,YES,NA,1,in,338.8071,,,16.69999761,NaN,NaN,338.8071,learning,16.7,0.0444,in,,,,,,,,,,,,,,,,,,,,,,,,,
,learn_trial,categorize-lines-2,183,888044,0.0-4.0-0.176,line_cat_multi_stim_2,20211130,301,916,,,,,,,,,[219.6805],[219.6805],"[7.819996723801341,null,null]","[""u"",""i""]","[""""]",null,TRUE,out,u,YES,NA,0,out,219.6805,,,7.819996724,NaN,NaN,219.6805,learning,7.82,0.0555,out,,,,,,,,,,,,,,,,,,,,,,,,,
,learn_trial,categorize-lines-2,184,890760,0.0-4.0-0.177,line_cat_multi_stim_2,20211130,301,674,,,,,,,,,[343.8027],[343.8027],"[16.999997158124994,null,null]","[""u"",""i""]","[""""]",null,TRUE,in,u,YES,NA,1,in,343.8027,,,16.99999716,NaN,NaN,343.8027,learning,17,0.0444,in,,,,,,,,,,,,,,,,,,,,,,,,,
,learn_trial,categorize-lines-2,185,894596,0.0-4.0-0.178,line_cat_multi_stim_2,20211130,301,1796,,,,,,,,,[414.4426],[414.4426],"[20.83000145816416,null,null]","[""u"",""i""]","[""""]",null,TRUE,in,u,YES,NA,1,in,414.4426,,,20.83000146,NaN,NaN,414.4426,learning,20.83,0.0444,in,,,,,,,,,,,,,,,,,,,,,,,,,
,learn_trial,categorize-lines-2,186,899278,0.0-4.0-0.179,line_cat_multi_stim_2,20211130,301,642,,,,,,,,,[284.5082],[284.5082],"[13.119996467472994,null,null]","[""u"",""i""]","[""""]",null,TRUE,in,i,NO,NA,0,in,284.5082,,,13.11999647,NaN,NaN,284.5082,learning,13.12,0.0444,in,,,,,,,,,,,,,,,,,,,,,,,,,
,learn_trial,categorize-lines-2,187,904150,0.0-4.0-0.180,line_cat_multi_stim_2,20211130,301,830,,,,,,,,,[244.5727],[244.5727],"[10.01999727725916,null,null]","[""u"",""i""]","[""""]",null,TRUE,out,u,YES,NA,0,out,244.5727,,,10.01999728,NaN,NaN,244.5727,learning,10.02,0.1527,out,,,,,,,,,,,,,,,,,,,,,,,,,
,learn_trial,categorize-lines-2,188,907336,0.0-4.0-0.181,line_cat_multi_stim_2,20211130,301,1146,,,,,,,,,[231.4537],[231.4537],"[8.889999999203017,null,null]","[""u"",""i""]","[""""]",null,TRUE,out,i,NO,NA,1,out,231.4537,,,8.889999999,NaN,NaN,231.4537,learning,8.89,0.1023,out,,,,,,,,,,,,,,,,,,,,,,,,,
,learn_trial,categorize-lines-2,189,912172,0.0-4.0-0.182,line_cat_multi_stim_2,20211130,301,796,,,,,,,,,[317.6747],[317.6747],"[15.379997626707222,null,null]","[""u"",""i""]","[""""]",null,TRUE,out,u,YES,NA,0,out,317.6747,,,15.37999763,NaN,NaN,317.6747,learning,15.38,0.0329,out,,,,,,,,,,,,,,,,,,,,,,,,,
,learn_trial,categorize-lines-2,190,917016,0.0-4.0-0.183,line_cat_multi_stim_2,20211130,301,800,,,,,,,,,[185.4662],[185.4662],"[4.350003012273406,null,null]","[""u"",""i""]","[""""]",null,TRUE,in,i,NO,NA,0,in,185.4662,,,4.350003012,NaN,NaN,185.4662,learning,4.35,0.0444,in,,,,,,,,,,,,,,,,,,,,,,,,,
,learn_trial,categorize-lines-2,191,919782,0.0-4.0-0.184,line_cat_multi_stim_2,20211130,301,724,,,,,,,,,[370.2688],[370.2688],"[18.520001923482997,null,null]","[""u"",""i""]","[""""]",null,TRUE,in,u,YES,NA,1,in,370.2688,,,18.52000192,NaN,NaN,370.2688,learning,18.52,0.0444,in,,,,,,,,,,,,,,,,,,,,,,,,,
,learn_trial,categorize-lines-2,192,923478,0.0-4.0-0.185,line_cat_multi_stim_2,20211130,301,1654,,,,,,,,,[292.6743],[292.6743],"[13.699996790622777,null,null]","[""u"",""i""]","[""""]",null,TRUE,in,u,YES,NA,1,in,292.6743,,,13.69999679,NaN,NaN,292.6743,learning,13.7,0.0444,in,,,,,,,,,,,,,,,,,,,,,,,,,
,learn_trial,categorize-lines-2,193,928260,0.0-4.0-0.186,line_cat_multi_stim_2,20211130,301,742,,,,,,,,,[260.5878],[260.5878],"[11.319997869620812,null,null]","[""u"",""i""]","[""""]",null,TRUE,out,u,YES,NA,0,out,260.5878,,,11.31999787,NaN,NaN,260.5878,learning,11.32,0.1772,out,,,,,,,,,,,,,,,,,,,,,,,,,
,learn_trial,categorize-lines-2,194,931264,0.0-4.0-0.187,line_cat_multi_stim_2,20211130,301,966,,,,,,,,,[153.0308],[153.0308],"[0.40999891200779565,null,null]","[""u"",""i""]","[""""]",null,TRUE,in,u,YES,NA,1,in,153.0308,,,0.409998912,NaN,NaN,153.0308,learning,0.41,0.0444,in,,,,,,,,,,,,,,,,,,,,,,,,,
,learn_trial,categorize-lines-2,195,935988,0.0-4.0-0.188,line_cat_multi_stim_2,20211130,301,690,,,,,,,,,[319.0728],[319.0728],"[15.470003199762868,null,null]","[""u"",""i""]","[""""]",null,TRUE,out,u,YES,NA,0,out,319.0728,,,15.4700032,NaN,NaN,319.0728,learning,15.47,0.0305,out,,,,,,,,,,,,,,,,,,,,,,,,,
,learn_trial,categorize-lines-2,196,938990,0.0-4.0-0.189,line_cat_multi_stim_2,20211130,301,960,,,,,,,,,[157.3464],[157.3464],"[0.9800018309852999,null,null]","[""u"",""i""]","[""""]",null,TRUE,in,u,YES,NA,1,in,157.3464,,,0.980001831,NaN,NaN,157.3464,learning,0.98,0.0444,in,,,,,,,,,,,,,,,,,,,,,,,,,
,learn_trial,categorize-lines-2,197,942552,0.0-4.0-0.190,line_cat_multi_stim_2,20211130,301,1522,,,,,,,,,[263.7858],[263.7858],"[11.56999829145361,null,null]","[""u"",""i""]","[""""]",null,TRUE,out,i,NO,NA,1,out,263.7858,,,11.56999829,NaN,NaN,263.7858,learning,11.57,0.1755,out,,,,,,,,,,,,,,,,,,,,,,,,,
,learn_trial,categorize-lines-2,198,945270,0.0-4.0-0.191,line_cat_multi_stim_2,20211130,301,676,,,,,,,,,[306.8586],[306.8586],"[14.670001080211483,null,null]","[""u"",""i""]","[""""]",null,TRUE,in,u,YES,NA,1,in,306.8586,,,14.67000108,NaN,NaN,306.8586,learning,14.67,0.0444,in,,,,,,,,,,,,,,,,,,,,,,,,,
,learn_trial,categorize-lines-2,199,948100,0.0-4.0-0.192,line_cat_multi_stim_2,20211130,301,790,,,,,,,,,[440.9352],[440.9352],"[22.100000074483706,null,null]","[""u"",""i""]","[""""]",null,TRUE,in,u,YES,NA,1,in,440.9352,,,22.10000007,NaN,NaN,440.9352,learning,22.1,0.0444,in,,,,,,,,,,,,,,,,,,,,,,,,,
,learn_trial,categorize-lines-2,200,950948,0.0-4.0-0.193,line_cat_multi_stim_2,20211130,301,808,,,,,,,,,[351.2632],[351.2632],"[17.440000877264232,null,null]","[""u"",""i""]","[""""]",null,TRUE,in,u,YES,NA,1,in,351.2632,,,17.44000088,NaN,NaN,351.2632,learning,17.44,0.0444,in,,,,,,,,,,,,,,,,,,,,,,,,,
,learn_trial,categorize-lines-2,201,955808,0.0-4.0-0.194,line_cat_multi_stim_2,20211130,301,818,,,,,,,,,[242.5526],[242.5526],"[9.85000374886835,null,null]","[""u"",""i""]","[""""]",null,TRUE,out,u,YES,NA,0,out,242.5526,,,9.850003749,NaN,NaN,242.5526,learning,9.85,0.1461,out,,,,,,,,,,,,,,,,,,,,,,,,,
,learn_trial,categorize-lines-2,202,960766,0.0-4.0-0.195,line_cat_multi_stim_2,20211130,301,916,,,,,,,,,[242.9078],[242.9078],"[9.87999654402767,null,null]","[""u"",""i""]","[""""]",null,TRUE,out,u,YES,NA,0,out,242.9078,,,9.879996544,NaN,NaN,242.9078,learning,9.88,0.1473,out,,,,,,,,,,,,,,,,,,,,,,,,,
,learn_trial,categorize-lines-2,203,963346,0.0-4.0-0.196,line_cat_multi_stim_2,20211130,301,540,,,,,,,,,[367.7482],[367.7482],"[18.379999043037607,null,null]","[""u"",""i""]","[""""]",null,TRUE,in,u,YES,NA,1,in,367.7482,,,18.37999904,NaN,NaN,367.7482,learning,18.38,0.0444,in,,,,,,,,,,,,,,,,,,,,,,,,,
,learn_trial,categorize-lines-2,204,967892,0.0-4.0-0.197,line_cat_multi_stim_2,20211130,301,504,,,,,,,,,[356.2686],[356.2686],"[17.73000073633628,null,null]","[""u"",""i""]","[""""]",null,TRUE,out,u,YES,NA,0,out,356.2686,,,17.73000074,NaN,NaN,356.2686,learning,17.73,0.0028,out,,,,,,,,,,,,,,,,,,,,,,,,,
,learn_trial,categorize-lines-2,205,970692,0.0-4.0-0.198,line_cat_multi_stim_2,20211130,301,758,,,,,,,,,[150.8808],[150.8808],"[0.12000014964979781,null,null]","[""u"",""i""]","[""""]",null,TRUE,in,u,YES,NA,1,in,150.8808,,,0.12000015,NaN,NaN,150.8808,learning,0.12,0.0444,in,,,,,,,,,,,,,,,,,,,,,,,,,
,learn_trial,categorize-lines-2,206,976082,0.0-4.0-0.199,line_cat_multi_stim_2,20211130,301,1346,,,,,,,,,[226.3169],[226.3169],"[8.429996955028699,null,null]","[""u"",""i""]","[""""]",null,TRUE,in,i,NO,NA,0,in,226.3169,,,8.429996955,NaN,NaN,226.3169,learning,8.43,0.0444,in,,,,,,,,,,,,,,,,,,,,,,,,,
,transfer_instructions,instructions,207,996498,0.0-5.0-0.0,line_cat_multi_stim_2,20211130,301,20402,,,,,,,"[{""page_index"":0,""viewing_time"":3562},{""page_index"":1,""viewing_time"":16840}]",,,,,,,,,,,,,,,,,,,,,,,,,,,,,,,,,,,,,,,,,,,,,,,,,,
,transfer_trial,categorize-lines-2,208,1004552,0.0-6.0-0.0,line_cat_multi_stim_2,20211130,301,5516,,,,,,,,,"[189.1213,323.4616]","[189.1213,323.4616]","[4.750000701688976,15.750000521219516,null]","[""j"",""k""]","[""J"",""K""]","[189.1213,189.1213]",TRUE,null,k,323.4616,15.75000052,0,,189.1213,323.4616,,4.750000702,15.75000052,NaN,,transfer,,,,4.75,189.1213,189.1213,attraction,binary,easy,left,right,target,left,4.75,15.75,0,189.1213,323.4616,0,189.1213,323.4616,,NaN,NaN,NaN,competitor,,
,transfer_trial,categorize-lines-2,209,1010890,0.0-6.0-0.1,line_cat_multi_stim_2,20211130,301,4790,,,,,,,,,"[248.17346755639358,305.7356144317026,280.7945044205483]","[248.17346755639358,305.7356144317026,280.7945044205483]","[10.319552763978526,14.594856184344275,12.85070090222834]","[""j"",""k"",""l""]","[""J"",""K"",""L""]",sampled_1,TRUE,null,j,248.1734676,10.31955276,1,,248.1734676,305.7356144,280.7945044,10.31955276,14.59485618,12.8507009,,transfer,,,,,,,filler_sample,trinary,,,,,right,-1,1,1,,,,,,,NaN,NaN,NaN,NA,,
,transfer_trial,categorize-lines-2,210,1017408,0.0-6.0-0.2,line_cat_multi_stim_2,20211130,301,3968,,,,,,,,,"[339.6347,208.5062,323.4616]","[208.5062,339.6347,323.4616]","[6.749997433250141,16.7500017281595,15.750000521219516]","[""j"",""k"",""l""]","[""J"",""K"",""L""]","[339.6347,339.6347]",TRUE,null,j,208.5062,6.749997433,0,,208.5062,339.6347,323.4616,6.749997433,16.75000173,15.75000052,,transfer,,,,16.75,339.6347,339.6347,attraction,trinary,difficult,right,left,target,right,16.75,6.75,15.75,339.6347,208.5062,323.4616,339.6347,208.5062,323.4616,NaN,NaN,NaN,competitor,,
,transfer_trial,categorize-lines-2,211,1020488,0.0-6.0-0.3,line_cat_multi_stim_2,20211130,301,1538,,,,,,,,,"[152.1939,242.6959,241.408]","[242.6959,152.1939,241.408]","[9.862109164846421,0.29760243548476756,9.753054988340416]","[""j"",""k"",""l""]","[""J"",""K"",""L""]","[152.1939,152.1939]",TRUE,null,k,152.1939,0.297602435,1,,242.6959,152.1939,241.408,9.862109165,0.297602435,9.753054988,,transfer,,,,0.2976,152.1939,152.1939,filler_easy,trinary,,,,,left,0.2976,9.8621,9.7531,152.1939,242.6959,241.408,,,,NaN,NaN,NaN,NA,,
,transfer_trial,categorize-lines-2,212,1024064,0.0-6.0-0.4,line_cat_multi_stim_2,20211130,301,1034,,,,,,,,,"[189.1213,323.4616,198.5774]","[189.1213,323.4616,198.5774]","[4.750000701688976,15.750000521219516,5.750004314173399]","[""j"",""k"",""l""]","[""J"",""K"",""L""]","[189.1213,189.1213]",TRUE,null,k,323.4616,15.75000052,0,,189.1213,323.4616,198.5774,4.750000702,15.75000052,5.750004314,,transfer,,,,4.75,189.1213,189.1213,attraction,trinary,easy,left,right,target,left,4.75,15.75,5.75,189.1213,323.4616,198.5774,189.1213,323.4616,198.5774,NaN,NaN,NaN,competitor,,
,transfer_trial,categorize-lines-2,213,1028706,0.0-6.0-0.5,line_cat_multi_stim_2,20211130,301,2096,,,,,,,,,"[198.5774,323.4616]","[323.4616,198.5774]","[15.750000521219516,5.750004314173399,null]","[""j"",""k""]","[""J"",""K""]","[198.5774,198.5774]",TRUE,null,j,323.4616,15.75000052,0,,323.4616,198.5774,,15.75000052,5.750004314,NaN,,transfer,,,,5.75,198.5774,198.5774,attraction,binary,difficult,left,right,target,left,5.75,15.75,0,198.5774,323.4616,0,198.5774,323.4616,,NaN,NaN,NaN,competitor,,
,transfer_trial,categorize-lines-2,214,1031482,0.0-6.0-0.6,line_cat_multi_stim_2,20211130,301,1234,,,,,,,,,"[198.5774,323.4616]","[323.4616,198.5774]","[15.750000521219516,5.750004314173399,null]","[""j"",""k""]","[""J"",""K""]","[198.5774,198.5774]",TRUE,null,k,198.5774,5.750004314,1,,323.4616,198.5774,,15.75000052,5.750004314,NaN,,transfer,,,,5.75,198.5774,198.5774,attraction,binary,difficult,left,right,target,left,5.75,15.75,0,198.5774,323.4616,0,198.5774,323.4616,,NaN,NaN,NaN,target,,
,transfer_trial,categorize-lines-2,215,1039250,0.0-6.0-0.7,line_cat_multi_stim_2,20211130,301,5222,,,,,,,,,"[217.21906155200838,272.67191452832634,283.6150025416607]","[217.21906155200838,283.6150025416607,272.67191452832634]","[7.589051129144452,13.055549419940025,12.24906720982105]","[""j"",""k"",""l""]","[""J"",""K"",""L""]",sampled_1,TRUE,null,l,272.6719145,12.24906721,0,,217.2190616,283.6150025,272.6719145,7.589051129,13.05554942,12.24906721,,transfer,,,,,,,filler_sample,trinary,,,,,left,-1,1,1,,,,,,,NaN,NaN,NaN,NA,,
,transfer_trial,categorize-lines-2,216,1043380,0.0-6.0-0.8,line_cat_multi_stim_2,20211130,301,1584,,,,,,,,,"[198.5774,323.4616,308.0587]","[323.4616,308.0587,198.5774]","[15.750000521219516,14.750002738971677,5.750004314173399]","[""j"",""k"",""l""]","[""J"",""K"",""L""]","[198.5774,198.5774]",TRUE,null,j,323.4616,15.75000052,0,,323.4616,308.0587,198.5774,15.75000052,14.75000274,5.750004314,,transfer,,,,5.75,198.5774,198.5774,attraction,trinary,difficult,right,left,competitor,left,5.75,15.75,14.75,198.5774,323.4616,308.0587,323.4616,198.5774,308.0587,NaN,NaN,NaN,target,,
,transfer_trial,categorize-lines-2,217,1047784,0.0-6.0-0.9,line_cat_multi_stim_2,20211130,301,1862,,,,,,,,,"[327.76620667512617,242.91999019025909]","[242.91999019025909,327.76620667512617]","[9.881025095065407,16.020960144645162,null]","[""j"",""k""]","[""J"",""K""]",sampled_1,TRUE,null,j,242.9199902,9.881025095,0,,242.9199902,327.7662067,,9.881025095,16.02096014,NaN,,transfer,,,,,,,filler_sample,binary,,,,,right,-1,1,0,,,,,,,NaN,NaN,NaN,NA,,
,transfer_trial,categorize-lines-2,218,1050104,0.0-6.0-0.10,line_cat_multi_stim_2,20211130,301,782,,,,,,,,,"[339.6347,208.5062]","[339.6347,208.5062]","[16.7500017281595,6.749997433250141,null]","[""j"",""k""]","[""J"",""K""]","[339.6347,339.6347]",TRUE,null,j,339.6347,16.75000173,1,,339.6347,208.5062,,16.75000173,6.749997433,NaN,,transfer,,,,16.75,339.6347,339.6347,attraction,binary,difficult,right,left,target,right,16.75,6.75,0,339.6347,208.5062,0,339.6347,208.5062,,NaN,NaN,NaN,target,,
,transfer_trial,categorize-lines-2,219,1052476,0.0-6.0-0.11,line_cat_multi_stim_2,20211130,301,826,,,,,,,,,"[356.6164,208.5062,218.9315]","[218.9315,356.6164,208.5062]","[7.749996497069925,17.74999971659282,6.749997433250141]","[""j"",""k"",""l""]","[""J"",""K"",""L""]","[356.6164,356.6164]",TRUE,null,k,356.6164,17.74999972,1,,218.9315,356.6164,208.5062,7.749996497,17.74999972,6.749997433,,transfer,,,,17.75,356.6164,356.6164,attraction,trinary,easy,left,right,competitor,right,17.75,6.75,7.75,356.6164,208.5062,218.9315,208.5062,356.6164,218.9315,NaN,NaN,NaN,competitor,,
,transfer_trial,categorize-lines-2,220,1055428,0.0-6.0-0.12,line_cat_multi_stim_2,20211130,301,1408,,,,,,,,,"[339.6347,208.5062,218.9315]","[339.6347,218.9315,208.5062]","[16.7500017281595,7.749996497069925,6.749997433250141]","[""j"",""k"",""l""]","[""J"",""K"",""L""]","[339.6347,339.6347]",TRUE,null,j,339.6347,16.75000173,1,,339.6347,218.9315,208.5062,16.75000173,7.749996497,6.749997433,,transfer,,,,16.75,339.6347,339.6347,attraction,trinary,difficult,left,right,competitor,right,16.75,6.75,7.75,339.6347,208.5062,218.9315,208.5062,339.6347,218.9315,NaN,NaN,NaN,competitor,,
,transfer_trial,categorize-lines-2,221,1061202,0.0-6.0-0.13,line_cat_multi_stim_2,20211130,301,4230,,,,,,,,,"[198.5774,323.4616,308.0587]","[308.0587,198.5774,323.4616]","[14.750002738971677,5.750004314173399,15.750000521219516]","[""j"",""k"",""l""]","[""J"",""K"",""L""]","[198.5774,198.5774]",TRUE,null,k,198.5774,5.750004314,1,,308.0587,198.5774,323.4616,14.75000274,5.750004314,15.75000052,,transfer,,,,5.75,198.5774,198.5774,attraction,trinary,difficult,right,left,competitor,left,5.75,15.75,14.75,198.5774,323.4616,308.0587,323.4616,198.5774,308.0587,NaN,NaN,NaN,competitor,,
,transfer_trial,categorize-lines-2,222,1065040,0.0-6.0-0.14,line_cat_multi_stim_2,20211130,301,1296,,,,,,,,,"[339.6347,208.5062,323.4616]","[323.4616,208.5062,339.6347]","[15.750000521219516,6.749997433250141,16.7500017281595]","[""j"",""k"",""l""]","[""J"",""K"",""L""]","[339.6347,339.6347]",TRUE,null,k,208.5062,6.749997433,0,,323.4616,208.5062,339.6347,15.75000052,6.749997433,16.75000173,,transfer,,,,16.75,339.6347,339.6347,attraction,trinary,difficult,right,left,target,right,16.75,6.75,15.75,339.6347,208.5062,323.4616,339.6347,208.5062,323.4616,NaN,NaN,NaN,competitor,,
,transfer_trial,categorize-lines-2,223,1068192,0.0-6.0-0.15,line_cat_multi_stim_2,20211130,301,1608,,,,,,,,,"[323.4616,208.5062]","[208.5062,323.4616]","[6.749997433250141,15.750000521219516,null]","[""j"",""k""]","[""J"",""K""]","[323.4616,208.5062]",TRUE,null,k,323.4616,15.75000052,1,,208.5062,323.4616,,6.749997433,15.75000052,NaN,,transfer,,,,15.75,208.5062,323.4616,attraction,binary,equal_chance_5_JND,right,left,both,equal,15.75,6.75,0,323.4616,208.5062,0,323.4616,208.5062,,NaN,NaN,NaN,target,,
,transfer_trial,categorize-lines-2,224,1071580,0.0-6.0-0.16,line_cat_multi_stim_2,20211130,301,842,,,,,,,,,"[164.7966,270.0786]","[270.0786,164.7966]","[12.053202600557224,1.9281897017528786,null]","[""j"",""k""]","[""J"",""K""]","[164.7966,164.7966]",TRUE,null,j,270.0786,12.0532026,0,,270.0786,164.7966,,12.0532026,1.928189702,NaN,,transfer,,,,1.9282,164.7966,164.7966,filler_easy,binary,,,,,left,1.9282,12.0532,0,164.7966,270.0786,0,,,,NaN,NaN,NaN,NA,,
,transfer_trial,categorize-lines-2,225,1074714,0.0-6.0-0.17,line_cat_multi_stim_2,20211130,301,1588,,,,,,,,,"[189.1213,323.4616,308.0587]","[189.1213,308.0587,323.4616]","[4.750000701688976,14.750002738971677,15.750000521219516]","[""j"",""k"",""l""]","[""J"",""K"",""L""]","[189.1213,189.1213]",TRUE,null,j,189.1213,4.750000702,1,,189.1213,308.0587,323.4616,4.750000702,14.75000274,15.75000052,,transfer,,,,4.75,189.1213,189.1213,attraction,trinary,easy,right,left,competitor,left,4.75,15.75,14.75,189.1213,323.4616,308.0587,323.4616,189.1213,308.0587,NaN,NaN,NaN,competitor,,
,transfer_trial,categorize-lines-2,226,1078156,0.0-6.0-0.18,line_cat_multi_stim_2,20211130,301,898,,,,,,,,,"[198.5774,323.4616]","[323.4616,198.5774]","[15.750000521219516,5.750004314173399,null]","[""j"",""k""]","[""J"",""K""]","[198.5774,198.5774]",TRUE,null,j,323.4616,15.75000052,0,,323.4616,198.5774,,15.75000052,5.750004314,NaN,,transfer,,,,5.75,198.5774,198.5774,attraction,binary,difficult,left,right,target,left,5.75,15.75,0,198.5774,323.4616,0,198.5774,323.4616,,NaN,NaN,NaN,competitor,,
,transfer_trial,categorize-lines-2,227,1081138,0.0-6.0-0.19,line_cat_multi_stim_2,20211130,301,1438,,,,,,,,,"[387.3908930175151,258.1908360228701,271.56505802743]","[271.56505802743,258.1908360228701,387.3908930175151]","[12.165698785549383,11.130597757826013,19.44652092886194]","[""j"",""k"",""l""]","[""J"",""K"",""L""]",sampled_1,TRUE,null,l,387.390893,19.44652093,1,,271.565058,258.190836,387.390893,12.16569879,11.13059776,19.44652093,,transfer,,,,,,,filler_sample,trinary,,,,,right,-1,1,1,,,,,,,NaN,NaN,NaN,NA,,
,transfer_trial,categorize-lines-2,228,1085290,0.0-6.0-0.20,line_cat_multi_stim_2,20211130,301,1606,,,,,,,,,"[339.6347,208.5062]","[208.5062,339.6347]","[6.749997433250141,16.7500017281595,null]","[""j"",""k""]","[""J"",""K""]","[339.6347,339.6347]",TRUE,null,j,208.5062,6.749997433,0,,208.5062,339.6347,,6.749997433,16.75000173,NaN,,transfer,,,,16.75,339.6347,339.6347,attraction,binary,difficult,right,left,target,right,16.75,6.75,0,339.6347,208.5062,0,339.6347,208.5062,,NaN,NaN,NaN,competitor,,
,transfer_trial,categorize-lines-2,229,1087756,0.0-6.0-0.21,line_cat_multi_stim_2,20211130,301,922,,,,,,,,,"[339.6347,208.5062]","[208.5062,339.6347]","[6.749997433250141,16.7500017281595,null]","[""j"",""k""]","[""J"",""K""]","[339.6347,339.6347]",TRUE,null,k,339.6347,16.75000173,1,,208.5062,339.6347,,6.749997433,16.75000173,NaN,,transfer,,,,16.75,339.6347,339.6347,attraction,binary,difficult,right,left,target,right,16.75,6.75,0,339.6347,208.5062,0,339.6347,208.5062,,NaN,NaN,NaN,target,,
,transfer_trial,categorize-lines-2,230,1091324,0.0-6.0-0.22,line_cat_multi_stim_2,20211130,301,1022,,,,,,,,,"[189.1213,323.4616,198.5774]","[189.1213,323.4616,198.5774]","[4.750000701688976,15.750000521219516,5.750004314173399]","[""j"",""k"",""l""]","[""J"",""K"",""L""]","[189.1213,189.1213]",TRUE,null,k,323.4616,15.75000052,0,,189.1213,323.4616,198.5774,4.750000702,15.75000052,5.750004314,,transfer,,,,4.75,189.1213,189.1213,attraction,trinary,easy,left,right,target,left,4.75,15.75,5.75,189.1213,323.4616,198.5774,189.1213,323.4616,198.5774,NaN,NaN,NaN,competitor,,
,transfer_trial,categorize-lines-2,231,1093972,0.0-6.0-0.23,line_cat_multi_stim_2,20211130,301,1100,,,,,,,,,"[151.3192,242.6499,256.0975]","[242.6499,151.3192,256.0975]","[9.858224046313282,0.1794668862924835,10.963745385077512]","[""j"",""k"",""l""]","[""J"",""K"",""L""]","[151.3192,151.3192]",TRUE,null,k,151.3192,0.179466886,1,,242.6499,151.3192,256.0975,9.858224046,0.179466886,10.96374539,,transfer,,,,0.1795,151.3192,151.3192,filler_easy,trinary,,,,,left,0.1795,9.8582,10.9637,151.3192,242.6499,256.0975,,,,NaN,NaN,NaN,NA,,
,transfer_trial,categorize-lines-2,232,1096632,0.0-6.0-0.24,line_cat_multi_stim_2,20211130,301,1114,,,,,,,,,"[421.378,247.4936]","[247.4936,421.378]","[10.263327404543157,21.17014805268576,null]","[""j"",""k""]","[""J"",""K""]","[421.378,421.378]",TRUE,null,k,421.378,21.17014805,1,,247.4936,421.378,,10.2633274,21.17014805,NaN,,transfer,,,,21.1701,421.378,421.378,filler_easy,binary,,,,,right,21.1701,10.2633,0,421.378,247.4936,0,,,,NaN,NaN,NaN,NA,,
,transfer_trial,categorize-lines-2,233,1103020,0.0-6.0-0.25,line_cat_multi_stim_2,20211130,301,3840,,,,,,,,,"[323.4616,208.5062,218.9315]","[208.5062,323.4616,218.9315]","[6.749997433250141,15.750000521219516,7.749996497069925]","[""j"",""k"",""l""]","[""J"",""K"",""L""]","[208.5062,323.4616]",TRUE,null,l,218.9315,7.749996497,0,,208.5062,323.4616,218.9315,6.749997433,15.75000052,7.749996497,,transfer,,,,6.75,323.4616,208.5062,attraction,trinary,equal_chance_5_JND,left,right,both,equal,15.75,6.75,7.75,323.4616,208.5062,218.9315,208.5062,323.4616,218.9315,NaN,NaN,NaN,decoy,,
,transfer_trial,categorize-lines-2,234,1108472,0.0-6.0-0.26,line_cat_multi_stim_2,20211130,301,2904,,,,,,,,,"[200.02626286435475,254.9213365919012]","[254.9213365919012,200.02626286435475]","[10.869398136810013,5.899004093388648,null]","[""j"",""k""]","[""J"",""K""]",sampled_1,TRUE,null,j,254.9213366,10.86939814,0,,254.9213366,200.0262629,,10.86939814,5.899004093,NaN,,transfer,,,,,,,filler_sample,binary,,,,,right,-1,1,0,,,,,,,NaN,NaN,NaN,NA,,
,transfer_trial,categorize-lines-2,235,1124708,0.0-6.0-0.27,line_cat_multi_stim_2,20211130,301,13690,,,,,,,,,"[267.54181819450935,267.61298508649577]","[267.61298508649577,267.54181819450935]","[11.865230770893191,11.859779518496087,null]","[""j"",""k""]","[""J"",""K""]",sampled_1,TRUE,null,j,267.6129851,11.86523077,0,,267.6129851,267.5418182,,11.86523077,11.85977952,NaN,,transfer,,,,,,,filler_sample,binary,,,,,right,-1,1,0,,,,,,,NaN,NaN,NaN,NA,,
,transfer_trial,categorize-lines-2,236,1129560,0.0-6.0-0.28,line_cat_multi_stim_2,20211130,301,2314,,,,,,,,,"[323.4616,208.5062,308.0587]","[323.4616,208.5062,308.0587]","[15.750000521219516,6.749997433250141,14.750002738971677]","[""j"",""k"",""l""]","[""J"",""K"",""L""]","[323.4616,208.5062]",TRUE,null,l,308.0587,14.75000274,0,,323.4616,208.5062,308.0587,15.75000052,6.749997433,14.75000274,,transfer,,,,15.75,208.5062,323.4616,attraction,trinary,equal_chance_5_JND,right,left,both,equal,15.75,6.75,14.75,323.4616,208.5062,308.0587,323.4616,208.5062,308.0587,NaN,NaN,NaN,decoy,,
,transfer_trial,categorize-lines-2,237,1132956,0.0-6.0-0.29,line_cat_multi_stim_2,20211130,301,1854,,,,,,,,,"[356.6164,208.5062]","[208.5062,356.6164]","[6.749997433250141,17.74999971659282,null]","[""j"",""k""]","[""J"",""K""]","[356.6164,356.6164]",TRUE,null,k,356.6164,17.74999972,1,,208.5062,356.6164,,6.749997433,17.74999972,NaN,,transfer,,,,17.75,356.6164,356.6164,attraction,binary,easy,left,right,competitor,right,17.75,6.75,0,356.6164,208.5062,0,208.5062,356.6164,,NaN,NaN,NaN,competitor,,
,transfer_trial,categorize-lines-2,238,1135308,0.0-6.0-0.30,line_cat_multi_stim_2,20211130,301,810,,,,,,,,,"[356.6164,208.5062]","[208.5062,356.6164]","[6.749997433250141,17.74999971659282,null]","[""j"",""k""]","[""J"",""K""]","[356.6164,356.6164]",TRUE,null,k,356.6164,17.74999972,1,,208.5062,356.6164,,6.749997433,17.74999972,NaN,,transfer,,,,17.75,356.6164,356.6164,attraction,binary,easy,left,right,competitor,right,17.75,6.75,0,356.6164,208.5062,0,208.5062,356.6164,,NaN,NaN,NaN,competitor,,
,transfer_trial,categorize-lines-2,239,1140328,0.0-6.0-0.31,line_cat_multi_stim_2,20211130,301,2476,,,,,,,,,"[339.6347,208.5062,323.4616]","[208.5062,323.4616,339.6347]","[6.749997433250141,15.750000521219516,16.7500017281595]","[""j"",""k"",""l""]","[""J"",""K"",""L""]","[339.6347,339.6347]",TRUE,null,k,323.4616,15.75000052,0,,208.5062,323.4616,339.6347,6.749997433,15.75000052,16.75000173,,transfer,,,,16.75,339.6347,339.6347,attraction,trinary,difficult,right,left,target,right,16.75,6.75,15.75,339.6347,208.5062,323.4616,339.6347,208.5062,323.4616,NaN,NaN,NaN,decoy,,
,transfer_trial,categorize-lines-2,240,1143960,0.0-6.0-0.32,line_cat_multi_stim_2,20211130,301,2086,,,,,,,,,"[339.6347,198.5774]","[339.6347,198.5774]","[16.7500017281595,5.750004314173399,null]","[""j"",""k""]","[""J"",""K""]","[339.6347,198.5774]",TRUE,null,j,339.6347,16.75000173,1,,339.6347,198.5774,,16.75000173,5.750004314,NaN,,transfer,,,,16.75,198.5774,339.6347,attraction,binary,equal_chance_6_JND,right,left,both,equal,16.75,5.75,0,339.6347,198.5774,0,339.6347,198.5774,,NaN,NaN,NaN,target,,
,transfer_trial,categorize-lines-2,241,1147346,0.0-6.0-0.33,line_cat_multi_stim_2,20211130,301,844,,,,,,,,,"[189.1213,323.4616,198.5774]","[323.4616,198.5774,189.1213]","[15.750000521219516,5.750004314173399,4.750000701688976]","[""j"",""k"",""l""]","[""J"",""K"",""L""]","[189.1213,189.1213]",TRUE,null,j,323.4616,15.75000052,0,,323.4616,198.5774,189.1213,15.75000052,5.750004314,4.750000702,,transfer,,,,4.75,189.1213,189.1213,attraction,trinary,easy,left,right,target,left,4.75,15.75,5.75,189.1213,323.4616,198.5774,189.1213,323.4616,198.5774,NaN,NaN,NaN,competitor,,
,transfer_trial,categorize-lines-2,242,1150088,0.0-6.0-0.34,line_cat_multi_stim_2,20211130,301,1196,,,,,,,,,"[279.0726353203081,211.45084000435037]","[211.45084000435037,279.0726353203081]","[7.037427486673481,12.72463018029603,null]","[""j"",""k""]","[""J"",""K""]",sampled_1,TRUE,null,k,279.0726353,12.72463018,1,,211.45084,279.0726353,,7.037427487,12.72463018,NaN,,transfer,,,,,,,filler_sample,binary,,,,,right,-1,1,0,,,,,,,NaN,NaN,NaN,NA,,
,transfer_trial,categorize-lines-2,243,1155300,0.0-6.0-0.35,line_cat_multi_stim_2,20211130,301,2666,,,,,,,,,"[203.8738853956179,235.18147765128793,284.3428705588824]","[284.3428705588824,203.8738853956179,235.18147765128793]","[13.108082693776671,6.2895115225975635,9.217476001572779]","[""j"",""k"",""l""]","[""J"",""K"",""L""]",sampled_1,TRUE,null,l,235.1814777,9.217476002,0,,284.3428706,203.8738854,235.1814777,13.10808269,6.289511523,9.217476002,,transfer,,,,,,,filler_sample,trinary,,,,,left,-1,1,1,,,,,,,NaN,NaN,NaN,NA,,
,transfer_trial,categorize-lines-2,244,1158532,0.0-6.0-0.36,line_cat_multi_stim_2,20211130,301,1688,,,,,,,,,"[339.6347,198.5774,323.4616]","[323.4616,339.6347,198.5774]","[15.750000521219516,16.7500017281595,5.750004314173399]","[""j"",""k"",""l""]","[""J"",""K"",""L""]","[339.6347,198.5774]",TRUE,null,k,339.6347,16.75000173,1,,323.4616,339.6347,198.5774,15.75000052,16.75000173,5.750004314,,transfer,,,,16.75,198.5774,339.6347,attraction,trinary,equal_chance_6_JND,right,left,both,equal,16.75,5.75,15.75,339.6347,198.5774,323.4616,339.6347,198.5774,323.4616,NaN,NaN,NaN,target,,
,transfer_trial,categorize-lines-2,245,1161122,0.0-6.0-0.37,line_cat_multi_stim_2,20211130,301,1048,,,,,,,,,"[164.77587755417647,249.53117673999176]","[249.53117673999176,164.77587755417647]","[10.431376463402804,1.9256122663302195,null]","[""j"",""k""]","[""J"",""K""]",sampled_1,TRUE,null,k,164.7758776,1.925612266,1,,249.5311767,164.7758776,,10.43137646,1.925612266,NaN,,transfer,,,,,,,filler_sample,binary,,,,,left,-1,1,0,,,,,,,NaN,NaN,NaN,NA,,
,transfer_trial,categorize-lines-2,246,1165748,0.0-6.0-0.38,line_cat_multi_stim_2,20211130,301,3084,,,,,,,,,"[198.5774,323.4616,208.5062]","[323.4616,208.5062,198.5774]","[15.750000521219516,6.749997433250141,5.750004314173399]","[""j"",""k"",""l""]","[""J"",""K"",""L""]","[198.5774,198.5774]",TRUE,null,l,198.5774,5.750004314,1,,323.4616,208.5062,198.5774,15.75000052,6.749997433,5.750004314,,transfer,,,,5.75,198.5774,198.5774,attraction,trinary,difficult,left,right,target,left,5.75,15.75,6.75,198.5774,323.4616,208.5062,198.5774,323.4616,208.5062,NaN,NaN,NaN,target,,
,transfer_trial,categorize-lines-2,247,1168258,0.0-6.0-0.39,line_cat_multi_stim_2,20211130,301,960,,,,,,,,,"[189.1213,323.4616]","[323.4616,189.1213]","[15.750000521219516,4.750000701688976,null]","[""j"",""k""]","[""J"",""K""]","[189.1213,189.1213]",TRUE,null,k,189.1213,4.750000702,1,,323.4616,189.1213,,15.75000052,4.750000702,NaN,,transfer,,,,4.75,189.1213,189.1213,attraction,binary,easy,right,left,competitor,left,4.75,15.75,0,189.1213,323.4616,0,323.4616,189.1213,,NaN,NaN,NaN,competitor,,
,transfer_trial,categorize-lines-2,248,1172504,0.0-6.0-0.40,line_cat_multi_stim_2,20211130,301,1704,,,,,,,,,"[447.3695,244.0034,245.678]","[244.0034,447.3695,245.678]","[9.972232596645437,22.396923633680604,10.11241609310879]","[""j"",""k"",""l""]","[""J"",""K"",""L""]","[447.3695,447.3695]",TRUE,null,l,245.678,10.11241609,0,,244.0034,447.3695,245.678,9.972232597,22.39692363,10.11241609,,transfer,,,,22.3969,447.3695,447.3695,filler_easy,trinary,,,,,right,22.3969,9.9722,10.1124,447.3695,244.0034,245.678,,,,NaN,NaN,NaN,NA,,
,transfer_trial,categorize-lines-2,249,1175300,0.0-6.0-0.41,line_cat_multi_stim_2,20211130,301,1248,,,,,,,,,"[339.6347,198.5774]","[339.6347,198.5774]","[16.7500017281595,5.750004314173399,null]","[""j"",""k""]","[""J"",""K""]","[198.5774,339.6347]",TRUE,null,j,339.6347,16.75000173,1,,339.6347,198.5774,,16.75000173,5.750004314,NaN,,transfer,,,,5.75,339.6347,198.5774,attraction,binary,equal_chance_6_JND,left,right,both,equal,16.75,5.75,0,339.6347,198.5774,0,198.5774,339.6347,,NaN,NaN,NaN,competitor,,
,transfer_trial,categorize-lines-2,250,1182242,0.0-6.0-0.42,line_cat_multi_stim_2,20211130,301,4398,,,,,,,,,"[198.5774,323.4616,208.5062]","[323.4616,198.5774,208.5062]","[15.750000521219516,5.750004314173399,6.749997433250141]","[""j"",""k"",""l""]","[""J"",""K"",""L""]","[198.5774,198.5774]",TRUE,null,l,208.5062,6.749997433,0,,323.4616,198.5774,208.5062,15.75000052,5.750004314,6.749997433,,transfer,,,,5.75,198.5774,198.5774,attraction,trinary,difficult,left,right,target,left,5.75,15.75,6.75,198.5774,323.4616,208.5062,198.5774,323.4616,208.5062,NaN,NaN,NaN,decoy,,
,transfer_trial,categorize-lines-2,251,1185466,0.0-6.0-0.43,line_cat_multi_stim_2,20211130,301,1674,,,,,,,,,"[323.4616,208.5062,218.9315]","[218.9315,323.4616,208.5062]","[7.749996497069925,15.750000521219516,6.749997433250141]","[""j"",""k"",""l""]","[""J"",""K"",""L""]","[208.5062,323.4616]",TRUE,null,k,323.4616,15.75000052,1,,218.9315,323.4616,208.5062,7.749996497,15.75000052,6.749997433,,transfer,,,,6.75,323.4616,208.5062,attraction,trinary,equal_chance_5_JND,left,right,both,equal,15.75,6.75,7.75,323.4616,208.5062,218.9315,208.5062,323.4616,218.9315,NaN,NaN,NaN,competitor,,
,transfer_trial,categorize-lines-2,252,1188702,0.0-6.0-0.44,line_cat_multi_stim_2,20211130,301,1688,,,,,,,,,"[178.0040415485417,253.89029211309256,212.63836594662797]","[178.0040415485417,253.89029211309256,212.63836594662797]","[3.5083087786409823,10.786333019406765,7.152212380905443]","[""j"",""k"",""l""]","[""J"",""K"",""L""]",sampled_1,TRUE,null,j,178.0040415,3.508308779,1,,178.0040415,253.8902921,212.6383659,3.508308779,10.78633302,7.152212381,,transfer,,,,,,,filler_sample,trinary,,,,,right,-1,1,1,,,,,,,NaN,NaN,NaN,NA,,
,transfer_trial,categorize-lines-2,253,1191888,0.0-6.0-0.45,line_cat_multi_stim_2,20211130,301,1650,,,,,,,,,"[356.6164,208.5062,339.6347]","[339.6347,356.6164,208.5062]","[16.7500017281595,17.74999971659282,6.749997433250141]","[""j"",""k"",""l""]","[""J"",""K"",""L""]","[356.6164,356.6164]",TRUE,null,k,356.6164,17.74999972,1,,339.6347,356.6164,208.5062,16.75000173,17.74999972,6.749997433,,transfer,,,,17.75,356.6164,356.6164,attraction,trinary,easy,right,left,target,right,17.75,6.75,16.75,356.6164,208.5062,339.6347,356.6164,208.5062,339.6347,NaN,NaN,NaN,target,,
,transfer_trial,categorize-lines-2,254,1196806,0.0-6.0-0.46,line_cat_multi_stim_2,20211130,301,2370,,,,,,,,,"[222.9868419379852,203.56497836858176,352.8092275766289]","[203.56497836858176,352.8092275766289,222.9868419379852]","[6.258432801780483,17.530012442400178,8.126176199854147]","[""j"",""k"",""l""]","[""J"",""K"",""L""]",sampled_1,TRUE,null,k,352.8092276,17.53001244,0,,203.5649784,352.8092276,222.9868419,6.258432802,17.53001244,8.1261762,,transfer,,,,,,,filler_sample,trinary,,,,,right,-1,1,1,,,,,,,NaN,NaN,NaN,NA,,
,transfer_trial,categorize-lines-2,255,1199432,0.0-6.0-0.47,line_cat_multi_stim_2,20211130,301,1078,,,,,,,,,"[414.9215,262.9662,257.1963]","[257.1963,262.9662,414.9215]","[11.051496170399991,11.506216924433566,20.85367140971867]","[""j"",""k"",""l""]","[""J"",""K"",""L""]","[414.9215,414.9215]",TRUE,null,l,414.9215,20.85367141,1,,257.1963,262.9662,414.9215,11.05149617,11.50621692,20.85367141,,transfer,,,,20.8537,414.9215,414.9215,filler_easy,trinary,,,,,right,20.8537,11.5062,11.0515,414.9215,262.9662,257.1963,,,,NaN,NaN,NaN,NA,,
,transfer_trial,categorize-lines-2,256,1204046,0.0-6.0-0.48,line_cat_multi_stim_2,20211130,301,3066,,,,,,,,,"[339.6347,198.5774,323.4616]","[198.5774,323.4616,339.6347]","[5.750004314173399,15.750000521219516,16.7500017281595]","[""j"",""k"",""l""]","[""J"",""K"",""L""]","[339.6347,198.5774]",TRUE,null,l,339.6347,16.75000173,1,,198.5774,323.4616,339.6347,5.750004314,15.75000052,16.75000173,,transfer,,,,16.75,198.5774,339.6347,attraction,trinary,equal_chance_6_JND,right,left,both,equal,16.75,5.75,15.75,339.6347,198.5774,323.4616,339.6347,198.5774,323.4616,NaN,NaN,NaN,target,,
,transfer_trial,categorize-lines-2,257,1206620,0.0-6.0-0.49,line_cat_multi_stim_2,20211130,301,1028,,,,,,,,,"[356.6164,208.5062]","[356.6164,208.5062]","[17.74999971659282,6.749997433250141,null]","[""j"",""k""]","[""J"",""K""]","[356.6164,356.6164]",TRUE,null,j,356.6164,17.74999972,1,,356.6164,208.5062,,17.74999972,6.749997433,NaN,,transfer,,,,17.75,356.6164,356.6164,attraction,binary,easy,right,left,target,right,17.75,6.75,0,356.6164,208.5062,0,356.6164,208.5062,,NaN,NaN,NaN,target,,
,transfer_trial,categorize-lines-2,258,1210148,0.0-6.0-0.50,line_cat_multi_stim_2,20211130,301,1982,,,,,,,,,"[375.005654353214,246.69470336780634]","[246.69470336780634,375.005654353214]","[10.197060570425398,18.780543694292366,null]","[""j"",""k""]","[""J"",""K""]",sampled_1,TRUE,null,k,375.0056544,18.78054369,1,,246.6947034,375.0056544,,10.19706057,18.78054369,NaN,,transfer,,,,,,,filler_sample,binary,,,,,left,-1,1,0,,,,,,,NaN,NaN,NaN,NA,,
,transfer_trial,categorize-lines-2,259,1212592,0.0-6.0-0.51,line_cat_multi_stim_2,20211130,301,904,,,,,,,,,"[356.6164,208.5062,218.9315]","[208.5062,356.6164,218.9315]","[6.749997433250141,17.74999971659282,7.749996497069925]","[""j"",""k"",""l""]","[""J"",""K"",""L""]","[356.6164,356.6164]",TRUE,null,k,356.6164,17.74999972,1,,208.5062,356.6164,218.9315,6.749997433,17.74999972,7.749996497,,transfer,,,,17.75,356.6164,356.6164,attraction,trinary,easy,left,right,competitor,right,17.75,6.75,7.75,356.6164,208.5062,218.9315,208.5062,356.6164,218.9315,NaN,NaN,NaN,competitor,,
,transfer_trial,categorize-lines-2,260,1215260,0.0-6.0-0.52,line_cat_multi_stim_2,20211130,301,1118,,,,,,,,,"[411.6704,239.3667]","[411.6704,239.3667]","[20.692443902761593,9.579008383437218,null]","[""j"",""k""]","[""J"",""K""]","[411.6704,411.6704]",TRUE,null,j,411.6704,20.6924439,1,,411.6704,239.3667,,20.6924439,9.579008383,NaN,,transfer,,,,20.6924,411.6704,411.6704,filler_easy,binary,,,,,right,20.6924,9.579,0,411.6704,239.3667,0,,,,NaN,NaN,NaN,NA,,
,transfer_trial,categorize-lines-2,261,1218112,0.0-6.0-0.53,line_cat_multi_stim_2,20211130,301,1312,,,,,,,,,"[176.11352288704524,250.48853906704954]","[176.11352288704524,250.48853906704954]","[3.289464426775649,10.509861605997965,null]","[""j"",""k""]","[""J"",""K""]",sampled_1,TRUE,null,j,176.1135229,3.289464427,1,,176.1135229,250.4885391,,3.289464427,10.50986161,NaN,,transfer,,,,,,,filler_sample,binary,,,,,left,-1,1,0,,,,,,,NaN,NaN,NaN,NA,,
,transfer_trial,categorize-lines-2,262,1220328,0.0-6.0-0.54,line_cat_multi_stim_2,20211130,301,668,,,,,,,,,"[198.5774,323.4616]","[198.5774,323.4616]","[5.750004314173399,15.750000521219516,null]","[""j"",""k""]","[""J"",""K""]","[198.5774,198.5774]",TRUE,null,j,198.5774,5.750004314,1,,198.5774,323.4616,,5.750004314,15.75000052,NaN,,transfer,,,,5.75,198.5774,198.5774,attraction,binary,difficult,right,left,competitor,left,5.75,15.75,0,198.5774,323.4616,0,323.4616,198.5774,,NaN,NaN,NaN,competitor,,
,transfer_trial,categorize-lines-2,263,1223456,0.0-6.0-0.55,line_cat_multi_stim_2,20211130,301,1584,,,,,,,,,"[162.523,244.5596,239.1983]","[162.523,239.1983,244.5596]","[1.6434508365456342,9.56458394587498,10.018899428110446]","[""j"",""k"",""l""]","[""J"",""K"",""L""]","[162.523,162.523]",TRUE,null,j,162.523,1.643450837,1,,162.523,239.1983,244.5596,1.643450837,9.564583946,10.01889943,,transfer,,,,1.6434,162.523,162.523,filler_easy,trinary,,,,,left,1.6434,10.0189,9.5646,162.523,244.5596,239.1983,,,,NaN,NaN,NaN,NA,,
,transfer_trial,categorize-lines-2,264,1225878,0.0-6.0-0.56,line_cat_multi_stim_2,20211130,301,878,,,,,,,,,"[339.6347,198.5774,208.5062]","[339.6347,208.5062,198.5774]","[16.7500017281595,6.749997433250141,5.750004314173399]","[""j"",""k"",""l""]","[""J"",""K"",""L""]","[198.5774,339.6347]",TRUE,null,j,339.6347,16.75000173,1,,339.6347,208.5062,198.5774,16.75000173,6.749997433,5.750004314,,transfer,,,,5.75,339.6347,198.5774,attraction,trinary,equal_chance_6_JND,left,right,both,equal,16.75,5.75,6.75,339.6347,198.5774,208.5062,198.5774,339.6347,208.5062,NaN,NaN,NaN,competitor,,
,transfer_trial,categorize-lines-2,265,1231064,0.0-6.0-0.57,line_cat_multi_stim_2,20211130,301,2644,,,,,,,,,"[189.1213,323.4616,308.0587]","[308.0587,189.1213,323.4616]","[14.750002738971677,4.750000701688976,15.750000521219516]","[""j"",""k"",""l""]","[""J"",""K"",""L""]","[189.1213,189.1213]",TRUE,null,l,323.4616,15.75000052,0,,308.0587,189.1213,323.4616,14.75000274,4.750000702,15.75000052,,transfer,,,,4.75,189.1213,189.1213,attraction,trinary,easy,right,left,competitor,left,4.75,15.75,14.75,189.1213,323.4616,308.0587,323.4616,189.1213,308.0587,NaN,NaN,NaN,target,,
,transfer_trial,categorize-lines-2,266,1235372,0.0-6.0-0.58,line_cat_multi_stim_2,20211130,301,1758,,,,,,,,,"[189.1213,323.4616]","[189.1213,323.4616]","[4.750000701688976,15.750000521219516,null]","[""j"",""k""]","[""J"",""K""]","[189.1213,189.1213]",TRUE,null,k,323.4616,15.75000052,0,,189.1213,323.4616,,4.750000702,15.75000052,NaN,,transfer,,,,4.75,189.1213,189.1213,attraction,binary,easy,right,left,competitor,left,4.75,15.75,0,189.1213,323.4616,0,323.4616,189.1213,,NaN,NaN,NaN,target,,
,transfer_trial,categorize-lines-2,267,1239916,0.0-6.0-0.59,line_cat_multi_stim_2,20211130,301,1996,,,,,,,,,"[189.1213,323.4616,308.0587]","[323.4616,308.0587,189.1213]","[15.750000521219516,14.750002738971677,4.750000701688976]","[""j"",""k"",""l""]","[""J"",""K"",""L""]","[189.1213,189.1213]",TRUE,null,j,323.4616,15.75000052,0,,323.4616,308.0587,189.1213,15.75000052,14.75000274,4.750000702,,transfer,,,,4.75,189.1213,189.1213,attraction,trinary,easy,right,left,competitor,left,4.75,15.75,14.75,189.1213,323.4616,308.0587,323.4616,189.1213,308.0587,NaN,NaN,NaN,target,,
,transfer_trial,categorize-lines-2,268,1242758,0.0-6.0-0.60,line_cat_multi_stim_2,20211130,301,1278,,,,,,,,,"[339.6347,208.5062,218.9315]","[208.5062,218.9315,339.6347]","[6.749997433250141,7.749996497069925,16.7500017281595]","[""j"",""k"",""l""]","[""J"",""K"",""L""]","[339.6347,339.6347]",TRUE,null,l,339.6347,16.75000173,1,,208.5062,218.9315,339.6347,6.749997433,7.749996497,16.75000173,,transfer,,,,16.75,339.6347,339.6347,attraction,trinary,difficult,left,right,competitor,right,16.75,6.75,7.75,339.6347,208.5062,218.9315,208.5062,339.6347,218.9315,NaN,NaN,NaN,competitor,,
,transfer_trial,categorize-lines-2,269,1245200,0.0-6.0-0.61,line_cat_multi_stim_2,20211130,301,902,,,,,,,,,"[356.6164,208.5062]","[356.6164,208.5062]","[17.74999971659282,6.749997433250141,null]","[""j"",""k""]","[""J"",""K""]","[356.6164,356.6164]",TRUE,null,j,356.6164,17.74999972,1,,356.6164,208.5062,,17.74999972,6.749997433,NaN,,transfer,,,,17.75,356.6164,356.6164,attraction,binary,easy,right,left,target,right,17.75,6.75,0,356.6164,208.5062,0,356.6164,208.5062,,NaN,NaN,NaN,target,,
,transfer_trial,categorize-lines-2,270,1249212,0.0-6.0-0.62,line_cat_multi_stim_2,20211130,301,2460,,,,,,,,,"[268.0311427278962,231.470715884201,237.99026156548848]","[268.0311427278962,231.470715884201,237.99026156548848]","[11.89723161939383,8.891506752500417,9.460809751388284]","[""j"",""k"",""l""]","[""J"",""K"",""L""]",sampled_1,TRUE,null,j,268.0311427,11.89723162,1,,268.0311427,231.4707159,237.9902616,11.89723162,8.891506753,9.460809751,,transfer,,,,,,,filler_sample,trinary,,,,,right,-1,1,1,,,,,,,NaN,NaN,NaN,NA,,
,transfer_trial,categorize-lines-2,271,1251554,0.0-6.0-0.63,line_cat_multi_stim_2,20211130,301,798,,,,,,,,,"[365.58269262567245,255.89870556362857,252.96545152754345]","[365.58269262567245,255.89870556362857,252.96545152754345]","[18.258950751307484,10.947829337769384,10.711536617601285]","[""j"",""k"",""l""]","[""J"",""K"",""L""]",sampled_1,TRUE,null,j,365.5826926,18.25895075,1,,365.5826926,255.8987056,252.9654515,18.25895075,10.94782934,10.71153662,,transfer,,,,,,,filler_sample,trinary,,,,,left,-1,1,1,,,,,,,NaN,NaN,NaN,NA,,
,transfer_trial,categorize-lines-2,272,1253946,0.0-6.0-0.64,line_cat_multi_stim_2,20211130,301,846,,,,,,,,,"[339.6347,208.5062]","[208.5062,339.6347]","[6.749997433250141,16.7500017281595,null]","[""j"",""k""]","[""J"",""K""]","[339.6347,339.6347]",TRUE,null,k,339.6347,16.75000173,1,,208.5062,339.6347,,6.749997433,16.75000173,NaN,,transfer,,,,16.75,339.6347,339.6347,attraction,binary,difficult,left,right,competitor,right,16.75,6.75,0,339.6347,208.5062,0,208.5062,339.6347,,NaN,NaN,NaN,competitor,,
,transfer_trial,categorize-lines-2,273,1257490,0.0-6.0-0.65,line_cat_multi_stim_2,20211130,301,998,,,,,,,,,"[198.5774,323.4616]","[198.5774,323.4616]","[5.750004314173399,15.750000521219516,null]","[""j"",""k""]","[""J"",""K""]","[198.5774,198.5774]",TRUE,null,k,323.4616,15.75000052,0,,198.5774,323.4616,,5.750004314,15.75000052,NaN,,transfer,,,,5.75,198.5774,198.5774,attraction,binary,difficult,right,left,competitor,left,5.75,15.75,0,198.5774,323.4616,0,323.4616,198.5774,,NaN,NaN,NaN,target,,
,transfer_trial,categorize-lines-2,274,1261216,0.0-6.0-0.66,line_cat_multi_stim_2,20211130,301,2186,,,,,,,,,"[291.55895132735725,286.71027152567706,242.4865826169623]","[291.55895132735725,242.4865826169623,286.71027152567706]","[13.621739892878404,9.844424455470248,13.278022648975078]","[""j"",""k"",""l""]","[""J"",""K"",""L""]",sampled_1,TRUE,null,j,291.5589513,13.62173989,1,,291.5589513,242.4865826,286.7102715,13.62173989,9.844424455,13.27802265,,transfer,,,,,,,filler_sample,trinary,,,,,left,-1,1,1,,,,,,,NaN,NaN,NaN,NA,,
,transfer_trial,categorize-lines-2,275,1263674,0.0-6.0-0.67,line_cat_multi_stim_2,20211130,301,914,,,,,,,,,"[356.6164,208.5062,218.9315]","[208.5062,218.9315,356.6164]","[6.749997433250141,7.749996497069925,17.74999971659282]","[""j"",""k"",""l""]","[""J"",""K"",""L""]","[356.6164,356.6164]",TRUE,null,l,356.6164,17.74999972,1,,208.5062,218.9315,356.6164,6.749997433,7.749996497,17.74999972,,transfer,,,,17.75,356.6164,356.6164,attraction,trinary,easy,left,right,competitor,right,17.75,6.75,7.75,356.6164,208.5062,218.9315,208.5062,356.6164,218.9315,NaN,NaN,NaN,competitor,,
,transfer_trial,categorize-lines-2,276,1266884,0.0-6.0-0.68,line_cat_multi_stim_2,20211130,301,662,,,,,,,,,"[198.5774,323.4616,208.5062]","[198.5774,208.5062,323.4616]","[5.750004314173399,6.749997433250141,15.750000521219516]","[""j"",""k"",""l""]","[""J"",""K"",""L""]","[198.5774,198.5774]",TRUE,null,l,323.4616,15.75000052,0,,198.5774,208.5062,323.4616,5.750004314,6.749997433,15.75000052,,transfer,,,,5.75,198.5774,198.5774,attraction,trinary,difficult,left,right,target,left,5.75,15.75,6.75,198.5774,323.4616,208.5062,198.5774,323.4616,208.5062,NaN,NaN,NaN,competitor,,
,transfer_trial,categorize-lines-2,277,1269740,0.0-6.0-0.69,line_cat_multi_stim_2,20211130,301,1308,,,,,,,,,"[323.4616,208.5062,308.0587]","[308.0587,323.4616,208.5062]","[14.750002738971677,15.750000521219516,6.749997433250141]","[""j"",""k"",""l""]","[""J"",""K"",""L""]","[323.4616,208.5062]",TRUE,null,k,323.4616,15.75000052,1,,308.0587,323.4616,208.5062,14.75000274,15.75000052,6.749997433,,transfer,,,,15.75,208.5062,323.4616,attraction,trinary,equal_chance_5_JND,right,left,both,equal,15.75,6.75,14.75,323.4616,208.5062,308.0587,323.4616,208.5062,308.0587,NaN,NaN,NaN,target,,
