"success","screen_id","trial_type","trial_index","time_elapsed","internal_node_id","exp_name","date","sub_n","rt","response","url","timeout","failed_images","failed_audio","failed_video","view_history","stim","stim_vals","line_lens_order","stim_vals_order_psy","choices","stim_names","corr_ans","give_fb","in_cat","key_choice","choice","choice_psy","correct","fb_in_cat","line_1_in_order","line_2_in_order","line_3_in_order","psy_1_in_order","psy_2_in_order","psy_3_in_order","line_length","exp_trial_type","jnds","dens","distribution","correct_1_psy","correct_2_psy","correct_1_phy","transfer_trial_type","trial_choice_set","difficulty","target_side","competitor_side","tc_correct","side_correct","stim_1_psy","stim_2_psy","stim_3_psy","stim_1_phy","stim_2_phy","stim_3_phy","target_phy","competitor_phy","decoy_phy","target_psy","competitor_psy","decoy_psy","attr_choice","question_order","stimulus"
"true","enter-fullscreen-mode","fullscreen","0","2254","0.0-0.0","line_cat_multi_stim_2","20211206","190","","","","","","","","","","","","","","","","","","","","","","","","","","","","","","","","","","","","","","","","","","","","","","","","","","","","","","","","","",""
"","enter-sub-number","survey-html-form","1","6012","0.0-1.0","line_cat_multi_stim_2","20211206","190","3746","{""response"":""190""}","","","","","","","","","","","","","","","","","","","","","","","","","","","","","","","","","","","","","","","","","","","","","","","","","","","","","","","",""
"","","external-html","2","116264","0.0-2.0","line_cat_multi_stim_2","20211206","190","110242","","consent.html","","","","","","","","","","","","","","","","","","","","","","","","","","","","","","","","","","","","","","","","","","","","","","","","","","","","","","",""
"true","","preload","3","116288","0.0-3.0-0.0","line_cat_multi_stim_2","20211206","190","","","","false","[]","[]","[]","","","","","","","","","","","","","","","","","","","","","","","","","","","","","","","","","","","","","","","","","","","","","","","","","","",""
"","instructions","instructions","4","243830","0.0-3.0-1.0","line_cat_multi_stim_2","20211206","190","127542","","","","","","","[{""page_index"":0,""viewing_time"":2420},{""page_index"":1,""viewing_time"":8432},{""page_index"":2,""viewing_time"":24752},{""page_index"":3,""viewing_time"":59608},{""page_index"":4,""viewing_time"":2152},{""page_index"":3,""viewing_time"":2480},{""page_index"":4,""viewing_time"":9160},{""page_index"":5,""viewing_time"":6442},{""page_index"":6,""viewing_time"":12096}]","","","","","","","","","","","","","","","","","","","","","","","","","","","","","","","","","","","","","","","","","","","","","","","","","",""
"","demo-lines","draw-demo-lines","5","303844","0.0-3.0-2.0","line_cat_multi_stim_2","20211206","190","","","","","","","","","lines","","","","","","","","","","","","","","","","","","","","","","","","","","","","","","","","","","","","","","","","","","","","","","","","",""
"","click-to-begin-the-experiment","instructions","6","306126","0.0-3.0-3.0","line_cat_multi_stim_2","20211206","190","2280","","","","","","","[{""page_index"":0,""viewing_time"":2280}]","","","","","","","","","","","","","","","","","","","","","","","","","","","","","","","","","","","","","","","","","","","","","","","","","",""
"","learn_trial","categorize-lines-2","7","315802","0.0-4.0-0.0","line_cat_multi_stim_2","20211206","190","5636","","","","","","","","","[235.4401]","[235.4401]","[9.240002411141354,null,null]","[""u"",""i""]","[""""]","null","true","out","u","YES","NA","0","out","235.4401","","","9.240002411141354","NaN","NaN","235.4401","learning","9.24","0.119","out","","","","","","","","","","","","","","","","","","","","","","","","",""
"","learn_trial","categorize-lines-2","8","322404","0.0-4.0-0.1","line_cat_multi_stim_2","20211206","190","4564","","","","","","","","","[206.4815]","[206.4815]","[6.549998987583844,null,null]","[""u"",""i""]","[""""]","null","true","in","u","YES","NA","1","in","206.4815","","","6.549998987583844","NaN","NaN","206.4815","learning","6.55","0.0444","in","","","","","","","","","","","","","","","","","","","","","","","","",""
"","learn_trial","categorize-lines-2","9","328180","0.0-4.0-0.2","line_cat_multi_stim_2","20211206","190","3732","","","","","","","","","[233.9515]","[233.9515]","[9.110002853819157,null,null]","[""u"",""i""]","[""""]","null","true","out","i","NO","NA","1","out","233.9515","","","9.110002853819157","NaN","NaN","233.9515","learning","9.11","0.1128","out","","","","","","","","","","","","","","","","","","","","","","","","",""
"","learn_trial","categorize-lines-2","10","334106","0.0-4.0-0.3","line_cat_multi_stim_2","20211206","190","3878","","","","","","","","","[240.0801]","[240.0801]","[9.640002889317357,null,null]","[""u"",""i""]","[""""]","null","true","in","u","YES","NA","1","in","240.0801","","","9.640002889317357","NaN","NaN","240.0801","learning","9.64","0.0444","in","","","","","","","","","","","","","","","","","","","","","","","","",""
"","learn_trial","categorize-lines-2","11","338718","0.0-4.0-0.4","line_cat_multi_stim_2","20211206","190","2572","","","","","","","","","[292.6743]","[292.6743]","[13.699996790622777,null,null]","[""u"",""i""]","[""""]","null","true","in","u","YES","NA","1","in","292.6743","","","13.699996790622777","NaN","NaN","292.6743","learning","13.7","0.0444","in","","","","","","","","","","","","","","","","","","","","","","","","",""
"","learn_trial","categorize-lines-2","12","345004","0.0-4.0-0.5","line_cat_multi_stim_2","20211206","190","2248","","","","","","","","","[189.4907]","[189.4907]","[4.789995210780694,null,null]","[""u"",""i""]","[""""]","null","true","in","i","NO","NA","0","in","189.4907","","","4.789995210780694","NaN","NaN","189.4907","learning","4.79","0.0444","in","","","","","","","","","","","","","","","","","","","","","","","","",""
"","learn_trial","categorize-lines-2","13","351236","0.0-4.0-0.6","line_cat_multi_stim_2","20211206","190","2192","","","","","","","","","[286.1789]","[286.1789]","[13.240001476464661,null,null]","[""u"",""i""]","[""""]","null","true","out","u","YES","NA","0","out","286.1789","","","13.240001476464661","NaN","NaN","286.1789","learning","13.24","0.1199","out","","","","","","","","","","","","","","","","","","","","","","","","",""
"","learn_trial","categorize-lines-2","14","355768","0.0-4.0-0.7","line_cat_multi_stim_2","20211206","190","2500","","","","","","","","","[228.0906]","[228.0906]","[8.590002339280797,null,null]","[""u"",""i""]","[""""]","null","true","in","u","YES","NA","1","in","228.0906","","","8.590002339280797","NaN","NaN","228.0906","learning","8.59","0.0444","in","","","","","","","","","","","","","","","","","","","","","","","","",""
"","learn_trial","categorize-lines-2","15","362936","0.0-4.0-0.8","line_cat_multi_stim_2","20211206","190","3128","","","","","","","","","[263.7858]","[263.7858]","[11.56999829145361,null,null]","[""u"",""i""]","[""""]","null","true","out","u","YES","NA","0","out","263.7858","","","11.56999829145361","NaN","NaN","263.7858","learning","11.57","0.1755","out","","","","","","","","","","","","","","","","","","","","","","","","",""
"","learn_trial","categorize-lines-2","16","367066","0.0-4.0-0.9","line_cat_multi_stim_2","20211206","190","2092","","","","","","","","","[217.0172]","[217.0172]","[7.569995413282384,null,null]","[""u"",""i""]","[""""]","null","true","in","u","YES","NA","1","in","217.0172","","","7.569995413282384","NaN","NaN","217.0172","learning","7.57","0.0444","in","","","","","","","","","","","","","","","","","","","","","","","","",""
"","learn_trial","categorize-lines-2","17","371460","0.0-4.0-0.10","line_cat_multi_stim_2","20211206","190","2352","","","","","","","","","[264.3011]","[264.3011]","[11.609997610899892,null,null]","[""u"",""i""]","[""""]","null","true","out","i","NO","NA","1","out","264.3011","","","11.609997610899892","NaN","NaN","264.3011","learning","11.61","0.1751","out","","","","","","","","","","","","","","","","","","","","","","","","",""
"","learn_trial","categorize-lines-2","18","376872","0.0-4.0-0.11","line_cat_multi_stim_2","20211206","190","3374","","","","","","","","","[169.8728]","[169.8728]","[2.5499940348652426,null,null]","[""u"",""i""]","[""""]","null","true","in","u","YES","NA","1","in","169.8728","","","2.5499940348652426","NaN","NaN","169.8728","learning","2.55","0.0444","in","","","","","","","","","","","","","","","","","","","","","","","","",""
"","learn_trial","categorize-lines-2","19","381346","0.0-4.0-0.12","line_cat_multi_stim_2","20211206","190","2436","","","","","","","","","[242.5526]","[242.5526]","[9.85000374886835,null,null]","[""u"",""i""]","[""""]","null","true","out","i","NO","NA","1","out","242.5526","","","9.85000374886835","NaN","NaN","242.5526","learning","9.85","0.1461","out","","","","","","","","","","","","","","","","","","","","","","","","",""
"","learn_trial","categorize-lines-2","20","386730","0.0-4.0-0.13","line_cat_multi_stim_2","20211206","190","3342","","","","","","","","","[351.2632]","[351.2632]","[17.440000877264232,null,null]","[""u"",""i""]","[""""]","null","true","in","u","YES","NA","1","in","351.2632","","","17.440000877264232","NaN","NaN","351.2632","learning","17.44","0.0444","in","","","","","","","","","","","","","","","","","","","","","","","","",""
"","learn_trial","categorize-lines-2","21","393016","0.0-4.0-0.14","line_cat_multi_stim_2","20211206","190","4250","","","","","","","","","[381.2683]","[381.2683]","[19.120001921572992,null,null]","[""u"",""i""]","[""""]","null","true","in","u","YES","NA","1","in","381.2683","","","19.120001921572992","NaN","NaN","381.2683","learning","19.12","0.0444","in","","","","","","","","","","","","","","","","","","","","","","","","",""
"","learn_trial","categorize-lines-2","22","399042","0.0-4.0-0.15","line_cat_multi_stim_2","20211206","190","3986","","","","","","","","","[237.7488]","[237.7488]","[9.440004309033577,null,null]","[""u"",""i""]","[""""]","null","true","out","i","NO","NA","1","out","237.7488","","","9.440004309033577","NaN","NaN","237.7488","learning","9.44","0.1283","out","","","","","","","","","","","","","","","","","","","","","","","","",""
"","learn_trial","categorize-lines-2","23","406920","0.0-4.0-0.16","line_cat_multi_stim_2","20211206","190","3844","","","","","","","","","[261.6069]","[261.6069]","[11.399996510653413,null,null]","[""u"",""i""]","[""""]","null","true","out","u","YES","NA","0","out","261.6069","","","11.399996510653413","NaN","NaN","261.6069","learning","11.4","0.1769","out","","","","","","","","","","","","","","","","","","","","","","","","",""
"","learn_trial","categorize-lines-2","24","414362","0.0-4.0-0.17","line_cat_multi_stim_2","20211206","190","3404","","","","","","","","","[433.4695]","[433.4695]","[21.750001463598235,null,null]","[""u"",""i""]","[""""]","null","true","in","i","NO","NA","0","in","433.4695","","","21.750001463598235","NaN","NaN","433.4695","learning","21.75","0.0444","in","","","","","","","","","","","","","","","","","","","","","","","","",""
"","learn_trial","categorize-lines-2","25","417594","0.0-4.0-0.18","line_cat_multi_stim_2","20211206","190","1194","","","","","","","","","[241.019]","[241.019]","[9.720001613731565,null,null]","[""u"",""i""]","[""""]","null","true","out","i","NO","NA","1","out","241.019","","","9.720001613731565","NaN","NaN","241.019","learning","9.72","0.1407","out","","","","","","","","","","","","","","","","","","","","","","","","",""
"","learn_trial","categorize-lines-2","26","420706","0.0-4.0-0.19","line_cat_multi_stim_2","20211206","190","1078","","","","","","","","","[160.7608]","[160.7608]","[1.4200044827487652,null,null]","[""u"",""i""]","[""""]","null","true","in","u","YES","NA","1","in","160.7608","","","1.4200044827487652","NaN","NaN","160.7608","learning","1.42","0.0444","in","","","","","","","","","","","","","","","","","","","","","","","","",""
"","learn_trial","categorize-lines-2","27","424328","0.0-4.0-0.20","line_cat_multi_stim_2","20211206","190","1586","","","","","","","","","[183.2177]","[183.2177]","[4.1000019697131656,null,null]","[""u"",""i""]","[""""]","null","true","in","u","YES","NA","1","in","183.2177","","","4.1000019697131656","NaN","NaN","183.2177","learning","4.1","0.0444","in","","","","","","","","","","","","","","","","","","","","","","","","",""
"","learn_trial","categorize-lines-2","28","427274","0.0-4.0-0.21","line_cat_multi_stim_2","20211206","190","906","","","","","","","","","[245.4095]","[245.4095]","[10.090003961210742,null,null]","[""u"",""i""]","[""""]","null","true","out","i","NO","NA","1","out","245.4095","","","10.090003961210742","NaN","NaN","245.4095","learning","10.09","0.1552","out","","","","","","","","","","","","","","","","","","","","","","","","",""
"","learn_trial","categorize-lines-2","29","429992","0.0-4.0-0.22","line_cat_multi_stim_2","20211206","190","676","","","","","","","","","[177.9319]","[177.9319]","[3.5000004945488787,null,null]","[""u"",""i""]","[""""]","null","true","in","u","YES","NA","1","in","177.9319","","","3.5000004945488787","NaN","NaN","177.9319","learning","3.5","0.0444","in","","","","","","","","","","","","","","","","","","","","","","","","",""
"","learn_trial","categorize-lines-2","30","434794","0.0-4.0-0.23","line_cat_multi_stim_2","20211206","190","762","","","","","","","","","[196.841]","[196.841]","[5.569995649391948,null,null]","[""u"",""i""]","[""""]","null","true","in","i","NO","NA","0","in","196.841","","","5.569995649391948","NaN","NaN","196.841","learning","5.57","0.0444","in","","","","","","","","","","","","","","","","","","","","","","","","",""
"","learn_trial","categorize-lines-2","31","437674","0.0-4.0-0.24","line_cat_multi_stim_2","20211206","190","842","","","","","","","","","[319.0728]","[319.0728]","[15.470003199762868,null,null]","[""u"",""i""]","[""""]","null","true","out","i","NO","NA","1","out","319.0728","","","15.470003199762868","NaN","NaN","319.0728","learning","15.47","0.0305","out","","","","","","","","","","","","","","","","","","","","","","","","",""
"","learn_trial","categorize-lines-2","32","440378","0.0-4.0-0.25","line_cat_multi_stim_2","20211206","190","664","","","","","","","","","[204.3767]","[204.3767]","[6.339998457256303,null,null]","[""u"",""i""]","[""""]","null","true","in","u","YES","NA","1","in","204.3767","","","6.339998457256303","NaN","NaN","204.3767","learning","6.34","0.0444","in","","","","","","","","","","","","","","","","","","","","","","","","",""
"","learn_trial","categorize-lines-2","33","442878","0.0-4.0-0.26","line_cat_multi_stim_2","20211206","190","466","","","","","","","","","[232.019]","[232.019]","[8.939998013815176,null,null]","[""u"",""i""]","[""""]","null","true","out","i","NO","NA","1","out","232.019","","","8.939998013815176","NaN","NaN","232.019","learning","8.94","0.1047","out","","","","","","","","","","","","","","","","","","","","","","","","",""
"","learn_trial","categorize-lines-2","34","446538","0.0-4.0-0.27","line_cat_multi_stim_2","20211206","190","1620","","","","","","","","","[270.9602]","[270.9602]","[12.119997187871704,null,null]","[""u"",""i""]","[""""]","null","true","out","i","NO","NA","1","out","270.9602","","","12.119997187871704","NaN","NaN","270.9602","learning","12.12","0.1645","out","","","","","","","","","","","","","","","","","","","","","","","","",""
"","learn_trial","categorize-lines-2","35","450168","0.0-4.0-0.28","line_cat_multi_stim_2","20211206","190","1590","","","","","","","","","[228.4247]","[228.4247]","[8.620002178834698,null,null]","[""u"",""i""]","[""""]","null","true","in","u","YES","NA","1","in","228.4247","","","8.620002178834698","NaN","NaN","228.4247","learning","8.62","0.0444","in","","","","","","","","","","","","","","","","","","","","","","","","",""
"","learn_trial","categorize-lines-2","36","453240","0.0-4.0-0.29","line_cat_multi_stim_2","20211206","190","1034","","","","","","","","","[207.8967]","[207.8967]","[6.689996502007272,null,null]","[""u"",""i""]","[""""]","null","true","out","i","NO","NA","1","out","207.8967","","","6.689996502007272","NaN","NaN","207.8967","learning","6.69","0.0227","out","","","","","","","","","","","","","","","","","","","","","","","","",""
"","learn_trial","categorize-lines-2","37","455834","0.0-4.0-0.30","line_cat_multi_stim_2","20211206","190","558","","","","","","","","","[281.4707]","[281.4707]","[12.899998873195443,null,null]","[""u"",""i""]","[""""]","null","true","out","i","NO","NA","1","out","281.4707","","","12.899998873195443","NaN","NaN","281.4707","learning","12.9","0.1355","out","","","","","","","","","","","","","","","","","","","","","","","","",""
"","learn_trial","categorize-lines-2","38","458570","0.0-4.0-0.31","line_cat_multi_stim_2","20211206","190","696","","","","","","","","","[367.7482]","[367.7482]","[18.379999043037607,null,null]","[""u"",""i""]","[""""]","null","true","in","u","YES","NA","1","in","367.7482","","","18.379999043037607","NaN","NaN","367.7482","learning","18.38","0.0444","in","","","","","","","","","","","","","","","","","","","","","","","","",""
"","learn_trial","categorize-lines-2","39","463152","0.0-4.0-0.32","line_cat_multi_stim_2","20211206","190","544","","","","","","","","","[370.2688]","[370.2688]","[18.520001923482997,null,null]","[""u"",""i""]","[""""]","null","true","in","i","NO","NA","0","in","370.2688","","","18.520001923482997","NaN","NaN","370.2688","learning","18.52","0.0444","in","","","","","","","","","","","","","","","","","","","","","","","","",""
"","learn_trial","categorize-lines-2","40","465802","0.0-4.0-0.33","line_cat_multi_stim_2","20211206","190","612","","","","","","","","","[258.8139]","[258.8139]","[11.179998792831885,null,null]","[""u"",""i""]","[""""]","null","true","out","i","NO","NA","1","out","258.8139","","","11.179998792831885","NaN","NaN","258.8139","learning","11.18","0.1772","out","","","","","","","","","","","","","","","","","","","","","","","","",""
"","learn_trial","categorize-lines-2","41","468570","0.0-4.0-0.34","line_cat_multi_stim_2","20211206","190","734","","","","","","","","","[189.1213]","[189.1213]","[4.750000701688976,null,null]","[""u"",""i""]","[""""]","null","true","in","u","YES","NA","1","in","189.1213","","","4.750000701688976","NaN","NaN","189.1213","learning","4.75","0.0444","in","","","","","","","","","","","","","","","","","","","","","","","","",""
"","learn_trial","categorize-lines-2","42","473172","0.0-4.0-0.35","line_cat_multi_stim_2","20211206","190","564","","","","","","","","","[278.0583]","[278.0583]","[12.649998628714304,null,null]","[""u"",""i""]","[""""]","null","true","out","u","YES","NA","0","out","278.0583","","","12.649998628714304","NaN","NaN","278.0583","learning","12.65","0.1461","out","","","","","","","","","","","","","","","","","","","","","","","","",""
"","learn_trial","categorize-lines-2","43","475818","0.0-4.0-0.36","line_cat_multi_stim_2","20211206","190","606","","","","","","","","","[241.7256]","[241.7256]","[9.780002026078613,null,null]","[""u"",""i""]","[""""]","null","true","out","i","NO","NA","1","out","241.7256","","","9.780002026078613","NaN","NaN","241.7256","learning","9.78","0.1432","out","","","","","","","","","","","","","","","","","","","","","","","","",""
"","learn_trial","categorize-lines-2","44","478542","0.0-4.0-0.37","line_cat_multi_stim_2","20211206","190","688","","","","","","","","","[215.6451]","[215.6451]","[7.4399976494366316,null,null]","[""u"",""i""]","[""""]","null","true","in","u","YES","NA","1","in","215.6451","","","7.4399976494366316","NaN","NaN","215.6451","learning","7.44","0.0444","in","","","","","","","","","","","","","","","","","","","","","","","","",""
"","learn_trial","categorize-lines-2","45","481200","0.0-4.0-0.38","line_cat_multi_stim_2","20211206","190","622","","","","","","","","","[266.3725]","[266.3725]","[11.770003663425562,null,null]","[""u"",""i""]","[""""]","null","true","out","i","NO","NA","1","out","266.3725","","","11.770003663425562","NaN","NaN","266.3725","learning","11.77","0.1726","out","","","","","","","","","","","","","","","","","","","","","","","","",""
"","learn_trial","categorize-lines-2","46","484594","0.0-4.0-0.39","line_cat_multi_stim_2","20211206","190","1352","","","","","","","","","[380.8964]","[380.8964]","[19.099999844393498,null,null]","[""u"",""i""]","[""""]","null","true","in","u","YES","NA","1","in","380.8964","","","19.099999844393498","NaN","NaN","380.8964","learning","19.1","0.0444","in","","","","","","","","","","","","","","","","","","","","","","","","",""
"","learn_trial","categorize-lines-2","47","489208","0.0-4.0-0.40","line_cat_multi_stim_2","20211206","190","582","","","","","","","","","[319.0728]","[319.0728]","[15.470003199762868,null,null]","[""u"",""i""]","[""""]","null","true","out","u","YES","NA","0","out","319.0728","","","15.470003199762868","NaN","NaN","319.0728","learning","15.47","0.0305","out","","","","","","","","","","","","","","","","","","","","","","","","",""
"","learn_trial","categorize-lines-2","48","493912","0.0-4.0-0.41","line_cat_multi_stim_2","20211206","190","656","","","","","","","","","[260.715]","[260.715]","[11.330000052216096,null,null]","[""u"",""i""]","[""""]","null","true","out","u","YES","NA","0","out","260.715","","","11.330000052216096","NaN","NaN","260.715","learning","11.33","0.1772","out","","","","","","","","","","","","","","","","","","","","","","","","",""
"","learn_trial","categorize-lines-2","49","496642","0.0-4.0-0.42","line_cat_multi_stim_2","20211206","190","688","","","","","","","","","[302.2523]","[302.2523]","[14.360000973379707,null,null]","[""u"",""i""]","[""""]","null","true","in","u","YES","NA","1","in","302.2523","","","14.360000973379707","NaN","NaN","302.2523","learning","14.36","0.0444","in","","","","","","","","","","","","","","","","","","","","","","","","",""
"","learn_trial","categorize-lines-2","50","501308","0.0-4.0-0.43","line_cat_multi_stim_2","20211206","190","632","","","","","","","","","[197.1294]","[197.1294]","[5.600003124634237,null,null]","[""u"",""i""]","[""""]","null","true","in","i","NO","NA","0","in","197.1294","","","5.600003124634237","NaN","NaN","197.1294","learning","5.6","0.0444","in","","","","","","","","","","","","","","","","","","","","","","","","",""
"","learn_trial","categorize-lines-2","51","503874","0.0-4.0-0.44","line_cat_multi_stim_2","20211206","190","526","","","","","","","","","[160.4473]","[160.4473]","[1.3799962921222333,null,null]","[""u"",""i""]","[""""]","null","true","in","u","YES","NA","1","in","160.4473","","","1.3799962921222333","NaN","NaN","160.4473","learning","1.38","0.0444","in","","","","","","","","","","","","","","","","","","","","","","","","",""
"","learn_trial","categorize-lines-2","52","509322","0.0-4.0-0.45","line_cat_multi_stim_2","20211206","190","3406","","","","","","","","","[259.5727]","[259.5727]","[11.24000160179845,null,null]","[""u"",""i""]","[""""]","null","true","out","i","NO","NA","1","out","259.5727","","","11.24000160179845","NaN","NaN","259.5727","learning","11.24","0.1773","out","","","","","","","","","","","","","","","","","","","","","","","","",""
"","learn_trial","categorize-lines-2","53","512444","0.0-4.0-0.46","line_cat_multi_stim_2","20211206","190","1092","","","","","","","","","[440.9352]","[440.9352]","[22.100000074483706,null,null]","[""u"",""i""]","[""""]","null","true","in","u","YES","NA","1","in","440.9352","","","22.100000074483706","NaN","NaN","440.9352","learning","22.1","0.0444","in","","","","","","","","","","","","","","","","","","","","","","","","",""
"","learn_trial","categorize-lines-2","54","515546","0.0-4.0-0.47","line_cat_multi_stim_2","20211206","190","1066","","","","","","","","","[235.0957]","[235.0957]","[9.209999163616454,null,null]","[""u"",""i""]","[""""]","null","true","out","i","NO","NA","1","out","235.0957","","","9.209999163616454","NaN","NaN","235.0957","learning","9.21","0.1176","out","","","","","","","","","","","","","","","","","","","","","","","","",""
"","learn_trial","categorize-lines-2","55","520042","0.0-4.0-0.48","line_cat_multi_stim_2","20211206","190","460","","","","","","","","","[260.5878]","[260.5878]","[11.319997869620812,null,null]","[""u"",""i""]","[""""]","null","true","out","u","YES","NA","0","out","260.5878","","","11.319997869620812","NaN","NaN","260.5878","learning","11.32","0.1772","out","","","","","","","","","","","","","","","","","","","","","","","","",""
"","learn_trial","categorize-lines-2","56","524610","0.0-4.0-0.49","line_cat_multi_stim_2","20211206","190","534","","","","","","","","","[280.511]","[280.511]","[12.82999671019844,null,null]","[""u"",""i""]","[""""]","null","true","out","u","YES","NA","0","out","280.511","","","12.82999671019844","NaN","NaN","280.511","learning","12.83","0.1386","out","","","","","","","","","","","","","","","","","","","","","","","","",""
"","learn_trial","categorize-lines-2","57","529028","0.0-4.0-0.50","line_cat_multi_stim_2","20211206","190","376","","","","","","","","","[299.0253]","[299.0253]","[14.139999379866756,null,null]","[""u"",""i""]","[""""]","null","true","out","u","YES","NA","0","out","299.0253","","","14.139999379866756","NaN","NaN","299.0253","learning","14.14","0.0777","out","","","","","","","","","","","","","","","","","","","","","","","","",""
"","learn_trial","categorize-lines-2","58","533576","0.0-4.0-0.51","line_cat_multi_stim_2","20211206","190","510","","","","","","","","","[269.773]","[269.773]","[12.029997859863691,null,null]","[""u"",""i""]","[""""]","null","true","out","u","YES","NA","0","out","269.773","","","12.029997859863691","NaN","NaN","269.773","learning","12.03","0.167","out","","","","","","","","","","","","","","","","","","","","","","","","",""
"","learn_trial","categorize-lines-2","59","538018","0.0-4.0-0.52","line_cat_multi_stim_2","20211206","190","410","","","","","","","","","[356.2686]","[356.2686]","[17.73000073633628,null,null]","[""u"",""i""]","[""""]","null","true","out","u","YES","NA","0","out","356.2686","","","17.73000073633628","NaN","NaN","356.2686","learning","17.73","0.0028","out","","","","","","","","","","","","","","","","","","","","","","","","",""
"","learn_trial","categorize-lines-2","60","540454","0.0-4.0-0.53","line_cat_multi_stim_2","20211206","190","402","","","","","","","","","[243.7389]","[243.7389]","[9.95000292676626,null,null]","[""u"",""i""]","[""""]","null","true","out","i","NO","NA","1","out","243.7389","","","9.95000292676626","NaN","NaN","243.7389","learning","9.95","0.1501","out","","","","","","","","","","","","","","","","","","","","","","","","",""
"","learn_trial","categorize-lines-2","61","544900","0.0-4.0-0.54","line_cat_multi_stim_2","20211206","190","412","","","","","","","","","[314.8971]","[314.8971]","[15.200002650537618,null,null]","[""u"",""i""]","[""""]","null","true","out","u","YES","NA","0","out","314.8971","","","15.200002650537618","NaN","NaN","314.8971","learning","15.2","0.038","out","","","","","","","","","","","","","","","","","","","","","","","","",""
"","learn_trial","categorize-lines-2","62","547762","0.0-4.0-0.55","line_cat_multi_stim_2","20211206","190","824","","","","","","","","","[186.3733]","[186.3733]","[4.450002602943424,null,null]","[""u"",""i""]","[""""]","null","true","in","u","YES","NA","1","in","186.3733","","","4.450002602943424","NaN","NaN","186.3733","learning","4.45","0.0444","in","","","","","","","","","","","","","","","","","","","","","","","","",""
"","learn_trial","categorize-lines-2","63","550248","0.0-4.0-0.56","line_cat_multi_stim_2","20211206","190","448","","","","","","","","","[215.1197]","[215.1197]","[7.390000206615534,null,null]","[""u"",""i""]","[""""]","null","true","out","i","NO","NA","1","out","215.1197","","","7.390000206615534","NaN","NaN","215.1197","learning","7.39","0.0407","out","","","","","","","","","","","","","","","","","","","","","","","","",""
"","learn_trial","categorize-lines-2","64","554882","0.0-4.0-0.57","line_cat_multi_stim_2","20211206","190","592","","","","","","","","","[349.0423]","[349.0423]","[17.310001689421547,null,null]","[""u"",""i""]","[""""]","null","true","out","u","YES","NA","0","out","349.0423","","","17.310001689421547","NaN","NaN","349.0423","learning","17.31","0.0047","out","","","","","","","","","","","","","","","","","","","","","","","","",""
"","learn_trial","categorize-lines-2","65","559270","0.0-4.0-0.58","line_cat_multi_stim_2","20211206","190","354","","","","","","","","","[273.0837]","[273.0837]","[12.279996546527665,null,null]","[""u"",""i""]","[""""]","null","true","in","i","NO","NA","0","in","273.0837","","","12.279996546527665","NaN","NaN","273.0837","learning","12.28","0.0444","in","","","","","","","","","","","","","","","","","","","","","","","","",""
"","learn_trial","categorize-lines-2","66","561834","0.0-4.0-0.59","line_cat_multi_stim_2","20211206","190","522","","","","","","","","","[211.3742]","[211.3742]","[7.029997422871212,null,null]","[""u"",""i""]","[""""]","null","true","out","i","NO","NA","1","out","211.3742","","","7.029997422871212","NaN","NaN","211.3742","learning","7.03","0.0305","out","","","","","","","","","","","","","","","","","","","","","","","","",""
"","learn_trial","categorize-lines-2","67","566394","0.0-4.0-0.60","line_cat_multi_stim_2","20211206","190","524","","","","","","","","","[306.8586]","[306.8586]","[14.670001080211483,null,null]","[""u"",""i""]","[""""]","null","true","out","u","YES","NA","0","out","306.8586","","","14.670001080211483","NaN","NaN","306.8586","learning","14.67","0.0559","out","","","","","","","","","","","","","","","","","","","","","","","","",""
"","learn_trial","categorize-lines-2","68","570802","0.0-4.0-0.61","line_cat_multi_stim_2","20211206","190","372","","","","","","","","","[275.2239]","[275.2239]","[12.4400002429699,null,null]","[""u"",""i""]","[""""]","null","true","out","u","YES","NA","0","out","275.2239","","","12.4400002429699","NaN","NaN","275.2239","learning","12.44","0.1542","out","","","","","","","","","","","","","","","","","","","","","","","","",""
"","learn_trial","categorize-lines-2","69","573334","0.0-4.0-0.62","line_cat_multi_stim_2","20211206","190","496","","","","","","","","","[276.705]","[276.705]","[12.550002097124002,null,null]","[""u"",""i""]","[""""]","null","true","out","i","NO","NA","1","out","276.705","","","12.550002097124002","NaN","NaN","276.705","learning","12.55","0.1501","out","","","","","","","","","","","","","","","","","","","","","","","","",""
"","learn_trial","categorize-lines-2","70","577866","0.0-4.0-0.63","line_cat_multi_stim_2","20211206","190","492","","","","","","","","","[271.8872]","[271.8872]","[12.18999752158543,null,null]","[""u"",""i""]","[""""]","null","true","out","u","YES","NA","0","out","271.8872","","","12.18999752158543","NaN","NaN","271.8872","learning","12.19","0.1625","out","","","","","","","","","","","","","","","","","","","","","","","","",""
"","learn_trial","categorize-lines-2","71","582144","0.0-4.0-0.64","line_cat_multi_stim_2","20211206","190","236","","","","","","","","","[414.4426]","[414.4426]","[20.83000145816416,null,null]","[""u"",""i""]","[""""]","null","true","in","i","NO","NA","0","in","414.4426","","","20.83000145816416","NaN","NaN","414.4426","learning","20.83","0.0444","in","","","","","","","","","","","","","","","","","","","","","","","","",""
"","learn_trial","categorize-lines-2","72","586482","0.0-4.0-0.65","line_cat_multi_stim_2","20211206","190","300","","","","","","","","","[188.2927]","[188.2927]","[4.6600042603315535,null,null]","[""u"",""i""]","[""""]","null","true","in","i","NO","NA","0","in","188.2927","","","4.6600042603315535","NaN","NaN","188.2927","learning","4.66","0.0444","in","","","","","","","","","","","","","","","","","","","","","","","","",""
"","learn_trial","categorize-lines-2","73","588924","0.0-4.0-0.66","line_cat_multi_stim_2","20211206","190","408","","","","","","","","","[383.8815]","[383.8815]","[19.26000113164941,null,null]","[""u"",""i""]","[""""]","null","true","in","u","YES","NA","1","in","383.8815","","","19.26000113164941","NaN","NaN","383.8815","learning","19.26","0.0444","in","","","","","","","","","","","","","","","","","","","","","","","","",""
"","learn_trial","categorize-lines-2","74","593416","0.0-4.0-0.67","line_cat_multi_stim_2","20211206","190","456","","","","","","","","","[315.3583]","[315.3583]","[15.229999145904438,null,null]","[""u"",""i""]","[""""]","null","true","in","i","NO","NA","0","in","315.3583","","","15.229999145904438","NaN","NaN","315.3583","learning","15.23","0.0444","in","","","","","","","","","","","","","","","","","","","","","","","","",""
"","learn_trial","categorize-lines-2","75","595570","0.0-4.0-0.68","line_cat_multi_stim_2","20211206","190","122","","","","","","","","","[268.0673]","[268.0673]","[11.899996324590045,null,null]","[""u"",""i""]","[""""]","null","true","in","u","YES","NA","1","in","268.0673","","","11.899996324590045","NaN","NaN","268.0673","learning","11.9","0.0444","in","","","","","","","","","","","","","","","","","","","","","","","","",""
"","learn_trial","categorize-lines-2","76","599914","0.0-4.0-0.69","line_cat_multi_stim_2","20211206","190","302","","","","","","","","","[310.6244]","[310.6244]","[14.919998396301942,null,null]","[""u"",""i""]","[""""]","null","true","out","u","YES","NA","0","out","310.6244","","","14.919998396301942","NaN","NaN","310.6244","learning","14.92","0.0469","out","","","","","","","","","","","","","","","","","","","","","","","","",""
"","learn_trial","categorize-lines-2","77","604242","0.0-4.0-0.70","line_cat_multi_stim_2","20211206","190","290","","","","","","","","","[335.8447]","[335.8447]","[16.520000913268767,null,null]","[""u"",""i""]","[""""]","null","true","in","i","NO","NA","0","in","335.8447","","","16.520000913268767","NaN","NaN","335.8447","learning","16.52","0.0444","in","","","","","","","","","","","","","","","","","","","","","","","","",""
"","learn_trial","categorize-lines-2","78","608554","0.0-4.0-0.71","line_cat_multi_stim_2","20211206","190","268","","","","","","","","","[255.1777]","[255.1777]","[10.889999657841992,null,null]","[""u"",""i""]","[""""]","null","true","out","u","YES","NA","0","out","255.1777","","","10.889999657841992","NaN","NaN","255.1777","learning","10.89","0.1751","out","","","","","","","","","","","","","","","","","","","","","","","","",""
"","learn_trial","categorize-lines-2","79","610924","0.0-4.0-0.72","line_cat_multi_stim_2","20211206","190","316","","","","","","","","","[242.6709]","[242.6709]","[9.859997778742917,null,null]","[""u"",""i""]","[""""]","null","true","out","i","NO","NA","1","out","242.6709","","","9.859997778742917","NaN","NaN","242.6709","learning","9.86","0.1465","out","","","","","","","","","","","","","","","","","","","","","","","","",""
"","learn_trial","categorize-lines-2","80","616148","0.0-4.0-0.73","line_cat_multi_stim_2","20211206","190","1178","","","","","","","","","[288.4217]","[288.4217]","[13.400003101690814,null,null]","[""u"",""i""]","[""""]","null","true","out","u","YES","NA","0","out","288.4217","","","13.400003101690814","NaN","NaN","288.4217","learning","13.4","0.1123","out","","","","","","","","","","","","","","","","","","","","","","","","",""
"","learn_trial","categorize-lines-2","81","618672","0.0-4.0-0.74","line_cat_multi_stim_2","20211206","190","490","","","","","","","","","[214.9099]","[214.9099]","[7.370001362999636,null,null]","[""u"",""i""]","[""""]","null","true","in","u","YES","NA","1","in","214.9099","","","7.370001362999636","NaN","NaN","214.9099","learning","7.37","0.0444","in","","","","","","","","","","","","","","","","","","","","","","","","",""
"","learn_trial","categorize-lines-2","82","623026","0.0-4.0-0.75","line_cat_multi_stim_2","20211206","190","318","","","","","","","","","[234.4085]","[234.4085]","[9.15000048365187,null,null]","[""u"",""i""]","[""""]","null","true","in","i","NO","NA","0","in","234.4085","","","9.15000048365187","NaN","NaN","234.4085","learning","9.15","0.0444","in","","","","","","","","","","","","","","","","","","","","","","","","",""
"","learn_trial","categorize-lines-2","83","625394","0.0-4.0-0.76","line_cat_multi_stim_2","20211206","190","328","","","","","","","","","[317.2101]","[317.2101]","[15.350000333396045,null,null]","[""u"",""i""]","[""""]","null","true","out","i","NO","NA","1","out","317.2101","","","15.350000333396045","NaN","NaN","317.2101","learning","15.35","0.0337","out","","","","","","","","","","","","","","","","","","","","","","","","",""
"","learn_trial","categorize-lines-2","84","627784","0.0-4.0-0.77","line_cat_multi_stim_2","20211206","190","354","","","","","","","","","[257.4286]","[257.4286]","[11.069999767348328,null,null]","[""u"",""i""]","[""""]","null","true","in","u","YES","NA","1","in","257.4286","","","11.069999767348328","NaN","NaN","257.4286","learning","11.07","0.0444","in","","","","","","","","","","","","","","","","","","","","","","","","",""
"","learn_trial","categorize-lines-2","85","630104","0.0-4.0-0.78","line_cat_multi_stim_2","20211206","190","280","","","","","","","","","[176.8932]","[176.8932]","[3.3800022881964513,null,null]","[""u"",""i""]","[""""]","null","true","in","u","YES","NA","1","in","176.8932","","","3.3800022881964513","NaN","NaN","176.8932","learning","3.38","0.0444","in","","","","","","","","","","","","","","","","","","","","","","","","",""
"","learn_trial","categorize-lines-2","86","632458","0.0-4.0-0.79","line_cat_multi_stim_2","20211206","190","308","","","","","","","","","[237.6328]","[237.6328]","[9.430001698803624,null,null]","[""u"",""i""]","[""""]","null","true","out","i","NO","NA","1","out","237.6328","","","9.430001698803624","NaN","NaN","237.6328","learning","9.43","0.1278","out","","","","","","","","","","","","","","","","","","","","","","","","",""
"","learn_trial","categorize-lines-2","87","634754","0.0-4.0-0.80","line_cat_multi_stim_2","20211206","190","256","","","","","","","","","[220.3246]","[220.3246]","[7.880002577012562,null,null]","[""u"",""i""]","[""""]","null","true","out","i","NO","NA","1","out","220.3246","","","7.880002577012562","NaN","NaN","220.3246","learning","7.88","0.0578","out","","","","","","","","","","","","","","","","","","","","","","","","",""
"","learn_trial","categorize-lines-2","88","637036","0.0-4.0-0.81","line_cat_multi_stim_2","20211206","190","244","","","","","","","","","[338.8071]","[338.8071]","[16.69999760502873,null,null]","[""u"",""i""]","[""""]","null","true","in","u","YES","NA","1","in","338.8071","","","16.69999760502873","NaN","NaN","338.8071","learning","16.7","0.0444","in","","","","","","","","","","","","","","","","","","","","","","","","",""
"","learn_trial","categorize-lines-2","89","641370","0.0-4.0-0.82","line_cat_multi_stim_2","20211206","190","292","","","","","","","","","[290.1153]","[290.1153]","[13.520002387858053,null,null]","[""u"",""i""]","[""""]","null","true","out","u","YES","NA","0","out","290.1153","","","13.520002387858053","NaN","NaN","290.1153","learning","13.52","0.1066","out","","","","","","","","","","","","","","","","","","","","","","","","",""
"","learn_trial","categorize-lines-2","90","645482","0.0-4.0-0.83","line_cat_multi_stim_2","20211206","190","70","","","","","","","","","[211.2711]","[211.2711]","[7.01999787540331,null,null]","[""u"",""i""]","[""""]","null","true","in","i","NO","NA","0","in","211.2711","","","7.01999787540331","NaN","NaN","211.2711","learning","7.02","0.0444","in","","","","","","","","","","","","","","","","","","","","","","","","",""
"","learn_trial","categorize-lines-2","91","647750","0.0-4.0-0.84","line_cat_multi_stim_2","20211206","190","232","","","","","","","","","[243.0264]","[243.0264]","[9.890001264246749,null,null]","[""u"",""i""]","[""""]","null","true","in","u","YES","NA","1","in","243.0264","","","9.890001264246749","NaN","NaN","243.0264","learning","9.89","0.0444","in","","","","","","","","","","","","","","","","","","","","","","","","",""
"","learn_trial","categorize-lines-2","92","652196","0.0-4.0-0.85","line_cat_multi_stim_2","20211206","190","410","","","","","","","","","[395.4783]","[395.4783]","[19.87000127695692,null,null]","[""u"",""i""]","[""""]","null","true","in","i","NO","NA","0","in","395.4783","","","19.87000127695692","NaN","NaN","395.4783","learning","19.87","0.0444","in","","","","","","","","","","","","","","","","","","","","","","","","",""
"","learn_trial","categorize-lines-2","93","654368","0.0-4.0-0.86","line_cat_multi_stim_2","20211206","190","138","","","","","","","","","[304.621]","[304.621]","[14.519998014438004,null,null]","[""u"",""i""]","[""""]","null","true","in","u","YES","NA","1","in","304.621","","","14.519998014438004","NaN","NaN","304.621","learning","14.52","0.0444","in","","","","","","","","","","","","","","","","","","","","","","","","",""
"","learn_trial","categorize-lines-2","94","658690","0.0-4.0-0.87","line_cat_multi_stim_2","20211206","190","282","","","","","","","","","[316.5916]","[316.5916]","[15.309998107471449,null,null]","[""u"",""i""]","[""""]","null","true","in","i","NO","NA","0","in","316.5916","","","15.309998107471449","NaN","NaN","316.5916","learning","15.31","0.0444","in","","","","","","","","","","","","","","","","","","","","","","","","",""
"","learn_trial","categorize-lines-2","95","660840","0.0-4.0-0.88","line_cat_multi_stim_2","20211206","190","110","","","","","","","","","[219.6805]","[219.6805]","[7.819996723801341,null,null]","[""u"",""i""]","[""""]","null","true","out","i","NO","NA","1","out","219.6805","","","7.819996723801341","NaN","NaN","219.6805","learning","7.82","0.0555","out","","","","","","","","","","","","","","","","","","","","","","","","",""
"","learn_trial","categorize-lines-2","96","665210","0.0-4.0-0.89","line_cat_multi_stim_2","20211206","190","336","","","","","","","","","[219.1453]","[219.1453]","[7.770002263658368,null,null]","[""u"",""i""]","[""""]","null","true","out","u","YES","NA","0","out","219.1453","","","7.770002263658368","NaN","NaN","219.1453","learning","7.77","0.0536","out","","","","","","","","","","","","","","","","","","","","","","","","",""
"","learn_trial","categorize-lines-2","97","667568","0.0-4.0-0.90","line_cat_multi_stim_2","20211206","190","320","","","","","","","","","[325.361]","[325.361]","[15.870002780225683,null,null]","[""u"",""i""]","[""""]","null","true","in","u","YES","NA","1","in","325.361","","","15.870002780225683","NaN","NaN","325.361","learning","15.87","0.0444","in","","","","","","","","","","","","","","","","","","","","","","","","",""
"","learn_trial","categorize-lines-2","98","671922","0.0-4.0-0.91","line_cat_multi_stim_2","20211206","190","308","","","","","","","","","[233.8373]","[233.8373]","[9.099995620874756,null,null]","[""u"",""i""]","[""""]","null","true","out","u","YES","NA","0","out","233.8373","","","9.099995620874756","NaN","NaN","233.8373","learning","9.1","0.1123","out","","","","","","","","","","","","","","","","","","","","","","","","",""
"","learn_trial","categorize-lines-2","99","676360","0.0-4.0-0.92","line_cat_multi_stim_2","20211206","190","392","","","","","","","","","[223.0284]","[223.0284]","[8.129995671619499,null,null]","[""u"",""i""]","[""""]","null","true","out","u","YES","NA","0","out","223.0284","","","8.129995671619499","NaN","NaN","223.0284","learning","8.13","0.0678","out","","","","","","","","","","","","","","","","","","","","","","","","",""
"","learn_trial","categorize-lines-2","100","678998","0.0-4.0-0.93","line_cat_multi_stim_2","20211206","190","604","","","","","","","","","[255.801]","[255.801]","[10.940002220353307,null,null]","[""u"",""i""]","[""""]","null","true","in","u","YES","NA","1","in","255.801","","","10.940002220353307","NaN","NaN","255.801","learning","10.94","0.0444","in","","","","","","","","","","","","","","","","","","","","","","","","",""
"","learn_trial","categorize-lines-2","101","681390","0.0-4.0-0.94","line_cat_multi_stim_2","20211206","190","358","","","","","","","","","[251.4699]","[251.4699]","[10.590003439591888,null,null]","[""u"",""i""]","[""""]","null","true","out","i","NO","NA","1","out","251.4699","","","10.590003439591888","NaN","NaN","251.4699","learning","10.59","0.1698","out","","","","","","","","","","","","","","","","","","","","","","","","",""
"","learn_trial","categorize-lines-2","102","685718","0.0-4.0-0.95","line_cat_multi_stim_2","20211206","190","292","","","","","","","","","[235.555]","[235.555]","[9.25000244256176,null,null]","[""u"",""i""]","[""""]","null","true","out","u","YES","NA","0","out","235.555","","","9.25000244256176","NaN","NaN","235.555","learning","9.25","0.1194","out","","","","","","","","","","","","","","","","","","","","","","","","",""
"","learn_trial","categorize-lines-2","103","690170","0.0-4.0-0.96","line_cat_multi_stim_2","20211206","190","418","","","","","","","","","[278.7375]","[278.7375]","[12.700002042860085,null,null]","[""u"",""i""]","[""""]","null","true","out","u","YES","NA","0","out","278.7375","","","12.700002042860085","NaN","NaN","278.7375","learning","12.7","0.1441","out","","","","","","","","","","","","","","","","","","","","","","","","",""
"","learn_trial","categorize-lines-2","104","692480","0.0-4.0-0.97","line_cat_multi_stim_2","20211206","190","268","","","","","","","","","[158.6569]","[158.6569]","[1.1500005360874677,null,null]","[""u"",""i""]","[""""]","null","true","in","u","YES","NA","1","in","158.6569","","","1.1500005360874677","NaN","NaN","158.6569","learning","1.15","0.0444","in","","","","","","","","","","","","","","","","","","","","","","","","",""
"","learn_trial","categorize-lines-2","105","694818","0.0-4.0-0.98","line_cat_multi_stim_2","20211206","190","298","","","","","","","","","[235.3252]","[235.3252]","[9.229997498292109,null,null]","[""u"",""i""]","[""""]","null","true","in","u","YES","NA","1","in","235.3252","","","9.229997498292109","NaN","NaN","235.3252","learning","9.23","0.0444","in","","","","","","","","","","","","","","","","","","","","","","","","",""
"","learn_trial","categorize-lines-2","106","697200","0.0-4.0-0.99","line_cat_multi_stim_2","20211206","190","342","","","","","","","","","[249.3927]","[249.3927]","[10.419999135629464,null,null]","[""u"",""i""]","[""""]","null","true","in","u","YES","NA","1","in","249.3927","","","10.419999135629464","NaN","NaN","249.3927","learning","10.42","0.0444","in","","","","","","","","","","","","","","","","","","","","","","","","",""
"","learn_trial","categorize-lines-2","107","701482","0.0-4.0-0.100","line_cat_multi_stim_2","20211206","190","244","","","","","","","","","[204.8759]","[204.8759]","[6.389999730231122,null,null]","[""u"",""i""]","[""""]","null","true","in","i","NO","NA","0","in","204.8759","","","6.389999730231122","NaN","NaN","204.8759","learning","6.39","0.0444","in","","","","","","","","","","","","","","","","","","","","","","","","",""
"","learn_trial","categorize-lines-2","108","705958","0.0-4.0-0.101","line_cat_multi_stim_2","20211206","190","438","","","","","","","","","[157.3464]","[157.3464]","[0.9800018309852999,null,null]","[""u"",""i""]","[""""]","null","true","in","i","NO","NA","0","in","157.3464","","","0.9800018309852999","NaN","NaN","157.3464","learning","0.98","0.0444","in","","","","","","","","","","","","","","","","","","","","","","","","",""
"","learn_trial","categorize-lines-2","109","708294","0.0-4.0-0.102","line_cat_multi_stim_2","20211206","190","300","","","","","","","","","[240.0801]","[240.0801]","[9.640002889317357,null,null]","[""u"",""i""]","[""""]","null","true","out","i","NO","NA","1","out","240.0801","","","9.640002889317357","NaN","NaN","240.0801","learning","9.64","0.1373","out","","","","","","","","","","","","","","","","","","","","","","","","",""
"","learn_trial","categorize-lines-2","110","710672","0.0-4.0-0.103","line_cat_multi_stim_2","20211206","190","340","","","","","","","","","[236.9381]","[236.9381]","[9.369995761909873,null,null]","[""u"",""i""]","[""""]","null","true","out","i","NO","NA","1","out","236.9381","","","9.369995761909873","NaN","NaN","236.9381","learning","9.37","0.1251","out","","","","","","","","","","","","","","","","","","","","","","","","",""
"","learn_trial","categorize-lines-2","111","713010","0.0-4.0-0.104","line_cat_multi_stim_2","20211206","190","296","","","","","","","","","[262.5019]","[262.5019]","[11.469996781750533,null,null]","[""u"",""i""]","[""""]","null","true","out","i","NO","NA","1","out","262.5019","","","11.469996781750533","NaN","NaN","262.5019","learning","11.47","0.1765","out","","","","","","","","","","","","","","","","","","","","","","","","",""
"","learn_trial","categorize-lines-2","112","717338","0.0-4.0-0.105","line_cat_multi_stim_2","20211206","190","290","","","","","","","","","[378.8576]","[378.8576]","[18.989997893272964,null,null]","[""u"",""i""]","[""""]","null","true","in","i","NO","NA","0","in","378.8576","","","18.989997893272964","NaN","NaN","378.8576","learning","18.99","0.0444","in","","","","","","","","","","","","","","","","","","","","","","","","",""
"","learn_trial","categorize-lines-2","113","719998","0.0-4.0-0.106","line_cat_multi_stim_2","20211206","190","624","","","","","","","","","[172.2094]","[172.2094]","[2.829994250824066,null,null]","[""u"",""i""]","[""""]","null","true","in","u","YES","NA","1","in","172.2094","","","2.829994250824066","NaN","NaN","172.2094","learning","2.83","0.0444","in","","","","","","","","","","","","","","","","","","","","","","","","",""
"","learn_trial","categorize-lines-2","114","722642","0.0-4.0-0.107","line_cat_multi_stim_2","20211206","190","600","","","","","","","","","[318.7615]","[318.7615]","[15.449996797289248,null,null]","[""u"",""i""]","[""""]","null","true","in","u","YES","NA","1","in","318.7615","","","15.449996797289248","NaN","NaN","318.7615","learning","15.45","0.0444","in","","","","","","","","","","","","","","","","","","","","","","","","",""
"","learn_trial","categorize-lines-2","115","725040","0.0-4.0-0.108","line_cat_multi_stim_2","20211206","190","354","","","","","","","","","[259.5727]","[259.5727]","[11.24000160179845,null,null]","[""u"",""i""]","[""""]","null","true","out","i","NO","NA","1","out","259.5727","","","11.24000160179845","NaN","NaN","259.5727","learning","11.24","0.1773","out","","","","","","","","","","","","","","","","","","","","","","","","",""
"","learn_trial","categorize-lines-2","116","727434","0.0-4.0-0.109","line_cat_multi_stim_2","20211206","190","354","","","","","","","","","[261.8623]","[261.8623]","[11.419996396183375,null,null]","[""u"",""i""]","[""""]","null","true","out","i","NO","NA","1","out","261.8623","","","11.419996396183375","NaN","NaN","261.8623","learning","11.42","0.1768","out","","","","","","","","","","","","","","","","","","","","","","","","",""
"","learn_trial","categorize-lines-2","117","729850","0.0-4.0-0.110","line_cat_multi_stim_2","20211206","190","376","","","","","","","","","[244.931]","[244.931]","[10.050001931264145,null,null]","[""u"",""i""]","[""""]","null","true","in","u","YES","NA","1","in","244.931","","","10.050001931264145","NaN","NaN","244.931","learning","10.05","0.0444","in","","","","","","","","","","","","","","","","","","","","","","","","",""
"","learn_trial","categorize-lines-2","118","732202","0.0-4.0-0.111","line_cat_multi_stim_2","20211206","190","312","","","","","","","","","[242.9078]","[242.9078]","[9.87999654402767,null,null]","[""u"",""i""]","[""""]","null","true","out","i","NO","NA","1","out","242.9078","","","9.87999654402767","NaN","NaN","242.9078","learning","9.88","0.1473","out","","","","","","","","","","","","","","","","","","","","","","","","",""
"","learn_trial","categorize-lines-2","119","734498","0.0-4.0-0.112","line_cat_multi_stim_2","20211206","190","252","","","","","","","","","[282.5715]","[282.5715]","[12.979999813331535,null,null]","[""u"",""i""]","[""""]","null","true","in","u","YES","NA","1","in","282.5715","","","12.979999813331535","NaN","NaN","282.5715","learning","12.98","0.0444","in","","","","","","","","","","","","","","","","","","","","","","","","",""
"","learn_trial","categorize-lines-2","120","738830","0.0-4.0-0.113","line_cat_multi_stim_2","20211206","190","292","","","","","","","","","[226.0962]","[226.0962]","[8.409999952015355,null,null]","[""u"",""i""]","[""""]","null","true","out","u","YES","NA","0","out","226.0962","","","8.409999952015355","NaN","NaN","226.0962","learning","8.41","0.0799","out","","","","","","","","","","","","","","","","","","","","","","","","",""
"","learn_trial","categorize-lines-2","121","743328","0.0-4.0-0.114","line_cat_multi_stim_2","20211206","190","464","","","","","","","","","[293.6756]","[293.6756]","[13.769997992901917,null,null]","[""u"",""i""]","[""""]","null","true","out","u","YES","NA","0","out","293.6756","","","13.769997992901917","NaN","NaN","293.6756","learning","13.77","0.0947","out","","","","","","","","","","","","","","","","","","","","","","","","",""
"","learn_trial","categorize-lines-2","122","745722","0.0-4.0-0.115","line_cat_multi_stim_2","20211206","190","356","","","","","","","","","[259.6994]","[259.6994]","[11.250003429083813,null,null]","[""u"",""i""]","[""""]","null","true","out","i","NO","NA","1","out","259.6994","","","11.250003429083813","NaN","NaN","259.6994","learning","11.25","0.1773","out","","","","","","","","","","","","","","","","","","","","","","","","",""
"","learn_trial","categorize-lines-2","123","750216","0.0-4.0-0.116","line_cat_multi_stim_2","20211206","190","456","","","","","","","","","[271.7546]","[271.7546]","[12.179999169935613,null,null]","[""u"",""i""]","[""""]","null","true","out","u","YES","NA","0","out","271.7546","","","12.179999169935613","NaN","NaN","271.7546","learning","12.18","0.1628","out","","","","","","","","","","","","","","","","","","","","","","","","",""
"","learn_trial","categorize-lines-2","124","752534","0.0-4.0-0.117","line_cat_multi_stim_2","20211206","190","284","","","","","","","","","[266.7626]","[266.7626]","[11.799997807134822,null,null]","[""u"",""i""]","[""""]","null","true","in","u","YES","NA","1","in","266.7626","","","11.799997807134822","NaN","NaN","266.7626","learning","11.8","0.0444","in","","","","","","","","","","","","","","","","","","","","","","","","",""
"","learn_trial","categorize-lines-2","125","756648","0.0-4.0-0.118","line_cat_multi_stim_2","20211206","190","2074","","","","","","","","","[190.3246]","[190.3246]","[4.879994676771028,null,null]","[""u"",""i""]","[""""]","null","true","out","i","NO","NA","1","out","190.3246","","","4.879994676771028","NaN","NaN","190.3246","learning","4.88","0.0032","out","","","","","","","","","","","","","","","","","","","","","","","","",""
"","learn_trial","categorize-lines-2","126","761314","0.0-4.0-0.119","line_cat_multi_stim_2","20211206","190","624","","","","","","","","","[244.5727]","[244.5727]","[10.01999727725916,null,null]","[""u"",""i""]","[""""]","null","true","out","u","YES","NA","0","out","244.5727","","","10.01999727725916","NaN","NaN","244.5727","learning","10.02","0.1527","out","","","","","","","","","","","","","","","","","","","","","","","","",""
"","learn_trial","categorize-lines-2","127","765746","0.0-4.0-0.120","line_cat_multi_stim_2","20211206","190","392","","","","","","","","","[282.1582]","[282.1582]","[12.949999722440344,null,null]","[""u"",""i""]","[""""]","null","true","out","u","YES","NA","0","out","282.1582","","","12.949999722440344","NaN","NaN","282.1582","learning","12.95","0.1333","out","","","","","","","","","","","","","","","","","","","","","","","","",""
"","learn_trial","categorize-lines-2","128","770146","0.0-4.0-0.121","line_cat_multi_stim_2","20211206","190","358","","","","","","","","","[431.9916]","[431.9916]","[21.680001851214875,null,null]","[""u"",""i""]","[""""]","null","true","in","i","NO","NA","0","in","431.9916","","","21.680001851214875","NaN","NaN","431.9916","learning","21.68","0.0444","in","","","","","","","","","","","","","","","","","","","","","","","","",""
"","learn_trial","categorize-lines-2","129","774462","0.0-4.0-0.122","line_cat_multi_stim_2","20211206","190","278","","","","","","","","","[153.0308]","[153.0308]","[0.40999891200779565,null,null]","[""u"",""i""]","[""""]","null","true","in","i","NO","NA","0","in","153.0308","","","0.40999891200779565","NaN","NaN","153.0308","learning","0.41","0.0444","in","","","","","","","","","","","","","","","","","","","","","","","","",""
"","learn_trial","categorize-lines-2","130","776882","0.0-4.0-0.123","line_cat_multi_stim_2","20211206","190","382","","","","","","","","","[274.8213]","[274.8213]","[12.40999665552471,null,null]","[""u"",""i""]","[""""]","null","true","in","u","YES","NA","1","in","274.8213","","","12.40999665552471","NaN","NaN","274.8213","learning","12.41","0.0444","in","","","","","","","","","","","","","","","","","","","","","","","","",""
"","learn_trial","categorize-lines-2","131","779234","0.0-4.0-0.124","line_cat_multi_stim_2","20211206","190","308","","","","","","","","","[248.5424]","[248.5424]","[10.349999210387681,null,null]","[""u"",""i""]","[""""]","null","true","out","i","NO","NA","1","out","248.5424","","","10.349999210387681","NaN","NaN","248.5424","learning","10.35","0.1637","out","","","","","","","","","","","","","","","","","","","","","","","","",""
"","learn_trial","categorize-lines-2","132","781856","0.0-4.0-0.125","line_cat_multi_stim_2","20211206","190","586","","","","","","","","","[286.0393]","[286.0393]","[13.23000098194338,null,null]","[""u"",""i""]","[""""]","null","true","out","i","NO","NA","1","out","286.0393","","","13.23000098194338","NaN","NaN","286.0393","learning","13.23","0.1204","out","","","","","","","","","","","","","","","","","","","","","","","","",""
"","learn_trial","categorize-lines-2","133","786248","0.0-4.0-0.126","line_cat_multi_stim_2","20211206","190","354","","","","","","","","","[249.5144]","[249.5144]","[10.42999841307219,null,null]","[""u"",""i""]","[""""]","null","true","out","u","YES","NA","0","out","249.5144","","","10.42999841307219","NaN","NaN","249.5144","learning","10.43","0.1659","out","","","","","","","","","","","","","","","","","","","","","","","","",""
"","learn_trial","categorize-lines-2","134","791042","0.0-4.0-0.127","line_cat_multi_stim_2","20211206","190","754","","","","","","","","","[316.4372]","[316.4372]","[15.299999913642417,null,null]","[""u"",""i""]","[""""]","null","true","out","u","YES","NA","0","out","316.4372","","","15.299999913642417","NaN","NaN","316.4372","learning","15.3","0.0351","out","","","","","","","","","","","","","","","","","","","","","","","","",""
"","learn_trial","categorize-lines-2","135","795400","0.0-4.0-0.128","line_cat_multi_stim_2","20211206","190","326","","","","","","","","","[238.6785]","[238.6785]","[9.519995922944162,null,null]","[""u"",""i""]","[""""]","null","true","in","i","NO","NA","0","in","238.6785","","","9.519995922944162","NaN","NaN","238.6785","learning","9.52","0.0444","in","","","","","","","","","","","","","","","","","","","","","","","","",""
"","learn_trial","categorize-lines-2","136","799786","0.0-4.0-0.129","line_cat_multi_stim_2","20211206","190","344","","","","","","","","","[216.1718]","[216.1718]","[7.489996683549617,null,null]","[""u"",""i""]","[""""]","null","true","out","u","YES","NA","0","out","216.1718","","","7.489996683549617","NaN","NaN","216.1718","learning","7.49","0.0439","out","","","","","","","","","","","","","","","","","","","","","","","","",""
"","learn_trial","categorize-lines-2","137","802164","0.0-4.0-0.130","line_cat_multi_stim_2","20211206","190","336","","","","","","","","","[441.7966]","[441.7966]","[22.140001360089144,null,null]","[""u"",""i""]","[""""]","null","true","in","u","YES","NA","1","in","441.7966","","","22.140001360089144","NaN","NaN","441.7966","learning","22.14","0.0444","in","","","","","","","","","","","","","","","","","","","","","","","","",""
"","learn_trial","categorize-lines-2","138","806802","0.0-4.0-0.131","line_cat_multi_stim_2","20211206","190","602","","","","","","","","","[229.318]","[229.318]","[8.699999266133698,null,null]","[""u"",""i""]","[""""]","null","true","out","u","YES","NA","0","out","229.318","","","8.699999266133698","NaN","NaN","229.318","learning","8.7","0.0933","out","","","","","","","","","","","","","","","","","","","","","","","","",""
"","learn_trial","categorize-lines-2","139","809260","0.0-4.0-0.132","line_cat_multi_stim_2","20211206","190","424","","","","","","","","","[352.1211]","[352.1211]","[17.489997645083264,null,null]","[""u"",""i""]","[""""]","null","true","in","u","YES","NA","1","in","352.1211","","","17.489997645083264","NaN","NaN","352.1211","learning","17.49","0.0444","in","","","","","","","","","","","","","","","","","","","","","","","","",""
"","learn_trial","categorize-lines-2","140","813858","0.0-4.0-0.133","line_cat_multi_stim_2","20211206","190","562","","","","","","","","","[287.8593]","[287.8593]","[13.359998600005731,null,null]","[""u"",""i""]","[""""]","null","true","out","u","YES","NA","0","out","287.8593","","","13.359998600005731","NaN","NaN","287.8593","learning","13.36","0.1142","out","","","","","","","","","","","","","","","","","","","","","","","","",""
"","learn_trial","categorize-lines-2","141","818364","0.0-4.0-0.134","line_cat_multi_stim_2","20211206","190","466","","","","","","","","","[258.5615]","[258.5615]","[11.1600010340234,null,null]","[""u"",""i""]","[""""]","null","true","out","u","YES","NA","0","out","258.5615","","","11.1600010340234","NaN","NaN","258.5615","learning","11.16","0.1772","out","","","","","","","","","","","","","","","","","","","","","","","","",""
"","learn_trial","categorize-lines-2","142","821216","0.0-4.0-0.135","line_cat_multi_stim_2","20211206","190","810","","","","","","","","","[414.0384]","[414.0384]","[20.81000230958466,null,null]","[""u"",""i""]","[""""]","null","true","in","u","YES","NA","1","in","414.0384","","","20.81000230958466","NaN","NaN","414.0384","learning","20.81","0.0444","in","","","","","","","","","","","","","","","","","","","","","","","","",""
"","learn_trial","categorize-lines-2","143","823562","0.0-4.0-0.136","line_cat_multi_stim_2","20211206","190","304","","","","","","","","","[319.0728]","[319.0728]","[15.470003199762868,null,null]","[""u"",""i""]","[""""]","null","true","out","i","NO","NA","1","out","319.0728","","","15.470003199762868","NaN","NaN","319.0728","learning","15.47","0.0305","out","","","","","","","","","","","","","","","","","","","","","","","","",""
"","learn_trial","categorize-lines-2","144","826354","0.0-4.0-0.137","line_cat_multi_stim_2","20211206","190","750","","","","","","","","","[150.8808]","[150.8808]","[0.12000014964979781,null,null]","[""u"",""i""]","[""""]","null","true","in","u","YES","NA","1","in","150.8808","","","0.12000014964979781","NaN","NaN","150.8808","learning","0.12","0.0444","in","","","","","","","","","","","","","","","","","","","","","","","","",""
"","learn_trial","categorize-lines-2","145","831430","0.0-4.0-0.138","line_cat_multi_stim_2","20211206","190","1038","","","","","","","","","[246.0089]","[246.0089]","[10.14000318435935,null,null]","[""u"",""i""]","[""""]","null","true","out","u","YES","NA","0","out","246.0089","","","10.14000318435935","NaN","NaN","246.0089","learning","10.14","0.157","out","","","","","","","","","","","","","","","","","","","","","","","","",""
"","learn_trial","categorize-lines-2","146","833982","0.0-4.0-0.139","line_cat_multi_stim_2","20211206","190","516","","","","","","","","","[244.5727]","[244.5727]","[10.01999727725916,null,null]","[""u"",""i""]","[""""]","null","true","out","i","NO","NA","1","out","244.5727","","","10.01999727725916","NaN","NaN","244.5727","learning","10.02","0.1527","out","","","","","","","","","","","","","","","","","","","","","","","","",""
"","learn_trial","categorize-lines-2","147","838848","0.0-4.0-0.140","line_cat_multi_stim_2","20211206","190","828","","","","","","","","","[300.928]","[300.928]","[14.270001981618636,null,null]","[""u"",""i""]","[""""]","null","true","in","i","NO","NA","0","in","300.928","","","14.270001981618636","NaN","NaN","300.928","learning","14.27","0.0444","in","","","","","","","","","","","","","","","","","","","","","","","","",""
"","learn_trial","categorize-lines-2","148","841214","0.0-4.0-0.141","line_cat_multi_stim_2","20211206","190","326","","","","","","","","","[228.7593]","[228.7593]","[8.650002969964806,null,null]","[""u"",""i""]","[""""]","null","true","out","i","NO","NA","1","out","228.7593","","","8.650002969964806","NaN","NaN","228.7593","learning","8.65","0.0909","out","","","","","","","","","","","","","","","","","","","","","","","","",""
"","learn_trial","categorize-lines-2","149","845880","0.0-4.0-0.142","line_cat_multi_stim_2","20211206","190","628","","","","","","","","","[256.4258]","[256.4258]","[10.990002986071206,null,null]","[""u"",""i""]","[""""]","null","true","in","i","NO","NA","0","in","256.4258","","","10.990002986071206","NaN","NaN","256.4258","learning","10.99","0.0444","in","","","","","","","","","","","","","","","","","","","","","","","","",""
"","learn_trial","categorize-lines-2","150","848250","0.0-4.0-0.143","line_cat_multi_stim_2","20211206","190","328","","","","","","","","","[155.8185]","[155.8185]","[0.7800050464240563,null,null]","[""u"",""i""]","[""""]","null","true","in","u","YES","NA","1","in","155.8185","","","0.7800050464240563","NaN","NaN","155.8185","learning","0.78","0.0444","in","","","","","","","","","","","","","","","","","","","","","","","","",""
"","learn_trial","categorize-lines-2","151","850786","0.0-4.0-0.144","line_cat_multi_stim_2","20211206","190","496","","","","","","","","","[199.354]","[199.354]","[5.83000384573321,null,null]","[""u"",""i""]","[""""]","null","true","in","u","YES","NA","1","in","199.354","","","5.83000384573321","NaN","NaN","199.354","learning","5.83","0.0444","in","","","","","","","","","","","","","","","","","","","","","","","","",""
"","learn_trial","categorize-lines-2","152","853642","0.0-4.0-0.145","line_cat_multi_stim_2","20211206","190","814","","","","","","","","","[425.0919]","[425.0919]","[21.350001675120883,null,null]","[""u"",""i""]","[""""]","null","true","in","u","YES","NA","1","in","425.0919","","","21.350001675120883","NaN","NaN","425.0919","learning","21.35","0.0444","in","","","","","","","","","","","","","","","","","","","","","","","","",""
"","learn_trial","categorize-lines-2","153","856176","0.0-4.0-0.146","line_cat_multi_stim_2","20211206","190","498","","","","","","","","","[328.3911]","[328.3911]","[16.059998882099954,null,null]","[""u"",""i""]","[""""]","null","true","in","u","YES","NA","1","in","328.3911","","","16.059998882099954","NaN","NaN","328.3911","learning","16.06","0.0444","in","","","","","","","","","","","","","","","","","","","","","","","","",""
"","learn_trial","categorize-lines-2","154","860682","0.0-4.0-0.147","line_cat_multi_stim_2","20211206","190","462","","","","","","","","","[223.4641]","[223.4641]","[8.16999670821145,null,null]","[""u"",""i""]","[""""]","null","true","in","i","NO","NA","0","in","223.4641","","","8.16999670821145","NaN","NaN","223.4641","learning","8.17","0.0444","in","","","","","","","","","","","","","","","","","","","","","","","","",""
"","learn_trial","categorize-lines-2","155","863048","0.0-4.0-0.148","line_cat_multi_stim_2","20211206","190","322","","","","","","","","","[254.3077]","[254.3077]","[10.820001655209756,null,null]","[""u"",""i""]","[""""]","null","true","out","i","NO","NA","1","out","254.3077","","","10.820001655209756","NaN","NaN","254.3077","learning","10.82","0.1741","out","","","","","","","","","","","","","","","","","","","","","","","","",""
"","learn_trial","categorize-lines-2","156","867442","0.0-4.0-0.149","line_cat_multi_stim_2","20211206","190","352","","","","","","","","","[271.0925]","[271.0925]","[12.130002164006402,null,null]","[""u"",""i""]","[""""]","null","true","out","u","YES","NA","0","out","271.0925","","","12.130002164006402","NaN","NaN","271.0925","learning","12.13","0.1643","out","","","","","","","","","","","","","","","","","","","","","","","","",""
"","learn_trial","categorize-lines-2","157","870118","0.0-4.0-0.150","line_cat_multi_stim_2","20211206","190","640","","","","","","","","","[261.0969]","[261.0969]","[11.36000089624506,null,null]","[""u"",""i""]","[""""]","null","true","in","u","YES","NA","1","in","261.0969","","","11.36000089624506","NaN","NaN","261.0969","learning","11.36","0.0444","in","","","","","","","","","","","","","","","","","","","","","","","","",""
"","learn_trial","categorize-lines-2","158","874888","0.0-4.0-0.151","line_cat_multi_stim_2","20211206","190","726","","","","","","","","","[226.3169]","[226.3169]","[8.429996955028699,null,null]","[""u"",""i""]","[""""]","null","true","in","i","NO","NA","0","in","226.3169","","","8.429996955028699","NaN","NaN","226.3169","learning","8.43","0.0444","in","","","","","","","","","","","","","","","","","","","","","","","","",""
"","learn_trial","categorize-lines-2","159","879410","0.0-4.0-0.152","line_cat_multi_stim_2","20211206","190","478","","","","","","","","","[274.6873]","[274.6873]","[12.400000614507137,null,null]","[""u"",""i""]","[""""]","null","true","in","i","NO","NA","0","in","274.6873","","","12.400000614507137","NaN","NaN","274.6873","learning","12.4","0.0444","in","","","","","","","","","","","","","","","","","","","","","","","","",""
"","learn_trial","categorize-lines-2","160","883772","0.0-4.0-0.153","line_cat_multi_stim_2","20211206","190","320","","","","","","","","","[251.8382]","[251.8382]","[10.619999594850716,null,null]","[""u"",""i""]","[""""]","null","true","out","u","YES","NA","0","out","251.8382","","","10.619999594850716","NaN","NaN","251.8382","learning","10.62","0.1705","out","","","","","","","","","","","","","","","","","","","","","","","","",""
"","learn_trial","categorize-lines-2","161","886338","0.0-4.0-0.154","line_cat_multi_stim_2","20211206","190","526","","","","","","","","","[306.8586]","[306.8586]","[14.670001080211483,null,null]","[""u"",""i""]","[""""]","null","true","in","u","YES","NA","1","in","306.8586","","","14.670001080211483","NaN","NaN","306.8586","learning","14.67","0.0444","in","","","","","","","","","","","","","","","","","","","","","","","","",""
"","learn_trial","categorize-lines-2","162","890848","0.0-4.0-0.155","line_cat_multi_stim_2","20211206","190","474","","","","","","","","","[231.4537]","[231.4537]","[8.889999999203017,null,null]","[""u"",""i""]","[""""]","null","true","out","u","YES","NA","0","out","231.4537","","","8.889999999203017","NaN","NaN","231.4537","learning","8.89","0.1023","out","","","","","","","","","","","","","","","","","","","","","","","","",""
"","learn_trial","categorize-lines-2","163","893276","0.0-4.0-0.156","line_cat_multi_stim_2","20211206","190","386","","","","","","","","","[343.8027]","[343.8027]","[16.999997158124994,null,null]","[""u"",""i""]","[""""]","null","true","in","u","YES","NA","1","in","343.8027","","","16.999997158124994","NaN","NaN","343.8027","learning","17","0.0444","in","","","","","","","","","","","","","","","","","","","","","","","","",""
"","learn_trial","categorize-lines-2","164","897938","0.0-4.0-0.157","line_cat_multi_stim_2","20211206","190","618","","","","","","","","","[170.787]","[170.787]","[2.6600007226589746,null,null]","[""u"",""i""]","[""""]","null","true","in","i","NO","NA","0","in","170.787","","","2.6600007226589746","NaN","NaN","170.787","learning","2.66","0.0444","in","","","","","","","","","","","","","","","","","","","","","","","","",""
"","learn_trial","categorize-lines-2","165","902376","0.0-4.0-0.158","line_cat_multi_stim_2","20211206","190","402","","","","","","","","","[426.7543]","[426.7543]","[21.4299984737416,null,null]","[""u"",""i""]","[""""]","null","true","in","i","NO","NA","0","in","426.7543","","","21.4299984737416","NaN","NaN","426.7543","learning","21.43","0.0444","in","","","","","","","","","","","","","","","","","","","","","","","","",""
"","learn_trial","categorize-lines-2","166","906978","0.0-4.0-0.159","line_cat_multi_stim_2","20211206","190","560","","","","","","","","","[234.2942]","[234.2942]","[9.140004017497253,null,null]","[""u"",""i""]","[""""]","null","true","out","u","YES","NA","0","out","234.2942","","","9.140004017497253","NaN","NaN","234.2942","learning","9.14","0.1142","out","","","","","","","","","","","","","","","","","","","","","","","","",""
"","learn_trial","categorize-lines-2","167","909376","0.0-4.0-0.160","line_cat_multi_stim_2","20211206","190","358","","","","","","","","","[173.1362]","[173.1362]","[2.940003919550253,null,null]","[""u"",""i""]","[""""]","null","true","in","u","YES","NA","1","in","173.1362","","","2.940003919550253","NaN","NaN","173.1362","learning","2.94","0.0444","in","","","","","","","","","","","","","","","","","","","","","","","","",""
"","learn_trial","categorize-lines-2","168","912292","0.0-4.0-0.161","line_cat_multi_stim_2","20211206","190","872","","","","","","","","","[219.0384]","[219.0384]","[7.760001821279225,null,null]","[""u"",""i""]","[""""]","null","true","out","i","NO","NA","1","out","219.0384","","","7.760001821279225","NaN","NaN","219.0384","learning","7.76","0.0532","out","","","","","","","","","","","","","","","","","","","","","","","","",""
"","learn_trial","categorize-lines-2","169","914980","0.0-4.0-0.162","line_cat_multi_stim_2","20211206","190","646","","","","","","","","","[284.5082]","[284.5082]","[13.119996467472994,null,null]","[""u"",""i""]","[""""]","null","true","in","u","YES","NA","1","in","284.5082","","","13.119996467472994","NaN","NaN","284.5082","learning","13.12","0.0444","in","","","","","","","","","","","","","","","","","","","","","","","","",""
"","learn_trial","categorize-lines-2","170","919954","0.0-4.0-0.163","line_cat_multi_stim_2","20211206","190","934","","","","","","","","","[433.4695]","[433.4695]","[21.750001463598235,null,null]","[""u"",""i""]","[""""]","null","true","in","i","NO","NA","0","in","433.4695","","","21.750001463598235","NaN","NaN","433.4695","learning","21.75","0.0444","in","","","","","","","","","","","","","","","","","","","","","","","","",""
"","learn_trial","categorize-lines-2","171","922376","0.0-4.0-0.164","line_cat_multi_stim_2","20211206","190","384","","","","","","","","","[214.2817]","[214.2817]","[7.3100022617546285,null,null]","[""u"",""i""]","[""""]","null","true","in","u","YES","NA","1","in","214.2817","","","7.3100022617546285","NaN","NaN","214.2817","learning","7.31","0.0444","in","","","","","","","","","","","","","","","","","","","","","","","","",""
"","learn_trial","categorize-lines-2","172","924880","0.0-4.0-0.165","line_cat_multi_stim_2","20211206","190","462","","","","","","","","","[427.3794]","[427.3794]","[21.459998486215678,null,null]","[""u"",""i""]","[""""]","null","true","in","u","YES","NA","1","in","427.3794","","","21.459998486215678","NaN","NaN","427.3794","learning","21.46","0.0444","in","","","","","","","","","","","","","","","","","","","","","","","","",""
"","learn_trial","categorize-lines-2","173","928762","0.0-4.0-0.166","line_cat_multi_stim_2","20211206","190","1834","","","","","","","","","[188.2927]","[188.2927]","[4.6600042603315535,null,null]","[""u"",""i""]","[""""]","null","true","in","u","YES","NA","1","in","188.2927","","","4.6600042603315535","NaN","NaN","188.2927","learning","4.66","0.0444","in","","","","","","","","","","","","","","","","","","","","","","","","",""
"","learn_trial","categorize-lines-2","174","933650","0.0-4.0-0.167","line_cat_multi_stim_2","20211206","190","846","","","","","","","","","[338.1466]","[338.1466]","[16.66000205168315,null,null]","[""u"",""i""]","[""""]","null","true","in","i","NO","NA","0","in","338.1466","","","16.66000205168315","NaN","NaN","338.1466","learning","16.66","0.0444","in","","","","","","","","","","","","","","","","","","","","","","","","",""
"","learn_trial","categorize-lines-2","175","936328","0.0-4.0-0.168","line_cat_multi_stim_2","20211206","190","640","","","","","","","","","[185.4662]","[185.4662]","[4.350003012273406,null,null]","[""u"",""i""]","[""""]","null","true","in","u","YES","NA","1","in","185.4662","","","4.350003012273406","NaN","NaN","185.4662","learning","4.35","0.0444","in","","","","","","","","","","","","","","","","","","","","","","","","",""
"","learn_trial","categorize-lines-2","176","939074","0.0-4.0-0.169","line_cat_multi_stim_2","20211206","190","704","","","","","","","","","[340.7966]","[340.7966]","[16.819999240696763,null,null]","[""u"",""i""]","[""""]","null","true","in","u","YES","NA","1","in","340.7966","","","16.819999240696763","NaN","NaN","340.7966","learning","16.82","0.0444","in","","","","","","","","","","","","","","","","","","","","","","","","",""
"","learn_trial","categorize-lines-2","177","943930","0.0-4.0-0.170","line_cat_multi_stim_2","20211206","190","814","","","","","","","","","[309.2634]","[309.2634]","[14.829998201349792,null,null]","[""u"",""i""]","[""""]","null","true","in","i","NO","NA","0","in","309.2634","","","14.829998201349792","NaN","NaN","309.2634","learning","14.83","0.0444","in","","","","","","","","","","","","","","","","","","","","","","","","",""
"","learn_trial","categorize-lines-2","178","948406","0.0-4.0-0.171","line_cat_multi_stim_2","20211206","190","436","","","","","","","","","[272.6843]","[272.6843]","[12.249998167632315,null,null]","[""u"",""i""]","[""""]","null","true","out","u","YES","NA","0","out","272.6843","","","12.249998167632315","NaN","NaN","272.6843","learning","12.25","0.1606","out","","","","","","","","","","","","","","","","","","","","","","","","",""
"","learn_trial","categorize-lines-2","179","953072","0.0-4.0-0.172","line_cat_multi_stim_2","20211206","190","626","","","","","","","","","[317.6747]","[317.6747]","[15.379997626707222,null,null]","[""u"",""i""]","[""""]","null","true","out","u","YES","NA","0","out","317.6747","","","15.379997626707222","NaN","NaN","317.6747","learning","15.38","0.0329","out","","","","","","","","","","","","","","","","","","","","","","","","",""
"","learn_trial","categorize-lines-2","180","959456","0.0-4.0-0.173","line_cat_multi_stim_2","20211206","190","2348","","","","","","","","","[250.9796]","[250.9796]","[10.550002763766843,null,null]","[""u"",""i""]","[""""]","null","true","out","u","YES","NA","0","out","250.9796","","","10.550002763766843","NaN","NaN","250.9796","learning","10.55","0.1689","out","","","","","","","","","","","","","","","","","","","","","","","","",""
"","learn_trial","categorize-lines-2","181","962664","0.0-4.0-0.174","line_cat_multi_stim_2","20211206","190","1166","","","","","","","","","[402.0934]","[402.0934]","[20.209997704058477,null,null]","[""u"",""i""]","[""""]","null","true","in","u","YES","NA","1","in","402.0934","","","20.209997704058477","NaN","NaN","402.0934","learning","20.21","0.0444","in","","","","","","","","","","","","","","","","","","","","","","","","",""
"","learn_trial","categorize-lines-2","182","967418","0.0-4.0-0.175","line_cat_multi_stim_2","20211206","190","710","","","","","","","","","[242.9078]","[242.9078]","[9.87999654402767,null,null]","[""u"",""i""]","[""""]","null","true","out","u","YES","NA","0","out","242.9078","","","9.87999654402767","NaN","NaN","242.9078","learning","9.88","0.1473","out","","","","","","","","","","","","","","","","","","","","","","","","",""
"","learn_trial","categorize-lines-2","183","969974","0.0-4.0-0.176","line_cat_multi_stim_2","20211206","190","518","","","","","","","","","[157.5]","[157.5]","[1,null,null]","[""u"",""i""]","[""""]","null","true","in","u","YES","NA","1","in","157.5","","","1","NaN","NaN","157.5","learning","1","0.0444","in","","","","","","","","","","","","","","","","","","","","","","","","",""
"","learn_trial","categorize-lines-2","184","972714","0.0-4.0-0.177","line_cat_multi_stim_2","20211206","190","700","","","","","","","","","[302.3998]","[302.3998]","[14.3700006091085,null,null]","[""u"",""i""]","[""""]","null","true","in","u","YES","NA","1","in","302.3998","","","14.3700006091085","NaN","NaN","302.3998","learning","14.37","0.0444","in","","","","","","","","","","","","","","","","","","","","","","","","",""
"","learn_trial","categorize-lines-2","185","977144","0.0-4.0-0.178","line_cat_multi_stim_2","20211206","190","388","","","","","","","","","[282.2959]","[282.2959]","[12.959999792281504,null,null]","[""u"",""i""]","[""""]","null","true","out","u","YES","NA","0","out","282.2959","","","12.959999792281504","NaN","NaN","282.2959","learning","12.96","0.1328","out","","","","","","","","","","","","","","","","","","","","","","","","",""
"","learn_trial","categorize-lines-2","186","982366","0.0-4.0-0.179","line_cat_multi_stim_2","20211206","190","1184","","","","","","","","","[286.8779]","[286.8779]","[13.290002332194836,null,null]","[""u"",""i""]","[""""]","null","true","out","u","YES","NA","0","out","286.8779","","","13.290002332194836","NaN","NaN","286.8779","learning","13.29","0.1176","out","","","","","","","","","","","","","","","","","","","","","","","","",""
"","learn_trial","categorize-lines-2","187","984662","0.0-4.0-0.180","line_cat_multi_stim_2","20211206","190","250","","","","","","","","","[160.2908]","[160.2908]","[1.359994839380912,null,null]","[""u"",""i""]","[""""]","null","true","in","u","YES","NA","1","in","160.2908","","","1.359994839380912","NaN","NaN","160.2908","learning","1.36","0.0444","in","","","","","","","","","","","","","","","","","","","","","","","","",""
"","learn_trial","categorize-lines-2","188","987168","0.0-4.0-0.181","line_cat_multi_stim_2","20211206","190","470","","","","","","","","","[269.5099]","[269.5099]","[12.009999151408726,null,null]","[""u"",""i""]","[""""]","null","true","out","i","NO","NA","1","out","269.5099","","","12.009999151408726","NaN","NaN","269.5099","learning","12.01","0.1675","out","","","","","","","","","","","","","","","","","","","","","","","","",""
"","learn_trial","categorize-lines-2","189","991546","0.0-4.0-0.182","line_cat_multi_stim_2","20211206","190","332","","","","","","","","","[289.5496]","[289.5496]","[13.479998055277388,null,null]","[""u"",""i""]","[""""]","null","true","out","u","YES","NA","0","out","289.5496","","","13.479998055277388","NaN","NaN","289.5496","learning","13.48","0.1085","out","","","","","","","","","","","","","","","","","","","","","","","","",""
"","learn_trial","categorize-lines-2","190","993946","0.0-4.0-0.183","line_cat_multi_stim_2","20211206","190","354","","","","","","","","","[270.3]","[270.3]","[12.06999749254997,null,null]","[""u"",""i""]","[""""]","null","true","out","i","NO","NA","1","out","270.3","","","12.06999749254997","NaN","NaN","270.3","learning","12.07","0.1659","out","","","","","","","","","","","","","","","","","","","","","","","","",""
"","learn_trial","categorize-lines-2","191","996298","0.0-4.0-0.184","line_cat_multi_stim_2","20211206","190","312","","","","","","","","","[282.8474]","[282.8474]","[13.000002076171068,null,null]","[""u"",""i""]","[""""]","null","true","in","u","YES","NA","1","in","282.8474","","","13.000002076171068","NaN","NaN","282.8474","learning","13","0.0444","in","","","","","","","","","","","","","","","","","","","","","","","","",""
"","learn_trial","categorize-lines-2","192","998456","0.0-4.0-0.185","line_cat_multi_stim_2","20211206","190","120","","","","","","","","","[217.0172]","[217.0172]","[7.569995413282384,null,null]","[""u"",""i""]","[""""]","null","true","in","u","YES","NA","1","in","217.0172","","","7.569995413282384","NaN","NaN","217.0172","learning","7.57","0.0444","in","","","","","","","","","","","","","","","","","","","","","","","","",""
"","learn_trial","categorize-lines-2","193","1002818","0.0-4.0-0.186","line_cat_multi_stim_2","20211206","190","318","","","","","","","","","[290.8239]","[290.8239]","[13.570002202839374,null,null]","[""u"",""i""]","[""""]","null","true","out","u","YES","NA","0","out","290.8239","","","13.570002202839374","NaN","NaN","290.8239","learning","13.57","0.1042","out","","","","","","","","","","","","","","","","","","","","","","","","",""
"","learn_trial","categorize-lines-2","194","1005184","0.0-4.0-0.187","line_cat_multi_stim_2","20211206","190","322","","","","","","","","","[260.715]","[260.715]","[11.330000052216096,null,null]","[""u"",""i""]","[""""]","null","true","out","i","NO","NA","1","out","260.715","","","11.330000052216096","NaN","NaN","260.715","learning","11.33","0.1772","out","","","","","","","","","","","","","","","","","","","","","","","","",""
"","learn_trial","categorize-lines-2","195","1007506","0.0-4.0-0.188","line_cat_multi_stim_2","20211206","190","282","","","","","","","","","[272.5513]","[272.5513]","[12.239998969788788,null,null]","[""u"",""i""]","[""""]","null","true","in","u","YES","NA","1","in","272.5513","","","12.239998969788788","NaN","NaN","272.5513","learning","12.24","0.0444","in","","","","","","","","","","","","","","","","","","","","","","","","",""
"","learn_trial","categorize-lines-2","196","1011776","0.0-4.0-0.189","line_cat_multi_stim_2","20211206","190","232","","","","","","","","","[286.5981]","[286.5981]","[13.270002322164117,null,null]","[""u"",""i""]","[""""]","null","true","out","u","YES","NA","0","out","286.5981","","","13.270002322164117","NaN","NaN","286.5981","learning","13.27","0.1185","out","","","","","","","","","","","","","","","","","","","","","","","","",""
"","learn_trial","categorize-lines-2","197","1014130","0.0-4.0-0.190","line_cat_multi_stim_2","20211206","190","310","","","","","","","","","[221.9429]","[221.9429]","[8.029996499393423,null,null]","[""u"",""i""]","[""""]","null","true","out","i","NO","NA","1","out","221.9429","","","8.029996499393423","NaN","NaN","221.9429","learning","8.03","0.0637","out","","","","","","","","","","","","","","","","","","","","","","","","",""
"","learn_trial","categorize-lines-2","198","1016458","0.0-4.0-0.191","line_cat_multi_stim_2","20211206","190","288","","","","","","","","","[391.0651]","[391.0651]","[19.63999844038646,null,null]","[""u"",""i""]","[""""]","null","true","in","u","YES","NA","1","in","391.0651","","","19.63999844038646","NaN","NaN","391.0651","learning","19.64","0.0444","in","","","","","","","","","","","","","","","","","","","","","","","","",""
"","learn_trial","categorize-lines-2","199","1020580","0.0-4.0-0.192","line_cat_multi_stim_2","20211206","190","86","","","","","","","","","[305.9616]","[305.9616]","[14.61000023099104,null,null]","[""u"",""i""]","[""""]","null","true","out","u","YES","NA","0","out","305.9616","","","14.61000023099104","NaN","NaN","305.9616","learning","14.61","0.0581","out","","","","","","","","","","","","","","","","","","","","","","","","",""
"","learn_trial","categorize-lines-2","200","1022832","0.0-4.0-0.193","line_cat_multi_stim_2","20211206","190","212","","","","","","","","","[245.1701]","[245.1701]","[10.07000016543801,null,null]","[""u"",""i""]","[""""]","null","true","out","i","NO","NA","1","out","245.1701","","","10.07000016543801","NaN","NaN","245.1701","learning","10.07","0.1545","out","","","","","","","","","","","","","","","","","","","","","","","","",""
"","learn_trial","categorize-lines-2","201","1025234","0.0-4.0-0.194","line_cat_multi_stim_2","20211206","190","360","","","","","","","","","[179.6767]","[179.6767]","[3.7000045770362586,null,null]","[""u"",""i""]","[""""]","null","true","in","u","YES","NA","1","in","179.6767","","","3.7000045770362586","NaN","NaN","179.6767","learning","3.7","0.0444","in","","","","","","","","","","","","","","","","","","","","","","","","",""
"","learn_trial","categorize-lines-2","202","1027784","0.0-4.0-0.195","line_cat_multi_stim_2","20211206","190","508","","","","","","","","","[268.8532]","[268.8532]","[11.959996888103902,null,null]","[""u"",""i""]","[""""]","null","true","out","i","NO","NA","1","out","268.8532","","","11.959996888103902","NaN","NaN","268.8532","learning","11.96","0.1687","out","","","","","","","","","","","","","","","","","","","","","","","","",""
"","learn_trial","categorize-lines-2","203","1030082","0.0-4.0-0.196","line_cat_multi_stim_2","20211206","190","258","","","","","","","","","[162.972]","[162.972]","[1.6999965920516682,null,null]","[""u"",""i""]","[""""]","null","true","in","u","YES","NA","1","in","162.972","","","1.6999965920516682","NaN","NaN","162.972","learning","1.7","0.0444","in","","","","","","","","","","","","","","","","","","","","","","","","",""
"","learn_trial","categorize-lines-2","204","1034450","0.0-4.0-0.197","line_cat_multi_stim_2","20211206","190","324","","","","","","","","","[348.1918]","[348.1918]","[17.25999896930144,null,null]","[""u"",""i""]","[""""]","null","true","in","i","NO","NA","0","in","348.1918","","","17.25999896930144","NaN","NaN","348.1918","learning","17.26","0.0444","in","","","","","","","","","","","","","","","","","","","","","","","","",""
"","learn_trial","categorize-lines-2","205","1038834","0.0-4.0-0.198","line_cat_multi_stim_2","20211206","190","344","","","","","","","","","[249.5144]","[249.5144]","[10.42999841307219,null,null]","[""u"",""i""]","[""""]","null","true","out","u","YES","NA","0","out","249.5144","","","10.42999841307219","NaN","NaN","249.5144","learning","10.43","0.1659","out","","","","","","","","","","","","","","","","","","","","","","","","",""
"","learn_trial","categorize-lines-2","206","1041048","0.0-4.0-0.199","line_cat_multi_stim_2","20211206","190","176","","","","","","","","","[367.2103]","[367.2103]","[18.349997988458032,null,null]","[""u"",""i""]","[""""]","null","true","in","u","YES","NA","1","in","367.2103","","","18.349997988458032","NaN","NaN","367.2103","learning","18.35","0.0444","in","","","","","","","","","","","","","","","","","","","","","","","","",""
"","transfer_instructions","instructions","207","1064120","0.0-5.0-0.0","line_cat_multi_stim_2","20211206","190","23060","","","","","","","[{""page_index"":0,""viewing_time"":5066},{""page_index"":1,""viewing_time"":17994}]","","","","","","","","","","","","","","","","","","","","","","","","","","","","","","","","","","","","","","","","","","","","","","","","","",""
"","transfer_trial","categorize-lines-2","208","1072438","0.0-6.0-0.0","line_cat_multi_stim_2","20211206","190","6780","","","","","","","","","[447.3695,244.0034,245.678]","[244.0034,245.678,447.3695]","[9.972232596645437,10.11241609310879,22.396923633680604]","[""j"",""k"",""l""]","[""J"",""K"",""L""]","[447.3695,447.3695]","true","null","l","447.3695","22.396923633680604","1","","244.0034","245.678","447.3695","9.972232596645437","10.11241609310879","22.396923633680604","","transfer","","","","22.3969","447.3695","447.3695","filler_easy","trinary","","","","","right","22.3969","9.9722","10.1124","447.3695","244.0034","245.678","","","","NaN","NaN","NaN","NA","",""
"","transfer_trial","categorize-lines-2","209","1078494","0.0-6.0-0.1","line_cat_multi_stim_2","20211206","190","4502","","","","","","","","","[198.5774,323.4616]","[198.5774,323.4616]","[5.750004314173399,15.750000521219516,null]","[""j"",""k""]","[""J"",""K""]","[198.5774,198.5774]","true","null","j","198.5774","5.750004314173399","1","","198.5774","323.4616","","5.750004314173399","15.750000521219516","NaN","","transfer","","","","5.75","198.5774","198.5774","attraction","binary","difficult","left","right","target","left","5.75","15.75","0","198.5774","323.4616","0","198.5774","323.4616","","NaN","NaN","NaN","target","",""
"","transfer_trial","categorize-lines-2","210","1082110","0.0-6.0-0.2","line_cat_multi_stim_2","20211206","190","2064","","","","","","","","","[339.6347,198.5774]","[339.6347,198.5774]","[16.7500017281595,5.750004314173399,null]","[""j"",""k""]","[""J"",""K""]","[339.6347,198.5774]","true","null","j","339.6347","16.7500017281595","1","","339.6347","198.5774","","16.7500017281595","5.750004314173399","NaN","","transfer","","","","16.75","198.5774","339.6347","attraction","binary","equal_chance_6_JND","right","left","both","equal","16.75","5.75","0","339.6347","198.5774","0","339.6347","198.5774","","NaN","NaN","NaN","target","",""
"","transfer_trial","categorize-lines-2","211","1085838","0.0-6.0-0.3","line_cat_multi_stim_2","20211206","190","2184","","","","","","","","","[222.30772361591318,251.75599423958644]","[251.75599423958644,222.30772361591318]","[10.613308159961555,8.063659491188849,null]","[""j"",""k""]","[""J"",""K""]","sampled_1","true","null","k","222.30772361591318","8.063659491188849","1","","251.75599423958644","222.30772361591318","","10.613308159961555","8.063659491188849","NaN","","transfer","","","","","","","filler_sample","binary","","","","","right","-1","1","0","","","","","","","NaN","NaN","NaN","NA","",""
"","transfer_trial","categorize-lines-2","212","1088396","0.0-6.0-0.4","line_cat_multi_stim_2","20211206","190","1014","","","","","","","","","[323.4616,208.5062]","[208.5062,323.4616]","[6.749997433250141,15.750000521219516,null]","[""j"",""k""]","[""J"",""K""]","[323.4616,208.5062]","true","null","k","323.4616","15.750000521219516","1","","208.5062","323.4616","","6.749997433250141","15.750000521219516","NaN","","transfer","","","","15.75","208.5062","323.4616","attraction","binary","equal_chance_5_JND","right","left","both","equal","15.75","6.75","0","323.4616","208.5062","0","323.4616","208.5062","","NaN","NaN","NaN","target","",""
"","transfer_trial","categorize-lines-2","213","1092000","0.0-6.0-0.5","line_cat_multi_stim_2","20211206","190","1054","","","","","","","","","[223.22430391925278,319.90093162931106]","[223.22430391925278,319.90093162931106]","[8.147991009613376,15.52313008163973,null]","[""j"",""k""]","[""J"",""K""]","sampled_1","true","null","k","319.90093162931106","15.52313008163973","0","","223.22430391925278","319.90093162931106","","8.147991009613376","15.52313008163973","NaN","","transfer","","","","","","","filler_sample","binary","","","","","left","-1","1","0","","","","","","","NaN","NaN","NaN","NA","",""
"","transfer_trial","categorize-lines-2","214","1095198","0.0-6.0-0.6","line_cat_multi_stim_2","20211206","190","654","","","","","","","","","[189.1213,323.4616]","[189.1213,323.4616]","[4.750000701688976,15.750000521219516,null]","[""j"",""k""]","[""J"",""K""]","[189.1213,189.1213]","true","null","k","323.4616","15.750000521219516","0","","189.1213","323.4616","","4.750000701688976","15.750000521219516","NaN","","transfer","","","","4.75","189.1213","189.1213","attraction","binary","easy","left","right","target","left","4.75","15.75","0","189.1213","323.4616","0","189.1213","323.4616","","NaN","NaN","NaN","competitor","",""
"","transfer_trial","categorize-lines-2","215","1098934","0.0-6.0-0.7","line_cat_multi_stim_2","20211206","190","1192","","","","","","","","","[189.1213,323.4616]","[189.1213,323.4616]","[4.750000701688976,15.750000521219516,null]","[""j"",""k""]","[""J"",""K""]","[189.1213,189.1213]","true","null","k","323.4616","15.750000521219516","0","","189.1213","323.4616","","4.750000701688976","15.750000521219516","NaN","","transfer","","","","4.75","189.1213","189.1213","attraction","binary","easy","left","right","target","left","4.75","15.75","0","189.1213","323.4616","0","189.1213","323.4616","","NaN","NaN","NaN","competitor","",""
"","transfer_trial","categorize-lines-2","216","1101838","0.0-6.0-0.8","line_cat_multi_stim_2","20211206","190","1354","","","","","","","","","[323.4616,208.5062,218.9315]","[323.4616,218.9315,208.5062]","[15.750000521219516,7.749996497069925,6.749997433250141]","[""j"",""k"",""l""]","[""J"",""K"",""L""]","[208.5062,323.4616]","true","null","j","323.4616","15.750000521219516","1","","323.4616","218.9315","208.5062","15.750000521219516","7.749996497069925","6.749997433250141","","transfer","","","","6.75","323.4616","208.5062","attraction","trinary","equal_chance_5_JND","left","right","both","equal","15.75","6.75","7.75","323.4616","208.5062","218.9315","208.5062","323.4616","218.9315","NaN","NaN","NaN","competitor","",""
"","transfer_trial","categorize-lines-2","217","1105224","0.0-6.0-0.9","line_cat_multi_stim_2","20211206","190","840","","","","","","","","","[254.63215979324417,272.14557647109217]","[254.63215979324417,272.14557647109217]","[10.846134831391328,12.2094657147056,null]","[""j"",""k""]","[""J"",""K""]","sampled_1","true","null","k","272.14557647109217","12.2094657147056","0","","254.63215979324417","272.14557647109217","","10.846134831391328","12.2094657147056","NaN","","transfer","","","","","","","filler_sample","binary","","","","","right","-1","1","0","","","","","","","NaN","NaN","NaN","NA","",""
"","transfer_trial","categorize-lines-2","218","1107722","0.0-6.0-0.10","line_cat_multi_stim_2","20211206","190","948","","","","","","","","","[339.6347,198.5774,208.5062]","[198.5774,208.5062,339.6347]","[5.750004314173399,6.749997433250141,16.7500017281595]","[""j"",""k"",""l""]","[""J"",""K"",""L""]","[198.5774,339.6347]","true","null","l","339.6347","16.7500017281595","1","","198.5774","208.5062","339.6347","5.750004314173399","6.749997433250141","16.7500017281595","","transfer","","","","5.75","339.6347","198.5774","attraction","trinary","equal_chance_6_JND","left","right","both","equal","16.75","5.75","6.75","339.6347","198.5774","208.5062","198.5774","339.6347","208.5062","NaN","NaN","NaN","competitor","",""
"","transfer_trial","categorize-lines-2","219","1110502","0.0-6.0-0.11","line_cat_multi_stim_2","20211206","190","1234","","","","","","","","","[160.8873,253.1802]","[160.8873,253.1802]","[1.4361260505393711,10.728928729284515,null]","[""j"",""k""]","[""J"",""K""]","[160.8873,160.8873]","true","null","j","160.8873","1.4361260505393711","1","","160.8873","253.1802","","1.4361260505393711","10.728928729284515","NaN","","transfer","","","","1.4361","160.8873","160.8873","filler_easy","binary","","","","","left","1.4361","10.7289","0","160.8873","253.1802","0","","","","NaN","NaN","NaN","NA","",""
"","transfer_trial","categorize-lines-2","220","1112838","0.0-6.0-0.12","line_cat_multi_stim_2","20211206","190","796","","","","","","","","","[356.6164,208.5062]","[208.5062,356.6164]","[6.749997433250141,17.74999971659282,null]","[""j"",""k""]","[""J"",""K""]","[356.6164,356.6164]","true","null","k","356.6164","17.74999971659282","1","","208.5062","356.6164","","6.749997433250141","17.74999971659282","NaN","","transfer","","","","17.75","356.6164","356.6164","attraction","binary","easy","left","right","competitor","right","17.75","6.75","0","356.6164","208.5062","0","208.5062","356.6164","","NaN","NaN","NaN","competitor","",""
"","transfer_trial","categorize-lines-2","221","1115854","0.0-6.0-0.13","line_cat_multi_stim_2","20211206","190","1472","","","","","","","","","[323.4616,208.5062]","[323.4616,208.5062]","[15.750000521219516,6.749997433250141,null]","[""j"",""k""]","[""J"",""K""]","[208.5062,323.4616]","true","null","k","208.5062","6.749997433250141","1","","323.4616","208.5062","","15.750000521219516","6.749997433250141","NaN","","transfer","","","","6.75","323.4616","208.5062","attraction","binary","equal_chance_5_JND","left","right","both","equal","15.75","6.75","0","323.4616","208.5062","0","208.5062","323.4616","","NaN","NaN","NaN","target","",""
