success,screen_id,trial_type,trial_index,time_elapsed,internal_node_id,exp_name,date,sub_n,rt,response,url,timeout,failed_images,failed_audio,failed_video,view_history,stim,stim_vals,line_lens_order,stim_vals_order_psy,choices,stim_names,corr_ans,give_fb,in_cat,key_choice,choice,choice_psy,correct,fb_in_cat,line_1_in_order,line_2_in_order,line_3_in_order,psy_1_in_order,psy_2_in_order,psy_3_in_order,line_length,exp_trial_type,jnds,dens,distribution,correct_1_psy,correct_2_psy,correct_1_phy,transfer_trial_type,trial_choice_set,difficulty,target_side,competitor_side,tc_correct,side_correct,stim_1_psy,stim_2_psy,stim_3_psy,stim_1_phy,stim_2_phy,stim_3_phy,target_phy,competitor_phy,decoy_phy,target_psy,competitor_psy,decoy_psy,attr_choice,question_order,stimulus
TRUE,enter-fullscreen-mode,fullscreen,0,3314,0.0-0.0,line_cat_multi_stim_2,20211206,302,,,,,,,,,,,,,,,,,,,,,,,,,,,,,,,,,,,,,,,,,,,,,,,,,,,,,,,,,,
,enter-sub-number,survey-html-form,1,6058,0.0-1.0,line_cat_multi_stim_2,20211206,302,2728,"{""response"":""187""}",,,,,,,,,,,,,,,,,,,,,,,,,,,,,,,,,,,,,,,,,,,,,,,,,,,,,,,,
,,external-html,2,46114,0.0-2.0,line_cat_multi_stim_2,20211206,302,40030,,consent.html,,,,,,,,,,,,,,,,,,,,,,,,,,,,,,,,,,,,,,,,,,,,,,,,,,,,,,,
TRUE,,preload,3,46154,0.0-3.0-0.0,line_cat_multi_stim_2,20211206,302,,,,FALSE,[],[],[],,,,,,,,,,,,,,,,,,,,,,,,,,,,,,,,,,,,,,,,,,,,,,,,,,,
,instructions,instructions,4,143234,0.0-3.0-1.0,line_cat_multi_stim_2,20211206,302,97076,,,,,,,"[{""page_index"":0,""viewing_time"":2188},{""page_index"":1,""viewing_time"":9456},{""page_index"":2,""viewing_time"":20968},{""page_index"":3,""viewing_time"":42680},{""page_index"":4,""viewing_time"":11536},{""page_index"":5,""viewing_time"":2904},{""page_index"":6,""viewing_time"":7344}]",,,,,,,,,,,,,,,,,,,,,,,,,,,,,,,,,,,,,,,,,,,,,,,,,,
,demo-lines,draw-demo-lines,5,203254,0.0-3.0-2.0,line_cat_multi_stim_2,20211206,302,,,,,,,,,lines,,,,,,,,,,,,,,,,,,,,,,,,,,,,,,,,,,,,,,,,,,,,,,,,,
,click-to-begin-the-experiment,instructions,6,206680,0.0-3.0-3.0,line_cat_multi_stim_2,20211206,302,3424,,,,,,,"[{""page_index"":0,""viewing_time"":3424}]",,,,,,,,,,,,,,,,,,,,,,,,,,,,,,,,,,,,,,,,,,,,,,,,,,
,learn_trial,categorize-lines-2,7,214128,0.0-4.0-0.0,line_cat_multi_stim_2,20211206,302,3406,,,,,,,,,[190.3246],[190.3246],"[4.879994676771028,null,null]","[""u"",""i""]","[""""]",null,TRUE,out,u,YES,NA,0,out,190.3246,,,4.879994677,NaN,NaN,190.3246,learning,4.88,0.0032,out,,,,,,,,,,,,,,,,,,,,,,,,,
,learn_trial,categorize-lines-2,8,218124,0.0-4.0-0.1,line_cat_multi_stim_2,20211206,302,1956,,,,,,,,,[391.0651],[391.0651],"[19.63999844038646,null,null]","[""u"",""i""]","[""""]",null,TRUE,in,u,YES,NA,1,in,391.0651,,,19.63999844,NaN,NaN,391.0651,learning,19.64,0.0444,in,,,,,,,,,,,,,,,,,,,,,,,,,
,learn_trial,categorize-lines-2,9,223874,0.0-4.0-0.2,line_cat_multi_stim_2,20211206,302,1716,,,,,,,,,[370.2688],[370.2688],"[18.520001923482997,null,null]","[""u"",""i""]","[""""]",null,TRUE,in,i,NO,NA,0,in,370.2688,,,18.52000192,NaN,NaN,370.2688,learning,18.52,0.0444,in,,,,,,,,,,,,,,,,,,,,,,,,,
,learn_trial,categorize-lines-2,10,227724,0.0-4.0-0.3,line_cat_multi_stim_2,20211206,302,1810,,,,,,,,,[241.019],[241.019],"[9.720001613731565,null,null]","[""u"",""i""]","[""""]",null,TRUE,out,i,NO,NA,1,out,241.019,,,9.720001614,NaN,NaN,241.019,learning,9.72,0.1407,out,,,,,,,,,,,,,,,,,,,,,,,,,
,learn_trial,categorize-lines-2,11,232036,0.0-4.0-0.4,line_cat_multi_stim_2,20211206,302,2278,,,,,,,,,[356.2686],[356.2686],"[17.73000073633628,null,null]","[""u"",""i""]","[""""]",null,TRUE,out,i,NO,NA,1,out,356.2686,,,17.73000074,NaN,NaN,356.2686,learning,17.73,0.0028,out,,,,,,,,,,,,,,,,,,,,,,,,,
,learn_trial,categorize-lines-2,12,238924,0.0-4.0-0.5,line_cat_multi_stim_2,20211206,302,2854,,,,,,,,,[255.801],[255.801],"[10.940002220353307,null,null]","[""u"",""i""]","[""""]",null,TRUE,in,i,NO,NA,0,in,255.801,,,10.94000222,NaN,NaN,255.801,learning,10.94,0.0444,in,,,,,,,,,,,,,,,,,,,,,,,,,
,learn_trial,categorize-lines-2,13,243852,0.0-4.0-0.6,line_cat_multi_stim_2,20211206,302,896,,,,,,,,,[211.3742],[211.3742],"[7.029997422871212,null,null]","[""u"",""i""]","[""""]",null,TRUE,out,u,YES,NA,0,out,211.3742,,,7.029997423,NaN,NaN,211.3742,learning,7.03,0.0305,out,,,,,,,,,,,,,,,,,,,,,,,,,
,learn_trial,categorize-lines-2,14,246780,0.0-4.0-0.7,line_cat_multi_stim_2,20211206,302,898,,,,,,,,,[381.2683],[381.2683],"[19.120001921572992,null,null]","[""u"",""i""]","[""""]",null,TRUE,in,u,YES,NA,1,in,381.2683,,,19.12000192,NaN,NaN,381.2683,learning,19.12,0.0444,in,,,,,,,,,,,,,,,,,,,,,,,,,
,learn_trial,categorize-lines-2,15,249958,0.0-4.0-0.8,line_cat_multi_stim_2,20211206,302,1144,,,,,,,,,[160.2908],[160.2908],"[1.359994839380912,null,null]","[""u"",""i""]","[""""]",null,TRUE,in,u,YES,NA,1,in,160.2908,,,1.359994839,NaN,NaN,160.2908,learning,1.36,0.0444,in,,,,,,,,,,,,,,,,,,,,,,,,,
,learn_trial,categorize-lines-2,16,253170,0.0-4.0-0.9,line_cat_multi_stim_2,20211206,302,1180,,,,,,,,,[234.2942],[234.2942],"[9.140004017497253,null,null]","[""u"",""i""]","[""""]",null,TRUE,out,i,NO,NA,1,out,234.2942,,,9.140004017,NaN,NaN,234.2942,learning,9.14,0.1142,out,,,,,,,,,,,,,,,,,,,,,,,,,
,learn_trial,categorize-lines-2,17,259030,0.0-4.0-0.10,line_cat_multi_stim_2,20211206,302,1824,,,,,,,,,[281.4707],[281.4707],"[12.899998873195443,null,null]","[""u"",""i""]","[""""]",null,TRUE,out,u,YES,NA,0,out,281.4707,,,12.89999887,NaN,NaN,281.4707,learning,12.9,0.1355,out,,,,,,,,,,,,,,,,,,,,,,,,,
,learn_trial,categorize-lines-2,18,262708,0.0-4.0-0.11,line_cat_multi_stim_2,20211206,302,1644,,,,,,,,,[440.9352],[440.9352],"[22.100000074483706,null,null]","[""u"",""i""]","[""""]",null,TRUE,in,u,YES,NA,1,in,440.9352,,,22.10000007,NaN,NaN,440.9352,learning,22.1,0.0444,in,,,,,,,,,,,,,,,,,,,,,,,,,
,learn_trial,categorize-lines-2,19,266588,0.0-4.0-0.12,line_cat_multi_stim_2,20211206,302,1846,,,,,,,,,[261.6069],[261.6069],"[11.399996510653413,null,null]","[""u"",""i""]","[""""]",null,TRUE,out,i,NO,NA,1,out,261.6069,,,11.39999651,NaN,NaN,261.6069,learning,11.4,0.1769,out,,,,,,,,,,,,,,,,,,,,,,,,,
,learn_trial,categorize-lines-2,20,272354,0.0-4.0-0.13,line_cat_multi_stim_2,20211206,302,1734,,,,,,,,,[293.6756],[293.6756],"[13.769997992901917,null,null]","[""u"",""i""]","[""""]",null,TRUE,out,u,YES,NA,0,out,293.6756,,,13.76999799,NaN,NaN,293.6756,learning,13.77,0.0947,out,,,,,,,,,,,,,,,,,,,,,,,,,
,learn_trial,categorize-lines-2,21,277162,0.0-4.0-0.14,line_cat_multi_stim_2,20211206,302,774,,,,,,,,,[269.5099],[269.5099],"[12.009999151408726,null,null]","[""u"",""i""]","[""""]",null,TRUE,out,u,YES,NA,0,out,269.5099,,,12.00999915,NaN,NaN,269.5099,learning,12.01,0.1675,out,,,,,,,,,,,,,,,,,,,,,,,,,
,learn_trial,categorize-lines-2,22,279970,0.0-4.0-0.15,line_cat_multi_stim_2,20211206,302,776,,,,,,,,,[335.8447],[335.8447],"[16.520000913268767,null,null]","[""u"",""i""]","[""""]",null,TRUE,in,u,YES,NA,1,in,335.8447,,,16.52000091,NaN,NaN,335.8447,learning,16.52,0.0444,in,,,,,,,,,,,,,,,,,,,,,,,,,
,learn_trial,categorize-lines-2,23,286076,0.0-4.0-0.16,line_cat_multi_stim_2,20211206,302,2072,,,,,,,,,[228.4247],[228.4247],"[8.620002178834698,null,null]","[""u"",""i""]","[""""]",null,TRUE,in,i,NO,NA,0,in,228.4247,,,8.620002179,NaN,NaN,228.4247,learning,8.62,0.0444,in,,,,,,,,,,,,,,,,,,,,,,,,,
,learn_trial,categorize-lines-2,24,289044,0.0-4.0-0.17,line_cat_multi_stim_2,20211206,302,918,,,,,,,,,[304.621],[304.621],"[14.519998014438004,null,null]","[""u"",""i""]","[""""]",null,TRUE,in,u,YES,NA,1,in,304.621,,,14.51999801,NaN,NaN,304.621,learning,14.52,0.0444,in,,,,,,,,,,,,,,,,,,,,,,,,,
,learn_trial,categorize-lines-2,25,292964,0.0-4.0-0.18,line_cat_multi_stim_2,20211206,302,1882,,,,,,,,,[207.8967],[207.8967],"[6.689996502007272,null,null]","[""u"",""i""]","[""""]",null,TRUE,out,i,NO,NA,1,out,207.8967,,,6.689996502,NaN,NaN,207.8967,learning,6.69,0.0227,out,,,,,,,,,,,,,,,,,,,,,,,,,
,learn_trial,categorize-lines-2,26,296756,0.0-4.0-0.19,line_cat_multi_stim_2,20211206,302,1756,,,,,,,,,[249.5144],[249.5144],"[10.42999841307219,null,null]","[""u"",""i""]","[""""]",null,TRUE,out,i,NO,NA,1,out,249.5144,,,10.42999841,NaN,NaN,249.5144,learning,10.43,0.1659,out,,,,,,,,,,,,,,,,,,,,,,,,,
,learn_trial,categorize-lines-2,27,302522,0.0-4.0-0.20,line_cat_multi_stim_2,20211206,302,1734,,,,,,,,,[228.0906],[228.0906],"[8.590002339280797,null,null]","[""u"",""i""]","[""""]",null,TRUE,in,i,NO,NA,0,in,228.0906,,,8.590002339,NaN,NaN,228.0906,learning,8.59,0.0444,in,,,,,,,,,,,,,,,,,,,,,,,,,
,learn_trial,categorize-lines-2,28,308442,0.0-4.0-0.21,line_cat_multi_stim_2,20211206,302,1888,,,,,,,,,[241.7256],[241.7256],"[9.780002026078613,null,null]","[""u"",""i""]","[""""]",null,TRUE,out,u,YES,NA,0,out,241.7256,,,9.780002026,NaN,NaN,241.7256,learning,9.78,0.1432,out,,,,,,,,,,,,,,,,,,,,,,,,,
,learn_trial,categorize-lines-2,29,313124,0.0-4.0-0.22,line_cat_multi_stim_2,20211206,302,2646,,,,,,,,,[414.0384],[414.0384],"[20.81000230958466,null,null]","[""u"",""i""]","[""""]",null,TRUE,in,u,YES,NA,1,in,414.0384,,,20.81000231,NaN,NaN,414.0384,learning,20.81,0.0444,in,,,,,,,,,,,,,,,,,,,,,,,,,
,learn_trial,categorize-lines-2,30,318146,0.0-4.0-0.23,line_cat_multi_stim_2,20211206,302,990,,,,,,,,,[258.5615],[258.5615],"[11.1600010340234,null,null]","[""u"",""i""]","[""""]",null,TRUE,out,u,YES,NA,0,out,258.5615,,,11.16000103,NaN,NaN,258.5615,learning,11.16,0.1772,out,,,,,,,,,,,,,,,,,,,,,,,,,
,learn_trial,categorize-lines-2,31,322994,0.0-4.0-0.24,line_cat_multi_stim_2,20211206,302,808,,,,,,,,,[216.1718],[216.1718],"[7.489996683549617,null,null]","[""u"",""i""]","[""""]",null,TRUE,out,u,YES,NA,0,out,216.1718,,,7.489996684,NaN,NaN,216.1718,learning,7.49,0.0439,out,,,,,,,,,,,,,,,,,,,,,,,,,
,learn_trial,categorize-lines-2,32,328002,0.0-4.0-0.25,line_cat_multi_stim_2,20211206,302,972,,,,,,,,,[264.3011],[264.3011],"[11.609997610899892,null,null]","[""u"",""i""]","[""""]",null,TRUE,out,u,YES,NA,0,out,264.3011,,,11.60999761,NaN,NaN,264.3011,learning,11.61,0.1751,out,,,,,,,,,,,,,,,,,,,,,,,,,
,learn_trial,categorize-lines-2,33,332860,0.0-4.0-0.26,line_cat_multi_stim_2,20211206,302,822,,,,,,,,,[221.9429],[221.9429],"[8.029996499393423,null,null]","[""u"",""i""]","[""""]",null,TRUE,out,u,YES,NA,0,out,221.9429,,,8.029996499,NaN,NaN,221.9429,learning,8.03,0.0637,out,,,,,,,,,,,,,,,,,,,,,,,,,
,learn_trial,categorize-lines-2,34,336124,0.0-4.0-0.27,line_cat_multi_stim_2,20211206,302,1228,,,,,,,,,[199.354],[199.354],"[5.83000384573321,null,null]","[""u"",""i""]","[""""]",null,TRUE,in,u,YES,NA,1,in,199.354,,,5.830003846,NaN,NaN,199.354,learning,5.83,0.0444,in,,,,,,,,,,,,,,,,,,,,,,,,,
,learn_trial,categorize-lines-2,35,338962,0.0-4.0-0.28,line_cat_multi_stim_2,20211206,302,806,,,,,,,,,[268.8532],[268.8532],"[11.959996888103902,null,null]","[""u"",""i""]","[""""]",null,TRUE,out,i,NO,NA,1,out,268.8532,,,11.95999689,NaN,NaN,268.8532,learning,11.96,0.1687,out,,,,,,,,,,,,,,,,,,,,,,,,,
,learn_trial,categorize-lines-2,36,342242,0.0-4.0-0.29,line_cat_multi_stim_2,20211206,302,1248,,,,,,,,,[317.6747],[317.6747],"[15.379997626707222,null,null]","[""u"",""i""]","[""""]",null,TRUE,out,i,NO,NA,1,out,317.6747,,,15.37999763,NaN,NaN,317.6747,learning,15.38,0.0329,out,,,,,,,,,,,,,,,,,,,,,,,,,
,learn_trial,categorize-lines-2,37,345052,0.0-4.0-0.30,line_cat_multi_stim_2,20211206,302,776,,,,,,,,,[425.0919],[425.0919],"[21.350001675120883,null,null]","[""u"",""i""]","[""""]",null,TRUE,in,u,YES,NA,1,in,425.0919,,,21.35000168,NaN,NaN,425.0919,learning,21.35,0.0444,in,,,,,,,,,,,,,,,,,,,,,,,,,
,learn_trial,categorize-lines-2,38,347946,0.0-4.0-0.31,line_cat_multi_stim_2,20211206,302,864,,,,,,,,,[157.5],[157.5],"[1,null,null]","[""u"",""i""]","[""""]",null,TRUE,in,u,YES,NA,1,in,157.5,,,1,NaN,NaN,157.5,learning,1,0.0444,in,,,,,,,,,,,,,,,,,,,,,,,,,
,learn_trial,categorize-lines-2,39,353794,0.0-4.0-0.32,line_cat_multi_stim_2,20211206,302,1812,,,,,,,,,[282.1582],[282.1582],"[12.949999722440344,null,null]","[""u"",""i""]","[""""]",null,TRUE,out,u,YES,NA,0,out,282.1582,,,12.94999972,NaN,NaN,282.1582,learning,12.95,0.1333,out,,,,,,,,,,,,,,,,,,,,,,,,,
,learn_trial,categorize-lines-2,40,357026,0.0-4.0-0.33,line_cat_multi_stim_2,20211206,302,1198,,,,,,,,,[292.6743],[292.6743],"[13.699996790622777,null,null]","[""u"",""i""]","[""""]",null,TRUE,in,u,YES,NA,1,in,292.6743,,,13.69999679,NaN,NaN,292.6743,learning,13.7,0.0444,in,,,,,,,,,,,,,,,,,,,,,,,,,
,learn_trial,categorize-lines-2,41,360034,0.0-4.0-0.34,line_cat_multi_stim_2,20211206,302,976,,,,,,,,,[272.5513],[272.5513],"[12.239998969788788,null,null]","[""u"",""i""]","[""""]",null,TRUE,in,u,YES,NA,1,in,272.5513,,,12.23999897,NaN,NaN,272.5513,learning,12.24,0.0444,in,,,,,,,,,,,,,,,,,,,,,,,,,
,learn_trial,categorize-lines-2,42,362754,0.0-4.0-0.35,line_cat_multi_stim_2,20211206,302,684,,,,,,,,,[259.5727],[259.5727],"[11.24000160179845,null,null]","[""u"",""i""]","[""""]",null,TRUE,out,i,NO,NA,1,out,259.5727,,,11.2400016,NaN,NaN,259.5727,learning,11.24,0.1773,out,,,,,,,,,,,,,,,,,,,,,,,,,
,learn_trial,categorize-lines-2,43,367594,0.0-4.0-0.36,line_cat_multi_stim_2,20211206,302,806,,,,,,,,,[274.6873],[274.6873],"[12.400000614507137,null,null]","[""u"",""i""]","[""""]",null,TRUE,in,i,NO,NA,0,in,274.6873,,,12.40000061,NaN,NaN,274.6873,learning,12.4,0.0444,in,,,,,,,,,,,,,,,,,,,,,,,,,
,learn_trial,categorize-lines-2,44,372306,0.0-4.0-0.37,line_cat_multi_stim_2,20211206,302,678,,,,,,,,,[235.555],[235.555],"[9.25000244256176,null,null]","[""u"",""i""]","[""""]",null,TRUE,out,u,YES,NA,0,out,235.555,,,9.250002443,NaN,NaN,235.555,learning,9.25,0.1194,out,,,,,,,,,,,,,,,,,,,,,,,,,
,learn_trial,categorize-lines-2,45,375106,0.0-4.0-0.38,line_cat_multi_stim_2,20211206,302,768,,,,,,,,,[367.7482],[367.7482],"[18.379999043037607,null,null]","[""u"",""i""]","[""""]",null,TRUE,in,u,YES,NA,1,in,367.7482,,,18.37999904,NaN,NaN,367.7482,learning,18.38,0.0444,in,,,,,,,,,,,,,,,,,,,,,,,,,
,learn_trial,categorize-lines-2,46,377826,0.0-4.0-0.39,line_cat_multi_stim_2,20211206,302,688,,,,,,,,,[427.3794],[427.3794],"[21.459998486215678,null,null]","[""u"",""i""]","[""""]",null,TRUE,in,u,YES,NA,1,in,427.3794,,,21.45999849,NaN,NaN,427.3794,learning,21.46,0.0444,in,,,,,,,,,,,,,,,,,,,,,,,,,
,learn_trial,categorize-lines-2,47,382530,0.0-4.0-0.40,line_cat_multi_stim_2,20211206,302,670,,,,,,,,,[325.361],[325.361],"[15.870002780225683,null,null]","[""u"",""i""]","[""""]",null,TRUE,in,i,NO,NA,0,in,325.361,,,15.87000278,NaN,NaN,325.361,learning,15.87,0.0444,in,,,,,,,,,,,,,,,,,,,,,,,,,
,learn_trial,categorize-lines-2,48,385418,0.0-4.0-0.41,line_cat_multi_stim_2,20211206,302,854,,,,,,,,,[402.0934],[402.0934],"[20.209997704058477,null,null]","[""u"",""i""]","[""""]",null,TRUE,in,u,YES,NA,1,in,402.0934,,,20.2099977,NaN,NaN,402.0934,learning,20.21,0.0444,in,,,,,,,,,,,,,,,,,,,,,,,,,
,learn_trial,categorize-lines-2,49,390474,0.0-4.0-0.42,line_cat_multi_stim_2,20211206,302,1022,,,,,,,,,[282.2959],[282.2959],"[12.959999792281504,null,null]","[""u"",""i""]","[""""]",null,TRUE,out,u,YES,NA,0,out,282.2959,,,12.95999979,NaN,NaN,282.2959,learning,12.96,0.1328,out,,,,,,,,,,,,,,,,,,,,,,,,,
,learn_trial,categorize-lines-2,50,393314,0.0-4.0-0.43,line_cat_multi_stim_2,20211206,302,808,,,,,,,,,[290.1153],[290.1153],"[13.520002387858053,null,null]","[""u"",""i""]","[""""]",null,TRUE,out,i,NO,NA,1,out,290.1153,,,13.52000239,NaN,NaN,290.1153,learning,13.52,0.1066,out,,,,,,,,,,,,,,,,,,,,,,,,,
,learn_trial,categorize-lines-2,51,397570,0.0-4.0-0.44,line_cat_multi_stim_2,20211206,302,2222,,,,,,,,,[242.6709],[242.6709],"[9.859997778742917,null,null]","[""u"",""i""]","[""""]",null,TRUE,out,i,NO,NA,1,out,242.6709,,,9.859997779,NaN,NaN,242.6709,learning,9.86,0.1465,out,,,,,,,,,,,,,,,,,,,,,,,,,
,learn_trial,categorize-lines-2,52,400402,0.0-4.0-0.45,line_cat_multi_stim_2,20211206,302,798,,,,,,,,,[426.7543],[426.7543],"[21.4299984737416,null,null]","[""u"",""i""]","[""""]",null,TRUE,in,u,YES,NA,1,in,426.7543,,,21.42999847,NaN,NaN,426.7543,learning,21.43,0.0444,in,,,,,,,,,,,,,,,,,,,,,,,,,
,learn_trial,categorize-lines-2,53,404994,0.0-4.0-0.46,line_cat_multi_stim_2,20211206,302,558,,,,,,,,,[302.2523],[302.2523],"[14.360000973379707,null,null]","[""u"",""i""]","[""""]",null,TRUE,in,i,NO,NA,0,in,302.2523,,,14.36000097,NaN,NaN,302.2523,learning,14.36,0.0444,in,,,,,,,,,,,,,,,,,,,,,,,,,
,learn_trial,categorize-lines-2,54,407776,0.0-4.0-0.47,line_cat_multi_stim_2,20211206,302,752,,,,,,,,,[169.8728],[169.8728],"[2.5499940348652426,null,null]","[""u"",""i""]","[""""]",null,TRUE,in,u,YES,NA,1,in,169.8728,,,2.549994035,NaN,NaN,169.8728,learning,2.55,0.0444,in,,,,,,,,,,,,,,,,,,,,,,,,,
,learn_trial,categorize-lines-2,55,412426,0.0-4.0-0.48,line_cat_multi_stim_2,20211206,302,616,,,,,,,,,[232.019],[232.019],"[8.939998013815176,null,null]","[""u"",""i""]","[""""]",null,TRUE,out,u,YES,NA,0,out,232.019,,,8.939998014,NaN,NaN,232.019,learning,8.94,0.1047,out,,,,,,,,,,,,,,,,,,,,,,,,,
,learn_trial,categorize-lines-2,56,417162,0.0-4.0-0.49,line_cat_multi_stim_2,20211206,302,704,,,,,,,,,[243.0264],[243.0264],"[9.890001264246749,null,null]","[""u"",""i""]","[""""]",null,TRUE,in,i,NO,NA,0,in,243.0264,,,9.890001264,NaN,NaN,243.0264,learning,9.89,0.0444,in,,,,,,,,,,,,,,,,,,,,,,,,,
,learn_trial,categorize-lines-2,57,420170,0.0-4.0-0.50,line_cat_multi_stim_2,20211206,302,978,,,,,,,,,[270.3],[270.3],"[12.06999749254997,null,null]","[""u"",""i""]","[""""]",null,TRUE,out,i,NO,NA,1,out,270.3,,,12.06999749,NaN,NaN,270.3,learning,12.07,0.1659,out,,,,,,,,,,,,,,,,,,,,,,,,,
,learn_trial,categorize-lines-2,58,425128,0.0-4.0-0.51,line_cat_multi_stim_2,20211206,302,926,,,,,,,,,[231.4537],[231.4537],"[8.889999999203017,null,null]","[""u"",""i""]","[""""]",null,TRUE,out,u,YES,NA,0,out,231.4537,,,8.889999999,NaN,NaN,231.4537,learning,8.89,0.1023,out,,,,,,,,,,,,,,,,,,,,,,,,,
,learn_trial,categorize-lines-2,59,428402,0.0-4.0-0.52,line_cat_multi_stim_2,20211206,302,1240,,,,,,,,,[223.4641],[223.4641],"[8.16999670821145,null,null]","[""u"",""i""]","[""""]",null,TRUE,in,u,YES,NA,1,in,223.4641,,,8.169996708,NaN,NaN,223.4641,learning,8.17,0.0444,in,,,,,,,,,,,,,,,,,,,,,,,,,
,learn_trial,categorize-lines-2,60,434266,0.0-4.0-0.53,line_cat_multi_stim_2,20211206,302,3832,,,,,,,,,[183.2177],[183.2177],"[4.1000019697131656,null,null]","[""u"",""i""]","[""""]",null,TRUE,in,u,YES,NA,1,in,183.2177,,,4.10000197,NaN,NaN,183.2177,learning,4.1,0.0444,in,,,,,,,,,,,,,,,,,,,,,,,,,
,learn_trial,categorize-lines-2,61,437146,0.0-4.0-0.54,line_cat_multi_stim_2,20211206,302,848,,,,,,,,,[217.0172],[217.0172],"[7.569995413282384,null,null]","[""u"",""i""]","[""""]",null,TRUE,in,u,YES,NA,1,in,217.0172,,,7.569995413,NaN,NaN,217.0172,learning,7.57,0.0444,in,,,,,,,,,,,,,,,,,,,,,,,,,
,learn_trial,categorize-lines-2,62,439946,0.0-4.0-0.55,line_cat_multi_stim_2,20211206,302,762,,,,,,,,,[286.8779],[286.8779],"[13.290002332194836,null,null]","[""u"",""i""]","[""""]",null,TRUE,out,i,NO,NA,1,out,286.8779,,,13.29000233,NaN,NaN,286.8779,learning,13.29,0.1176,out,,,,,,,,,,,,,,,,,,,,,,,,,
,learn_trial,categorize-lines-2,63,444634,0.0-4.0-0.56,line_cat_multi_stim_2,20211206,302,654,,,,,,,,,[284.5082],[284.5082],"[13.119996467472994,null,null]","[""u"",""i""]","[""""]",null,TRUE,in,i,NO,NA,0,in,284.5082,,,13.11999647,NaN,NaN,284.5082,learning,13.12,0.0444,in,,,,,,,,,,,,,,,,,,,,,,,,,
,learn_trial,categorize-lines-2,64,448346,0.0-4.0-0.57,line_cat_multi_stim_2,20211206,302,1678,,,,,,,,,[266.7626],[266.7626],"[11.799997807134822,null,null]","[""u"",""i""]","[""""]",null,TRUE,in,u,YES,NA,1,in,266.7626,,,11.79999781,NaN,NaN,266.7626,learning,11.8,0.0444,in,,,,,,,,,,,,,,,,,,,,,,,,,
,learn_trial,categorize-lines-2,65,451434,0.0-4.0-0.58,line_cat_multi_stim_2,20211206,302,1056,,,,,,,,,[155.8185],[155.8185],"[0.7800050464240563,null,null]","[""u"",""i""]","[""""]",null,TRUE,in,u,YES,NA,1,in,155.8185,,,0.780005046,NaN,NaN,155.8185,learning,0.78,0.0444,in,,,,,,,,,,,,,,,,,,,,,,,,,
,learn_trial,categorize-lines-2,66,454232,0.0-4.0-0.59,line_cat_multi_stim_2,20211206,302,766,,,,,,,,,[160.7608],[160.7608],"[1.4200044827487652,null,null]","[""u"",""i""]","[""""]",null,TRUE,in,u,YES,NA,1,in,160.7608,,,1.420004483,NaN,NaN,160.7608,learning,1.42,0.0444,in,,,,,,,,,,,,,,,,,,,,,,,,,
,learn_trial,categorize-lines-2,67,460010,0.0-4.0-0.60,line_cat_multi_stim_2,20211206,302,1744,,,,,,,,,[249.3927],[249.3927],"[10.419999135629464,null,null]","[""u"",""i""]","[""""]",null,TRUE,in,i,NO,NA,0,in,249.3927,,,10.41999914,NaN,NaN,249.3927,learning,10.42,0.0444,in,,,,,,,,,,,,,,,,,,,,,,,,,
,learn_trial,categorize-lines-2,68,462778,0.0-4.0-0.61,line_cat_multi_stim_2,20211206,302,734,,,,,,,,,[246.0089],[246.0089],"[10.14000318435935,null,null]","[""u"",""i""]","[""""]",null,TRUE,out,i,NO,NA,1,out,246.0089,,,10.14000318,NaN,NaN,246.0089,learning,10.14,0.157,out,,,,,,,,,,,,,,,,,,,,,,,,,
,learn_trial,categorize-lines-2,69,465962,0.0-4.0-0.62,line_cat_multi_stim_2,20211206,302,1150,,,,,,,,,[300.928],[300.928],"[14.270001981618636,null,null]","[""u"",""i""]","[""""]",null,TRUE,in,u,YES,NA,1,in,300.928,,,14.27000198,NaN,NaN,300.928,learning,14.27,0.0444,in,,,,,,,,,,,,,,,,,,,,,,,,,
,learn_trial,categorize-lines-2,70,468586,0.0-4.0-0.63,line_cat_multi_stim_2,20211206,302,590,,,,,,,,,[318.7615],[318.7615],"[15.449996797289248,null,null]","[""u"",""i""]","[""""]",null,TRUE,in,u,YES,NA,1,in,318.7615,,,15.4499968,NaN,NaN,318.7615,learning,15.45,0.0444,in,,,,,,,,,,,,,,,,,,,,,,,,,
,learn_trial,categorize-lines-2,71,475250,0.0-4.0-0.64,line_cat_multi_stim_2,20211206,302,2632,,,,,,,,,[262.5019],[262.5019],"[11.469996781750533,null,null]","[""u"",""i""]","[""""]",null,TRUE,out,u,YES,NA,0,out,262.5019,,,11.46999678,NaN,NaN,262.5019,learning,11.47,0.1765,out,,,,,,,,,,,,,,,,,,,,,,,,,
,learn_trial,categorize-lines-2,72,478160,0.0-4.0-0.65,line_cat_multi_stim_2,20211206,302,880,,,,,,,,,[433.4695],[433.4695],"[21.750001463598235,null,null]","[""u"",""i""]","[""""]",null,TRUE,in,u,YES,NA,1,in,433.4695,,,21.75000146,NaN,NaN,433.4695,learning,21.75,0.0444,in,,,,,,,,,,,,,,,,,,,,,,,,,
,learn_trial,categorize-lines-2,73,481930,0.0-4.0-0.66,line_cat_multi_stim_2,20211206,302,1736,,,,,,,,,[240.0801],[240.0801],"[9.640002889317357,null,null]","[""u"",""i""]","[""""]",null,TRUE,out,i,NO,NA,1,out,240.0801,,,9.640002889,NaN,NaN,240.0801,learning,9.64,0.1373,out,,,,,,,,,,,,,,,,,,,,,,,,,
,learn_trial,categorize-lines-2,74,487008,0.0-4.0-0.67,line_cat_multi_stim_2,20211206,302,1048,,,,,,,,,[317.2101],[317.2101],"[15.350000333396045,null,null]","[""u"",""i""]","[""""]",null,TRUE,out,u,YES,NA,0,out,317.2101,,,15.35000033,NaN,NaN,317.2101,learning,15.35,0.0337,out,,,,,,,,,,,,,,,,,,,,,,,,,
,learn_trial,categorize-lines-2,75,490344,0.0-4.0-0.68,line_cat_multi_stim_2,20211206,302,1304,,,,,,,,,[274.8213],[274.8213],"[12.40999665552471,null,null]","[""u"",""i""]","[""""]",null,TRUE,in,u,YES,NA,1,in,274.8213,,,12.40999666,NaN,NaN,274.8213,learning,12.41,0.0444,in,,,,,,,,,,,,,,,,,,,,,,,,,
,learn_trial,categorize-lines-2,76,493296,0.0-4.0-0.69,line_cat_multi_stim_2,20211206,302,920,,,,,,,,,[268.0673],[268.0673],"[11.899996324590045,null,null]","[""u"",""i""]","[""""]",null,TRUE,in,u,YES,NA,1,in,268.0673,,,11.89999632,NaN,NaN,268.0673,learning,11.9,0.0444,in,,,,,,,,,,,,,,,,,,,,,,,,,
,learn_trial,categorize-lines-2,77,496536,0.0-4.0-0.70,line_cat_multi_stim_2,20211206,302,1208,,,,,,,,,[226.0962],[226.0962],"[8.409999952015355,null,null]","[""u"",""i""]","[""""]",null,TRUE,out,i,NO,NA,1,out,226.0962,,,8.409999952,NaN,NaN,226.0962,learning,8.41,0.0799,out,,,,,,,,,,,,,,,,,,,,,,,,,
,learn_trial,categorize-lines-2,78,499514,0.0-4.0-0.71,line_cat_multi_stim_2,20211206,302,944,,,,,,,,,[217.0172],[217.0172],"[7.569995413282384,null,null]","[""u"",""i""]","[""""]",null,TRUE,in,u,YES,NA,1,in,217.0172,,,7.569995413,NaN,NaN,217.0172,learning,7.57,0.0444,in,,,,,,,,,,,,,,,,,,,,,,,,,
,learn_trial,categorize-lines-2,79,502938,0.0-4.0-0.72,line_cat_multi_stim_2,20211206,302,1388,,,,,,,,,[245.4095],[245.4095],"[10.090003961210742,null,null]","[""u"",""i""]","[""""]",null,TRUE,out,i,NO,NA,1,out,245.4095,,,10.09000396,NaN,NaN,245.4095,learning,10.09,0.1552,out,,,,,,,,,,,,,,,,,,,,,,,,,
,learn_trial,categorize-lines-2,80,507154,0.0-4.0-0.73,line_cat_multi_stim_2,20211206,302,2182,,,,,,,,,[260.5878],[260.5878],"[11.319997869620812,null,null]","[""u"",""i""]","[""""]",null,TRUE,out,i,NO,NA,1,out,260.5878,,,11.31999787,NaN,NaN,260.5878,learning,11.32,0.1772,out,,,,,,,,,,,,,,,,,,,,,,,,,
,learn_trial,categorize-lines-2,81,509872,0.0-4.0-0.74,line_cat_multi_stim_2,20211206,302,686,,,,,,,,,[170.787],[170.787],"[2.6600007226589746,null,null]","[""u"",""i""]","[""""]",null,TRUE,in,u,YES,NA,1,in,170.787,,,2.660000723,NaN,NaN,170.787,learning,2.66,0.0444,in,,,,,,,,,,,,,,,,,,,,,,,,,
,learn_trial,categorize-lines-2,82,512698,0.0-4.0-0.75,line_cat_multi_stim_2,20211206,302,792,,,,,,,,,[211.2711],[211.2711],"[7.01999787540331,null,null]","[""u"",""i""]","[""""]",null,TRUE,in,u,YES,NA,1,in,211.2711,,,7.019997875,NaN,NaN,211.2711,learning,7.02,0.0444,in,,,,,,,,,,,,,,,,,,,,,,,,,
,learn_trial,categorize-lines-2,83,517378,0.0-4.0-0.76,line_cat_multi_stim_2,20211206,302,646,,,,,,,,,[256.4258],[256.4258],"[10.990002986071206,null,null]","[""u"",""i""]","[""""]",null,TRUE,in,i,NO,NA,0,in,256.4258,,,10.99000299,NaN,NaN,256.4258,learning,10.99,0.0444,in,,,,,,,,,,,,,,,,,,,,,,,,,
,learn_trial,categorize-lines-2,84,520266,0.0-4.0-0.77,line_cat_multi_stim_2,20211206,302,856,,,,,,,,,[414.4426],[414.4426],"[20.83000145816416,null,null]","[""u"",""i""]","[""""]",null,TRUE,in,u,YES,NA,1,in,414.4426,,,20.83000146,NaN,NaN,414.4426,learning,20.83,0.0444,in,,,,,,,,,,,,,,,,,,,,,,,,,
,learn_trial,categorize-lines-2,85,525274,0.0-4.0-0.78,line_cat_multi_stim_2,20211206,302,974,,,,,,,,,[319.0728],[319.0728],"[15.470003199762868,null,null]","[""u"",""i""]","[""""]",null,TRUE,out,u,YES,NA,0,out,319.0728,,,15.4700032,NaN,NaN,319.0728,learning,15.47,0.0305,out,,,,,,,,,,,,,,,,,,,,,,,,,
,learn_trial,categorize-lines-2,86,528040,0.0-4.0-0.79,line_cat_multi_stim_2,20211206,302,732,,,,,,,,,[441.7966],[441.7966],"[22.140001360089144,null,null]","[""u"",""i""]","[""""]",null,TRUE,in,u,YES,NA,1,in,441.7966,,,22.14000136,NaN,NaN,441.7966,learning,22.14,0.0444,in,,,,,,,,,,,,,,,,,,,,,,,,,
,learn_trial,categorize-lines-2,87,531840,0.0-4.0-0.80,line_cat_multi_stim_2,20211206,302,1766,,,,,,,,,[248.5424],[248.5424],"[10.349999210387681,null,null]","[""u"",""i""]","[""""]",null,TRUE,out,i,NO,NA,1,out,248.5424,,,10.34999921,NaN,NaN,248.5424,learning,10.35,0.1637,out,,,,,,,,,,,,,,,,,,,,,,,,,
,learn_trial,categorize-lines-2,88,536912,0.0-4.0-0.81,line_cat_multi_stim_2,20211206,302,1038,,,,,,,,,[314.8971],[314.8971],"[15.200002650537618,null,null]","[""u"",""i""]","[""""]",null,TRUE,out,u,YES,NA,0,out,314.8971,,,15.20000265,NaN,NaN,314.8971,learning,15.2,0.038,out,,,,,,,,,,,,,,,,,,,,,,,,,
,learn_trial,categorize-lines-2,89,543226,0.0-4.0-0.82,line_cat_multi_stim_2,20211206,302,2280,,,,,,,,,[266.3725],[266.3725],"[11.770003663425562,null,null]","[""u"",""i""]","[""""]",null,TRUE,out,u,YES,NA,0,out,266.3725,,,11.77000366,NaN,NaN,266.3725,learning,11.77,0.1726,out,,,,,,,,,,,,,,,,,,,,,,,,,
,learn_trial,categorize-lines-2,90,548458,0.0-4.0-0.83,line_cat_multi_stim_2,20211206,302,3198,,,,,,,,,[286.5981],[286.5981],"[13.270002322164117,null,null]","[""u"",""i""]","[""""]",null,TRUE,out,i,NO,NA,1,out,286.5981,,,13.27000232,NaN,NaN,286.5981,learning,13.27,0.1185,out,,,,,,,,,,,,,,,,,,,,,,,,,
,learn_trial,categorize-lines-2,91,551112,0.0-4.0-0.84,line_cat_multi_stim_2,20211206,302,620,,,,,,,,,[173.1362],[173.1362],"[2.940003919550253,null,null]","[""u"",""i""]","[""""]",null,TRUE,in,u,YES,NA,1,in,173.1362,,,2.94000392,NaN,NaN,173.1362,learning,2.94,0.0444,in,,,,,,,,,,,,,,,,,,,,,,,,,
,learn_trial,categorize-lines-2,92,556400,0.0-4.0-0.85,line_cat_multi_stim_2,20211206,302,1252,,,,,,,,,[286.1789],[286.1789],"[13.240001476464661,null,null]","[""u"",""i""]","[""""]",null,TRUE,out,u,YES,NA,0,out,286.1789,,,13.24000148,NaN,NaN,286.1789,learning,13.24,0.1199,out,,,,,,,,,,,,,,,,,,,,,,,,,
,learn_trial,categorize-lines-2,93,561536,0.0-4.0-0.86,line_cat_multi_stim_2,20211206,302,1102,,,,,,,,,[238.6785],[238.6785],"[9.519995922944162,null,null]","[""u"",""i""]","[""""]",null,TRUE,in,i,NO,NA,0,in,238.6785,,,9.519995923,NaN,NaN,238.6785,learning,9.52,0.0444,in,,,,,,,,,,,,,,,,,,,,,,,,,
,learn_trial,categorize-lines-2,94,564904,0.0-4.0-0.87,line_cat_multi_stim_2,20211206,302,1332,,,,,,,,,[367.2103],[367.2103],"[18.349997988458032,null,null]","[""u"",""i""]","[""""]",null,TRUE,in,u,YES,NA,1,in,367.2103,,,18.34999799,NaN,NaN,367.2103,learning,18.35,0.0444,in,,,,,,,,,,,,,,,,,,,,,,,,,
,learn_trial,categorize-lines-2,95,567616,0.0-4.0-0.88,line_cat_multi_stim_2,20211206,302,678,,,,,,,,,[235.3252],[235.3252],"[9.229997498292109,null,null]","[""u"",""i""]","[""""]",null,TRUE,in,u,YES,NA,1,in,235.3252,,,9.229997498,NaN,NaN,235.3252,learning,9.23,0.0444,in,,,,,,,,,,,,,,,,,,,,,,,,,
,learn_trial,categorize-lines-2,96,570440,0.0-4.0-0.89,line_cat_multi_stim_2,20211206,302,788,,,,,,,,,[188.2927],[188.2927],"[4.6600042603315535,null,null]","[""u"",""i""]","[""""]",null,TRUE,in,u,YES,NA,1,in,188.2927,,,4.66000426,NaN,NaN,188.2927,learning,4.66,0.0444,in,,,,,,,,,,,,,,,,,,,,,,,,,
,learn_trial,categorize-lines-2,97,576008,0.0-4.0-0.90,line_cat_multi_stim_2,20211206,302,1532,,,,,,,,,[260.715],[260.715],"[11.330000052216096,null,null]","[""u"",""i""]","[""""]",null,TRUE,out,u,YES,NA,0,out,260.715,,,11.33000005,NaN,NaN,260.715,learning,11.33,0.1772,out,,,,,,,,,,,,,,,,,,,,,,,,,
,learn_trial,categorize-lines-2,98,580088,0.0-4.0-0.91,line_cat_multi_stim_2,20211206,302,2036,,,,,,,,,[244.5727],[244.5727],"[10.01999727725916,null,null]","[""u"",""i""]","[""""]",null,TRUE,out,i,NO,NA,1,out,244.5727,,,10.01999728,NaN,NaN,244.5727,learning,10.02,0.1527,out,,,,,,,,,,,,,,,,,,,,,,,,,
,learn_trial,categorize-lines-2,99,582808,0.0-4.0-0.92,line_cat_multi_stim_2,20211206,302,684,,,,,,,,,[196.841],[196.841],"[5.569995649391948,null,null]","[""u"",""i""]","[""""]",null,TRUE,in,u,YES,NA,1,in,196.841,,,5.569995649,NaN,NaN,196.841,learning,5.57,0.0444,in,,,,,,,,,,,,,,,,,,,,,,,,,
,learn_trial,categorize-lines-2,100,587608,0.0-4.0-0.93,line_cat_multi_stim_2,20211206,302,766,,,,,,,,,[219.1453],[219.1453],"[7.770002263658368,null,null]","[""u"",""i""]","[""""]",null,TRUE,out,u,YES,NA,0,out,219.1453,,,7.770002264,NaN,NaN,219.1453,learning,7.77,0.0536,out,,,,,,,,,,,,,,,,,,,,,,,,,
,learn_trial,categorize-lines-2,101,593408,0.0-4.0-0.94,line_cat_multi_stim_2,20211206,302,1762,,,,,,,,,[319.0728],[319.0728],"[15.470003199762868,null,null]","[""u"",""i""]","[""""]",null,TRUE,out,u,YES,NA,0,out,319.0728,,,15.4700032,NaN,NaN,319.0728,learning,15.47,0.0305,out,,,,,,,,,,,,,,,,,,,,,,,,,
,learn_trial,categorize-lines-2,102,598832,0.0-4.0-0.95,line_cat_multi_stim_2,20211206,302,1390,,,,,,,,,[244.931],[244.931],"[10.050001931264145,null,null]","[""u"",""i""]","[""""]",null,TRUE,in,i,NO,NA,0,in,244.931,,,10.05000193,NaN,NaN,244.931,learning,10.05,0.0444,in,,,,,,,,,,,,,,,,,,,,,,,,,
,learn_trial,categorize-lines-2,103,602256,0.0-4.0-0.96,line_cat_multi_stim_2,20211206,302,1388,,,,,,,,,[237.6328],[237.6328],"[9.430001698803624,null,null]","[""u"",""i""]","[""""]",null,TRUE,out,i,NO,NA,1,out,237.6328,,,9.430001699,NaN,NaN,237.6328,learning,9.43,0.1278,out,,,,,,,,,,,,,,,,,,,,,,,,,
,learn_trial,categorize-lines-2,104,606954,0.0-4.0-0.97,line_cat_multi_stim_2,20211206,302,658,,,,,,,,,[242.9078],[242.9078],"[9.87999654402767,null,null]","[""u"",""i""]","[""""]",null,TRUE,out,u,YES,NA,0,out,242.9078,,,9.879996544,NaN,NaN,242.9078,learning,9.88,0.1473,out,,,,,,,,,,,,,,,,,,,,,,,,,
,learn_trial,categorize-lines-2,105,609800,0.0-4.0-0.98,line_cat_multi_stim_2,20211206,302,812,,,,,,,,,[179.6767],[179.6767],"[3.7000045770362586,null,null]","[""u"",""i""]","[""""]",null,TRUE,in,u,YES,NA,1,in,179.6767,,,3.700004577,NaN,NaN,179.6767,learning,3.7,0.0444,in,,,,,,,,,,,,,,,,,,,,,,,,,
,learn_trial,categorize-lines-2,106,613032,0.0-4.0-0.99,line_cat_multi_stim_2,20211206,302,1198,,,,,,,,,[189.4907],[189.4907],"[4.789995210780694,null,null]","[""u"",""i""]","[""""]",null,TRUE,in,u,YES,NA,1,in,189.4907,,,4.789995211,NaN,NaN,189.4907,learning,4.79,0.0444,in,,,,,,,,,,,,,,,,,,,,,,,,,
,learn_trial,categorize-lines-2,107,615810,0.0-4.0-0.100,line_cat_multi_stim_2,20211206,302,740,,,,,,,,,[186.3733],[186.3733],"[4.450002602943424,null,null]","[""u"",""i""]","[""""]",null,TRUE,in,u,YES,NA,1,in,186.3733,,,4.450002603,NaN,NaN,186.3733,learning,4.45,0.0444,in,,,,,,,,,,,,,,,,,,,,,,,,,
,learn_trial,categorize-lines-2,108,618968,0.0-4.0-0.101,line_cat_multi_stim_2,20211206,302,1124,,,,,,,,,[214.2817],[214.2817],"[7.3100022617546285,null,null]","[""u"",""i""]","[""""]",null,TRUE,in,u,YES,NA,1,in,214.2817,,,7.310002262,NaN,NaN,214.2817,learning,7.31,0.0444,in,,,,,,,,,,,,,,,,,,,,,,,,,
,learn_trial,categorize-lines-2,109,624176,0.0-4.0-0.102,line_cat_multi_stim_2,20211206,302,1174,,,,,,,,,[273.0837],[273.0837],"[12.279996546527665,null,null]","[""u"",""i""]","[""""]",null,TRUE,in,i,NO,NA,0,in,273.0837,,,12.27999655,NaN,NaN,273.0837,learning,12.28,0.0444,in,,,,,,,,,,,,,,,,,,,,,,,,,
,learn_trial,categorize-lines-2,110,629448,0.0-4.0-0.103,line_cat_multi_stim_2,20211206,302,1236,,,,,,,,,[237.7488],[237.7488],"[9.440004309033577,null,null]","[""u"",""i""]","[""""]",null,TRUE,out,u,YES,NA,0,out,237.7488,,,9.440004309,NaN,NaN,237.7488,learning,9.44,0.1283,out,,,,,,,,,,,,,,,,,,,,,,,,,
,learn_trial,categorize-lines-2,111,635448,0.0-4.0-0.104,line_cat_multi_stim_2,20211206,302,1964,,,,,,,,,[287.8593],[287.8593],"[13.359998600005731,null,null]","[""u"",""i""]","[""""]",null,TRUE,out,u,YES,NA,0,out,287.8593,,,13.3599986,NaN,NaN,287.8593,learning,13.36,0.1142,out,,,,,,,,,,,,,,,,,,,,,,,,,
,learn_trial,categorize-lines-2,112,638256,0.0-4.0-0.105,line_cat_multi_stim_2,20211206,302,772,,,,,,,,,[352.1211],[352.1211],"[17.489997645083264,null,null]","[""u"",""i""]","[""""]",null,TRUE,in,u,YES,NA,1,in,352.1211,,,17.48999765,NaN,NaN,352.1211,learning,17.49,0.0444,in,,,,,,,,,,,,,,,,,,,,,,,,,
,learn_trial,categorize-lines-2,113,641712,0.0-4.0-0.106,line_cat_multi_stim_2,20211206,302,1420,,,,,,,,,[254.3077],[254.3077],"[10.820001655209756,null,null]","[""u"",""i""]","[""""]",null,TRUE,out,i,NO,NA,1,out,254.3077,,,10.82000166,NaN,NaN,254.3077,learning,10.82,0.1741,out,,,,,,,,,,,,,,,,,,,,,,,,,
,learn_trial,categorize-lines-2,114,647120,0.0-4.0-0.107,line_cat_multi_stim_2,20211206,302,1372,,,,,,,,,[275.2239],[275.2239],"[12.4400002429699,null,null]","[""u"",""i""]","[""""]",null,TRUE,out,u,YES,NA,0,out,275.2239,,,12.44000024,NaN,NaN,275.2239,learning,12.44,0.1542,out,,,,,,,,,,,,,,,,,,,,,,,,,
,learn_trial,categorize-lines-2,115,650160,0.0-4.0-0.108,line_cat_multi_stim_2,20211206,302,1006,,,,,,,,,[157.3464],[157.3464],"[0.9800018309852999,null,null]","[""u"",""i""]","[""""]",null,TRUE,in,u,YES,NA,1,in,157.3464,,,0.980001831,NaN,NaN,157.3464,learning,0.98,0.0444,in,,,,,,,,,,,,,,,,,,,,,,,,,
,learn_trial,categorize-lines-2,116,653896,0.0-4.0-0.109,line_cat_multi_stim_2,20211206,302,1702,,,,,,,,,[271.7546],[271.7546],"[12.179999169935613,null,null]","[""u"",""i""]","[""""]",null,TRUE,out,i,NO,NA,1,out,271.7546,,,12.17999917,NaN,NaN,271.7546,learning,12.18,0.1628,out,,,,,,,,,,,,,,,,,,,,,,,,,
,learn_trial,categorize-lines-2,117,659152,0.0-4.0-0.110,line_cat_multi_stim_2,20211206,302,1220,,,,,,,,,[316.4372],[316.4372],"[15.299999913642417,null,null]","[""u"",""i""]","[""""]",null,TRUE,out,u,YES,NA,0,out,316.4372,,,15.29999991,NaN,NaN,316.4372,learning,15.3,0.0351,out,,,,,,,,,,,,,,,,,,,,,,,,,
,learn_trial,categorize-lines-2,118,663984,0.0-4.0-0.111,line_cat_multi_stim_2,20211206,302,796,,,,,,,,,[223.0284],[223.0284],"[8.129995671619499,null,null]","[""u"",""i""]","[""""]",null,TRUE,out,u,YES,NA,0,out,223.0284,,,8.129995672,NaN,NaN,223.0284,learning,8.13,0.0678,out,,,,,,,,,,,,,,,,,,,,,,,,,
,learn_trial,categorize-lines-2,119,666840,0.0-4.0-0.112,line_cat_multi_stim_2,20211206,302,820,,,,,,,,,[172.2094],[172.2094],"[2.829994250824066,null,null]","[""u"",""i""]","[""""]",null,TRUE,in,u,YES,NA,1,in,172.2094,,,2.829994251,NaN,NaN,172.2094,learning,2.83,0.0444,in,,,,,,,,,,,,,,,,,,,,,,,,,
,learn_trial,categorize-lines-2,120,672368,0.0-4.0-0.113,line_cat_multi_stim_2,20211206,302,1494,,,,,,,,,[299.0253],[299.0253],"[14.139999379866756,null,null]","[""u"",""i""]","[""""]",null,TRUE,out,u,YES,NA,0,out,299.0253,,,14.13999938,NaN,NaN,299.0253,learning,14.14,0.0777,out,,,,,,,,,,,,,,,,,,,,,,,,,
,learn_trial,categorize-lines-2,121,676400,0.0-4.0-0.114,line_cat_multi_stim_2,20211206,302,1998,,,,,,,,,[255.1777],[255.1777],"[10.889999657841992,null,null]","[""u"",""i""]","[""""]",null,TRUE,out,i,NO,NA,1,out,255.1777,,,10.88999966,NaN,NaN,255.1777,learning,10.89,0.1751,out,,,,,,,,,,,,,,,,,,,,,,,,,
,learn_trial,categorize-lines-2,122,679232,0.0-4.0-0.115,line_cat_multi_stim_2,20211206,302,796,,,,,,,,,[160.4473],[160.4473],"[1.3799962921222333,null,null]","[""u"",""i""]","[""""]",null,TRUE,in,u,YES,NA,1,in,160.4473,,,1.379996292,NaN,NaN,160.4473,learning,1.38,0.0444,in,,,,,,,,,,,,,,,,,,,,,,,,,
,learn_trial,categorize-lines-2,123,682466,0.0-4.0-0.116,line_cat_multi_stim_2,20211206,302,1196,,,,,,,,,[235.0957],[235.0957],"[9.209999163616454,null,null]","[""u"",""i""]","[""""]",null,TRUE,out,i,NO,NA,1,out,235.0957,,,9.209999164,NaN,NaN,235.0957,learning,9.21,0.1176,out,,,,,,,,,,,,,,,,,,,,,,,,,
,learn_trial,categorize-lines-2,124,685960,0.0-4.0-0.117,line_cat_multi_stim_2,20211206,302,1458,,,,,,,,,[188.2927],[188.2927],"[4.6600042603315535,null,null]","[""u"",""i""]","[""""]",null,TRUE,in,u,YES,NA,1,in,188.2927,,,4.66000426,NaN,NaN,188.2927,learning,4.66,0.0444,in,,,,,,,,,,,,,,,,,,,,,,,,,
,learn_trial,categorize-lines-2,125,691128,0.0-4.0-0.118,line_cat_multi_stim_2,20211206,302,1132,,,,,,,,,[243.7389],[243.7389],"[9.95000292676626,null,null]","[""u"",""i""]","[""""]",null,TRUE,out,u,YES,NA,0,out,243.7389,,,9.950002927,NaN,NaN,243.7389,learning,9.95,0.1501,out,,,,,,,,,,,,,,,,,,,,,,,,,
,learn_trial,categorize-lines-2,126,694934,0.0-4.0-0.119,line_cat_multi_stim_2,20211206,302,1772,,,,,,,,,[177.9319],[177.9319],"[3.5000004945488787,null,null]","[""u"",""i""]","[""""]",null,TRUE,in,u,YES,NA,1,in,177.9319,,,3.500000495,NaN,NaN,177.9319,learning,3.5,0.0444,in,,,,,,,,,,,,,,,,,,,,,,,,,
,learn_trial,categorize-lines-2,127,700118,0.0-4.0-0.120,line_cat_multi_stim_2,20211206,302,1150,,,,,,,,,[288.4217],[288.4217],"[13.400003101690814,null,null]","[""u"",""i""]","[""""]",null,TRUE,out,u,YES,NA,0,out,288.4217,,,13.4000031,NaN,NaN,288.4217,learning,13.4,0.1123,out,,,,,,,,,,,,,,,,,,,,,,,,,
,learn_trial,categorize-lines-2,128,702832,0.0-4.0-0.121,line_cat_multi_stim_2,20211206,302,678,,,,,,,,,[431.9916],[431.9916],"[21.680001851214875,null,null]","[""u"",""i""]","[""""]",null,TRUE,in,u,YES,NA,1,in,431.9916,,,21.68000185,NaN,NaN,431.9916,learning,21.68,0.0444,in,,,,,,,,,,,,,,,,,,,,,,,,,
,learn_trial,categorize-lines-2,129,705856,0.0-4.0-0.122,line_cat_multi_stim_2,20211206,302,990,,,,,,,,,[249.5144],[249.5144],"[10.42999841307219,null,null]","[""u"",""i""]","[""""]",null,TRUE,out,i,NO,NA,1,out,249.5144,,,10.42999841,NaN,NaN,249.5144,learning,10.43,0.1659,out,,,,,,,,,,,,,,,,,,,,,,,,,
,learn_trial,categorize-lines-2,130,709512,0.0-4.0-0.123,line_cat_multi_stim_2,20211206,302,1620,,,,,,,,,[197.1294],[197.1294],"[5.600003124634237,null,null]","[""u"",""i""]","[""""]",null,TRUE,in,u,YES,NA,1,in,197.1294,,,5.600003125,NaN,NaN,197.1294,learning,5.6,0.0444,in,,,,,,,,,,,,,,,,,,,,,,,,,
,learn_trial,categorize-lines-2,131,714680,0.0-4.0-0.124,line_cat_multi_stim_2,20211206,302,1130,,,,,,,,,[214.9099],[214.9099],"[7.370001362999636,null,null]","[""u"",""i""]","[""""]",null,TRUE,in,i,NO,NA,0,in,214.9099,,,7.370001363,NaN,NaN,214.9099,learning,7.37,0.0444,in,,,,,,,,,,,,,,,,,,,,,,,,,
,learn_trial,categorize-lines-2,132,717504,0.0-4.0-0.125,line_cat_multi_stim_2,20211206,302,788,,,,,,,,,[185.4662],[185.4662],"[4.350003012273406,null,null]","[""u"",""i""]","[""""]",null,TRUE,in,u,YES,NA,1,in,185.4662,,,4.350003012,NaN,NaN,185.4662,learning,4.35,0.0444,in,,,,,,,,,,,,,,,,,,,,,,,,,
,learn_trial,categorize-lines-2,133,720376,0.0-4.0-0.126,line_cat_multi_stim_2,20211206,302,836,,,,,,,,,[343.8027],[343.8027],"[16.999997158124994,null,null]","[""u"",""i""]","[""""]",null,TRUE,in,u,YES,NA,1,in,343.8027,,,16.99999716,NaN,NaN,343.8027,learning,17,0.0444,in,,,,,,,,,,,,,,,,,,,,,,,,,
,learn_trial,categorize-lines-2,134,723174,0.0-4.0-0.127,line_cat_multi_stim_2,20211206,302,764,,,,,,,,,[306.8586],[306.8586],"[14.670001080211483,null,null]","[""u"",""i""]","[""""]",null,TRUE,in,u,YES,NA,1,in,306.8586,,,14.67000108,NaN,NaN,306.8586,learning,14.67,0.0444,in,,,,,,,,,,,,,,,,,,,,,,,,,
,learn_trial,categorize-lines-2,135,725952,0.0-4.0-0.128,line_cat_multi_stim_2,20211206,302,742,,,,,,,,,[229.318],[229.318],"[8.699999266133698,null,null]","[""u"",""i""]","[""""]",null,TRUE,out,i,NO,NA,1,out,229.318,,,8.699999266,NaN,NaN,229.318,learning,8.7,0.0933,out,,,,,,,,,,,,,,,,,,,,,,,,,
,learn_trial,categorize-lines-2,136,728688,0.0-4.0-0.129,line_cat_multi_stim_2,20211206,302,700,,,,,,,,,[233.8373],[233.8373],"[9.099995620874756,null,null]","[""u"",""i""]","[""""]",null,TRUE,out,i,NO,NA,1,out,233.8373,,,9.099995621,NaN,NaN,233.8373,learning,9.1,0.1123,out,,,,,,,,,,,,,,,,,,,,,,,,,
,learn_trial,categorize-lines-2,137,731688,0.0-4.0-0.130,line_cat_multi_stim_2,20211206,302,964,,,,,,,,,[338.8071],[338.8071],"[16.69999760502873,null,null]","[""u"",""i""]","[""""]",null,TRUE,in,u,YES,NA,1,in,338.8071,,,16.69999761,NaN,NaN,338.8071,learning,16.7,0.0444,in,,,,,,,,,,,,,,,,,,,,,,,,,
,learn_trial,categorize-lines-2,138,737392,0.0-4.0-0.131,line_cat_multi_stim_2,20211206,302,1670,,,,,,,,,[286.0393],[286.0393],"[13.23000098194338,null,null]","[""u"",""i""]","[""""]",null,TRUE,out,u,YES,NA,0,out,286.0393,,,13.23000098,NaN,NaN,286.0393,learning,13.23,0.1204,out,,,,,,,,,,,,,,,,,,,,,,,,,
,learn_trial,categorize-lines-2,139,740160,0.0-4.0-0.132,line_cat_multi_stim_2,20211206,302,726,,,,,,,,,[280.511],[280.511],"[12.82999671019844,null,null]","[""u"",""i""]","[""""]",null,TRUE,out,i,NO,NA,1,out,280.511,,,12.82999671,NaN,NaN,280.511,learning,12.83,0.1386,out,,,,,,,,,,,,,,,,,,,,,,,,,
,learn_trial,categorize-lines-2,140,745496,0.0-4.0-0.133,line_cat_multi_stim_2,20211206,302,1300,,,,,,,,,[302.3998],[302.3998],"[14.3700006091085,null,null]","[""u"",""i""]","[""""]",null,TRUE,in,i,NO,NA,0,in,302.3998,,,14.37000061,NaN,NaN,302.3998,learning,14.37,0.0444,in,,,,,,,,,,,,,,,,,,,,,,,,,
,learn_trial,categorize-lines-2,141,748688,0.0-4.0-0.134,line_cat_multi_stim_2,20211206,302,1156,,,,,,,,,[278.0583],[278.0583],"[12.649998628714304,null,null]","[""u"",""i""]","[""""]",null,TRUE,out,i,NO,NA,1,out,278.0583,,,12.64999863,NaN,NaN,278.0583,learning,12.65,0.1461,out,,,,,,,,,,,,,,,,,,,,,,,,,
,learn_trial,categorize-lines-2,142,753302,0.0-4.0-0.135,line_cat_multi_stim_2,20211206,302,580,,,,,,,,,[310.6244],[310.6244],"[14.919998396301942,null,null]","[""u"",""i""]","[""""]",null,TRUE,out,u,YES,NA,0,out,310.6244,,,14.9199984,NaN,NaN,310.6244,learning,14.92,0.0469,out,,,,,,,,,,,,,,,,,,,,,,,,,
,learn_trial,categorize-lines-2,143,756080,0.0-4.0-0.136,line_cat_multi_stim_2,20211206,302,742,,,,,,,,,[338.1466],[338.1466],"[16.66000205168315,null,null]","[""u"",""i""]","[""""]",null,TRUE,in,u,YES,NA,1,in,338.1466,,,16.66000205,NaN,NaN,338.1466,learning,16.66,0.0444,in,,,,,,,,,,,,,,,,,,,,,,,,,
,learn_trial,categorize-lines-2,144,761880,0.0-4.0-0.137,line_cat_multi_stim_2,20211206,302,1764,,,,,,,,,[269.773],[269.773],"[12.029997859863691,null,null]","[""u"",""i""]","[""""]",null,TRUE,out,u,YES,NA,0,out,269.773,,,12.02999786,NaN,NaN,269.773,learning,12.03,0.167,out,,,,,,,,,,,,,,,,,,,,,,,,,
,learn_trial,categorize-lines-2,145,765230,0.0-4.0-0.138,line_cat_multi_stim_2,20211206,302,1316,,,,,,,,,[162.972],[162.972],"[1.6999965920516682,null,null]","[""u"",""i""]","[""""]",null,TRUE,in,u,YES,NA,1,in,162.972,,,1.699996592,NaN,NaN,162.972,learning,1.7,0.0444,in,,,,,,,,,,,,,,,,,,,,,,,,,
,learn_trial,categorize-lines-2,146,769928,0.0-4.0-0.139,line_cat_multi_stim_2,20211206,302,660,,,,,,,,,[351.2632],[351.2632],"[17.440000877264232,null,null]","[""u"",""i""]","[""""]",null,TRUE,in,i,NO,NA,0,in,351.2632,,,17.44000088,NaN,NaN,351.2632,learning,17.44,0.0444,in,,,,,,,,,,,,,,,,,,,,,,,,,
,learn_trial,categorize-lines-2,147,772950,0.0-4.0-0.140,line_cat_multi_stim_2,20211206,302,986,,,,,,,,,[260.715],[260.715],"[11.330000052216096,null,null]","[""u"",""i""]","[""""]",null,TRUE,out,i,NO,NA,1,out,260.715,,,11.33000005,NaN,NaN,260.715,learning,11.33,0.1772,out,,,,,,,,,,,,,,,,,,,,,,,,,
,learn_trial,categorize-lines-2,148,775678,0.0-4.0-0.141,line_cat_multi_stim_2,20211206,302,690,,,,,,,,,[259.6994],[259.6994],"[11.250003429083813,null,null]","[""u"",""i""]","[""""]",null,TRUE,out,i,NO,NA,1,out,259.6994,,,11.25000343,NaN,NaN,259.6994,learning,11.25,0.1773,out,,,,,,,,,,,,,,,,,,,,,,,,,
,learn_trial,categorize-lines-2,149,778454,0.0-4.0-0.142,line_cat_multi_stim_2,20211206,302,740,,,,,,,,,[158.6569],[158.6569],"[1.1500005360874677,null,null]","[""u"",""i""]","[""""]",null,TRUE,in,u,YES,NA,1,in,158.6569,,,1.150000536,NaN,NaN,158.6569,learning,1.15,0.0444,in,,,,,,,,,,,,,,,,,,,,,,,,,
,learn_trial,categorize-lines-2,150,782152,0.0-4.0-0.143,line_cat_multi_stim_2,20211206,302,1662,,,,,,,,,[315.3583],[315.3583],"[15.229999145904438,null,null]","[""u"",""i""]","[""""]",null,TRUE,in,u,YES,NA,1,in,315.3583,,,15.22999915,NaN,NaN,315.3583,learning,15.23,0.0444,in,,,,,,,,,,,,,,,,,,,,,,,,,
,learn_trial,categorize-lines-2,151,784816,0.0-4.0-0.144,line_cat_multi_stim_2,20211206,302,630,,,,,,,,,[244.5727],[244.5727],"[10.01999727725916,null,null]","[""u"",""i""]","[""""]",null,TRUE,out,i,NO,NA,1,out,244.5727,,,10.01999728,NaN,NaN,244.5727,learning,10.02,0.1527,out,,,,,,,,,,,,,,,,,,,,,,,,,
,learn_trial,categorize-lines-2,152,789792,0.0-4.0-0.145,line_cat_multi_stim_2,20211206,302,942,,,,,,,,,[261.0969],[261.0969],"[11.36000089624506,null,null]","[""u"",""i""]","[""""]",null,TRUE,in,i,NO,NA,0,in,261.0969,,,11.3600009,NaN,NaN,261.0969,learning,11.36,0.0444,in,,,,,,,,,,,,,,,,,,,,,,,,,
,learn_trial,categorize-lines-2,153,792846,0.0-4.0-0.146,line_cat_multi_stim_2,20211206,302,1020,,,,,,,,,[250.9796],[250.9796],"[10.550002763766843,null,null]","[""u"",""i""]","[""""]",null,TRUE,out,i,NO,NA,1,out,250.9796,,,10.55000276,NaN,NaN,250.9796,learning,10.55,0.1689,out,,,,,,,,,,,,,,,,,,,,,,,,,
,learn_trial,categorize-lines-2,154,795750,0.0-4.0-0.147,line_cat_multi_stim_2,20211206,302,868,,,,,,,,,[433.4695],[433.4695],"[21.750001463598235,null,null]","[""u"",""i""]","[""""]",null,TRUE,in,u,YES,NA,1,in,433.4695,,,21.75000146,NaN,NaN,433.4695,learning,21.75,0.0444,in,,,,,,,,,,,,,,,,,,,,,,,,,
,learn_trial,categorize-lines-2,155,798624,0.0-4.0-0.148,line_cat_multi_stim_2,20211206,302,838,,,,,,,,,[220.3246],[220.3246],"[7.880002577012562,null,null]","[""u"",""i""]","[""""]",null,TRUE,out,i,NO,NA,1,out,220.3246,,,7.880002577,NaN,NaN,220.3246,learning,7.88,0.0578,out,,,,,,,,,,,,,,,,,,,,,,,,,
,learn_trial,categorize-lines-2,156,801992,0.0-4.0-0.149,line_cat_multi_stim_2,20211206,302,1332,,,,,,,,,[215.6451],[215.6451],"[7.4399976494366316,null,null]","[""u"",""i""]","[""""]",null,TRUE,in,u,YES,NA,1,in,215.6451,,,7.439997649,NaN,NaN,215.6451,learning,7.44,0.0444,in,,,,,,,,,,,,,,,,,,,,,,,,,
,learn_trial,categorize-lines-2,157,805478,0.0-4.0-0.150,line_cat_multi_stim_2,20211206,302,1452,,,,,,,,,[328.3911],[328.3911],"[16.059998882099954,null,null]","[""u"",""i""]","[""""]",null,TRUE,in,u,YES,NA,1,in,328.3911,,,16.05999888,NaN,NaN,328.3911,learning,16.06,0.0444,in,,,,,,,,,,,,,,,,,,,,,,,,,
,learn_trial,categorize-lines-2,158,811072,0.0-4.0-0.151,line_cat_multi_stim_2,20211206,302,1556,,,,,,,,,[219.6805],[219.6805],"[7.819996723801341,null,null]","[""u"",""i""]","[""""]",null,TRUE,out,u,YES,NA,0,out,219.6805,,,7.819996724,NaN,NaN,219.6805,learning,7.82,0.0555,out,,,,,,,,,,,,,,,,,,,,,,,,,
,learn_trial,categorize-lines-2,159,813760,0.0-4.0-0.152,line_cat_multi_stim_2,20211206,302,650,,,,,,,,,[383.8815],[383.8815],"[19.26000113164941,null,null]","[""u"",""i""]","[""""]",null,TRUE,in,u,YES,NA,1,in,383.8815,,,19.26000113,NaN,NaN,383.8815,learning,19.26,0.0444,in,,,,,,,,,,,,,,,,,,,,,,,,,
,learn_trial,categorize-lines-2,160,816928,0.0-4.0-0.153,line_cat_multi_stim_2,20211206,302,1130,,,,,,,,,[276.705],[276.705],"[12.550002097124002,null,null]","[""u"",""i""]","[""""]",null,TRUE,out,i,NO,NA,1,out,276.705,,,12.5500021,NaN,NaN,276.705,learning,12.55,0.1501,out,,,,,,,,,,,,,,,,,,,,,,,,,
,learn_trial,categorize-lines-2,161,819672,0.0-4.0-0.154,line_cat_multi_stim_2,20211206,302,708,,,,,,,,,[242.5526],[242.5526],"[9.85000374886835,null,null]","[""u"",""i""]","[""""]",null,TRUE,out,i,NO,NA,1,out,242.5526,,,9.850003749,NaN,NaN,242.5526,learning,9.85,0.1461,out,,,,,,,,,,,,,,,,,,,,,,,,,
,learn_trial,categorize-lines-2,162,822558,0.0-4.0-0.155,line_cat_multi_stim_2,20211206,302,850,,,,,,,,,[251.4699],[251.4699],"[10.590003439591888,null,null]","[""u"",""i""]","[""""]",null,TRUE,out,i,NO,NA,1,out,251.4699,,,10.59000344,NaN,NaN,251.4699,learning,10.59,0.1698,out,,,,,,,,,,,,,,,,,,,,,,,,,
,learn_trial,categorize-lines-2,163,827894,0.0-4.0-0.156,line_cat_multi_stim_2,20211206,302,1298,,,,,,,,,[271.8872],[271.8872],"[12.18999752158543,null,null]","[""u"",""i""]","[""""]",null,TRUE,out,u,YES,NA,0,out,271.8872,,,12.18999752,NaN,NaN,271.8872,learning,12.19,0.1625,out,,,,,,,,,,,,,,,,,,,,,,,,,
,learn_trial,categorize-lines-2,164,831070,0.0-4.0-0.157,line_cat_multi_stim_2,20211206,302,1142,,,,,,,,,[204.8759],[204.8759],"[6.389999730231122,null,null]","[""u"",""i""]","[""""]",null,TRUE,in,u,YES,NA,1,in,204.8759,,,6.38999973,NaN,NaN,204.8759,learning,6.39,0.0444,in,,,,,,,,,,,,,,,,,,,,,,,,,
,learn_trial,categorize-lines-2,165,833856,0.0-4.0-0.158,line_cat_multi_stim_2,20211206,302,746,,,,,,,,,[204.3767],[204.3767],"[6.339998457256303,null,null]","[""u"",""i""]","[""""]",null,TRUE,in,u,YES,NA,1,in,204.3767,,,6.339998457,NaN,NaN,204.3767,learning,6.34,0.0444,in,,,,,,,,,,,,,,,,,,,,,,,,,
,learn_trial,categorize-lines-2,166,839262,0.0-4.0-0.159,line_cat_multi_stim_2,20211206,302,1368,,,,,,,,,[305.9616],[305.9616],"[14.61000023099104,null,null]","[""u"",""i""]","[""""]",null,TRUE,out,u,YES,NA,0,out,305.9616,,,14.61000023,NaN,NaN,305.9616,learning,14.61,0.0581,out,,,,,,,,,,,,,,,,,,,,,,,,,
,learn_trial,categorize-lines-2,167,844278,0.0-4.0-0.160,line_cat_multi_stim_2,20211206,302,978,,,,,,,,,[309.2634],[309.2634],"[14.829998201349792,null,null]","[""u"",""i""]","[""""]",null,TRUE,in,i,NO,NA,0,in,309.2634,,,14.8299982,NaN,NaN,309.2634,learning,14.83,0.0444,in,,,,,,,,,,,,,,,,,,,,,,,,,
,learn_trial,categorize-lines-2,168,847246,0.0-4.0-0.161,line_cat_multi_stim_2,20211206,302,932,,,,,,,,,[261.8623],[261.8623],"[11.419996396183375,null,null]","[""u"",""i""]","[""""]",null,TRUE,out,i,NO,NA,1,out,261.8623,,,11.4199964,NaN,NaN,261.8623,learning,11.42,0.1768,out,,,,,,,,,,,,,,,,,,,,,,,,,
,learn_trial,categorize-lines-2,169,850758,0.0-4.0-0.162,line_cat_multi_stim_2,20211206,302,1474,,,,,,,,,[235.4401],[235.4401],"[9.240002411141354,null,null]","[""u"",""i""]","[""""]",null,TRUE,out,i,NO,NA,1,out,235.4401,,,9.240002411,NaN,NaN,235.4401,learning,9.24,0.119,out,,,,,,,,,,,,,,,,,,,,,,,,,
,learn_trial,categorize-lines-2,170,854318,0.0-4.0-0.163,line_cat_multi_stim_2,20211206,302,1520,,,,,,,,,[215.1197],[215.1197],"[7.390000206615534,null,null]","[""u"",""i""]","[""""]",null,TRUE,out,i,NO,NA,1,out,215.1197,,,7.390000207,NaN,NaN,215.1197,learning,7.39,0.0407,out,,,,,,,,,,,,,,,,,,,,,,,,,
,learn_trial,categorize-lines-2,171,857376,0.0-4.0-0.164,line_cat_multi_stim_2,20211206,302,1018,,,,,,,,,[278.7375],[278.7375],"[12.700002042860085,null,null]","[""u"",""i""]","[""""]",null,TRUE,out,i,NO,NA,1,out,278.7375,,,12.70000204,NaN,NaN,278.7375,learning,12.7,0.1441,out,,,,,,,,,,,,,,,,,,,,,,,,,
,learn_trial,categorize-lines-2,172,860192,0.0-4.0-0.165,line_cat_multi_stim_2,20211206,302,778,,,,,,,,,[319.0728],[319.0728],"[15.470003199762868,null,null]","[""u"",""i""]","[""""]",null,TRUE,out,i,NO,NA,1,out,319.0728,,,15.4700032,NaN,NaN,319.0728,learning,15.47,0.0305,out,,,,,,,,,,,,,,,,,,,,,,,,,
,learn_trial,categorize-lines-2,173,863606,0.0-4.0-0.166,line_cat_multi_stim_2,20211206,302,1376,,,,,,,,,[189.1213],[189.1213],"[4.750000701688976,null,null]","[""u"",""i""]","[""""]",null,TRUE,in,u,YES,NA,1,in,189.1213,,,4.750000702,NaN,NaN,189.1213,learning,4.75,0.0444,in,,,,,,,,,,,,,,,,,,,,,,,,,
,learn_trial,categorize-lines-2,174,866782,0.0-4.0-0.167,line_cat_multi_stim_2,20211206,302,1138,,,,,,,,,[242.9078],[242.9078],"[9.87999654402767,null,null]","[""u"",""i""]","[""""]",null,TRUE,out,i,NO,NA,1,out,242.9078,,,9.879996544,NaN,NaN,242.9078,learning,9.88,0.1473,out,,,,,,,,,,,,,,,,,,,,,,,,,
,learn_trial,categorize-lines-2,175,869654,0.0-4.0-0.168,line_cat_multi_stim_2,20211206,302,836,,,,,,,,,[251.8382],[251.8382],"[10.619999594850716,null,null]","[""u"",""i""]","[""""]",null,TRUE,out,i,NO,NA,1,out,251.8382,,,10.61999959,NaN,NaN,251.8382,learning,10.62,0.1705,out,,,,,,,,,,,,,,,,,,,,,,,,,
,learn_trial,categorize-lines-2,176,874654,0.0-4.0-0.169,line_cat_multi_stim_2,20211206,302,962,,,,,,,,,[282.5715],[282.5715],"[12.979999813331535,null,null]","[""u"",""i""]","[""""]",null,TRUE,in,i,NO,NA,0,in,282.5715,,,12.97999981,NaN,NaN,282.5715,learning,12.98,0.0444,in,,,,,,,,,,,,,,,,,,,,,,,,,
,learn_trial,categorize-lines-2,177,878990,0.0-4.0-0.170,line_cat_multi_stim_2,20211206,302,2296,,,,,,,,,[206.4815],[206.4815],"[6.549998987583844,null,null]","[""u"",""i""]","[""""]",null,TRUE,in,u,YES,NA,1,in,206.4815,,,6.549998988,NaN,NaN,206.4815,learning,6.55,0.0444,in,,,,,,,,,,,,,,,,,,,,,,,,,
,learn_trial,categorize-lines-2,178,885998,0.0-4.0-0.171,line_cat_multi_stim_2,20211206,302,2970,,,,,,,,,[349.0423],[349.0423],"[17.310001689421547,null,null]","[""u"",""i""]","[""""]",null,TRUE,out,u,YES,NA,0,out,349.0423,,,17.31000169,NaN,NaN,349.0423,learning,17.31,0.0047,out,,,,,,,,,,,,,,,,,,,,,,,,,
,learn_trial,categorize-lines-2,179,889288,0.0-4.0-0.172,line_cat_multi_stim_2,20211206,302,1254,,,,,,,,,[348.1918],[348.1918],"[17.25999896930144,null,null]","[""u"",""i""]","[""""]",null,TRUE,in,u,YES,NA,1,in,348.1918,,,17.25999897,NaN,NaN,348.1918,learning,17.26,0.0444,in,,,,,,,,,,,,,,,,,,,,,,,,,
,learn_trial,categorize-lines-2,180,892278,0.0-4.0-0.173,line_cat_multi_stim_2,20211206,302,952,,,,,,,,,[258.8139],[258.8139],"[11.179998792831885,null,null]","[""u"",""i""]","[""""]",null,TRUE,out,i,NO,NA,1,out,258.8139,,,11.17999879,NaN,NaN,258.8139,learning,11.18,0.1772,out,,,,,,,,,,,,,,,,,,,,,,,,,
,learn_trial,categorize-lines-2,181,895076,0.0-4.0-0.174,line_cat_multi_stim_2,20211206,302,752,,,,,,,,,[150.8808],[150.8808],"[0.12000014964979781,null,null]","[""u"",""i""]","[""""]",null,TRUE,in,u,YES,NA,1,in,150.8808,,,0.12000015,NaN,NaN,150.8808,learning,0.12,0.0444,in,,,,,,,,,,,,,,,,,,,,,,,,,
,learn_trial,categorize-lines-2,182,900470,0.0-4.0-0.175,line_cat_multi_stim_2,20211206,302,1356,,,,,,,,,[282.8474],[282.8474],"[13.000002076171068,null,null]","[""u"",""i""]","[""""]",null,TRUE,in,i,NO,NA,0,in,282.8474,,,13.00000208,NaN,NaN,282.8474,learning,13,0.0444,in,,,,,,,,,,,,,,,,,,,,,,,,,
,learn_trial,categorize-lines-2,183,905318,0.0-4.0-0.176,line_cat_multi_stim_2,20211206,302,810,,,,,,,,,[226.3169],[226.3169],"[8.429996955028699,null,null]","[""u"",""i""]","[""""]",null,TRUE,in,i,NO,NA,0,in,226.3169,,,8.429996955,NaN,NaN,226.3169,learning,8.43,0.0444,in,,,,,,,,,,,,,,,,,,,,,,,,,
,learn_trial,categorize-lines-2,184,910320,0.0-4.0-0.177,line_cat_multi_stim_2,20211206,302,960,,,,,,,,,[257.4286],[257.4286],"[11.069999767348328,null,null]","[""u"",""i""]","[""""]",null,TRUE,in,i,NO,NA,0,in,257.4286,,,11.06999977,NaN,NaN,257.4286,learning,11.07,0.0444,in,,,,,,,,,,,,,,,,,,,,,,,,,
,learn_trial,categorize-lines-2,185,915998,0.0-4.0-0.178,line_cat_multi_stim_2,20211206,302,1640,,,,,,,,,[259.5727],[259.5727],"[11.24000160179845,null,null]","[""u"",""i""]","[""""]",null,TRUE,out,u,YES,NA,0,out,259.5727,,,11.2400016,NaN,NaN,259.5727,learning,11.24,0.1773,out,,,,,,,,,,,,,,,,,,,,,,,,,
,learn_trial,categorize-lines-2,186,919446,0.0-4.0-0.179,line_cat_multi_stim_2,20211206,302,1410,,,,,,,,,[290.8239],[290.8239],"[13.570002202839374,null,null]","[""u"",""i""]","[""""]",null,TRUE,out,i,NO,NA,1,out,290.8239,,,13.5700022,NaN,NaN,290.8239,learning,13.57,0.1042,out,,,,,,,,,,,,,,,,,,,,,,,,,
,learn_trial,categorize-lines-2,187,922566,0.0-4.0-0.180,line_cat_multi_stim_2,20211206,302,1082,,,,,,,,,[380.8964],[380.8964],"[19.099999844393498,null,null]","[""u"",""i""]","[""""]",null,TRUE,in,u,YES,NA,1,in,380.8964,,,19.09999984,NaN,NaN,380.8964,learning,19.1,0.0444,in,,,,,,,,,,,,,,,,,,,,,,,,,
,learn_trial,categorize-lines-2,188,928550,0.0-4.0-0.181,line_cat_multi_stim_2,20211206,302,1946,,,,,,,,,[289.5496],[289.5496],"[13.479998055277388,null,null]","[""u"",""i""]","[""""]",null,TRUE,out,u,YES,NA,0,out,289.5496,,,13.47999806,NaN,NaN,289.5496,learning,13.48,0.1085,out,,,,,,,,,,,,,,,,,,,,,,,,,
,learn_trial,categorize-lines-2,189,931808,0.0-4.0-0.182,line_cat_multi_stim_2,20211206,302,1218,,,,,,,,,[219.0384],[219.0384],"[7.760001821279225,null,null]","[""u"",""i""]","[""""]",null,TRUE,out,i,NO,NA,1,out,219.0384,,,7.760001821,NaN,NaN,219.0384,learning,7.76,0.0532,out,,,,,,,,,,,,,,,,,,,,,,,,,
,learn_trial,categorize-lines-2,190,936742,0.0-4.0-0.183,line_cat_multi_stim_2,20211206,302,896,,,,,,,,,[378.8576],[378.8576],"[18.989997893272964,null,null]","[""u"",""i""]","[""""]",null,TRUE,in,i,NO,NA,0,in,378.8576,,,18.98999789,NaN,NaN,378.8576,learning,18.99,0.0444,in,,,,,,,,,,,,,,,,,,,,,,,,,
,learn_trial,categorize-lines-2,191,940478,0.0-4.0-0.184,line_cat_multi_stim_2,20211206,302,1698,,,,,,,,,[272.6843],[272.6843],"[12.249998167632315,null,null]","[""u"",""i""]","[""""]",null,TRUE,out,i,NO,NA,1,out,272.6843,,,12.24999817,NaN,NaN,272.6843,learning,12.25,0.1606,out,,,,,,,,,,,,,,,,,,,,,,,,,
,learn_trial,categorize-lines-2,192,943216,0.0-4.0-0.185,line_cat_multi_stim_2,20211206,302,698,,,,,,,,,[153.0308],[153.0308],"[0.40999891200779565,null,null]","[""u"",""i""]","[""""]",null,TRUE,in,u,YES,NA,1,in,153.0308,,,0.409998912,NaN,NaN,153.0308,learning,0.41,0.0444,in,,,,,,,,,,,,,,,,,,,,,,,,,
,learn_trial,categorize-lines-2,193,948820,0.0-4.0-0.186,line_cat_multi_stim_2,20211206,302,1560,,,,,,,,,[263.7858],[263.7858],"[11.56999829145361,null,null]","[""u"",""i""]","[""""]",null,TRUE,out,u,YES,NA,0,out,263.7858,,,11.56999829,NaN,NaN,263.7858,learning,11.57,0.1755,out,,,,,,,,,,,,,,,,,,,,,,,,,
,learn_trial,categorize-lines-2,194,955048,0.0-4.0-0.187,line_cat_multi_stim_2,20211206,302,2190,,,,,,,,,[234.4085],[234.4085],"[9.15000048365187,null,null]","[""u"",""i""]","[""""]",null,TRUE,in,i,NO,NA,0,in,234.4085,,,9.150000484,NaN,NaN,234.4085,learning,9.15,0.0444,in,,,,,,,,,,,,,,,,,,,,,,,,,
,learn_trial,categorize-lines-2,195,959914,0.0-4.0-0.188,line_cat_multi_stim_2,20211206,302,800,,,,,,,,,[236.9381],[236.9381],"[9.369995761909873,null,null]","[""u"",""i""]","[""""]",null,TRUE,out,u,YES,NA,0,out,236.9381,,,9.369995762,NaN,NaN,236.9381,learning,9.37,0.1251,out,,,,,,,,,,,,,,,,,,,,,,,,,
,learn_trial,categorize-lines-2,196,965406,0.0-4.0-0.189,line_cat_multi_stim_2,20211206,302,1440,,,,,,,,,[245.1701],[245.1701],"[10.07000016543801,null,null]","[""u"",""i""]","[""""]",null,TRUE,out,u,YES,NA,0,out,245.1701,,,10.07000017,NaN,NaN,245.1701,learning,10.07,0.1545,out,,,,,,,,,,,,,,,,,,,,,,,,,
,learn_trial,categorize-lines-2,197,970284,0.0-4.0-0.190,line_cat_multi_stim_2,20211206,302,830,,,,,,,,,[233.9515],[233.9515],"[9.110002853819157,null,null]","[""u"",""i""]","[""""]",null,TRUE,out,u,YES,NA,0,out,233.9515,,,9.110002854,NaN,NaN,233.9515,learning,9.11,0.1128,out,,,,,,,,,,,,,,,,,,,,,,,,,
,learn_trial,categorize-lines-2,198,975424,0.0-4.0-0.191,line_cat_multi_stim_2,20211206,302,1096,,,,,,,,,[316.5916],[316.5916],"[15.309998107471449,null,null]","[""u"",""i""]","[""""]",null,TRUE,in,i,NO,NA,0,in,316.5916,,,15.30999811,NaN,NaN,316.5916,learning,15.31,0.0444,in,,,,,,,,,,,,,,,,,,,,,,,,,
,learn_trial,categorize-lines-2,199,978606,0.0-4.0-0.192,line_cat_multi_stim_2,20211206,302,1142,,,,,,,,,[395.4783],[395.4783],"[19.87000127695692,null,null]","[""u"",""i""]","[""""]",null,TRUE,in,u,YES,NA,1,in,395.4783,,,19.87000128,NaN,NaN,395.4783,learning,19.87,0.0444,in,,,,,,,,,,,,,,,,,,,,,,,,,
,learn_trial,categorize-lines-2,200,982398,0.0-4.0-0.193,line_cat_multi_stim_2,20211206,302,1754,,,,,,,,,[176.8932],[176.8932],"[3.3800022881964513,null,null]","[""u"",""i""]","[""""]",null,TRUE,in,u,YES,NA,1,in,176.8932,,,3.380002288,NaN,NaN,176.8932,learning,3.38,0.0444,in,,,,,,,,,,,,,,,,,,,,,,,,,
,learn_trial,categorize-lines-2,201,985328,0.0-4.0-0.194,line_cat_multi_stim_2,20211206,302,888,,,,,,,,,[271.0925],[271.0925],"[12.130002164006402,null,null]","[""u"",""i""]","[""""]",null,TRUE,out,i,NO,NA,1,out,271.0925,,,12.13000216,NaN,NaN,271.0925,learning,12.13,0.1643,out,,,,,,,,,,,,,,,,,,,,,,,,,
,learn_trial,categorize-lines-2,202,988566,0.0-4.0-0.195,line_cat_multi_stim_2,20211206,302,1200,,,,,,,,,[306.8586],[306.8586],"[14.670001080211483,null,null]","[""u"",""i""]","[""""]",null,TRUE,out,i,NO,NA,1,out,306.8586,,,14.67000108,NaN,NaN,306.8586,learning,14.67,0.0559,out,,,,,,,,,,,,,,,,,,,,,,,,,
,learn_trial,categorize-lines-2,203,991662,0.0-4.0-0.196,line_cat_multi_stim_2,20211206,302,1054,,,,,,,,,[270.9602],[270.9602],"[12.119997187871704,null,null]","[""u"",""i""]","[""""]",null,TRUE,out,i,NO,NA,1,out,270.9602,,,12.11999719,NaN,NaN,270.9602,learning,12.12,0.1645,out,,,,,,,,,,,,,,,,,,,,,,,,,
,learn_trial,categorize-lines-2,204,994576,0.0-4.0-0.197,line_cat_multi_stim_2,20211206,302,872,,,,,,,,,[340.7966],[340.7966],"[16.819999240696763,null,null]","[""u"",""i""]","[""""]",null,TRUE,in,u,YES,NA,1,in,340.7966,,,16.81999924,NaN,NaN,340.7966,learning,16.82,0.0444,in,,,,,,,,,,,,,,,,,,,,,,,,,
,learn_trial,categorize-lines-2,205,1000104,0.0-4.0-0.198,line_cat_multi_stim_2,20211206,302,1480,,,,,,,,,[228.7593],[228.7593],"[8.650002969964806,null,null]","[""u"",""i""]","[""""]",null,TRUE,out,u,YES,NA,0,out,228.7593,,,8.65000297,NaN,NaN,228.7593,learning,8.65,0.0909,out,,,,,,,,,,,,,,,,,,,,,,,,,
,learn_trial,categorize-lines-2,206,1004998,0.0-4.0-0.199,line_cat_multi_stim_2,20211206,302,854,,,,,,,,,[240.0801],[240.0801],"[9.640002889317357,null,null]","[""u"",""i""]","[""""]",null,TRUE,in,i,NO,NA,0,in,240.0801,,,9.640002889,NaN,NaN,240.0801,learning,9.64,0.0444,in,,,,,,,,,,,,,,,,,,,,,,,,,
,transfer_instructions,instructions,207,1027906,0.0-5.0-0.0,line_cat_multi_stim_2,20211206,302,22896,,,,,,,"[{""page_index"":0,""viewing_time"":4256},{""page_index"":1,""viewing_time"":18640}]",,,,,,,,,,,,,,,,,,,,,,,,,,,,,,,,,,,,,,,,,,,,,,,,,,
,transfer_trial,categorize-lines-2,208,1034138,0.0-6.0-0.0,line_cat_multi_stim_2,20211206,302,3698,,,,,,,,,"[198.5774,323.4616,208.5062]","[208.5062,198.5774,323.4616]","[6.749997433250141,5.750004314173399,15.750000521219516]","[""j"",""k"",""l""]","[""J"",""K"",""L""]","[198.5774,198.5774]",TRUE,null,l,323.4616,15.75000052,0,,208.5062,198.5774,323.4616,6.749997433,5.750004314,15.75000052,,transfer,,,,5.75,198.5774,198.5774,attraction,trinary,difficult,left,right,target,left,5.75,15.75,6.75,198.5774,323.4616,208.5062,198.5774,323.4616,208.5062,NaN,NaN,NaN,competitor,,
,transfer_trial,categorize-lines-2,209,1037834,0.0-6.0-0.1,line_cat_multi_stim_2,20211206,302,2138,,,,,,,,,"[339.6347,198.5774,208.5062]","[198.5774,339.6347,208.5062]","[5.750004314173399,16.7500017281595,6.749997433250141]","[""j"",""k"",""l""]","[""J"",""K"",""L""]","[198.5774,339.6347]",TRUE,null,k,339.6347,16.75000173,1,,198.5774,339.6347,208.5062,5.750004314,16.75000173,6.749997433,,transfer,,,,5.75,339.6347,198.5774,attraction,trinary,equal_chance_6_JND,left,right,both,equal,16.75,5.75,6.75,339.6347,198.5774,208.5062,198.5774,339.6347,208.5062,NaN,NaN,NaN,competitor,,
,transfer_trial,categorize-lines-2,210,1043978,0.0-6.0-0.2,line_cat_multi_stim_2,20211206,302,3598,,,,,,,,,"[198.5774,323.4616,308.0587]","[308.0587,198.5774,323.4616]","[14.750002738971677,5.750004314173399,15.750000521219516]","[""j"",""k"",""l""]","[""J"",""K"",""L""]","[198.5774,198.5774]",TRUE,null,l,323.4616,15.75000052,0,,308.0587,198.5774,323.4616,14.75000274,5.750004314,15.75000052,,transfer,,,,5.75,198.5774,198.5774,attraction,trinary,difficult,right,left,competitor,left,5.75,15.75,14.75,198.5774,323.4616,308.0587,323.4616,198.5774,308.0587,NaN,NaN,NaN,target,,
,transfer_trial,categorize-lines-2,211,1047178,0.0-6.0-0.3,line_cat_multi_stim_2,20211206,302,1658,,,,,,,,,"[198.5774,323.4616,208.5062]","[323.4616,198.5774,208.5062]","[15.750000521219516,5.750004314173399,6.749997433250141]","[""j"",""k"",""l""]","[""J"",""K"",""L""]","[198.5774,198.5774]",TRUE,null,k,198.5774,5.750004314,1,,323.4616,198.5774,208.5062,15.75000052,5.750004314,6.749997433,,transfer,,,,5.75,198.5774,198.5774,attraction,trinary,difficult,left,right,target,left,5.75,15.75,6.75,198.5774,323.4616,208.5062,198.5774,323.4616,208.5062,NaN,NaN,NaN,target,,
,transfer_trial,categorize-lines-2,212,1051874,0.0-6.0-0.4,line_cat_multi_stim_2,20211206,302,3154,,,,,,,,,"[356.6164,208.5062,339.6347]","[208.5062,339.6347,356.6164]","[6.749997433250141,16.7500017281595,17.74999971659282]","[""j"",""k"",""l""]","[""J"",""K"",""L""]","[356.6164,356.6164]",TRUE,null,l,356.6164,17.74999972,1,,208.5062,339.6347,356.6164,6.749997433,16.75000173,17.74999972,,transfer,,,,17.75,356.6164,356.6164,attraction,trinary,easy,right,left,target,right,17.75,6.75,16.75,356.6164,208.5062,339.6347,356.6164,208.5062,339.6347,NaN,NaN,NaN,target,,
,transfer_trial,categorize-lines-2,213,1057490,0.0-6.0-0.5,line_cat_multi_stim_2,20211206,302,3074,,,,,,,,,"[339.6347,208.5062,218.9315]","[339.6347,218.9315,208.5062]","[16.7500017281595,7.749996497069925,6.749997433250141]","[""j"",""k"",""l""]","[""J"",""K"",""L""]","[339.6347,339.6347]",TRUE,null,l,208.5062,6.749997433,0,,339.6347,218.9315,208.5062,16.75000173,7.749996497,6.749997433,,transfer,,,,16.75,339.6347,339.6347,attraction,trinary,difficult,left,right,competitor,right,16.75,6.75,7.75,339.6347,208.5062,218.9315,208.5062,339.6347,218.9315,NaN,NaN,NaN,target,,
,transfer_trial,categorize-lines-2,214,1060570,0.0-6.0-0.6,line_cat_multi_stim_2,20211206,302,1538,,,,,,,,,"[201.2860223527559,224.96031262297032]","[201.2860223527559,224.96031262297032]","[6.027682100452884,8.306770659760927,null]","[""j"",""k""]","[""J"",""K""]",sampled_1,TRUE,null,j,201.2860224,6.0276821,1,,201.2860224,224.9603126,,6.0276821,8.30677066,NaN,,transfer,,,,,,,filler_sample,binary,,,,,left,-1,1,0,,,,,,,NaN,NaN,NaN,NA,,
,transfer_trial,categorize-lines-2,215,1064122,0.0-6.0-0.7,line_cat_multi_stim_2,20211206,302,1994,,,,,,,,,"[339.6347,208.5062]","[208.5062,339.6347]","[6.749997433250141,16.7500017281595,null]","[""j"",""k""]","[""J"",""K""]","[339.6347,339.6347]",TRUE,null,k,339.6347,16.75000173,1,,208.5062,339.6347,,6.749997433,16.75000173,NaN,,transfer,,,,16.75,339.6347,339.6347,attraction,binary,difficult,right,left,target,right,16.75,6.75,0,339.6347,208.5062,0,339.6347,208.5062,,NaN,NaN,NaN,target,,
,transfer_trial,categorize-lines-2,216,1069058,0.0-6.0-0.8,line_cat_multi_stim_2,20211206,302,3394,,,,,,,,,"[339.6347,198.5774,323.4616]","[323.4616,339.6347,198.5774]","[15.750000521219516,16.7500017281595,5.750004314173399]","[""j"",""k"",""l""]","[""J"",""K"",""L""]","[339.6347,198.5774]",TRUE,null,k,339.6347,16.75000173,1,,323.4616,339.6347,198.5774,15.75000052,16.75000173,5.750004314,,transfer,,,,16.75,198.5774,339.6347,attraction,trinary,equal_chance_6_JND,right,left,both,equal,16.75,5.75,15.75,339.6347,198.5774,323.4616,339.6347,198.5774,323.4616,NaN,NaN,NaN,target,,
,transfer_trial,categorize-lines-2,217,1073402,0.0-6.0-0.9,line_cat_multi_stim_2,20211206,302,1802,,,,,,,,,"[265.6508470274423,226.26355811198664,216.1119820002418]","[216.1119820002418,265.6508470274423,226.26355811198664]","[7.484324364333716,11.714400987049723,8.4251655849667]","[""j"",""k"",""l""]","[""J"",""K"",""L""]",sampled_1,TRUE,null,j,216.111982,7.484324364,0,,216.111982,265.650847,226.2635581,7.484324364,11.71440099,8.425165585,,transfer,,,,,,,filler_sample,trinary,,,,,right,-1,1,1,,,,,,,NaN,NaN,NaN,NA,,
,transfer_trial,categorize-lines-2,218,1077506,0.0-6.0-0.10,line_cat_multi_stim_2,20211206,302,2562,,,,,,,,,"[339.6347,198.5774]","[339.6347,198.5774]","[16.7500017281595,5.750004314173399,null]","[""j"",""k""]","[""J"",""K""]","[198.5774,339.6347]",TRUE,null,j,339.6347,16.75000173,1,,339.6347,198.5774,,16.75000173,5.750004314,NaN,,transfer,,,,5.75,339.6347,198.5774,attraction,binary,equal_chance_6_JND,left,right,both,equal,16.75,5.75,0,339.6347,198.5774,0,198.5774,339.6347,,NaN,NaN,NaN,competitor,,
,transfer_trial,categorize-lines-2,219,1081386,0.0-6.0-0.11,line_cat_multi_stim_2,20211206,302,2338,,,,,,,,,"[323.4616,208.5062]","[208.5062,323.4616]","[6.749997433250141,15.750000521219516,null]","[""j"",""k""]","[""J"",""K""]","[208.5062,323.4616]",TRUE,null,k,323.4616,15.75000052,1,,208.5062,323.4616,,6.749997433,15.75000052,NaN,,transfer,,,,6.75,323.4616,208.5062,attraction,binary,equal_chance_5_JND,left,right,both,equal,15.75,6.75,0,323.4616,208.5062,0,208.5062,323.4616,,NaN,NaN,NaN,competitor,,
,transfer_trial,categorize-lines-2,220,1084546,0.0-6.0-0.12,line_cat_multi_stim_2,20211206,302,1616,,,,,,,,,"[437.1391,285.3118,238.8882]","[238.8882,285.3118,437.1391]","[9.537995493274078,13.177806104671326,21.9227824951]","[""j"",""k"",""l""]","[""J"",""K"",""L""]","[437.1391,437.1391]",TRUE,null,l,437.1391,21.9227825,1,,238.8882,285.3118,437.1391,9.537995493,13.1778061,21.9227825,,transfer,,,,21.9228,437.1391,437.1391,filler_easy,trinary,,,,,right,21.9228,13.1778,9.538,437.1391,285.3118,238.8882,,,,NaN,NaN,NaN,NA,,
,transfer_trial,categorize-lines-2,221,1089962,0.0-6.0-0.13,line_cat_multi_stim_2,20211206,302,2860,,,,,,,,,"[198.5774,323.4616,308.0587]","[308.0587,323.4616,198.5774]","[14.750002738971677,15.750000521219516,5.750004314173399]","[""j"",""k"",""l""]","[""J"",""K"",""L""]","[198.5774,198.5774]",TRUE,null,k,323.4616,15.75000052,0,,308.0587,323.4616,198.5774,14.75000274,15.75000052,5.750004314,,transfer,,,,5.75,198.5774,198.5774,attraction,trinary,difficult,right,left,competitor,left,5.75,15.75,14.75,198.5774,323.4616,308.0587,323.4616,198.5774,308.0587,NaN,NaN,NaN,target,,
,transfer_trial,categorize-lines-2,222,1093490,0.0-6.0-0.14,line_cat_multi_stim_2,20211206,302,1984,,,,,,,,,"[323.4616,208.5062]","[208.5062,323.4616]","[6.749997433250141,15.750000521219516,null]","[""j"",""k""]","[""J"",""K""]","[323.4616,208.5062]",TRUE,null,k,323.4616,15.75000052,1,,208.5062,323.4616,,6.749997433,15.75000052,NaN,,transfer,,,,15.75,208.5062,323.4616,attraction,binary,equal_chance_5_JND,right,left,both,equal,15.75,6.75,0,323.4616,208.5062,0,323.4616,208.5062,,NaN,NaN,NaN,target,,
,transfer_trial,categorize-lines-2,223,1096450,0.0-6.0-0.15,line_cat_multi_stim_2,20211206,302,1420,,,,,,,,,"[198.5774,323.4616]","[323.4616,198.5774]","[15.750000521219516,5.750004314173399,null]","[""j"",""k""]","[""J"",""K""]","[198.5774,198.5774]",TRUE,null,k,198.5774,5.750004314,1,,323.4616,198.5774,,15.75000052,5.750004314,NaN,,transfer,,,,5.75,198.5774,198.5774,attraction,binary,difficult,right,left,competitor,left,5.75,15.75,0,198.5774,323.4616,0,323.4616,198.5774,,NaN,NaN,NaN,competitor,,
,transfer_trial,categorize-lines-2,224,1101274,0.0-6.0-0.16,line_cat_multi_stim_2,20211206,302,2280,,,,,,,,,"[189.1213,323.4616]","[189.1213,323.4616]","[4.750000701688976,15.750000521219516,null]","[""j"",""k""]","[""J"",""K""]","[189.1213,189.1213]",TRUE,null,k,323.4616,15.75000052,0,,189.1213,323.4616,,4.750000702,15.75000052,NaN,,transfer,,,,4.75,189.1213,189.1213,attraction,binary,easy,right,left,competitor,left,4.75,15.75,0,189.1213,323.4616,0,323.4616,189.1213,,NaN,NaN,NaN,target,,
,transfer_trial,categorize-lines-2,225,1103666,0.0-6.0-0.17,line_cat_multi_stim_2,20211206,302,850,,,,,,,,,"[166.41906892828862,288.3551758883036]","[288.3551758883036,166.41906892828862]","[13.395275194291296,2.1289910869989823,null]","[""j"",""k""]","[""J"",""K""]",sampled_1,TRUE,null,k,166.4190689,2.128991087,1,,288.3551759,166.4190689,,13.39527519,2.128991087,NaN,,transfer,,,,,,,filler_sample,binary,,,,,left,-1,1,0,,,,,,,NaN,NaN,NaN,NA,,
,transfer_trial,categorize-lines-2,226,1107352,0.0-6.0-0.18,line_cat_multi_stim_2,20211206,302,2146,,,,,,,,,"[339.6347,198.5774,323.4616]","[198.5774,323.4616,339.6347]","[5.750004314173399,15.750000521219516,16.7500017281595]","[""j"",""k"",""l""]","[""J"",""K"",""L""]","[339.6347,198.5774]",TRUE,null,l,339.6347,16.75000173,1,,198.5774,323.4616,339.6347,5.750004314,15.75000052,16.75000173,,transfer,,,,16.75,198.5774,339.6347,attraction,trinary,equal_chance_6_JND,right,left,both,equal,16.75,5.75,15.75,339.6347,198.5774,323.4616,339.6347,198.5774,323.4616,NaN,NaN,NaN,target,,
,transfer_trial,categorize-lines-2,227,1112602,0.0-6.0-0.19,line_cat_multi_stim_2,20211206,302,3706,,,,,,,,,"[323.4616,208.5062]","[323.4616,208.5062]","[15.750000521219516,6.749997433250141,null]","[""j"",""k""]","[""J"",""K""]","[323.4616,208.5062]",TRUE,null,k,208.5062,6.749997433,1,,323.4616,208.5062,,15.75000052,6.749997433,NaN,,transfer,,,,15.75,208.5062,323.4616,attraction,binary,equal_chance_5_JND,right,left,both,equal,15.75,6.75,0,323.4616,208.5062,0,323.4616,208.5062,,NaN,NaN,NaN,competitor,,
,transfer_trial,categorize-lines-2,228,1116098,0.0-6.0-0.20,line_cat_multi_stim_2,20211206,302,956,,,,,,,,,"[356.6164,208.5062]","[356.6164,208.5062]","[17.74999971659282,6.749997433250141,null]","[""j"",""k""]","[""J"",""K""]","[356.6164,356.6164]",TRUE,null,k,208.5062,6.749997433,0,,356.6164,208.5062,,17.74999972,6.749997433,NaN,,transfer,,,,17.75,356.6164,356.6164,attraction,binary,easy,right,left,target,right,17.75,6.75,0,356.6164,208.5062,0,356.6164,208.5062,,NaN,NaN,NaN,competitor,,
,transfer_trial,categorize-lines-2,229,1121816,0.0-6.0-0.21,line_cat_multi_stim_2,20211206,302,4180,,,,,,,,,"[339.6347,208.5062,323.4616]","[208.5062,339.6347,323.4616]","[6.749997433250141,16.7500017281595,15.750000521219516]","[""j"",""k"",""l""]","[""J"",""K"",""L""]","[339.6347,339.6347]",TRUE,null,k,339.6347,16.75000173,1,,208.5062,339.6347,323.4616,6.749997433,16.75000173,15.75000052,,transfer,,,,16.75,339.6347,339.6347,attraction,trinary,difficult,right,left,target,right,16.75,6.75,15.75,339.6347,208.5062,323.4616,339.6347,208.5062,323.4616,NaN,NaN,NaN,target,,
,transfer_trial,categorize-lines-2,230,1124066,0.0-6.0-0.22,line_cat_multi_stim_2,20211206,302,708,,,,,,,,,"[448.8141025066162,273.0979250420693]","[273.0979250420693,448.8141025066162]","[12.281064160356353,22.46300050375005,null]","[""j"",""k""]","[""J"",""K""]",sampled_1,TRUE,null,k,448.8141025,22.4630005,1,,273.097925,448.8141025,,12.28106416,22.4630005,NaN,,transfer,,,,,,,filler_sample,binary,,,,,left,-1,1,0,,,,,,,NaN,NaN,NaN,NA,,
,transfer_trial,categorize-lines-2,231,1128186,0.0-6.0-0.23,line_cat_multi_stim_2,20211206,302,1574,,,,,,,,,"[252.52252684502952,210.826662945459,261.6705624452113]","[261.6705624452113,252.52252684502952,210.826662945459]","[11.404983621298989,10.67561822622209,6.976836518757246]","[""j"",""k"",""l""]","[""J"",""K"",""L""]",sampled_1,TRUE,null,l,210.8266629,6.976836519,0,,261.6705624,252.5225268,210.8266629,11.40498362,10.67561823,6.976836519,,transfer,,,,,,,filler_sample,trinary,,,,,right,-1,1,1,,,,,,,NaN,NaN,NaN,NA,,
,transfer_trial,categorize-lines-2,232,1132128,0.0-6.0-0.24,line_cat_multi_stim_2,20211206,302,2402,,,,,,,,,"[339.6347,208.5062]","[208.5062,339.6347]","[6.749997433250141,16.7500017281595,null]","[""j"",""k""]","[""J"",""K""]","[339.6347,339.6347]",TRUE,null,k,339.6347,16.75000173,1,,208.5062,339.6347,,6.749997433,16.75000173,NaN,,transfer,,,,16.75,339.6347,339.6347,attraction,binary,difficult,left,right,competitor,right,16.75,6.75,0,339.6347,208.5062,0,208.5062,339.6347,,NaN,NaN,NaN,competitor,,
,transfer_trial,categorize-lines-2,233,1135090,0.0-6.0-0.25,line_cat_multi_stim_2,20211206,302,1418,,,,,,,,,"[339.6347,198.5774]","[339.6347,198.5774]","[16.7500017281595,5.750004314173399,null]","[""j"",""k""]","[""J"",""K""]","[339.6347,198.5774]",TRUE,null,j,339.6347,16.75000173,1,,339.6347,198.5774,,16.75000173,5.750004314,NaN,,transfer,,,,16.75,198.5774,339.6347,attraction,binary,equal_chance_6_JND,right,left,both,equal,16.75,5.75,0,339.6347,198.5774,0,339.6347,198.5774,,NaN,NaN,NaN,target,,
,transfer_trial,categorize-lines-2,234,1138850,0.0-6.0-0.26,line_cat_multi_stim_2,20211206,302,2216,,,,,,,,,"[339.6347,198.5774]","[339.6347,198.5774]","[16.7500017281595,5.750004314173399,null]","[""j"",""k""]","[""J"",""K""]","[198.5774,339.6347]",TRUE,null,k,198.5774,5.750004314,1,,339.6347,198.5774,,16.75000173,5.750004314,NaN,,transfer,,,,5.75,339.6347,198.5774,attraction,binary,equal_chance_6_JND,left,right,both,equal,16.75,5.75,0,339.6347,198.5774,0,198.5774,339.6347,,NaN,NaN,NaN,target,,
,transfer_trial,categorize-lines-2,235,1141794,0.0-6.0-0.27,line_cat_multi_stim_2,20211206,302,1400,,,,,,,,,"[339.6347,198.5774]","[339.6347,198.5774]","[16.7500017281595,5.750004314173399,null]","[""j"",""k""]","[""J"",""K""]","[198.5774,339.6347]",TRUE,null,j,339.6347,16.75000173,1,,339.6347,198.5774,,16.75000173,5.750004314,NaN,,transfer,,,,5.75,339.6347,198.5774,attraction,binary,equal_chance_6_JND,left,right,both,equal,16.75,5.75,0,339.6347,198.5774,0,198.5774,339.6347,,NaN,NaN,NaN,competitor,,
,transfer_trial,categorize-lines-2,236,1146586,0.0-6.0-0.28,line_cat_multi_stim_2,20211206,302,3246,,,,,,,,,"[356.6164,208.5062,339.6347]","[208.5062,339.6347,356.6164]","[6.749997433250141,16.7500017281595,17.74999971659282]","[""j"",""k"",""l""]","[""J"",""K"",""L""]","[356.6164,356.6164]",TRUE,null,l,356.6164,17.74999972,1,,208.5062,339.6347,356.6164,6.749997433,16.75000173,17.74999972,,transfer,,,,17.75,356.6164,356.6164,attraction,trinary,easy,right,left,target,right,17.75,6.75,16.75,356.6164,208.5062,339.6347,356.6164,208.5062,339.6347,NaN,NaN,NaN,target,,
,transfer_trial,categorize-lines-2,237,1152978,0.0-6.0-0.29,line_cat_multi_stim_2,20211206,302,3828,,,,,,,,,"[339.6347,198.5774,323.4616]","[198.5774,339.6347,323.4616]","[5.750004314173399,16.7500017281595,15.750000521219516]","[""j"",""k"",""l""]","[""J"",""K"",""L""]","[339.6347,198.5774]",TRUE,null,l,323.4616,15.75000052,0,,198.5774,339.6347,323.4616,5.750004314,16.75000173,15.75000052,,transfer,,,,16.75,198.5774,339.6347,attraction,trinary,equal_chance_6_JND,right,left,both,equal,16.75,5.75,15.75,339.6347,198.5774,323.4616,339.6347,198.5774,323.4616,NaN,NaN,NaN,decoy,,
,transfer_trial,categorize-lines-2,238,1156706,0.0-6.0-0.30,line_cat_multi_stim_2,20211206,302,1180,,,,,,,,,"[189.1213,323.4616]","[323.4616,189.1213]","[15.750000521219516,4.750000701688976,null]","[""j"",""k""]","[""J"",""K""]","[189.1213,189.1213]",TRUE,null,j,323.4616,15.75000052,0,,323.4616,189.1213,,15.75000052,4.750000702,NaN,,transfer,,,,4.75,189.1213,189.1213,attraction,binary,easy,left,right,target,left,4.75,15.75,0,189.1213,323.4616,0,189.1213,323.4616,,NaN,NaN,NaN,competitor,,
,transfer_trial,categorize-lines-2,239,1163762,0.0-6.0-0.31,line_cat_multi_stim_2,20211206,302,4510,,,,,,,,,"[189.1213,323.4616,308.0587]","[189.1213,308.0587,323.4616]","[4.750000701688976,14.750002738971677,15.750000521219516]","[""j"",""k"",""l""]","[""J"",""K"",""L""]","[189.1213,189.1213]",TRUE,null,k,308.0587,14.75000274,0,,189.1213,308.0587,323.4616,4.750000702,14.75000274,15.75000052,,transfer,,,,4.75,189.1213,189.1213,attraction,trinary,easy,right,left,competitor,left,4.75,15.75,14.75,189.1213,323.4616,308.0587,323.4616,189.1213,308.0587,NaN,NaN,NaN,decoy,,
,transfer_trial,categorize-lines-2,240,1167456,0.0-6.0-0.32,line_cat_multi_stim_2,20211206,302,2150,,,,,,,,,"[361.85454144366315,273.65609968799805]","[273.65609968799805,361.85454144366315]","[12.322912283409197,18.048863592753772,null]","[""j"",""k""]","[""J"",""K""]",sampled_1,TRUE,null,k,361.8545414,18.04886359,1,,273.6560997,361.8545414,,12.32291228,18.04886359,NaN,,transfer,,,,,,,filler_sample,binary,,,,,left,-1,1,0,,,,,,,NaN,NaN,NaN,NA,,
,transfer_trial,categorize-lines-2,241,1169944,0.0-6.0-0.33,line_cat_multi_stim_2,20211206,302,944,,,,,,,,,"[339.6347,208.5062]","[339.6347,208.5062]","[16.7500017281595,6.749997433250141,null]","[""j"",""k""]","[""J"",""K""]","[339.6347,339.6347]",TRUE,null,j,339.6347,16.75000173,1,,339.6347,208.5062,,16.75000173,6.749997433,NaN,,transfer,,,,16.75,339.6347,339.6347,attraction,binary,difficult,right,left,target,right,16.75,6.75,0,339.6347,208.5062,0,339.6347,208.5062,,NaN,NaN,NaN,target,,
,transfer_trial,categorize-lines-2,242,1172602,0.0-6.0-0.34,line_cat_multi_stim_2,20211206,302,1110,,,,,,,,,"[162.523,244.5596,239.1983]","[244.5596,239.1983,162.523]","[10.018899428110446,9.56458394587498,1.6434508365456342]","[""j"",""k"",""l""]","[""J"",""K"",""L""]","[162.523,162.523]",TRUE,null,l,162.523,1.643450837,1,,244.5596,239.1983,162.523,10.01889943,9.564583946,1.643450837,,transfer,,,,1.6434,162.523,162.523,filler_easy,trinary,,,,,left,1.6434,10.0189,9.5646,162.523,244.5596,239.1983,,,,NaN,NaN,NaN,NA,,
,transfer_trial,categorize-lines-2,243,1176496,0.0-6.0-0.35,line_cat_multi_stim_2,20211206,302,2350,,,,,,,,,"[331.38854295471145,281.9199107652306]","[331.38854295471145,281.9199107652306]","[16.24623020112245,12.932683110783376,null]","[""j"",""k""]","[""J"",""K""]",sampled_1,TRUE,null,j,331.388543,16.2462302,1,,331.388543,281.9199108,,16.2462302,12.93268311,NaN,,transfer,,,,,,,filler_sample,binary,,,,,left,-1,1,0,,,,,,,NaN,NaN,NaN,NA,,
,transfer_trial,categorize-lines-2,244,1178722,0.0-6.0-0.36,line_cat_multi_stim_2,20211206,302,680,,,,,,,,,"[447.3695,244.0034,245.678]","[447.3695,244.0034,245.678]","[22.396923633680604,9.972232596645437,10.11241609310879]","[""j"",""k"",""l""]","[""J"",""K"",""L""]","[447.3695,447.3695]",TRUE,null,j,447.3695,22.39692363,1,,447.3695,244.0034,245.678,22.39692363,9.972232597,10.11241609,,transfer,,,,22.3969,447.3695,447.3695,filler_easy,trinary,,,,,right,22.3969,9.9722,10.1124,447.3695,244.0034,245.678,,,,NaN,NaN,NaN,NA,,
,transfer_trial,categorize-lines-2,245,1180922,0.0-6.0-0.37,line_cat_multi_stim_2,20211206,302,658,,,,,,,,,"[356.6164,208.5062]","[356.6164,208.5062]","[17.74999971659282,6.749997433250141,null]","[""j"",""k""]","[""J"",""K""]","[356.6164,356.6164]",TRUE,null,j,356.6164,17.74999972,1,,356.6164,208.5062,,17.74999972,6.749997433,NaN,,transfer,,,,17.75,356.6164,356.6164,attraction,binary,easy,left,right,competitor,right,17.75,6.75,0,356.6164,208.5062,0,208.5062,356.6164,,NaN,NaN,NaN,competitor,,
,transfer_trial,categorize-lines-2,246,1183924,0.0-6.0-0.38,line_cat_multi_stim_2,20211206,302,1450,,,,,,,,,"[189.1213,323.4616,198.5774]","[198.5774,323.4616,189.1213]","[5.750004314173399,15.750000521219516,4.750000701688976]","[""j"",""k"",""l""]","[""J"",""K"",""L""]","[189.1213,189.1213]",TRUE,null,l,189.1213,4.750000702,1,,198.5774,323.4616,189.1213,5.750004314,15.75000052,4.750000702,,transfer,,,,4.75,189.1213,189.1213,attraction,trinary,easy,left,right,target,left,4.75,15.75,5.75,189.1213,323.4616,198.5774,189.1213,323.4616,198.5774,NaN,NaN,NaN,target,,
,transfer_trial,categorize-lines-2,247,1186520,0.0-6.0-0.39,line_cat_multi_stim_2,20211206,302,1050,,,,,,,,,"[339.6347,198.5774,208.5062]","[208.5062,198.5774,339.6347]","[6.749997433250141,5.750004314173399,16.7500017281595]","[""j"",""k"",""l""]","[""J"",""K"",""L""]","[198.5774,339.6347]",TRUE,null,k,198.5774,5.750004314,1,,208.5062,198.5774,339.6347,6.749997433,5.750004314,16.75000173,,transfer,,,,5.75,339.6347,198.5774,attraction,trinary,equal_chance_6_JND,left,right,both,equal,16.75,5.75,6.75,339.6347,198.5774,208.5062,198.5774,339.6347,208.5062,NaN,NaN,NaN,target,,
,transfer_trial,categorize-lines-2,248,1189186,0.0-6.0-0.40,line_cat_multi_stim_2,20211206,302,1116,,,,,,,,,"[437.1072,243.507]","[437.1072,243.507]","[21.921286760305552,9.930493239660157,null]","[""j"",""k""]","[""J"",""K""]","[437.1072,437.1072]",TRUE,null,j,437.1072,21.92128676,1,,437.1072,243.507,,21.92128676,9.93049324,NaN,,transfer,,,,21.9213,437.1072,437.1072,filler_easy,binary,,,,,right,21.9213,9.9305,0,437.1072,243.507,0,,,,NaN,NaN,NaN,NA,,
,transfer_trial,categorize-lines-2,249,1194872,0.0-6.0-0.41,line_cat_multi_stim_2,20211206,302,3140,,,,,,,,,"[323.4616,208.5062,218.9315]","[218.9315,208.5062,323.4616]","[7.749996497069925,6.749997433250141,15.750000521219516]","[""j"",""k"",""l""]","[""J"",""K"",""L""]","[208.5062,323.4616]",TRUE,null,j,218.9315,7.749996497,0,,218.9315,208.5062,323.4616,7.749996497,6.749997433,15.75000052,,transfer,,,,6.75,323.4616,208.5062,attraction,trinary,equal_chance_5_JND,left,right,both,equal,15.75,6.75,7.75,323.4616,208.5062,218.9315,208.5062,323.4616,218.9315,NaN,NaN,NaN,decoy,,
,transfer_trial,categorize-lines-2,250,1199552,0.0-6.0-0.42,line_cat_multi_stim_2,20211206,302,3134,,,,,,,,,"[323.4616,208.5062,308.0587]","[208.5062,308.0587,323.4616]","[6.749997433250141,14.750002738971677,15.750000521219516]","[""j"",""k"",""l""]","[""J"",""K"",""L""]","[323.4616,208.5062]",TRUE,null,l,323.4616,15.75000052,1,,208.5062,308.0587,323.4616,6.749997433,14.75000274,15.75000052,,transfer,,,,15.75,208.5062,323.4616,attraction,trinary,equal_chance_5_JND,right,left,both,equal,15.75,6.75,14.75,323.4616,208.5062,308.0587,323.4616,208.5062,308.0587,NaN,NaN,NaN,target,,
,transfer_trial,categorize-lines-2,251,1202936,0.0-6.0-0.43,line_cat_multi_stim_2,20211206,302,1836,,,,,,,,,"[339.6347,198.5774]","[198.5774,339.6347]","[5.750004314173399,16.7500017281595,null]","[""j"",""k""]","[""J"",""K""]","[339.6347,198.5774]",TRUE,null,k,339.6347,16.75000173,1,,198.5774,339.6347,,5.750004314,16.75000173,NaN,,transfer,,,,16.75,198.5774,339.6347,attraction,binary,equal_chance_6_JND,right,left,both,equal,16.75,5.75,0,339.6347,198.5774,0,339.6347,198.5774,,NaN,NaN,NaN,target,,
,transfer_trial,categorize-lines-2,252,1205592,0.0-6.0-0.44,line_cat_multi_stim_2,20211206,302,1108,,,,,,,,,"[323.4616,208.5062,218.9315]","[208.5062,218.9315,323.4616]","[6.749997433250141,7.749996497069925,15.750000521219516]","[""j"",""k"",""l""]","[""J"",""K"",""L""]","[208.5062,323.4616]",TRUE,null,l,323.4616,15.75000052,1,,208.5062,218.9315,323.4616,6.749997433,7.749996497,15.75000052,,transfer,,,,6.75,323.4616,208.5062,attraction,trinary,equal_chance_5_JND,left,right,both,equal,15.75,6.75,7.75,323.4616,208.5062,218.9315,208.5062,323.4616,218.9315,NaN,NaN,NaN,competitor,,
,transfer_trial,categorize-lines-2,253,1212952,0.0-6.0-0.45,line_cat_multi_stim_2,20211206,302,5812,,,,,,,,,"[263.48672325577303,264.5936736905556,263.77243907453834]","[263.77243907453834,263.48672325577303,264.5936736905556]","[11.568960132515256,11.546747097083959,11.632673470271833]","[""j"",""k"",""l""]","[""J"",""K"",""L""]",sampled_1,TRUE,null,k,263.4867233,11.5467471,1,,263.7724391,263.4867233,264.5936737,11.56896013,11.5467471,11.63267347,,transfer,,,,,,,filler_sample,trinary,,,,,right,-1,1,1,,,,,,,NaN,NaN,NaN,NA,,
,transfer_trial,categorize-lines-2,254,1218504,0.0-6.0-0.46,line_cat_multi_stim_2,20211206,302,3006,,,,,,,,,"[216.07188745105012,264.3553202155242,274.548335449717]","[274.548335449717,216.07188745105012,264.3553202155242]","[12.389629079335133,7.480521467895239,11.614201831022042]","[""j"",""k"",""l""]","[""J"",""K"",""L""]",sampled_1,TRUE,null,j,274.5483354,12.38962908,0,,274.5483354,216.0718875,264.3553202,12.38962908,7.480521468,11.61420183,,transfer,,,,,,,filler_sample,trinary,,,,,left,-1,1,1,,,,,,,NaN,NaN,NaN,NA,,
,transfer_trial,categorize-lines-2,255,1220760,0.0-6.0-0.47,line_cat_multi_stim_2,20211206,302,710,,,,,,,,,"[356.6164,208.5062,218.9315]","[356.6164,208.5062,218.9315]","[17.74999971659282,6.749997433250141,7.749996497069925]","[""j"",""k"",""l""]","[""J"",""K"",""L""]","[356.6164,356.6164]",TRUE,null,j,356.6164,17.74999972,1,,356.6164,208.5062,218.9315,17.74999972,6.749997433,7.749996497,,transfer,,,,17.75,356.6164,356.6164,attraction,trinary,easy,left,right,competitor,right,17.75,6.75,7.75,356.6164,208.5062,218.9315,208.5062,356.6164,218.9315,NaN,NaN,NaN,competitor,,
,transfer_trial,categorize-lines-2,256,1224720,0.0-6.0-0.48,line_cat_multi_stim_2,20211206,302,2408,,,,,,,,,"[436.8714723128647,225.99785381511552]","[225.99785381511552,436.8714723128647]","[8.401082794356507,21.91023051954865,null]","[""j"",""k""]","[""J"",""K""]",sampled_1,TRUE,null,k,436.8714723,21.91023052,1,,225.9978538,436.8714723,,8.401082794,21.91023052,NaN,,transfer,,,,,,,filler_sample,binary,,,,,right,-1,1,0,,,,,,,NaN,NaN,NaN,NA,,
,transfer_trial,categorize-lines-2,257,1228208,0.0-6.0-0.49,line_cat_multi_stim_2,20211206,302,944,,,,,,,,,"[189.1213,323.4616]","[189.1213,323.4616]","[4.750000701688976,15.750000521219516,null]","[""j"",""k""]","[""J"",""K""]","[189.1213,189.1213]",TRUE,null,k,323.4616,15.75000052,0,,189.1213,323.4616,,4.750000702,15.75000052,NaN,,transfer,,,,4.75,189.1213,189.1213,attraction,binary,easy,right,left,competitor,left,4.75,15.75,0,189.1213,323.4616,0,323.4616,189.1213,,NaN,NaN,NaN,target,,
,transfer_trial,categorize-lines-2,258,1230768,0.0-6.0-0.50,line_cat_multi_stim_2,20211206,302,1014,,,,,,,,,"[387.89402011865695,252.2356847990937,249.79467203267984]","[249.79467203267984,252.2356847990937,387.89402011865695]","[10.453007960052265,10.6523235230184,19.473122920696543]","[""j"",""k"",""l""]","[""J"",""K"",""L""]",sampled_1,TRUE,null,l,387.8940201,19.47312292,1,,249.794672,252.2356848,387.8940201,10.45300796,10.65232352,19.47312292,,transfer,,,,,,,filler_sample,trinary,,,,,left,-1,1,1,,,,,,,NaN,NaN,NaN,NA,,
,transfer_trial,categorize-lines-2,259,1232898,0.0-6.0-0.51,line_cat_multi_stim_2,20211206,302,582,,,,,,,,,"[198.5774,323.4616]","[198.5774,323.4616]","[5.750004314173399,15.750000521219516,null]","[""j"",""k""]","[""J"",""K""]","[198.5774,198.5774]",TRUE,null,j,198.5774,5.750004314,1,,198.5774,323.4616,,5.750004314,15.75000052,NaN,,transfer,,,,5.75,198.5774,198.5774,attraction,binary,difficult,left,right,target,left,5.75,15.75,0,198.5774,323.4616,0,198.5774,323.4616,,NaN,NaN,NaN,target,,
,transfer_trial,categorize-lines-2,260,1236480,0.0-6.0-0.52,line_cat_multi_stim_2,20211206,302,1038,,,,,,,,,"[319.50293697220434,242.4985734296832]","[242.4985734296832,319.50293697220434]","[9.845437941787875,15.497614835944326,null]","[""j"",""k""]","[""J"",""K""]",sampled_1,TRUE,null,j,242.4985734,9.845437942,0,,242.4985734,319.502937,,9.845437942,15.49761484,NaN,,transfer,,,,,,,filler_sample,binary,,,,,left,-1,1,0,,,,,,,NaN,NaN,NaN,NA,,
,transfer_trial,categorize-lines-2,261,1239448,0.0-6.0-0.53,line_cat_multi_stim_2,20211206,302,1424,,,,,,,,,"[189.1213,323.4616,308.0587]","[308.0587,323.4616,189.1213]","[14.750002738971677,15.750000521219516,4.750000701688976]","[""j"",""k"",""l""]","[""J"",""K"",""L""]","[189.1213,189.1213]",TRUE,null,l,189.1213,4.750000702,1,,308.0587,323.4616,189.1213,14.75000274,15.75000052,4.750000702,,transfer,,,,4.75,189.1213,189.1213,attraction,trinary,easy,right,left,competitor,left,4.75,15.75,14.75,189.1213,323.4616,308.0587,323.4616,189.1213,308.0587,NaN,NaN,NaN,competitor,,
,transfer_trial,categorize-lines-2,262,1241656,0.0-6.0-0.54,line_cat_multi_stim_2,20211206,302,662,,,,,,,,,"[169.33804695331952,238.23607705746002]","[169.33804695331952,238.23607705746002]","[2.485371853722243,9.48196867610843,null]","[""j"",""k""]","[""J"",""K""]",sampled_1,TRUE,null,j,169.338047,2.485371854,1,,169.338047,238.2360771,,2.485371854,9.481968676,NaN,,transfer,,,,,,,filler_sample,binary,,,,,right,-1,1,0,,,,,,,NaN,NaN,NaN,NA,,
,transfer_trial,categorize-lines-2,263,1246352,0.0-6.0-0.55,line_cat_multi_stim_2,20211206,302,3152,,,,,,,,,"[339.6347,198.5774]","[339.6347,198.5774]","[16.7500017281595,5.750004314173399,null]","[""j"",""k""]","[""J"",""K""]","[339.6347,198.5774]",TRUE,null,j,339.6347,16.75000173,1,,339.6347,198.5774,,16.75000173,5.750004314,NaN,,transfer,,,,16.75,198.5774,339.6347,attraction,binary,equal_chance_6_JND,right,left,both,equal,16.75,5.75,0,339.6347,198.5774,0,339.6347,198.5774,,NaN,NaN,NaN,target,,
,transfer_trial,categorize-lines-2,264,1249016,0.0-6.0-0.56,line_cat_multi_stim_2,20211206,302,1120,,,,,,,,,"[373.6720769207151,236.65671909911305,271.7206156496576]","[236.65671909911305,373.6720769207151,271.7206156496576]","[9.345640912963475,18.707527112590075,12.17743588464428]","[""j"",""k"",""l""]","[""J"",""K"",""L""]",sampled_1,TRUE,null,k,373.6720769,18.70752711,1,,236.6567191,373.6720769,271.7206156,9.345640913,18.70752711,12.17743588,,transfer,,,,,,,filler_sample,trinary,,,,,left,-1,1,1,,,,,,,NaN,NaN,NaN,NA,,
,transfer_trial,categorize-lines-2,265,1252272,0.0-6.0-0.57,line_cat_multi_stim_2,20211206,302,1710,,,,,,,,,"[339.6347,198.5774,208.5062]","[198.5774,208.5062,339.6347]","[5.750004314173399,6.749997433250141,16.7500017281595]","[""j"",""k"",""l""]","[""J"",""K"",""L""]","[198.5774,339.6347]",TRUE,null,l,339.6347,16.75000173,1,,198.5774,208.5062,339.6347,5.750004314,6.749997433,16.75000173,,transfer,,,,5.75,339.6347,198.5774,attraction,trinary,equal_chance_6_JND,left,right,both,equal,16.75,5.75,6.75,339.6347,198.5774,208.5062,198.5774,339.6347,208.5062,NaN,NaN,NaN,competitor,,
,transfer_trial,categorize-lines-2,266,1254840,0.0-6.0-0.58,line_cat_multi_stim_2,20211206,302,1022,,,,,,,,,"[152.1939,242.6959,241.408]","[242.6959,241.408,152.1939]","[9.862109164846421,9.753054988340416,0.29760243548476756]","[""j"",""k"",""l""]","[""J"",""K"",""L""]","[152.1939,152.1939]",TRUE,null,l,152.1939,0.297602435,1,,242.6959,241.408,152.1939,9.862109165,9.753054988,0.297602435,,transfer,,,,0.2976,152.1939,152.1939,filler_easy,trinary,,,,,left,0.2976,9.8621,9.7531,152.1939,242.6959,241.408,,,,NaN,NaN,NaN,NA,,
,transfer_trial,categorize-lines-2,267,1257024,0.0-6.0-0.59,line_cat_multi_stim_2,20211206,302,640,,,,,,,,,"[414.9215,262.9662,257.1963]","[257.1963,414.9215,262.9662]","[11.051496170399991,20.85367140971867,11.506216924433566]","[""j"",""k"",""l""]","[""J"",""K"",""L""]","[414.9215,414.9215]",TRUE,null,k,414.9215,20.85367141,1,,257.1963,414.9215,262.9662,11.05149617,20.85367141,11.50621692,,transfer,,,,20.8537,414.9215,414.9215,filler_easy,trinary,,,,,right,20.8537,11.5062,11.0515,414.9215,262.9662,257.1963,,,,NaN,NaN,NaN,NA,,
,transfer_trial,categorize-lines-2,268,1259528,0.0-6.0-0.60,line_cat_multi_stim_2,20211206,302,960,,,,,,,,,"[323.4616,208.5062,308.0587]","[323.4616,308.0587,208.5062]","[15.750000521219516,14.750002738971677,6.749997433250141]","[""j"",""k"",""l""]","[""J"",""K"",""L""]","[323.4616,208.5062]",TRUE,null,j,323.4616,15.75000052,1,,323.4616,308.0587,208.5062,15.75000052,14.75000274,6.749997433,,transfer,,,,15.75,208.5062,323.4616,attraction,trinary,equal_chance_5_JND,right,left,both,equal,15.75,6.75,14.75,323.4616,208.5062,308.0587,323.4616,208.5062,308.0587,NaN,NaN,NaN,target,,
,transfer_trial,categorize-lines-2,269,1262448,0.0-6.0-0.61,line_cat_multi_stim_2,20211206,302,1374,,,,,,,,,"[160.8873,253.1802]","[160.8873,253.1802]","[1.4361260505393711,10.728928729284515,null]","[""j"",""k""]","[""J"",""K""]","[160.8873,160.8873]",TRUE,null,j,160.8873,1.436126051,1,,160.8873,253.1802,,1.436126051,10.72892873,NaN,,transfer,,,,1.4361,160.8873,160.8873,filler_easy,binary,,,,,left,1.4361,10.7289,0,160.8873,253.1802,0,,,,NaN,NaN,NaN,NA,,
,transfer_trial,categorize-lines-2,270,1265248,0.0-6.0-0.62,line_cat_multi_stim_2,20211206,302,1254,,,,,,,,,"[356.6164,208.5062,339.6347]","[356.6164,339.6347,208.5062]","[17.74999971659282,16.7500017281595,6.749997433250141]","[""j"",""k"",""l""]","[""J"",""K"",""L""]","[356.6164,356.6164]",TRUE,null,j,356.6164,17.74999972,1,,356.6164,339.6347,208.5062,17.74999972,16.75000173,6.749997433,,transfer,,,,17.75,356.6164,356.6164,attraction,trinary,easy,right,left,target,right,17.75,6.75,16.75,356.6164,208.5062,339.6347,356.6164,208.5062,339.6347,NaN,NaN,NaN,target,,
,transfer_trial,categorize-lines-2,271,1267664,0.0-6.0-0.63,line_cat_multi_stim_2,20211206,302,870,,,,,,,,,"[339.6347,208.5062,323.4616]","[339.6347,208.5062,323.4616]","[16.7500017281595,6.749997433250141,15.750000521219516]","[""j"",""k"",""l""]","[""J"",""K"",""L""]","[339.6347,339.6347]",TRUE,null,j,339.6347,16.75000173,1,,339.6347,208.5062,323.4616,16.75000173,6.749997433,15.75000052,,transfer,,,,16.75,339.6347,339.6347,attraction,trinary,difficult,right,left,target,right,16.75,6.75,15.75,339.6347,208.5062,323.4616,339.6347,208.5062,323.4616,NaN,NaN,NaN,target,,
,transfer_trial,categorize-lines-2,272,1273048,0.0-6.0-0.64,line_cat_multi_stim_2,20211206,302,2838,,,,,,,,,"[219.1453090163145,256.24080357140593]","[219.1453090163145,256.24080357140593]","[7.7700031069243956,10.97521101488758,null]","[""j"",""k""]","[""J"",""K""]",sampled_1,TRUE,null,k,256.2408036,10.97521101,0,,219.145309,256.2408036,,7.770003107,10.97521101,NaN,,transfer,,,,,,,filler_sample,binary,,,,,right,-1,1,0,,,,,,,NaN,NaN,NaN,NA,,
,transfer_trial,categorize-lines-2,273,1276848,0.0-6.0-0.65,line_cat_multi_stim_2,20211206,302,1246,,,,,,,,,"[356.6164,208.5062,218.9315]","[218.9315,208.5062,356.6164]","[7.749996497069925,6.749997433250141,17.74999971659282]","[""j"",""k"",""l""]","[""J"",""K"",""L""]","[356.6164,356.6164]",TRUE,null,k,208.5062,6.749997433,0,,218.9315,208.5062,356.6164,7.749996497,6.749997433,17.74999972,,transfer,,,,17.75,356.6164,356.6164,attraction,trinary,easy,left,right,competitor,right,17.75,6.75,7.75,356.6164,208.5062,218.9315,208.5062,356.6164,218.9315,NaN,NaN,NaN,target,,
,transfer_trial,categorize-lines-2,274,1280224,0.0-6.0-0.66,line_cat_multi_stim_2,20211206,302,1830,,,,,,,,,"[164.7966,270.0786]","[270.0786,164.7966]","[12.053202600557224,1.9281897017528786,null]","[""j"",""k""]","[""J"",""K""]","[164.7966,164.7966]",TRUE,null,k,164.7966,1.928189702,1,,270.0786,164.7966,,12.0532026,1.928189702,NaN,,transfer,,,,1.9282,164.7966,164.7966,filler_easy,binary,,,,,left,1.9282,12.0532,0,164.7966,270.0786,0,,,,NaN,NaN,NaN,NA,,
,transfer_trial,categorize-lines-2,275,1283784,0.0-6.0-0.67,line_cat_multi_stim_2,20211206,302,2016,,,,,,,,,"[356.6164,208.5062,218.9315]","[356.6164,218.9315,208.5062]","[17.74999971659282,7.749996497069925,6.749997433250141]","[""j"",""k"",""l""]","[""J"",""K"",""L""]","[356.6164,356.6164]",TRUE,null,j,356.6164,17.74999972,1,,356.6164,218.9315,208.5062,17.74999972,7.749996497,6.749997433,,transfer,,,,17.75,356.6164,356.6164,attraction,trinary,easy,left,right,competitor,right,17.75,6.75,7.75,356.6164,208.5062,218.9315,208.5062,356.6164,218.9315,NaN,NaN,NaN,competitor,,
,transfer_trial,categorize-lines-2,276,1288408,0.0-6.0-0.68,line_cat_multi_stim_2,20211206,302,2080,,,,,,,,,"[198.5774,323.4616]","[323.4616,198.5774]","[15.750000521219516,5.750004314173399,null]","[""j"",""k""]","[""J"",""K""]","[198.5774,198.5774]",TRUE,null,j,323.4616,15.75000052,0,,323.4616,198.5774,,15.75000052,5.750004314,NaN,,transfer,,,,5.75,198.5774,198.5774,attraction,binary,difficult,left,right,target,left,5.75,15.75,0,198.5774,323.4616,0,198.5774,323.4616,,NaN,NaN,NaN,competitor,,
,transfer_trial,categorize-lines-2,277,1292584,0.0-6.0-0.69,line_cat_multi_stim_2,20211206,302,1632,,,,,,,,,"[339.6347,208.5062]","[208.5062,339.6347]","[6.749997433250141,16.7500017281595,null]","[""j"",""k""]","[""J"",""K""]","[339.6347,339.6347]",TRUE,null,j,208.5062,6.749997433,0,,208.5062,339.6347,,6.749997433,16.75000173,NaN,,transfer,,,,16.75,339.6347,339.6347,attraction,binary,difficult,left,right,competitor,right,16.75,6.75,0,339.6347,208.5062,0,208.5062,339.6347,,NaN,NaN,NaN,target,,
,transfer_trial,categorize-lines-2,278,1297496,0.0-6.0-0.70,line_cat_multi_stim_2,20211206,302,2364,,,,,,,,,"[189.1213,323.4616,308.0587]","[308.0587,189.1213,323.4616]","[14.750002738971677,4.750000701688976,15.750000521219516]","[""j"",""k"",""l""]","[""J"",""K"",""L""]","[189.1213,189.1213]",TRUE,null,l,323.4616,15.75000052,0,,308.0587,189.1213,323.4616,14.75000274,4.750000702,15.75000052,,transfer,,,,4.75,189.1213,189.1213,attraction,trinary,easy,right,left,competitor,left,4.75,15.75,14.75,189.1213,323.4616,308.0587,323.4616,189.1213,308.0587,NaN,NaN,NaN,target,,
