date,sub_n,screen_id,trial_type,trial_num,exp_trial_type,trial_index,time_elapsed,give_fb,fb_in_cat,in_cat,distribution,stim,stim_vals,line_length,jnds,dens,rt,key_choice,choice,correct
20211110,100,learn_trial,categorize-lines-2,1,learning,7,347456,TRUE,in,in,in,,[274.6873],274.6873,12.4,0.0444,15508,i,NO,0
20211110,101,learn_trial,categorize-lines-2,1,learning,7,363774,TRUE,in,in,in,,[160.7608],160.7608,1.42,0.0444,4642,i,NO,0
20211110,102,learn_trial,categorize-lines-2,1,learning,7,338906,TRUE,in,in,in,,[427.3794],427.3794,21.46,0.0444,4654,i,NO,0
20211110,103,learn_trial,categorize-lines-2,1,learning,7,187258,TRUE,out,out,out,,[223.0284],223.0284,8.13,0.0678,1812,i,NO,1
20211110,104,learn_trial,categorize-lines-2,1,learning,7,394956,TRUE,out,out,out,,[259.5727],259.5727,11.24,0.1773,13224,u,YES,0
20211110,105,learn_trial,categorize-lines-2,1,learning,7,96311,TRUE,in,in,in,,[414.0384],414.0384,20.81,0.0444,1301,u,YES,1
20211112,106,learn_trial,categorize-lines-2,1,learning,7,241794,TRUE,in,in,in,,[244.931],244.931,10.05,0.0444,5592,u,YES,1
20211112,107,learn_trial,categorize-lines-2,1,learning,7,206528,TRUE,out,out,out,,[226.0962],226.0962,8.41,0.0799,3720,u,YES,0
20211115,108,learn_trial,categorize-lines-2,1,learning,7,307128,TRUE,out,out,out,,[258.5615],258.5615,11.16,0.1772,14772,i,NO,1
20211115,109,learn_trial,categorize-lines-2,1,learning,7,196966,TRUE,in,in,in,,[169.8728],169.8728,2.55,0.0444,7110,i,NO,0
20211115,111,learn_trial,categorize-lines-2,1,learning,7,212614,TRUE,out,out,out,,[290.8239],290.8239,13.57,0.1042,9905,u,YES,0
20211115,112,learn_trial,categorize-lines-2,1,learning,7,186380,TRUE,out,out,out,,[290.8239],290.8239,13.57,0.1042,4140,i,NO,1
20211116,113,learn_trial,categorize-lines-2,1,learning,7,222474,TRUE,out,out,out,,[248.5424],248.5424,10.35,0.1637,1850,u,YES,0
20211116,114,learn_trial,categorize-lines-2,1,learning,7,175658,TRUE,out,out,out,,[314.8971],314.8971,15.2,0.038,3662,u,YES,0
20211116,115,learn_trial,categorize-lines-2,1,learning,7,181341,TRUE,in,in,in,,[249.3927],249.3927,10.42,0.0444,10635,i,NO,0
20211116,116,learn_trial,categorize-lines-2,1,learning,7,191224,TRUE,in,in,in,,[433.4695],433.4695,21.75,0.0444,3380,u,YES,1
20211116,117,learn_trial,categorize-lines-2,1,learning,7,192176,TRUE,in,in,in,,[284.5082],284.5082,13.12,0.0444,2972,i,NO,0
20211116,118,learn_trial,categorize-lines-2,1,learning,7,224346,TRUE,out,out,out,,[249.5144],249.5144,10.43,0.1659,4096,i,NO,1
20211116,119,learn_trial,categorize-lines-2,1,learning,7,188900,TRUE,in,in,in,,[282.8474],282.8474,13,0.0444,4292,u,YES,1
20211118,125,learn_trial,categorize-lines-2,1,learning,7,376909,TRUE,in,in,in,,[316.5916],316.5916,15.31,0.0444,2451,u,YES,1
20211118,126,learn_trial,categorize-lines-2,1,learning,7,454216,TRUE,in,in,in,,[217.0172],217.0172,7.57,0.0444,4112,i,NO,0
20211118,127,learn_trial,categorize-lines-2,1,learning,7,554847,TRUE,in,in,in,,[300.928],300.928,14.27,0.0444,3922,i,NO,0
20211118,128,learn_trial,categorize-lines-2,1,learning,7,343857,TRUE,in,in,in,,[441.7966],441.7966,22.14,0.0444,5108,u,YES,1
20211118,129,learn_trial,categorize-lines-2,1,learning,7,378610,TRUE,in,in,in,,[274.6873],274.6873,12.4,0.0444,5540,i,NO,0
20211118,130,learn_trial,categorize-lines-2,1,learning,7,271574,TRUE,out,out,out,,[190.3246],190.3246,4.88,0.0032,9303,i,NO,1
20211118,131,learn_trial,categorize-lines-2,1,learning,7,386884,TRUE,out,out,out,,[266.3725],266.3725,11.77,0.1726,2818,i,NO,1
20211118,132,learn_trial,categorize-lines-2,1,learning,7,874169,TRUE,out,out,out,,[289.5496],289.5496,13.48,0.1085,2042,u,YES,0
20211118,133,learn_trial,categorize-lines-2,1,learning,7,286363,TRUE,out,out,out,,[316.4372],316.4372,15.3,0.0351,4804,i,NO,1
20211118,134,learn_trial,categorize-lines-2,1,learning,7,213724,TRUE,in,in,in,,[243.0264],243.0264,9.89,0.0444,7314,u,YES,1
20211119,135,learn_trial,categorize-lines-2,1,learning,7,233667,TRUE,in,in,in,,[309.2634],309.2634,14.83,0.0444,4455,u,YES,1
20211119,136,learn_trial,categorize-lines-2,1,learning,7,227346,TRUE,out,out,out,,[220.3246],220.3246,7.88,0.0578,4456,i,NO,1
20211119,137,learn_trial,categorize-lines-2,1,learning,7,266196,TRUE,out,out,out,,[240.0801],240.0801,9.64,0.1373,4000,i,NO,1
20211119,138,learn_trial,categorize-lines-2,1,learning,7,203899,TRUE,out,out,out,,[245.1701],245.1701,10.07,0.1545,4349,i,NO,1
20211119,139,learn_trial,categorize-lines-2,1,learning,7,316314,TRUE,in,in,in,,[158.6569],158.6569,1.15,0.0444,3864,u,YES,1
20211119,140,learn_trial,categorize-lines-2,1,learning,7,200503,TRUE,out,out,out,,[229.318],229.318,8.7,0.0933,3730,u,YES,0
20211119,141,learn_trial,categorize-lines-2,1,learning,7,185720,TRUE,out,out,out,,[356.2686],356.2686,17.73,0.0028,7570,u,YES,0
20211119,142,learn_trial,categorize-lines-2,1,learning,7,284078,TRUE,out,out,out,,[251.4699],251.4699,10.59,0.1698,6994,i,NO,1
20211119,143,learn_trial,categorize-lines-2,1,learning,7,231216,TRUE,in,in,in,,[162.972],162.972,1.7,0.0444,1886,u,YES,1
20211119,144,learn_trial,categorize-lines-2,1,learning,7,168204,TRUE,out,out,out,,[215.1197],215.1197,7.39,0.0407,12458,u,YES,0
20211119,145,learn_trial,categorize-lines-2,1,learning,7,281902,TRUE,out,out,out,,[272.6843],272.6843,12.25,0.1606,6796,i,NO,1
20211122,146,learn_trial,categorize-lines-2,1,learning,7,176016,TRUE,out,out,out,,[242.5526],242.5526,9.85,0.1461,4356,i,NO,1
20211122,147,learn_trial,categorize-lines-2,1,learning,7,206840,TRUE,out,out,out,,[316.4372],316.4372,15.3,0.0351,8206,i,NO,1
20211122,148,learn_trial,categorize-lines-2,1,learning,7,171612,TRUE,in,in,in,,[244.931],244.931,10.05,0.0444,2258,i,NO,0
20211122,149,learn_trial,categorize-lines-2,1,learning,7,294768,TRUE,out,out,out,,[233.9515],233.9515,9.11,0.1128,8798,u,YES,0
20211122,150,learn_trial,categorize-lines-2,1,learning,7,136549,TRUE,out,out,out,,[270.3],270.3,12.07,0.1659,6067,u,YES,0
20211203,300,learn_trial,categorize-lines-2,1,learning,7,187388,TRUE,in,in,in,,[217.0172],217.0172,7.57,0.0444,6186,u,YES,1
20211129,151,learn_trial,categorize-lines-2,1,learning,7,207124,TRUE,in,in,in,,[240.0801],240.0801,9.64,0.0444,2896,u,YES,1
20211129,152,learn_trial,categorize-lines-2,1,learning,7,275038,TRUE,in,in,in,,[282.8474],282.8474,13,0.0444,9014,i,NO,0
20211129,153,learn_trial,categorize-lines-2,1,learning,7,245282,TRUE,out,out,out,,[290.8239],290.8239,13.57,0.1042,2658,i,NO,1
20211129,154,learn_trial,categorize-lines-2,1,learning,7,266918,TRUE,in,in,in,,[153.0308],153.0308,0.41,0.0444,6139,u,YES,1
20211129,155,learn_trial,categorize-lines-2,1,learning,7,210828,TRUE,out,out,out,,[235.0957],235.0957,9.21,0.1176,5378,u,YES,0
20211130,157,learn_trial,categorize-lines-2,1,learning,7,458316,TRUE,out,out,out,,[243.7389],243.7389,9.95,0.1501,5876,u,YES,0
20211130,158,learn_trial,categorize-lines-2,1,learning,7,167142,TRUE,out,out,out,,[349.0423],349.0423,17.31,0.0047,5794,u,YES,0
20211130,159,learn_trial,categorize-lines-2,1,learning,7,145852,TRUE,out,out,out,,[219.1453],219.1453,7.77,0.0536,6324,i,NO,1
20211130,160,learn_trial,categorize-lines-2,1,learning,7,184110,TRUE,out,out,out,,[219.1453],219.1453,7.77,0.0536,4140,i,NO,1
20211130,301,learn_trial,categorize-lines-2,1,learning,7,164312,TRUE,in,in,in,,[160.2908],160.2908,1.36,0.0444,4580,u,YES,1
20211130,162,learn_trial,categorize-lines-2,1,learning,7,145802,TRUE,out,out,out,,[282.2959],282.2959,12.96,0.1328,4069,i,NO,1
20211201,163,learn_trial,categorize-lines-2,1,learning,7,203692,TRUE,out,out,out,,[289.5496],289.5496,13.48,0.1085,4182,u,YES,0
20211201,164,learn_trial,categorize-lines-2,1,learning,7,321976,TRUE,out,out,out,,[241.7256],241.7256,9.78,0.1432,4440,i,NO,1
20211201,165,learn_trial,categorize-lines-2,1,learning,7,372442,TRUE,in,in,in,,[179.6767],179.6767,3.7,0.0444,5140,u,YES,1
20211202,166,learn_trial,categorize-lines-2,1,learning,7,436827,TRUE,in,in,in,,[162.972],162.972,1.7,0.0444,3007,u,YES,1
20211202,167,learn_trial,categorize-lines-2,1,learning,7,464240,TRUE,in,in,in,,[274.8213],274.8213,12.41,0.0444,4152,u,YES,1
20211202,168,learn_trial,categorize-lines-2,1,learning,7,474851,TRUE,in,in,in,,[243.0264],243.0264,9.89,0.0444,10141,i,NO,0
20211202,169,learn_trial,categorize-lines-2,1,learning,7,547618,TRUE,out,out,out,,[243.7389],243.7389,9.95,0.1501,10675,i,NO,1
20211202,170,learn_trial,categorize-lines-2,1,learning,7,434712,TRUE,in,in,in,,[157.5],157.5,1,0.0444,4428,u,YES,1
20211202,171,learn_trial,categorize-lines-2,1,learning,7,375696,TRUE,in,in,in,,[228.0906],228.0906,8.59,0.0444,4323,i,NO,0
20211202,172,learn_trial,categorize-lines-2,1,learning,7,393846,TRUE,in,in,in,,[240.0801],240.0801,9.64,0.0444,1868,i,NO,0
20211202,173,learn_trial,categorize-lines-2,1,learning,7,800800,TRUE,out,out,out,,[233.8373],233.8373,9.1,0.1123,6208,i,NO,1
20211202,174,learn_trial,categorize-lines-2,1,learning,7,168954,TRUE,in,in,in,,[150.8808],150.8808,0.12,0.0444,5701,i,NO,0
20211202,175,learn_trial,categorize-lines-2,1,learning,7,306110,TRUE,out,out,out,,[236.9381],236.9381,9.37,0.1251,6198,u,YES,0
20211202,176,learn_trial,categorize-lines-2,1,learning,7,324630,TRUE,in,in,in,,[189.1213],189.1213,4.75,0.0444,6851,u,YES,1
20211203,177,learn_trial,categorize-lines-2,1,learning,7,206888,TRUE,in,in,in,,[256.4258],256.4258,10.99,0.0444,7865,i,NO,0
20211203,178,learn_trial,categorize-lines-2,1,learning,7,260124,TRUE,out,out,out,,[282.1582],282.1582,12.95,0.1333,4886,i,NO,1
20211203,179,learn_trial,categorize-lines-2,1,learning,7,247164,TRUE,out,out,out,,[259.5727],259.5727,11.24,0.1773,7348,u,YES,0
20211203,180,learn_trial,categorize-lines-2,1,learning,7,166408,TRUE,out,out,out,,[286.1789],286.1789,13.24,0.1199,5338,u,YES,0
20211203,182,learn_trial,categorize-lines-2,1,learning,7,194316,TRUE,out,out,out,,[229.318],229.318,8.7,0.0933,9342,u,YES,0
20211203,183,learn_trial,categorize-lines-2,1,learning,7,187158,TRUE,out,out,out,,[286.8779],286.8779,13.29,0.1176,3249,u,YES,0
20211203,184,learn_trial,categorize-lines-2,1,learning,7,246184,TRUE,in,in,in,,[170.787],170.787,2.66,0.0444,4170,u,YES,1
20211203,185,learn_trial,categorize-lines-2,1,learning,7,289346,TRUE,out,out,out,,[259.5727],259.5727,11.24,0.1773,2261,i,NO,1
20211206,186,learn_trial,categorize-lines-2,1,learning,7,161878,TRUE,out,out,out,,[219.1453],219.1453,7.77,0.0536,4782,u,YES,0
20211206,302,learn_trial,categorize-lines-2,1,learning,7,214128,TRUE,out,out,out,,[190.3246],190.3246,4.88,0.0032,3406,u,YES,0
20211206,187,learn_trial,categorize-lines-2,1,learning,7,156472,TRUE,in,in,in,,[217.0172],217.0172,7.57,0.0444,6394,i,NO,0
20211206,188,learn_trial,categorize-lines-2,1,learning,7,345752,TRUE,in,in,in,,[266.7626],266.7626,11.8,0.0444,9690,u,YES,1
20211206,189,learn_trial,categorize-lines-2,1,learning,7,243045,TRUE,out,out,out,,[250.9796],250.9796,10.55,0.1689,3562,i,NO,1
20211206,190,learn_trial,categorize-lines-2,1,learning,7,315802,TRUE,out,out,out,,[235.4401],235.4401,9.24,0.119,5636,u,YES,0
20211207,200,learn_trial,categorize-lines-2,1,learning,7,297124,TRUE,in,in,in,,[157.5],157.5,1,0.0444,4398,i,NO,0
20211207,201,learn_trial,categorize-lines-2,1,learning,7,232470,TRUE,out,out,out,,[264.3011],264.3011,11.61,0.1751,4650,i,NO,1
20211207,202,learn_trial,categorize-lines-2,1,learning,7,147489,TRUE,out,out,out,,[317.2101],317.2101,15.35,0.0337,3971,i,NO,1
20211207,203,learn_trial,categorize-lines-2,1,learning,7,295668,TRUE,in,in,in,,[172.2094],172.2094,2.83,0.0444,3235,u,YES,1
20211207,204,learn_trial,categorize-lines-2,1,learning,7,150488,TRUE,in,in,in,,[257.4286],257.4286,11.07,0.0444,4794,u,YES,1
20211207,205,learn_trial,categorize-lines-2,1,learning,7,207693,TRUE,out,out,out,,[249.5144],249.5144,10.43,0.1659,7150,i,NO,1
20211208,206,learn_trial,categorize-lines-2,1,learning,7,199579,TRUE,out,out,out,,[264.3011],264.3011,11.61,0.1751,3543,u,YES,0
20211208,207,learn_trial,categorize-lines-2,1,learning,7,164206,TRUE,in,in,in,,[189.4907],189.4907,4.79,0.0444,4132,u,YES,1
20211110,100,learn_trial,categorize-lines-2,2,learning,8,353040,TRUE,out,out,out,,[278.7375],278.7375,12.7,0.1441,1552,u,YES,0
20211110,101,learn_trial,categorize-lines-2,2,learning,8,373590,TRUE,out,out,out,,[275.2239],275.2239,12.44,0.1542,7784,i,NO,1
20211110,102,learn_trial,categorize-lines-2,2,learning,8,344474,TRUE,out,out,out,,[272.6843],272.6843,12.25,0.1606,1532,u,YES,0
20211110,103,learn_trial,categorize-lines-2,2,learning,8,191920,TRUE,out,out,out,,[319.0728],319.0728,15.47,0.0305,632,u,YES,0
20211110,104,learn_trial,categorize-lines-2,2,learning,8,399434,TRUE,in,in,in,,[157.5],157.5,1,0.0444,2446,u,YES,1
20211110,105,learn_trial,categorize-lines-2,2,learning,8,99319,TRUE,in,in,in,,[223.4641],223.4641,8.17,0.0444,973,u,YES,1
20211112,106,learn_trial,categorize-lines-2,2,learning,8,247308,TRUE,in,in,in,,[188.2927],188.2927,4.66,0.0444,1470,i,NO,0
20211112,107,learn_trial,categorize-lines-2,2,learning,8,210318,TRUE,out,out,out,,[306.8586],306.8586,14.67,0.0559,1758,i,NO,1
20211115,108,learn_trial,categorize-lines-2,2,learning,8,311382,TRUE,in,in,in,,[318.7615],318.7615,15.45,0.0444,2222,u,YES,1
20211115,109,learn_trial,categorize-lines-2,2,learning,8,200734,TRUE,out,out,out,,[235.0957],235.0957,9.21,0.1176,1734,i,NO,1
20211115,111,learn_trial,categorize-lines-2,2,learning,8,217991,TRUE,out,out,out,,[260.715],260.715,11.33,0.1772,3336,i,NO,1
20211115,112,learn_trial,categorize-lines-2,2,learning,8,193492,TRUE,in,in,in,,[348.1918],348.1918,17.26,0.0444,3078,i,NO,0
20211116,113,learn_trial,categorize-lines-2,2,learning,8,227688,TRUE,out,out,out,,[286.1789],286.1789,13.24,0.1199,1178,u,YES,0
20211116,114,learn_trial,categorize-lines-2,2,learning,8,183066,TRUE,out,out,out,,[275.2239],275.2239,12.44,0.1542,5376,i,NO,1
20211116,115,learn_trial,categorize-lines-2,2,learning,8,186613,TRUE,out,out,out,,[245.1701],245.1701,10.07,0.1545,3229,i,NO,1
20211116,116,learn_trial,categorize-lines-2,2,learning,8,198368,TRUE,in,in,in,,[176.8932],176.8932,3.38,0.0444,3109,i,NO,0
20211116,117,learn_trial,categorize-lines-2,2,learning,8,197378,TRUE,out,out,out,,[220.3246],220.3246,7.88,0.0578,1164,u,YES,0
20211116,118,learn_trial,categorize-lines-2,2,learning,8,227746,TRUE,in,in,in,,[160.2908],160.2908,1.36,0.0444,1368,u,YES,1
20211116,119,learn_trial,categorize-lines-2,2,learning,8,192214,TRUE,out,out,out,,[259.5727],259.5727,11.24,0.1773,1276,i,NO,1
20211118,125,learn_trial,categorize-lines-2,2,learning,8,380491,TRUE,out,out,out,,[255.1777],255.1777,10.89,0.1751,1537,i,NO,1
20211118,126,learn_trial,categorize-lines-2,2,learning,8,459186,TRUE,in,in,in,,[206.4815],206.4815,6.55,0.0444,932,i,NO,0
20211118,127,learn_trial,categorize-lines-2,2,learning,8,561154,TRUE,out,out,out,,[231.4537],231.4537,8.89,0.1023,2261,u,YES,0
20211118,128,learn_trial,categorize-lines-2,2,learning,8,352200,TRUE,out,out,out,,[243.7389],243.7389,9.95,0.1501,4297,u,YES,0
20211118,129,learn_trial,categorize-lines-2,2,learning,8,383798,TRUE,in,in,in,,[157.5],157.5,1,0.0444,3146,u,YES,1
20211118,130,learn_trial,categorize-lines-2,2,learning,8,278159,TRUE,out,out,out,,[226.0962],226.0962,8.41,0.0799,2542,u,YES,0
20211118,131,learn_trial,categorize-lines-2,2,learning,8,390558,TRUE,out,out,out,,[262.5019],262.5019,11.47,0.1765,1630,i,NO,1
20211118,132,learn_trial,categorize-lines-2,2,learning,8,879882,TRUE,in,in,in,,[155.8185],155.8185,0.78,0.0444,1671,i,NO,0
20211118,133,learn_trial,categorize-lines-2,2,learning,8,290221,TRUE,out,out,out,,[317.6747],317.6747,15.38,0.0329,1814,i,NO,1
20211118,134,learn_trial,categorize-lines-2,2,learning,8,217891,TRUE,in,in,in,,[235.3252],235.3252,9.23,0.0444,2121,u,YES,1
20211119,135,learn_trial,categorize-lines-2,2,learning,8,237110,TRUE,out,out,out,,[255.1777],255.1777,10.89,0.1751,1394,i,NO,1
20211119,136,learn_trial,categorize-lines-2,2,learning,8,231548,TRUE,in,in,in,,[211.2711],211.2711,7.02,0.0444,2162,u,YES,1
20211119,137,learn_trial,categorize-lines-2,2,learning,8,271464,TRUE,in,in,in,,[338.1466],338.1466,16.66,0.0444,1226,i,NO,0
20211119,138,learn_trial,categorize-lines-2,2,learning,8,207555,TRUE,out,out,out,,[259.5727],259.5727,11.24,0.1773,1606,i,NO,1
20211119,139,learn_trial,categorize-lines-2,2,learning,8,320976,TRUE,out,out,out,,[262.5019],262.5019,11.47,0.1765,2626,i,NO,1
20211119,140,learn_trial,categorize-lines-2,2,learning,8,205441,TRUE,out,out,out,,[207.8967],207.8967,6.69,0.0227,2893,i,NO,1
20211119,141,learn_trial,categorize-lines-2,2,learning,8,191270,TRUE,in,in,in,,[204.3767],204.3767,6.34,0.0444,1510,i,NO,0
20211119,142,learn_trial,categorize-lines-2,2,learning,8,287695,TRUE,in,in,in,,[170.787],170.787,2.66,0.0444,1573,u,YES,1
20211119,143,learn_trial,categorize-lines-2,2,learning,8,234544,TRUE,out,out,out,,[305.9616],305.9616,14.61,0.0581,1292,i,NO,1
20211119,144,learn_trial,categorize-lines-2,2,learning,8,174356,TRUE,in,in,in,,[155.8185],155.8185,0.78,0.0444,2114,i,NO,0
20211119,145,learn_trial,categorize-lines-2,2,learning,8,285094,TRUE,out,out,out,,[270.9602],270.9602,12.12,0.1645,1150,i,NO,1
20211122,146,learn_trial,categorize-lines-2,2,learning,8,181270,TRUE,out,out,out,,[259.5727],259.5727,11.24,0.1773,1210,u,YES,0
20211122,147,learn_trial,categorize-lines-2,2,learning,8,213846,TRUE,in,in,in,,[370.2688],370.2688,18.52,0.0444,2968,i,NO,0
20211122,148,learn_trial,categorize-lines-2,2,learning,8,175162,TRUE,out,out,out,,[226.0962],226.0962,8.41,0.0799,1512,i,NO,1
20211122,149,learn_trial,categorize-lines-2,2,learning,8,297854,TRUE,in,in,in,,[367.2103],367.2103,18.35,0.0444,1048,u,YES,1
20211122,150,learn_trial,categorize-lines-2,2,learning,8,144202,TRUE,in,in,in,,[274.6873],274.6873,12.4,0.0444,3613,i,NO,0
20211203,300,learn_trial,categorize-lines-2,2,learning,8,193835,TRUE,out,out,out,,[278.0583],278.0583,12.65,0.1461,4402,i,NO,1
20211129,151,learn_trial,categorize-lines-2,2,learning,8,210256,TRUE,out,out,out,,[259.5727],259.5727,11.24,0.1773,1084,i,NO,1
20211129,152,learn_trial,categorize-lines-2,2,learning,8,285222,TRUE,out,out,out,,[317.6747],317.6747,15.38,0.0329,8144,i,NO,1
20211129,153,learn_trial,categorize-lines-2,2,learning,8,251199,TRUE,out,out,out,,[235.555],235.555,9.25,0.1194,1869,u,YES,0
20211129,154,learn_trial,categorize-lines-2,2,learning,8,270380,TRUE,in,in,in,,[243.0264],243.0264,9.89,0.0444,1417,u,YES,1
20211129,155,learn_trial,categorize-lines-2,2,learning,8,216176,TRUE,out,out,out,,[319.0728],319.0728,15.47,0.0305,1308,u,YES,0
20211130,157,learn_trial,categorize-lines-2,2,learning,8,464331,TRUE,out,out,out,,[245.1701],245.1701,10.07,0.1545,1977,u,YES,0
20211130,158,learn_trial,categorize-lines-2,2,learning,8,172420,TRUE,in,in,in,,[273.0837],273.0837,12.28,0.0444,3238,u,YES,1
20211130,159,learn_trial,categorize-lines-2,2,learning,8,151088,TRUE,out,out,out,,[281.4707],281.4707,12.9,0.1355,1191,u,YES,0
20211130,160,learn_trial,categorize-lines-2,2,learning,8,189252,TRUE,in,in,in,,[272.5513],272.5513,12.24,0.0444,3106,u,YES,1
20211130,301,learn_trial,categorize-lines-2,2,learning,8,169402,TRUE,out,out,out,,[278.0583],278.0583,12.65,0.1461,1050,u,YES,0
20211130,162,learn_trial,categorize-lines-2,2,learning,8,149232,TRUE,in,in,in,,[343.8027],343.8027,17,0.0444,1387,u,YES,1
20211201,163,learn_trial,categorize-lines-2,2,learning,8,209780,TRUE,out,out,out,,[236.9381],236.9381,9.37,0.1251,2048,u,YES,0
20211201,164,learn_trial,categorize-lines-2,2,learning,8,328878,TRUE,out,out,out,,[270.9602],270.9602,12.12,0.1645,2860,u,YES,0
20211201,165,learn_trial,categorize-lines-2,2,learning,8,380230,TRUE,in,in,in,,[215.6451],215.6451,7.44,0.0444,3754,i,NO,0
20211202,166,learn_trial,categorize-lines-2,2,learning,8,440419,TRUE,in,in,in,,[150.8808],150.8808,0.12,0.0444,1548,u,YES,1
20211202,167,learn_trial,categorize-lines-2,2,learning,8,467208,TRUE,out,out,out,,[264.3011],264.3011,11.61,0.1751,926,i,NO,1
20211202,168,learn_trial,categorize-lines-2,2,learning,8,481059,TRUE,in,in,in,,[188.2927],188.2927,4.66,0.0444,4165,u,YES,1
20211202,169,learn_trial,categorize-lines-2,2,learning,8,553779,TRUE,in,in,in,,[306.8586],306.8586,14.67,0.0444,2113,i,NO,0
20211202,170,learn_trial,categorize-lines-2,2,learning,8,437950,TRUE,out,out,out,,[282.1582],282.1582,12.95,0.1333,1198,i,NO,1
20211202,171,learn_trial,categorize-lines-2,2,learning,8,379133,TRUE,in,in,in,,[204.8759],204.8759,6.39,0.0444,1399,u,YES,1
20211202,172,learn_trial,categorize-lines-2,2,learning,8,396682,TRUE,in,in,in,,[177.9319],177.9319,3.5,0.0444,800,u,YES,1
20211202,173,learn_trial,categorize-lines-2,2,learning,8,806862,TRUE,out,out,out,,[231.4537],231.4537,8.89,0.1023,4020,i,NO,1
20211202,174,learn_trial,categorize-lines-2,2,learning,8,178122,TRUE,out,out,out,,[223.0284],223.0284,8.13,0.0678,5126,u,YES,0
20211202,175,learn_trial,categorize-lines-2,2,learning,8,310482,TRUE,out,out,out,,[240.0801],240.0801,9.64,0.1373,2336,i,NO,1
20211202,176,learn_trial,categorize-lines-2,2,learning,8,328150,TRUE,out,out,out,,[258.5615],258.5615,11.16,0.1772,1475,i,NO,1
20211203,177,learn_trial,categorize-lines-2,2,learning,8,212613,TRUE,out,out,out,,[286.0393],286.0393,13.23,0.1204,3684,i,NO,1
20211203,178,learn_trial,categorize-lines-2,2,learning,8,267124,TRUE,in,in,in,,[238.6785],238.6785,9.52,0.0444,4958,u,YES,1
20211203,179,learn_trial,categorize-lines-2,2,learning,8,253468,TRUE,out,out,out,,[282.2959],282.2959,12.96,0.1328,2270,u,YES,0
20211203,180,learn_trial,categorize-lines-2,2,learning,8,177054,TRUE,out,out,out,,[249.5144],249.5144,10.43,0.1659,6608,u,YES,0
20211203,182,learn_trial,categorize-lines-2,2,learning,8,198876,TRUE,out,out,out,,[219.0384],219.0384,7.76,0.0532,2520,i,NO,1
20211203,183,learn_trial,categorize-lines-2,2,learning,8,192445,TRUE,out,out,out,,[319.0728],319.0728,15.47,0.0305,1247,u,YES,0
20211203,184,learn_trial,categorize-lines-2,2,learning,8,250120,TRUE,in,in,in,,[211.2711],211.2711,7.02,0.0444,1896,u,YES,1
20211203,185,learn_trial,categorize-lines-2,2,learning,8,292866,TRUE,out,out,out,,[237.6328],237.6328,9.43,0.1278,1478,i,NO,1
20211206,186,learn_trial,categorize-lines-2,2,learning,8,165816,TRUE,out,out,out,,[242.5526],242.5526,9.85,0.1461,1892,i,NO,1
20211206,302,learn_trial,categorize-lines-2,2,learning,8,218124,TRUE,in,in,in,,[391.0651],391.0651,19.64,0.0444,1956,u,YES,1
20211206,187,learn_trial,categorize-lines-2,2,learning,8,161656,TRUE,in,in,in,,[153.0308],153.0308,0.41,0.0444,1144,i,NO,0
20211206,188,learn_trial,categorize-lines-2,2,learning,8,355340,TRUE,out,out,out,,[221.9429],221.9429,8.03,0.0637,5548,u,YES,0
20211206,189,learn_trial,categorize-lines-2,2,learning,8,247976,TRUE,out,out,out,,[349.0423],349.0423,17.31,0.0047,886,u,YES,0
20211206,190,learn_trial,categorize-lines-2,2,learning,8,322404,TRUE,in,in,in,,[206.4815],206.4815,6.55,0.0444,4564,u,YES,1
20211207,200,learn_trial,categorize-lines-2,2,learning,8,302328,TRUE,out,out,out,,[305.9616],305.9616,14.61,0.0581,1166,u,YES,0
20211207,201,learn_trial,categorize-lines-2,2,learning,8,238428,TRUE,in,in,in,,[235.3252],235.3252,9.23,0.0444,1920,i,NO,0
20211207,202,learn_trial,categorize-lines-2,2,learning,8,150913,TRUE,in,in,in,,[155.8185],155.8185,0.78,0.0444,1383,u,YES,1
20211207,203,learn_trial,categorize-lines-2,2,learning,8,301091,TRUE,out,out,out,,[228.7593],228.7593,8.65,0.0909,1380,u,YES,0
20211207,204,learn_trial,categorize-lines-2,2,learning,8,156568,TRUE,in,in,in,,[188.2927],188.2927,4.66,0.0444,2040,i,NO,0
20211207,205,learn_trial,categorize-lines-2,2,learning,8,211439,TRUE,in,in,in,,[441.7966],441.7966,22.14,0.0444,1703,u,YES,1
20211208,206,learn_trial,categorize-lines-2,2,learning,8,202897,TRUE,in,in,in,,[179.6767],179.6767,3.7,0.0444,1279,u,YES,1
20211208,207,learn_trial,categorize-lines-2,2,learning,8,167018,TRUE,in,in,in,,[177.9319],177.9319,3.5,0.0444,772,u,YES,1
20211110,100,learn_trial,categorize-lines-2,3,learning,9,356632,TRUE,in,in,in,,[431.9916],431.9916,21.68,0.0444,1564,u,YES,1
20211110,101,learn_trial,categorize-lines-2,3,learning,9,380062,TRUE,in,in,in,,[282.5715],282.5715,12.98,0.0444,4442,u,YES,1
20211110,102,learn_trial,categorize-lines-2,3,learning,9,347734,TRUE,in,in,in,,[395.4783],395.4783,19.87,0.0444,1218,u,YES,1
20211110,103,learn_trial,categorize-lines-2,3,learning,9,196624,TRUE,out,out,out,,[305.9616],305.9616,14.61,0.0581,672,u,YES,0
20211110,104,learn_trial,categorize-lines-2,3,learning,9,407378,TRUE,in,in,in,,[185.4662],185.4662,4.35,0.0444,5912,u,YES,1
20211110,105,learn_trial,categorize-lines-2,3,learning,9,102697,TRUE,out,out,out,,[260.715],260.715,11.33,0.1772,1340,i,NO,1
20211112,106,learn_trial,categorize-lines-2,3,learning,9,253030,TRUE,in,in,in,,[343.8027],343.8027,17,0.0444,1680,i,NO,0
20211112,107,learn_trial,categorize-lines-2,3,learning,9,216022,TRUE,in,in,in,,[340.7966],340.7966,16.82,0.0444,1672,i,NO,0
20211115,108,learn_trial,categorize-lines-2,3,learning,9,316872,TRUE,out,out,out,,[241.019],241.019,9.72,0.1407,1456,u,YES,0
20211115,109,learn_trial,categorize-lines-2,3,learning,9,204574,TRUE,in,in,in,,[338.8071],338.8071,16.7,0.0444,1808,u,YES,1
20211115,111,learn_trial,categorize-lines-2,3,learning,9,220949,TRUE,in,in,in,,[383.8815],383.8815,19.26,0.0444,918,u,YES,1
20211115,112,learn_trial,categorize-lines-2,3,learning,9,196902,TRUE,out,out,out,,[216.1718],216.1718,7.49,0.0439,1368,i,NO,1
20211116,113,learn_trial,categorize-lines-2,3,learning,9,230434,TRUE,out,out,out,,[270.9602],270.9602,12.12,0.1645,714,i,NO,1
20211116,114,learn_trial,categorize-lines-2,3,learning,9,187954,TRUE,in,in,in,,[302.2523],302.2523,14.36,0.0444,2858,u,YES,1
20211116,115,learn_trial,categorize-lines-2,3,learning,9,194941,TRUE,out,out,out,,[219.6805],219.6805,7.82,0.0555,4287,u,YES,0
20211116,116,learn_trial,categorize-lines-2,3,learning,9,203952,TRUE,out,out,out,,[286.0393],286.0393,13.23,0.1204,3546,i,NO,1
20211116,117,learn_trial,categorize-lines-2,3,learning,9,204430,TRUE,out,out,out,,[290.1153],290.1153,13.52,0.1066,3020,u,YES,0
20211116,118,learn_trial,categorize-lines-2,3,learning,9,230490,TRUE,in,in,in,,[274.6873],274.6873,12.4,0.0444,716,u,YES,1
20211116,119,learn_trial,categorize-lines-2,3,learning,9,197434,TRUE,out,out,out,,[237.6328],237.6328,9.43,0.1278,1186,u,YES,0
20211118,125,learn_trial,categorize-lines-2,3,learning,9,385064,TRUE,out,out,out,,[232.019],232.019,8.94,0.1047,2532,i,NO,1
20211118,126,learn_trial,categorize-lines-2,3,learning,9,462400,TRUE,in,in,in,,[177.9319],177.9319,3.5,0.0444,1170,u,YES,1
20211118,127,learn_trial,categorize-lines-2,3,learning,9,564988,TRUE,out,out,out,,[244.5727],244.5727,10.02,0.1527,1795,i,NO,1
20211118,128,learn_trial,categorize-lines-2,3,learning,9,355517,TRUE,in,in,in,,[214.2817],214.2817,7.31,0.0444,1278,u,YES,1
20211118,129,learn_trial,categorize-lines-2,3,learning,9,386916,TRUE,in,in,in,,[173.1362],173.1362,2.94,0.0444,1078,u,YES,1
20211118,130,learn_trial,categorize-lines-2,3,learning,9,285330,TRUE,out,out,out,,[237.7488],237.7488,9.44,0.1283,3135,u,YES,0
20211118,131,learn_trial,categorize-lines-2,3,learning,9,394428,TRUE,out,out,out,,[233.9515],233.9515,9.11,0.1128,1828,i,NO,1
20211118,132,learn_trial,categorize-lines-2,3,learning,9,882361,TRUE,in,in,in,,[367.2103],367.2103,18.35,0.0444,437,u,YES,1
20211118,133,learn_trial,categorize-lines-2,3,learning,9,295124,TRUE,out,out,out,,[232.019],232.019,8.94,0.1047,856,u,YES,0
20211118,134,learn_trial,categorize-lines-2,3,learning,9,226460,TRUE,out,out,out,,[305.9616],305.9616,14.61,0.0581,4524,u,YES,0
20211119,135,learn_trial,categorize-lines-2,3,learning,9,240392,TRUE,out,out,out,,[281.4707],281.4707,12.9,0.1355,1239,i,NO,1
20211119,136,learn_trial,categorize-lines-2,3,learning,9,234604,TRUE,in,in,in,,[426.7543],426.7543,21.43,0.0444,1016,u,YES,1
20211119,137,learn_trial,categorize-lines-2,3,learning,9,276942,TRUE,in,in,in,,[352.1211],352.1211,17.49,0.0444,1436,i,NO,0
20211119,138,learn_trial,categorize-lines-2,3,learning,9,210371,TRUE,in,in,in,,[440.9352],440.9352,22.1,0.0444,774,u,YES,1
20211119,139,learn_trial,categorize-lines-2,3,learning,9,325776,TRUE,out,out,out,,[269.773],269.773,12.03,0.167,2764,i,NO,1
20211119,140,learn_trial,categorize-lines-2,3,learning,9,210322,TRUE,in,in,in,,[211.2711],211.2711,7.02,0.0444,845,i,NO,0
20211119,141,learn_trial,categorize-lines-2,3,learning,9,194398,TRUE,out,out,out,,[319.0728],319.0728,15.47,0.0305,1094,i,NO,1
20211119,142,learn_trial,categorize-lines-2,3,learning,9,293413,TRUE,out,out,out,,[233.9515],233.9515,9.11,0.1128,3676,i,NO,1
20211119,143,learn_trial,categorize-lines-2,3,learning,9,237934,TRUE,in,in,in,,[367.7482],367.7482,18.38,0.0444,1358,u,YES,1
20211119,144,learn_trial,categorize-lines-2,3,learning,9,180716,TRUE,in,in,in,,[426.7543],426.7543,21.43,0.0444,2328,i,NO,0
20211119,145,learn_trial,categorize-lines-2,3,learning,9,288170,TRUE,in,in,in,,[150.8808],150.8808,0.12,0.0444,1038,u,YES,1
20211122,146,learn_trial,categorize-lines-2,3,learning,9,188342,TRUE,in,in,in,,[328.3911],328.3911,16.06,0.0444,3034,i,NO,0
20211122,147,learn_trial,categorize-lines-2,3,learning,9,219262,TRUE,out,out,out,,[272.6843],272.6843,12.25,0.1606,1384,u,YES,0
20211122,148,learn_trial,categorize-lines-2,3,learning,9,180402,TRUE,out,out,out,,[282.2959],282.2959,12.96,0.1328,1206,u,YES,0
20211122,149,learn_trial,categorize-lines-2,3,learning,9,301574,TRUE,out,out,out,,[244.5727],244.5727,10.02,0.1527,1686,i,NO,1
20211122,150,learn_trial,categorize-lines-2,3,learning,9,150833,TRUE,out,out,out,,[236.9381],236.9381,9.37,0.1251,4591,i,NO,1
20211203,300,learn_trial,categorize-lines-2,3,learning,9,199344,TRUE,out,out,out,,[290.1153],290.1153,13.52,0.1066,1464,u,YES,0
20211129,151,learn_trial,categorize-lines-2,3,learning,9,215334,TRUE,out,out,out,,[306.8586],306.8586,14.67,0.0559,1040,u,YES,0
20211129,152,learn_trial,categorize-lines-2,3,learning,9,291084,TRUE,out,out,out,,[242.9078],242.9078,9.88,0.1473,1828,u,YES,0
20211129,153,learn_trial,categorize-lines-2,3,learning,9,258313,TRUE,in,in,in,,[206.4815],206.4815,6.55,0.0444,3079,i,NO,0
20211129,154,learn_trial,categorize-lines-2,3,learning,9,275989,TRUE,out,out,out,,[245.4095],245.4095,10.09,0.1552,1572,u,YES,0
20211129,155,learn_trial,categorize-lines-2,3,learning,9,220352,TRUE,in,in,in,,[338.8071],338.8071,16.7,0.0444,2142,u,YES,1
20211130,157,learn_trial,categorize-lines-2,3,learning,9,468235,TRUE,out,out,out,,[272.6843],272.6843,12.25,0.1606,1859,i,NO,1
20211130,158,learn_trial,categorize-lines-2,3,learning,9,178530,TRUE,in,in,in,,[378.8576],378.8576,18.99,0.0444,2074,i,NO,0
20211130,159,learn_trial,categorize-lines-2,3,learning,9,156268,TRUE,in,in,in,,[318.7615],318.7615,15.45,0.0444,3142,u,YES,1
20211130,160,learn_trial,categorize-lines-2,3,learning,9,195764,TRUE,out,out,out,,[190.3246],190.3246,4.88,0.0032,2478,u,YES,0
20211130,301,learn_trial,categorize-lines-2,3,learning,9,174542,TRUE,out,out,out,,[271.0925],271.0925,12.13,0.1643,1100,u,YES,0
20211130,162,learn_trial,categorize-lines-2,3,learning,9,152199,TRUE,in,in,in,,[206.4815],206.4815,6.55,0.0444,929,u,YES,1
20211201,163,learn_trial,categorize-lines-2,3,learning,9,212658,TRUE,in,in,in,,[391.0651],391.0651,19.64,0.0444,844,u,YES,1
20211201,164,learn_trial,categorize-lines-2,3,learning,9,335478,TRUE,out,out,out,,[221.9429],221.9429,8.03,0.0637,2566,u,YES,0
20211201,165,learn_trial,categorize-lines-2,3,learning,9,385936,TRUE,out,out,out,,[190.3246],190.3246,4.88,0.0032,1670,u,YES,0
20211202,166,learn_trial,categorize-lines-2,3,learning,9,447126,TRUE,in,in,in,,[228.4247],228.4247,8.62,0.0444,2661,i,NO,0
20211202,167,learn_trial,categorize-lines-2,3,learning,9,473782,TRUE,in,in,in,,[217.0172],217.0172,7.57,0.0444,2538,i,NO,0
20211202,168,learn_trial,categorize-lines-2,3,learning,9,486459,TRUE,out,out,out,,[237.6328],237.6328,9.43,0.1278,3358,i,NO,1
20211202,169,learn_trial,categorize-lines-2,3,learning,9,560913,TRUE,in,in,in,,[352.1211],352.1211,17.49,0.0444,5090,u,YES,1
20211202,170,learn_trial,categorize-lines-2,3,learning,9,441286,TRUE,out,out,out,,[245.1701],245.1701,10.07,0.1545,1294,i,NO,1
20211202,171,learn_trial,categorize-lines-2,3,learning,9,382494,TRUE,in,in,in,,[177.9319],177.9319,3.5,0.0444,1324,u,YES,1
20211202,172,learn_trial,categorize-lines-2,3,learning,9,399548,TRUE,out,out,out,,[271.7546],271.7546,12.18,0.1628,824,i,NO,1
20211202,173,learn_trial,categorize-lines-2,3,learning,9,812405,TRUE,in,in,in,,[179.6767],179.6767,3.7,0.0444,3508,u,YES,1
20211202,174,learn_trial,categorize-lines-2,3,learning,9,182448,TRUE,out,out,out,,[271.0925],271.0925,12.13,0.1643,2288,i,NO,1
20211202,175,learn_trial,categorize-lines-2,3,learning,9,314150,TRUE,out,out,out,,[251.4699],251.4699,10.59,0.1698,1628,i,NO,1
20211202,176,learn_trial,categorize-lines-2,3,learning,9,331354,TRUE,out,out,out,,[271.0925],271.0925,12.13,0.1643,1163,i,NO,1
20211203,177,learn_trial,categorize-lines-2,3,learning,9,221104,TRUE,in,in,in,,[272.5513],272.5513,12.24,0.0444,4446,i,NO,0
20211203,178,learn_trial,categorize-lines-2,3,learning,9,274232,TRUE,in,in,in,,[282.8474],282.8474,13,0.0444,3072,i,NO,0
20211203,179,learn_trial,categorize-lines-2,3,learning,9,257904,TRUE,out,out,out,,[241.019],241.019,9.72,0.1407,2396,i,NO,1
20211203,180,learn_trial,categorize-lines-2,3,learning,9,181966,TRUE,out,out,out,,[290.1153],290.1153,13.52,0.1066,2880,i,NO,1
20211203,182,learn_trial,categorize-lines-2,3,learning,9,205186,TRUE,out,out,out,,[248.5424],248.5424,10.35,0.1637,2272,u,YES,0
20211203,183,learn_trial,categorize-lines-2,3,learning,9,198021,TRUE,out,out,out,,[216.1718],216.1718,7.49,0.0439,1538,u,YES,0
20211203,184,learn_trial,categorize-lines-2,3,learning,9,256078,TRUE,out,out,out,,[271.8872],271.8872,12.19,0.1625,1924,u,YES,0
20211203,185,learn_trial,categorize-lines-2,3,learning,9,296422,TRUE,out,out,out,,[261.6069],261.6069,11.4,0.1769,1518,i,NO,1
20211206,186,learn_trial,categorize-lines-2,3,learning,9,172742,TRUE,out,out,out,,[271.8872],271.8872,12.19,0.1625,2888,u,YES,0
20211206,302,learn_trial,categorize-lines-2,3,learning,9,223874,TRUE,in,in,in,,[370.2688],370.2688,18.52,0.0444,1716,i,NO,0
20211206,187,learn_trial,categorize-lines-2,3,learning,9,166440,TRUE,out,out,out,,[235.555],235.555,9.25,0.1194,2750,i,NO,1
20211206,188,learn_trial,categorize-lines-2,3,learning,9,364432,TRUE,in,in,in,,[223.4641],223.4641,8.17,0.0444,7054,u,YES,1
20211206,189,learn_trial,categorize-lines-2,3,learning,9,252867,TRUE,in,in,in,,[302.2523],302.2523,14.36,0.0444,851,i,NO,0
20211206,190,learn_trial,categorize-lines-2,3,learning,9,328180,TRUE,out,out,out,,[233.9515],233.9515,9.11,0.1128,3732,i,NO,1
20211207,200,learn_trial,categorize-lines-2,3,learning,9,306828,TRUE,out,out,out,,[356.2686],356.2686,17.73,0.0028,2462,i,NO,1
20211207,201,learn_trial,categorize-lines-2,3,learning,9,242386,TRUE,out,out,out,,[219.0384],219.0384,7.76,0.0532,1924,i,NO,1
20211207,202,learn_trial,categorize-lines-2,3,learning,9,154119,TRUE,out,out,out,,[259.5727],259.5727,11.24,0.1773,1167,i,NO,1
20211207,203,learn_trial,categorize-lines-2,3,learning,9,303950,TRUE,in,in,in,,[170.787],170.787,2.66,0.0444,822,u,YES,1
20211207,204,learn_trial,categorize-lines-2,3,learning,9,161868,TRUE,in,in,in,,[427.3794],427.3794,21.46,0.0444,1260,i,NO,0
20211207,205,learn_trial,categorize-lines-2,3,learning,9,214489,TRUE,out,out,out,,[234.2942],234.2942,9.14,0.1142,1004,i,NO,1
20211208,206,learn_trial,categorize-lines-2,3,learning,9,205927,TRUE,in,in,in,,[155.8185],155.8185,0.78,0.0444,994,u,YES,1
20211208,207,learn_trial,categorize-lines-2,3,learning,9,169918,TRUE,out,out,out,,[316.4372],316.4372,15.3,0.0351,856,i,NO,1
20211110,100,learn_trial,categorize-lines-2,4,learning,10,359872,TRUE,in,in,in,,[196.841],196.841,5.57,0.0444,1208,u,YES,1
20211110,101,learn_trial,categorize-lines-2,4,learning,10,383806,TRUE,in,in,in,,[226.3169],226.3169,8.43,0.0444,1710,u,YES,1
20211110,102,learn_trial,categorize-lines-2,4,learning,10,353584,TRUE,out,out,out,,[219.6805],219.6805,7.82,0.0555,1814,u,YES,0
20211110,103,learn_trial,categorize-lines-2,4,learning,10,202240,TRUE,in,in,in,,[243.0264],243.0264,9.89,0.0444,1582,i,NO,0
20211110,104,learn_trial,categorize-lines-2,4,learning,10,415834,TRUE,in,in,in,,[431.9916],431.9916,21.68,0.0444,4422,i,NO,0
20211110,105,learn_trial,categorize-lines-2,4,learning,10,105873,TRUE,out,out,out,,[250.9796],250.9796,10.55,0.1689,1139,i,NO,1
20211112,106,learn_trial,categorize-lines-2,4,learning,10,258586,TRUE,out,out,out,,[286.0393],286.0393,13.23,0.1204,1516,u,YES,0
20211112,107,learn_trial,categorize-lines-2,4,learning,10,221052,TRUE,out,out,out,,[233.8373],233.8373,9.1,0.1123,998,u,YES,0
20211115,108,learn_trial,categorize-lines-2,4,learning,10,322506,TRUE,out,out,out,,[349.0423],349.0423,17.31,0.0047,1590,u,YES,0
20211115,109,learn_trial,categorize-lines-2,4,learning,10,207718,TRUE,in,in,in,,[425.0919],425.0919,21.35,0.0444,1110,u,YES,1
20211115,111,learn_trial,categorize-lines-2,4,learning,10,226165,TRUE,in,in,in,,[338.8071],338.8071,16.7,0.0444,1178,i,NO,0
20211115,112,learn_trial,categorize-lines-2,4,learning,10,201904,TRUE,out,out,out,,[258.5615],258.5615,11.16,0.1772,958,u,YES,0
20211116,113,learn_trial,categorize-lines-2,4,learning,10,233840,TRUE,in,in,in,,[367.2103],367.2103,18.35,0.0444,1362,u,YES,1
20211116,114,learn_trial,categorize-lines-2,4,learning,10,192042,TRUE,out,out,out,,[305.9616],305.9616,14.61,0.0581,2054,i,NO,1
20211116,115,learn_trial,categorize-lines-2,4,learning,10,200052,TRUE,in,in,in,,[204.3767],204.3767,6.34,0.0444,3071,u,YES,1
20211116,116,learn_trial,categorize-lines-2,4,learning,10,210783,TRUE,out,out,out,,[233.8373],233.8373,9.1,0.1123,2791,u,YES,0
20211116,117,learn_trial,categorize-lines-2,4,learning,10,210350,TRUE,out,out,out,,[269.5099],269.5099,12.01,0.1675,1876,u,YES,0
20211116,118,learn_trial,categorize-lines-2,4,learning,10,233314,TRUE,out,out,out,,[216.1718],216.1718,7.49,0.0439,790,i,NO,1
20211116,119,learn_trial,categorize-lines-2,4,learning,10,200556,TRUE,out,out,out,,[269.773],269.773,12.03,0.167,1084,i,NO,1
20211118,125,learn_trial,categorize-lines-2,4,learning,10,388377,TRUE,in,in,in,,[170.787],170.787,2.66,0.0444,1271,u,YES,1
20211118,126,learn_trial,categorize-lines-2,4,learning,10,465344,TRUE,in,in,in,,[153.0308],153.0308,0.41,0.0444,896,u,YES,1
20211118,127,learn_trial,categorize-lines-2,4,learning,10,568124,TRUE,out,out,out,,[220.3246],220.3246,7.88,0.0578,1094,i,NO,1
20211118,128,learn_trial,categorize-lines-2,4,learning,10,359631,TRUE,out,out,out,,[231.4537],231.4537,8.89,0.1023,2073,i,NO,1
20211118,129,learn_trial,categorize-lines-2,4,learning,10,393308,TRUE,in,in,in,,[328.3911],328.3911,16.06,0.0444,2344,i,NO,0
20211118,130,learn_trial,categorize-lines-2,4,learning,10,288270,TRUE,out,out,out,,[269.773],269.773,12.03,0.167,896,i,NO,1
20211118,131,learn_trial,categorize-lines-2,4,learning,10,398376,TRUE,out,out,out,,[356.2686],356.2686,17.73,0.0028,1900,i,NO,1
20211118,132,learn_trial,categorize-lines-2,4,learning,10,884750,TRUE,in,in,in,,[185.4662],185.4662,4.35,0.0444,350,u,YES,1
20211118,133,learn_trial,categorize-lines-2,4,learning,10,298990,TRUE,out,out,out,,[233.9515],233.9515,9.11,0.1128,1822,i,NO,1
20211118,134,learn_trial,categorize-lines-2,4,learning,10,229981,TRUE,in,in,in,,[273.0837],273.0837,12.28,0.0444,1475,u,YES,1
20211119,135,learn_trial,categorize-lines-2,4,learning,10,245697,TRUE,out,out,out,,[356.2686],356.2686,17.73,0.0028,1263,u,YES,0
20211119,136,learn_trial,categorize-lines-2,4,learning,10,240228,TRUE,out,out,out,,[243.7389],243.7389,9.95,0.1501,1580,u,YES,0
20211119,137,learn_trial,categorize-lines-2,4,learning,10,282816,TRUE,out,out,out,,[251.4699],251.4699,10.59,0.1698,1826,u,YES,0
20211119,138,learn_trial,categorize-lines-2,4,learning,10,215587,TRUE,in,in,in,,[188.2927],188.2927,4.66,0.0444,1171,i,NO,0
20211119,139,learn_trial,categorize-lines-2,4,learning,10,329096,TRUE,in,in,in,,[214.9099],214.9099,7.37,0.0444,1278,u,YES,1
20211119,140,learn_trial,categorize-lines-2,4,learning,10,215836,TRUE,in,in,in,,[179.6767],179.6767,3.7,0.0444,3470,u,YES,1
20211119,141,learn_trial,categorize-lines-2,4,learning,10,200078,TRUE,out,out,out,,[293.6756],293.6756,13.77,0.0947,1634,u,YES,0
20211119,142,learn_trial,categorize-lines-2,4,learning,10,301911,TRUE,in,in,in,,[257.4286],257.4286,11.07,0.0444,4455,i,NO,0
20211119,143,learn_trial,categorize-lines-2,4,learning,10,240702,TRUE,out,out,out,,[286.5981],286.5981,13.27,0.1185,722,i,NO,1
20211119,144,learn_trial,categorize-lines-2,4,learning,10,184300,TRUE,out,out,out,,[288.4217],288.4217,13.4,0.1123,1538,i,NO,1
20211119,145,learn_trial,categorize-lines-2,4,learning,10,294778,TRUE,out,out,out,,[289.5496],289.5496,13.48,0.1085,2564,u,YES,0
20211122,146,learn_trial,categorize-lines-2,4,learning,10,193282,TRUE,out,out,out,,[264.3011],264.3011,11.61,0.1751,894,u,YES,0
20211122,147,learn_trial,categorize-lines-2,4,learning,10,223822,TRUE,out,out,out,,[270.9602],270.9602,12.12,0.1645,2516,i,NO,1
20211122,148,learn_trial,categorize-lines-2,4,learning,10,183444,TRUE,in,in,in,,[351.2632],351.2632,17.44,0.0444,1000,u,YES,1
20211122,149,learn_trial,categorize-lines-2,4,learning,10,307230,TRUE,in,in,in,,[338.1466],338.1466,16.66,0.0444,1612,i,NO,0
20211122,150,learn_trial,categorize-lines-2,4,learning,10,156499,TRUE,out,out,out,,[286.8779],286.8779,13.29,0.1176,1623,u,YES,0
20211203,300,learn_trial,categorize-lines-2,4,learning,10,204898,TRUE,in,in,in,,[160.7608],160.7608,1.42,0.0444,1515,i,NO,0
20211129,151,learn_trial,categorize-lines-2,4,learning,10,218916,TRUE,out,out,out,,[255.1777],255.1777,10.89,0.1751,1536,i,NO,1
20211129,152,learn_trial,categorize-lines-2,4,learning,10,294980,TRUE,in,in,in,,[316.5916],316.5916,15.31,0.0444,1854,u,YES,1
20211129,153,learn_trial,categorize-lines-2,4,learning,10,265174,TRUE,in,in,in,,[173.1362],173.1362,2.94,0.0444,4816,u,YES,1
20211129,154,learn_trial,categorize-lines-2,4,learning,10,280208,TRUE,out,out,out,,[236.9381],236.9381,9.37,0.1251,2173,i,NO,1
20211129,155,learn_trial,categorize-lines-2,4,learning,10,228406,TRUE,in,in,in,,[306.8586],306.8586,14.67,0.0444,6010,u,YES,1
20211130,157,learn_trial,categorize-lines-2,4,learning,10,471454,TRUE,in,in,in,,[383.8815],383.8815,19.26,0.0444,1171,u,YES,1
20211130,158,learn_trial,categorize-lines-2,4,learning,10,186004,TRUE,in,in,in,,[211.2711],211.2711,7.02,0.0444,3440,i,NO,0
20211130,159,learn_trial,categorize-lines-2,4,learning,10,159579,TRUE,in,in,in,,[179.6767],179.6767,3.7,0.0444,1271,u,YES,1
20211130,160,learn_trial,categorize-lines-2,4,learning,10,202180,TRUE,out,out,out,,[268.8532],268.8532,11.96,0.1687,4374,i,NO,1
20211130,301,learn_trial,categorize-lines-2,4,learning,10,177432,TRUE,out,out,out,,[260.715],260.715,11.33,0.1772,838,i,NO,1
20211130,162,learn_trial,categorize-lines-2,4,learning,10,154995,TRUE,in,in,in,,[338.8071],338.8071,16.7,0.0444,751,u,YES,1
20211201,163,learn_trial,categorize-lines-2,4,learning,10,217618,TRUE,in,in,in,,[306.8586],306.8586,14.67,0.0444,914,i,NO,0
20211201,164,learn_trial,categorize-lines-2,4,learning,10,339478,TRUE,in,in,in,,[328.3911],328.3911,16.06,0.0444,1956,u,YES,1
20211201,165,learn_trial,categorize-lines-2,4,learning,10,391858,TRUE,out,out,out,,[275.2239],275.2239,12.44,0.1542,1874,u,YES,0
20211202,166,learn_trial,categorize-lines-2,4,learning,10,452435,TRUE,out,out,out,,[242.6709],242.6709,9.86,0.1465,1268,u,YES,0
20211202,167,learn_trial,categorize-lines-2,4,learning,10,478694,TRUE,out,out,out,,[286.0393],286.0393,13.23,0.1204,864,u,YES,0
20211202,168,learn_trial,categorize-lines-2,4,learning,10,493133,TRUE,out,out,out,,[319.0728],319.0728,15.47,0.0305,2635,u,YES,0
20211202,169,learn_trial,categorize-lines-2,4,learning,10,565282,TRUE,in,in,in,,[284.5082],284.5082,13.12,0.0444,2325,u,YES,1
20211202,170,learn_trial,categorize-lines-2,4,learning,10,446438,TRUE,in,in,in,,[256.4258],256.4258,10.99,0.0444,1104,i,NO,0
20211202,171,learn_trial,categorize-lines-2,4,learning,10,385494,TRUE,in,in,in,,[292.6743],292.6743,13.7,0.0444,959,u,YES,1
20211202,172,learn_trial,categorize-lines-2,4,learning,10,404486,TRUE,out,out,out,,[299.0253],299.0253,14.14,0.0777,896,u,YES,0
20211202,173,learn_trial,categorize-lines-2,4,learning,10,817255,TRUE,out,out,out,,[226.0962],226.0962,8.41,0.0799,2811,i,NO,1
20211202,174,learn_trial,categorize-lines-2,4,learning,10,188535,TRUE,in,in,in,,[306.8586],306.8586,14.67,0.0444,2050,i,NO,0
20211202,175,learn_trial,categorize-lines-2,4,learning,10,317250,TRUE,in,in,in,,[378.8576],378.8576,18.99,0.0444,1056,u,YES,1
20211202,176,learn_trial,categorize-lines-2,4,learning,10,336012,TRUE,out,out,out,,[190.3246],190.3246,4.88,0.0032,620,u,YES,0
20211203,177,learn_trial,categorize-lines-2,4,learning,10,226686,TRUE,out,out,out,,[190.3246],190.3246,4.88,0.0032,1540,u,YES,0
20211203,178,learn_trial,categorize-lines-2,4,learning,10,277884,TRUE,in,in,in,,[172.2094],172.2094,2.83,0.0444,1606,u,YES,1
20211203,179,learn_trial,categorize-lines-2,4,learning,10,263388,TRUE,out,out,out,,[305.9616],305.9616,14.61,0.0581,1436,u,YES,0
20211203,180,learn_trial,categorize-lines-2,4,learning,10,189332,TRUE,in,in,in,,[268.0673],268.0673,11.9,0.0444,3324,i,NO,0
20211203,182,learn_trial,categorize-lines-2,4,learning,10,208170,TRUE,out,out,out,,[243.7389],243.7389,9.95,0.1501,942,i,NO,1
20211203,183,learn_trial,categorize-lines-2,4,learning,10,201899,TRUE,in,in,in,,[383.8815],383.8815,19.26,0.0444,1838,u,YES,1
20211203,184,learn_trial,categorize-lines-2,4,learning,10,259118,TRUE,in,in,in,,[352.1211],352.1211,17.49,0.0444,998,u,YES,1
20211203,185,learn_trial,categorize-lines-2,4,learning,10,299561,TRUE,in,in,in,,[274.8213],274.8213,12.41,0.0444,1099,u,YES,1
20211206,186,learn_trial,categorize-lines-2,4,learning,10,179916,TRUE,out,out,out,,[221.9429],221.9429,8.03,0.0637,3128,u,YES,0
20211206,302,learn_trial,categorize-lines-2,4,learning,10,227724,TRUE,out,out,out,,[241.019],241.019,9.72,0.1407,1810,i,NO,1
20211206,187,learn_trial,categorize-lines-2,4,learning,10,171480,TRUE,out,out,out,,[286.5981],286.5981,13.27,0.1185,998,u,YES,0
20211206,188,learn_trial,categorize-lines-2,4,learning,10,377810,TRUE,in,in,in,,[257.4286],257.4286,11.07,0.0444,9330,i,NO,0
20211206,189,learn_trial,categorize-lines-2,4,learning,10,255838,TRUE,out,out,out,,[266.3725],266.3725,11.77,0.1726,926,i,NO,1
20211206,190,learn_trial,categorize-lines-2,4,learning,10,334106,TRUE,in,in,in,,[240.0801],240.0801,9.64,0.0444,3878,u,YES,1
20211207,200,learn_trial,categorize-lines-2,4,learning,10,312012,TRUE,out,out,out,,[244.5727],244.5727,10.02,0.1527,1136,u,YES,0
20211207,201,learn_trial,categorize-lines-2,4,learning,10,248026,TRUE,in,in,in,,[185.4662],185.4662,4.35,0.0444,1598,i,NO,0
20211207,202,learn_trial,categorize-lines-2,4,learning,10,157413,TRUE,in,in,in,,[441.7966],441.7966,22.14,0.0444,1253,u,YES,1
20211207,203,learn_trial,categorize-lines-2,4,learning,10,307084,TRUE,in,in,in,,[427.3794],427.3794,21.46,0.0444,1090,u,YES,1
20211207,204,learn_trial,categorize-lines-2,4,learning,10,165226,TRUE,in,in,in,,[256.4258],256.4258,10.99,0.0444,1310,u,YES,1
20211207,205,learn_trial,categorize-lines-2,4,learning,10,217589,TRUE,out,out,out,,[310.6244],310.6244,14.92,0.0469,1059,i,NO,1
20211208,206,learn_trial,categorize-lines-2,4,learning,10,210872,TRUE,in,in,in,,[244.931],244.931,10.05,0.0444,903,i,NO,0
20211208,207,learn_trial,categorize-lines-2,4,learning,10,176294,TRUE,in,in,in,,[302.2523],302.2523,14.36,0.0444,2328,i,NO,0
20211110,100,learn_trial,categorize-lines-2,5,learning,11,363448,TRUE,in,in,in,,[197.1294],197.1294,5.6,0.0444,1546,u,YES,1
20211110,101,learn_trial,categorize-lines-2,5,learning,11,388438,TRUE,in,in,in,,[378.8576],378.8576,18.99,0.0444,602,i,NO,0
20211110,102,learn_trial,categorize-lines-2,5,learning,11,359480,TRUE,in,in,in,,[300.928],300.928,14.27,0.0444,1856,i,NO,0
20211110,103,learn_trial,categorize-lines-2,5,learning,11,205520,TRUE,in,in,in,,[170.787],170.787,2.66,0.0444,1252,u,YES,1
20211110,104,learn_trial,categorize-lines-2,5,learning,11,422826,TRUE,out,out,out,,[286.0393],286.0393,13.23,0.1204,2962,u,YES,0
20211110,105,learn_trial,categorize-lines-2,5,learning,11,108776,TRUE,in,in,in,,[383.8815],383.8815,19.26,0.0444,865,u,YES,1
20211112,106,learn_trial,categorize-lines-2,5,learning,11,265146,TRUE,in,in,in,,[183.2177],183.2177,4.1,0.0444,2526,i,NO,0
20211112,107,learn_trial,categorize-lines-2,5,learning,11,225870,TRUE,in,in,in,,[431.9916],431.9916,21.68,0.0444,786,i,NO,0
20211115,108,learn_trial,categorize-lines-2,5,learning,11,326320,TRUE,in,in,in,,[238.6785],238.6785,9.52,0.0444,1780,u,YES,1
20211115,109,learn_trial,categorize-lines-2,5,learning,11,216564,TRUE,out,out,out,,[216.1718],216.1718,7.49,0.0439,4816,u,YES,0
20211115,111,learn_trial,categorize-lines-2,5,learning,11,230551,TRUE,in,in,in,,[261.0969],261.0969,11.36,0.0444,2349,u,YES,1
20211115,112,learn_trial,categorize-lines-2,5,learning,11,205716,TRUE,out,out,out,,[219.0384],219.0384,7.76,0.0532,1774,i,NO,1
20211116,113,learn_trial,categorize-lines-2,5,learning,11,236702,TRUE,out,out,out,,[258.8139],258.8139,11.18,0.1772,834,i,NO,1
20211116,114,learn_trial,categorize-lines-2,5,learning,11,197730,TRUE,out,out,out,,[276.705],276.705,12.55,0.1501,1658,u,YES,0
20211116,115,learn_trial,categorize-lines-2,5,learning,11,205706,TRUE,out,out,out,,[261.8623],261.8623,11.42,0.1768,3613,i,NO,1
20211116,116,learn_trial,categorize-lines-2,5,learning,11,215293,TRUE,in,in,in,,[160.2908],160.2908,1.36,0.0444,2471,u,YES,1
20211116,117,learn_trial,categorize-lines-2,5,learning,11,213506,TRUE,out,out,out,,[251.4699],251.4699,10.59,0.1698,1118,i,NO,1
20211116,118,learn_trial,categorize-lines-2,5,learning,11,236410,TRUE,out,out,out,,[207.8967],207.8967,6.69,0.0227,1066,i,NO,1
20211116,119,learn_trial,categorize-lines-2,5,learning,11,203372,TRUE,in,in,in,,[160.7608],160.7608,1.42,0.0444,778,u,YES,1
20211118,125,learn_trial,categorize-lines-2,5,learning,11,393490,TRUE,out,out,out,,[317.2101],317.2101,15.35,0.0337,1075,u,YES,0
20211118,126,learn_trial,categorize-lines-2,5,learning,11,468606,TRUE,out,out,out,,[248.5424],248.5424,10.35,0.1637,1222,i,NO,1
20211118,127,learn_trial,categorize-lines-2,5,learning,11,573191,TRUE,out,out,out,,[271.0925],271.0925,12.13,0.1643,1024,u,YES,0
20211118,128,learn_trial,categorize-lines-2,5,learning,11,363687,TRUE,out,out,out,,[271.0925],271.0925,12.13,0.1643,2015,i,NO,1
20211118,129,learn_trial,categorize-lines-2,5,learning,11,403252,TRUE,in,in,in,,[440.9352],440.9352,22.1,0.0444,5902,i,NO,0
20211118,130,learn_trial,categorize-lines-2,5,learning,11,290651,TRUE,out,out,out,,[242.5526],242.5526,9.85,0.1461,345,i,NO,1
20211118,131,learn_trial,categorize-lines-2,5,learning,11,404220,TRUE,in,in,in,,[257.4286],257.4286,11.07,0.0444,1804,i,NO,0
20211118,132,learn_trial,categorize-lines-2,5,learning,11,887119,TRUE,in,in,in,,[228.0906],228.0906,8.59,0.0444,332,u,YES,1
20211118,133,learn_trial,categorize-lines-2,5,learning,11,305242,TRUE,in,in,in,,[318.7615],318.7615,15.45,0.0444,2216,i,NO,0
20211118,134,learn_trial,categorize-lines-2,5,learning,11,232578,TRUE,in,in,in,,[284.5082],284.5082,13.12,0.0444,556,u,YES,1
20211119,135,learn_trial,categorize-lines-2,5,learning,11,249826,TRUE,in,in,in,,[179.6767],179.6767,3.7,0.0444,2087,u,YES,1
20211119,136,learn_trial,categorize-lines-2,5,learning,11,246032,TRUE,out,out,out,,[219.0384],219.0384,7.76,0.0532,1764,u,YES,0
20211119,137,learn_trial,categorize-lines-2,5,learning,11,286118,TRUE,in,in,in,,[176.8932],176.8932,3.38,0.0444,1266,u,YES,1
20211119,138,learn_trial,categorize-lines-2,5,learning,11,219242,TRUE,out,out,out,,[251.4699],251.4699,10.59,0.1698,1615,i,NO,1
20211119,139,learn_trial,categorize-lines-2,5,learning,11,333536,TRUE,out,out,out,,[268.8532],268.8532,11.96,0.1687,2406,i,NO,1
20211119,140,learn_trial,categorize-lines-2,5,learning,11,220707,TRUE,out,out,out,,[276.705],276.705,12.55,0.1501,832,u,YES,0
20211119,141,learn_trial,categorize-lines-2,5,learning,11,203358,TRUE,out,out,out,,[260.715],260.715,11.33,0.1772,1240,i,NO,1
20211119,142,learn_trial,categorize-lines-2,5,learning,11,308029,TRUE,out,out,out,,[234.2942],234.2942,9.14,0.1142,4074,i,NO,1
20211119,143,learn_trial,categorize-lines-2,5,learning,11,246902,TRUE,in,in,in,,[255.801],255.801,10.94,0.0444,4168,u,YES,1
20211119,144,learn_trial,categorize-lines-2,5,learning,11,189852,TRUE,in,in,in,,[169.8728],169.8728,2.55,0.0444,1518,i,NO,0
20211119,145,learn_trial,categorize-lines-2,5,learning,11,299078,TRUE,out,out,out,,[226.0962],226.0962,8.41,0.0799,2254,i,NO,1
20211122,146,learn_trial,categorize-lines-2,5,learning,11,198420,TRUE,out,out,out,,[286.5981],286.5981,13.27,0.1185,1094,u,YES,0
20211122,147,learn_trial,categorize-lines-2,5,learning,11,231036,TRUE,out,out,out,,[275.2239],275.2239,12.44,0.1542,3178,u,YES,0
20211122,148,learn_trial,categorize-lines-2,5,learning,11,186802,TRUE,in,in,in,,[160.4473],160.4473,1.38,0.0444,1322,u,YES,1
20211122,149,learn_trial,categorize-lines-2,5,learning,11,312476,TRUE,out,out,out,,[211.3742],211.3742,7.03,0.0305,1214,u,YES,0
20211122,150,learn_trial,categorize-lines-2,5,learning,11,162297,TRUE,out,out,out,,[270.9602],270.9602,12.12,0.1645,1759,u,YES,0
20211203,300,learn_trial,categorize-lines-2,5,learning,11,209433,TRUE,out,out,out,,[242.6709],242.6709,9.86,0.1465,2493,i,NO,1
20211129,151,learn_trial,categorize-lines-2,5,learning,11,223798,TRUE,out,out,out,,[249.5144],249.5144,10.43,0.1659,840,u,YES,0
20211129,152,learn_trial,categorize-lines-2,5,learning,11,301620,TRUE,in,in,in,,[257.4286],257.4286,11.07,0.0444,4606,u,YES,1
20211129,153,learn_trial,categorize-lines-2,5,learning,11,270205,TRUE,in,in,in,,[306.8586],306.8586,14.67,0.0444,988,i,NO,0
20211129,154,learn_trial,categorize-lines-2,5,learning,11,285701,TRUE,in,in,in,,[217.0172],217.0172,7.57,0.0444,1452,i,NO,0
20211129,155,learn_trial,categorize-lines-2,5,learning,11,232736,TRUE,in,in,in,,[414.0384],414.0384,20.81,0.0444,2290,u,YES,1
20211130,157,learn_trial,categorize-lines-2,5,learning,11,486879,TRUE,in,in,in,,[338.1466],338.1466,16.66,0.0444,11389,i,NO,0
20211130,158,learn_trial,categorize-lines-2,5,learning,11,190244,TRUE,in,in,in,,[185.4662],185.4662,4.35,0.0444,2202,u,YES,1
20211130,159,learn_trial,categorize-lines-2,5,learning,11,162388,TRUE,out,out,out,,[269.5099],269.5099,12.01,0.1675,767,i,NO,1
20211130,160,learn_trial,categorize-lines-2,5,learning,11,205548,TRUE,out,out,out,,[244.5727],244.5727,10.02,0.1527,1334,i,NO,1
20211130,301,learn_trial,categorize-lines-2,5,learning,11,181900,TRUE,in,in,in,,[282.5715],282.5715,12.98,0.0444,2432,u,YES,1
20211130,162,learn_trial,categorize-lines-2,5,learning,11,158183,TRUE,out,out,out,,[220.3246],220.3246,7.88,0.0578,1147,i,NO,1
20211201,163,learn_trial,categorize-lines-2,5,learning,11,225146,TRUE,out,out,out,,[349.0423],349.0423,17.31,0.0047,3494,u,YES,0
20211201,164,learn_trial,categorize-lines-2,5,learning,11,344956,TRUE,out,out,out,,[211.3742],211.3742,7.03,0.0305,1444,u,YES,0
20211201,165,learn_trial,categorize-lines-2,5,learning,11,398702,TRUE,out,out,out,,[242.9078],242.9078,9.88,0.1473,2802,u,YES,0
20211202,166,learn_trial,categorize-lines-2,5,learning,11,458544,TRUE,out,out,out,,[288.4217],288.4217,13.4,0.1123,2073,u,YES,0
20211202,167,learn_trial,categorize-lines-2,5,learning,11,481908,TRUE,in,in,in,,[172.2094],172.2094,2.83,0.0444,1174,u,YES,1
20211202,168,learn_trial,categorize-lines-2,5,learning,11,498516,TRUE,in,in,in,,[274.6873],274.6873,12.4,0.0444,3348,u,YES,1
20211202,169,learn_trial,categorize-lines-2,5,learning,11,571820,TRUE,out,out,out,,[233.8373],233.8373,9.1,0.1123,2494,u,YES,0
20211202,170,learn_trial,categorize-lines-2,5,learning,11,449292,TRUE,in,in,in,,[243.0264],243.0264,9.89,0.0444,818,u,YES,1
20211202,171,learn_trial,categorize-lines-2,5,learning,11,388294,TRUE,in,in,in,,[316.5916],316.5916,15.31,0.0444,759,u,YES,1
20211202,172,learn_trial,categorize-lines-2,5,learning,11,407412,TRUE,out,out,out,,[261.8623],261.8623,11.42,0.1768,884,i,NO,1
20211202,173,learn_trial,categorize-lines-2,5,learning,11,820869,TRUE,out,out,out,,[314.8971],314.8971,15.2,0.038,1572,i,NO,1
20211202,174,learn_trial,categorize-lines-2,5,learning,11,192591,TRUE,in,in,in,,[315.3583],315.3583,15.23,0.0444,2017,u,YES,1
20211202,175,learn_trial,categorize-lines-2,5,learning,11,320922,TRUE,in,in,in,,[383.8815],383.8815,19.26,0.0444,1630,u,YES,1
20211202,176,learn_trial,categorize-lines-2,5,learning,11,340171,TRUE,out,out,out,,[270.9602],270.9602,12.12,0.1645,2122,i,NO,1
20211203,177,learn_trial,categorize-lines-2,5,learning,11,232485,TRUE,in,in,in,,[367.7482],367.7482,18.38,0.0444,3761,u,YES,1
20211203,178,learn_trial,categorize-lines-2,5,learning,11,281092,TRUE,in,in,in,,[160.7608],160.7608,1.42,0.0444,1166,u,YES,1
20211203,179,learn_trial,categorize-lines-2,5,learning,11,267740,TRUE,out,out,out,,[290.8239],290.8239,13.57,0.1042,2306,i,NO,1
20211203,180,learn_trial,categorize-lines-2,5,learning,11,196436,TRUE,out,out,out,,[223.0284],223.0284,8.13,0.0678,3068,u,YES,0
20211203,182,learn_trial,categorize-lines-2,5,learning,11,211530,TRUE,in,in,in,,[343.8027],343.8027,17,0.0444,1322,u,YES,1
20211203,183,learn_trial,categorize-lines-2,5,learning,11,207180,TRUE,out,out,out,,[261.8623],261.8623,11.42,0.1768,3240,i,NO,1
20211203,184,learn_trial,categorize-lines-2,5,learning,11,261896,TRUE,out,out,out,,[310.6244],310.6244,14.92,0.0469,734,i,NO,1
20211203,185,learn_trial,categorize-lines-2,5,learning,11,304858,TRUE,in,in,in,,[188.2927],188.2927,4.66,0.0444,1257,i,NO,0
20211206,186,learn_trial,categorize-lines-2,5,learning,11,183760,TRUE,in,in,in,,[160.2908],160.2908,1.36,0.0444,1802,u,YES,1
20211206,302,learn_trial,categorize-lines-2,5,learning,11,232036,TRUE,out,out,out,,[356.2686],356.2686,17.73,0.0028,2278,i,NO,1
20211206,187,learn_trial,categorize-lines-2,5,learning,11,178366,TRUE,in,in,in,,[257.4286],257.4286,11.07,0.0444,2852,i,NO,0
20211206,188,learn_trial,categorize-lines-2,5,learning,11,385376,TRUE,out,out,out,,[356.2686],356.2686,17.73,0.0028,3530,u,YES,0
20211206,189,learn_trial,categorize-lines-2,5,learning,11,260875,TRUE,out,out,out,,[237.6328],237.6328,9.43,0.1278,999,u,YES,0
20211206,190,learn_trial,categorize-lines-2,5,learning,11,338718,TRUE,in,in,in,,[292.6743],292.6743,13.7,0.0444,2572,u,YES,1
20211207,200,learn_trial,categorize-lines-2,5,learning,11,318214,TRUE,out,out,out,,[223.0284],223.0284,8.13,0.0678,2166,u,YES,0
20211207,201,learn_trial,categorize-lines-2,5,learning,11,253532,TRUE,out,out,out,,[262.5019],262.5019,11.47,0.1765,1468,u,YES,0
20211207,202,learn_trial,categorize-lines-2,5,learning,11,160425,TRUE,out,out,out,,[271.0925],271.0925,12.13,0.1643,968,i,NO,1
20211207,203,learn_trial,categorize-lines-2,5,learning,11,309975,TRUE,in,in,in,,[185.4662],185.4662,4.35,0.0444,853,u,YES,1
20211207,204,learn_trial,categorize-lines-2,5,learning,11,168220,TRUE,in,in,in,,[378.8576],378.8576,18.99,0.0444,954,u,YES,1
20211207,205,learn_trial,categorize-lines-2,5,learning,11,220397,TRUE,in,in,in,,[414.4426],414.4426,20.83,0.0444,769,u,YES,1
20211208,206,learn_trial,categorize-lines-2,5,learning,11,216044,TRUE,in,in,in,,[215.6451],215.6451,7.44,0.0444,1132,i,NO,0
20211208,207,learn_trial,categorize-lines-2,5,learning,11,183038,TRUE,in,in,in,,[340.7966],340.7966,16.82,0.0444,2704,i,NO,0
20211110,100,learn_trial,categorize-lines-2,6,learning,12,370334,TRUE,in,in,in,,[266.7626],266.7626,11.8,0.0444,4856,u,YES,1
20211110,101,learn_trial,categorize-lines-2,6,learning,12,393892,TRUE,out,out,out,,[269.773],269.773,12.03,0.167,1422,u,YES,0
20211110,102,learn_trial,categorize-lines-2,6,learning,12,365094,TRUE,in,in,in,,[302.3998],302.3998,14.37,0.0444,1584,i,NO,0
20211110,103,learn_trial,categorize-lines-2,6,learning,12,208248,TRUE,in,in,in,,[249.3927],249.3927,10.42,0.0444,698,u,YES,1
20211110,104,learn_trial,categorize-lines-2,6,learning,12,428786,TRUE,out,out,out,,[232.019],232.019,8.94,0.1047,3930,i,NO,1
20211110,105,learn_trial,categorize-lines-2,6,learning,12,111921,TRUE,in,in,in,,[441.7966],441.7966,22.14,0.0444,1106,u,YES,1
20211112,106,learn_trial,categorize-lines-2,6,learning,12,270806,TRUE,out,out,out,,[260.715],260.715,11.33,0.1772,1626,u,YES,0
20211112,107,learn_trial,categorize-lines-2,6,learning,12,231326,TRUE,out,out,out,,[305.9616],305.9616,14.61,0.0581,1424,u,YES,0
20211115,108,learn_trial,categorize-lines-2,6,learning,12,332334,TRUE,out,out,out,,[243.7389],243.7389,9.95,0.1501,1984,u,YES,0
20211115,109,learn_trial,categorize-lines-2,6,learning,12,219948,TRUE,out,out,out,,[258.8139],258.8139,11.18,0.1772,1354,i,NO,1
20211115,111,learn_trial,categorize-lines-2,6,learning,12,234414,TRUE,in,in,in,,[431.9916],431.9916,21.68,0.0444,1821,u,YES,1
20211115,112,learn_trial,categorize-lines-2,6,learning,12,208926,TRUE,in,in,in,,[228.4247],228.4247,8.62,0.0444,1178,u,YES,1
20211116,113,learn_trial,categorize-lines-2,6,learning,12,240778,TRUE,in,in,in,,[284.5082],284.5082,13.12,0.0444,2032,u,YES,1
20211116,114,learn_trial,categorize-lines-2,6,learning,12,203266,TRUE,in,in,in,,[179.6767],179.6767,3.7,0.0444,1506,i,NO,0
20211116,115,learn_trial,categorize-lines-2,6,learning,12,211298,TRUE,out,out,out,,[243.7389],243.7389,9.95,0.1501,1553,u,YES,0
20211116,116,learn_trial,categorize-lines-2,6,learning,12,220265,TRUE,in,in,in,,[235.3252],235.3252,9.23,0.0444,2927,u,YES,1
20211116,117,learn_trial,categorize-lines-2,6,learning,12,216530,TRUE,out,out,out,,[228.7593],228.7593,8.65,0.0909,986,i,NO,1
20211116,118,learn_trial,categorize-lines-2,6,learning,12,239058,TRUE,in,in,in,,[240.0801],240.0801,9.64,0.0444,620,u,YES,1
20211116,119,learn_trial,categorize-lines-2,6,learning,12,206716,TRUE,out,out,out,,[254.3077],254.3077,10.82,0.1741,1308,i,NO,1
20211118,125,learn_trial,categorize-lines-2,6,learning,12,397090,TRUE,out,out,out,,[219.6805],219.6805,7.82,0.0555,1559,i,NO,1
20211118,126,learn_trial,categorize-lines-2,6,learning,12,474198,TRUE,out,out,out,,[349.0423],349.0423,17.31,0.0047,3556,i,NO,1
20211118,127,learn_trial,categorize-lines-2,6,learning,12,580078,TRUE,out,out,out,,[211.3742],211.3742,7.03,0.0305,2846,u,YES,0
20211118,128,learn_trial,categorize-lines-2,6,learning,12,369072,TRUE,out,out,out,,[229.318],229.318,8.7,0.0933,1340,u,YES,0
20211118,129,learn_trial,categorize-lines-2,6,learning,12,406108,TRUE,in,in,in,,[367.7482],367.7482,18.38,0.0444,818,u,YES,1
20211118,130,learn_trial,categorize-lines-2,6,learning,12,296132,TRUE,in,in,in,,[153.0308],153.0308,0.41,0.0444,3440,u,YES,1
20211118,131,learn_trial,categorize-lines-2,6,learning,12,408860,TRUE,out,out,out,,[271.8872],271.8872,12.19,0.1625,2602,i,NO,1
20211118,132,learn_trial,categorize-lines-2,6,learning,12,891495,TRUE,in,in,in,,[378.8576],378.8576,18.99,0.0444,336,i,NO,0
20211118,133,learn_trial,categorize-lines-2,6,learning,12,310730,TRUE,in,in,in,,[282.8474],282.8474,13,0.0444,1448,i,NO,0
20211118,134,learn_trial,categorize-lines-2,6,learning,12,237306,TRUE,out,out,out,,[262.5019],262.5019,11.47,0.1765,685,u,YES,0
20211119,135,learn_trial,categorize-lines-2,6,learning,12,255135,TRUE,in,in,in,,[304.621],304.621,14.52,0.0444,1268,i,NO,0
20211119,136,learn_trial,categorize-lines-2,6,learning,12,251004,TRUE,in,in,in,,[338.8071],338.8071,16.7,0.0444,2934,u,YES,1
20211119,137,learn_trial,categorize-lines-2,6,learning,12,290718,TRUE,out,out,out,,[211.3742],211.3742,7.03,0.0305,564,u,YES,0
20211119,138,learn_trial,categorize-lines-2,6,learning,12,224328,TRUE,out,out,out,,[242.6709],242.6709,9.86,0.1465,1049,u,YES,0
20211119,139,learn_trial,categorize-lines-2,6,learning,12,336728,TRUE,in,in,in,,[325.361],325.361,15.87,0.0444,1158,u,YES,1
20211119,140,learn_trial,categorize-lines-2,6,learning,12,224294,TRUE,out,out,out,,[278.0583],278.0583,12.65,0.1461,1544,i,NO,1
20211119,141,learn_trial,categorize-lines-2,6,learning,12,208124,TRUE,in,in,in,,[238.6785],238.6785,9.52,0.0444,728,i,NO,0
20211119,142,learn_trial,categorize-lines-2,6,learning,12,311165,TRUE,in,in,in,,[169.8728],169.8728,2.55,0.0444,1094,u,YES,1
20211119,143,learn_trial,categorize-lines-2,6,learning,12,251374,TRUE,out,out,out,,[271.7546],271.7546,12.18,0.1628,2440,i,NO,1
20211119,144,learn_trial,categorize-lines-2,6,learning,12,196644,TRUE,out,out,out,,[260.715],260.715,11.33,0.1772,2758,u,YES,0
20211119,145,learn_trial,categorize-lines-2,6,learning,12,302274,TRUE,in,in,in,,[414.0384],414.0384,20.81,0.0444,1160,u,YES,1
20211122,146,learn_trial,categorize-lines-2,6,learning,12,203892,TRUE,out,out,out,,[263.7858],263.7858,11.57,0.1755,1434,u,YES,0
20211122,147,learn_trial,categorize-lines-2,6,learning,12,235094,TRUE,out,out,out,,[235.4401],235.4401,9.24,0.119,2026,i,NO,1
20211122,148,learn_trial,categorize-lines-2,6,learning,12,190490,TRUE,out,out,out,,[278.7375],278.7375,12.7,0.1441,1652,i,NO,1
20211122,149,learn_trial,categorize-lines-2,6,learning,12,315942,TRUE,in,in,in,,[155.8185],155.8185,0.78,0.0444,1430,u,YES,1
20211122,150,learn_trial,categorize-lines-2,6,learning,12,166985,TRUE,in,in,in,,[199.354],199.354,5.83,0.0444,2646,u,YES,1
20211203,300,learn_trial,categorize-lines-2,6,learning,12,213255,TRUE,in,in,in,,[235.3252],235.3252,9.23,0.0444,1781,u,YES,1
20211129,151,learn_trial,categorize-lines-2,6,learning,12,226948,TRUE,out,out,out,,[258.8139],258.8139,11.18,0.1772,1112,i,NO,1
20211129,152,learn_trial,categorize-lines-2,6,learning,12,312436,TRUE,in,in,in,,[370.2688],370.2688,18.52,0.0444,6784,i,NO,0
20211129,153,learn_trial,categorize-lines-2,6,learning,12,274178,TRUE,out,out,out,,[249.5144],249.5144,10.43,0.1659,1927,i,NO,1
20211129,154,learn_trial,categorize-lines-2,6,learning,12,289035,TRUE,in,in,in,,[170.787],170.787,2.66,0.0444,1292,u,YES,1
20211129,155,learn_trial,categorize-lines-2,6,learning,12,237814,TRUE,out,out,out,,[244.5727],244.5727,10.02,0.1527,1040,u,YES,0
20211130,157,learn_trial,categorize-lines-2,6,learning,12,491449,TRUE,in,in,in,,[188.2927],188.2927,4.66,0.0444,2528,u,YES,1
20211130,158,learn_trial,categorize-lines-2,6,learning,12,196316,TRUE,in,in,in,,[244.931],244.931,10.05,0.0444,2034,i,NO,0
20211130,159,learn_trial,categorize-lines-2,6,learning,12,165510,TRUE,out,out,out,,[319.0728],319.0728,15.47,0.0305,1077,i,NO,1
20211130,160,learn_trial,categorize-lines-2,6,learning,12,211164,TRUE,in,in,in,,[340.7966],340.7966,16.82,0.0444,1584,i,NO,0
20211130,301,learn_trial,categorize-lines-2,6,learning,12,186910,TRUE,out,out,out,,[349.0423],349.0423,17.31,0.0047,966,u,YES,0
20211130,162,learn_trial,categorize-lines-2,6,learning,12,161144,TRUE,out,out,out,,[190.3246],190.3246,4.88,0.0032,924,i,NO,1
20211201,163,learn_trial,categorize-lines-2,6,learning,12,230452,TRUE,out,out,out,,[319.0728],319.0728,15.47,0.0305,1270,u,YES,0
20211201,164,learn_trial,categorize-lines-2,6,learning,12,352214,TRUE,out,out,out,,[290.8239],290.8239,13.57,0.1042,3224,u,YES,0
20211201,165,learn_trial,categorize-lines-2,6,learning,12,401996,TRUE,out,out,out,,[264.3011],264.3011,11.61,0.1751,1252,i,NO,1
20211202,166,learn_trial,categorize-lines-2,6,learning,12,461802,TRUE,in,in,in,,[196.841],196.841,5.57,0.0444,1221,u,YES,1
20211202,167,learn_trial,categorize-lines-2,6,learning,12,484616,TRUE,in,in,in,,[381.2683],381.2683,19.12,0.0444,668,u,YES,1
20211202,168,learn_trial,categorize-lines-2,6,learning,12,503449,TRUE,in,in,in,,[217.0172],217.0172,7.57,0.0444,2893,u,YES,1
20211202,169,learn_trial,categorize-lines-2,6,learning,12,580705,TRUE,in,in,in,,[315.3583],315.3583,15.23,0.0444,4845,i,NO,0
20211202,170,learn_trial,categorize-lines-2,6,learning,12,452598,TRUE,out,out,out,,[269.5099],269.5099,12.01,0.1675,1264,i,NO,1
20211202,171,learn_trial,categorize-lines-2,6,learning,12,391172,TRUE,in,in,in,,[234.4085],234.4085,9.15,0.0444,840,u,YES,1
20211202,172,learn_trial,categorize-lines-2,6,learning,12,412118,TRUE,out,out,out,,[319.0728],319.0728,15.47,0.0305,670,u,YES,0
20211202,173,learn_trial,categorize-lines-2,6,learning,12,826480,TRUE,out,out,out,,[251.4699],251.4699,10.59,0.1698,1573,u,YES,0
20211202,174,learn_trial,categorize-lines-2,6,learning,12,197749,TRUE,out,out,out,,[280.511],280.511,12.83,0.1386,1121,u,YES,0
20211202,175,learn_trial,categorize-lines-2,6,learning,12,324610,TRUE,in,in,in,,[185.4662],185.4662,4.35,0.0444,1648,u,YES,1
20211202,176,learn_trial,categorize-lines-2,6,learning,12,343347,TRUE,out,out,out,,[251.4699],251.4699,10.59,0.1698,1137,i,NO,1
20211203,177,learn_trial,categorize-lines-2,6,learning,12,239014,TRUE,in,in,in,,[300.928],300.928,14.27,0.0444,4485,u,YES,1
20211203,178,learn_trial,categorize-lines-2,6,learning,12,287008,TRUE,out,out,out,,[293.6756],293.6756,13.77,0.0947,1870,u,YES,0
20211203,179,learn_trial,categorize-lines-2,6,learning,12,271388,TRUE,out,out,out,,[242.9078],242.9078,9.88,0.1473,1608,i,NO,1
20211203,180,learn_trial,categorize-lines-2,6,learning,12,201204,TRUE,out,out,out,,[310.6244],310.6244,14.92,0.0469,736,u,YES,0
20211203,182,learn_trial,categorize-lines-2,6,learning,12,216926,TRUE,out,out,out,,[356.2686],356.2686,17.73,0.0028,1350,u,YES,0
20211203,183,learn_trial,categorize-lines-2,6,learning,12,212571,TRUE,out,out,out,,[259.5727],259.5727,11.24,0.1773,1346,u,YES,0
20211203,184,learn_trial,categorize-lines-2,6,learning,12,265066,TRUE,in,in,in,,[172.2094],172.2094,2.83,0.0444,1128,u,YES,1
20211203,185,learn_trial,categorize-lines-2,6,learning,12,307915,TRUE,in,in,in,,[335.8447],335.8447,16.52,0.0444,1012,u,YES,1
20211206,186,learn_trial,categorize-lines-2,6,learning,12,186964,TRUE,in,in,in,,[185.4662],185.4662,4.35,0.0444,1166,u,YES,1
20211206,302,learn_trial,categorize-lines-2,6,learning,12,238924,TRUE,in,in,in,,[255.801],255.801,10.94,0.0444,2854,i,NO,0
20211206,187,learn_trial,categorize-lines-2,6,learning,12,182064,TRUE,in,in,in,,[155.8185],155.8185,0.78,0.0444,1662,u,YES,1
20211206,188,learn_trial,categorize-lines-2,6,learning,12,395560,TRUE,in,in,in,,[176.8932],176.8932,3.38,0.0444,6142,i,NO,0
20211206,189,learn_trial,categorize-lines-2,6,learning,12,264094,TRUE,in,in,in,,[343.8027],343.8027,17,0.0444,1173,u,YES,1
20211206,190,learn_trial,categorize-lines-2,6,learning,12,345004,TRUE,in,in,in,,[189.4907],189.4907,4.79,0.0444,2248,i,NO,0
20211207,200,learn_trial,categorize-lines-2,6,learning,12,322760,TRUE,out,out,out,,[235.4401],235.4401,9.24,0.119,2510,i,NO,1
20211207,201,learn_trial,categorize-lines-2,6,learning,12,257996,TRUE,in,in,in,,[367.2103],367.2103,18.35,0.0444,2428,u,YES,1
20211207,202,learn_trial,categorize-lines-2,6,learning,12,163231,TRUE,in,in,in,,[395.4783],395.4783,19.87,0.0444,760,u,YES,1
20211207,203,learn_trial,categorize-lines-2,6,learning,12,315562,TRUE,in,in,in,,[302.3998],302.3998,14.37,0.0444,1544,i,NO,0
20211207,204,learn_trial,categorize-lines-2,6,learning,12,172148,TRUE,in,in,in,,[228.4247],228.4247,8.62,0.0444,1892,u,YES,1
20211207,205,learn_trial,categorize-lines-2,6,learning,12,224102,TRUE,in,in,in,,[268.0673],268.0673,11.9,0.0444,1662,u,YES,1
20211208,206,learn_trial,categorize-lines-2,6,learning,12,219095,TRUE,in,in,in,,[318.7615],318.7615,15.45,0.0444,1008,u,YES,1
20211208,207,learn_trial,categorize-lines-2,6,learning,12,185692,TRUE,in,in,in,,[196.841],196.841,5.57,0.0444,614,u,YES,1
20211110,100,learn_trial,categorize-lines-2,7,learning,13,375758,TRUE,out,out,out,,[229.318],229.318,8.7,0.0933,1394,u,YES,0
20211110,101,learn_trial,categorize-lines-2,7,learning,13,398476,TRUE,out,out,out,,[235.0957],235.0957,9.21,0.1176,554,u,YES,0
20211110,102,learn_trial,categorize-lines-2,7,learning,13,369640,TRUE,out,out,out,,[288.4217],288.4217,13.4,0.1123,508,u,YES,0
20211110,103,learn_trial,categorize-lines-2,7,learning,13,211040,TRUE,in,in,in,,[261.0969],261.0969,11.36,0.0444,762,u,YES,1
20211110,104,learn_trial,categorize-lines-2,7,learning,13,435394,TRUE,out,out,out,,[310.6244],310.6244,14.92,0.0469,2576,u,YES,0
20211110,105,learn_trial,categorize-lines-2,7,learning,13,114727,TRUE,out,out,out,,[319.0728],319.0728,15.47,0.0305,765,i,NO,1
20211112,106,learn_trial,categorize-lines-2,7,learning,13,274394,TRUE,in,in,in,,[348.1918],348.1918,17.26,0.0444,1552,u,YES,1
20211112,107,learn_trial,categorize-lines-2,7,learning,13,236790,TRUE,in,in,in,,[395.4783],395.4783,19.87,0.0444,1434,i,NO,0
20211115,108,learn_trial,categorize-lines-2,7,learning,13,335442,TRUE,in,in,in,,[433.4695],433.4695,21.75,0.0444,1076,u,YES,1
20211115,109,learn_trial,categorize-lines-2,7,learning,13,224972,TRUE,out,out,out,,[317.6747],317.6747,15.38,0.0329,994,u,YES,0
20211115,111,learn_trial,categorize-lines-2,7,learning,13,239702,TRUE,in,in,in,,[395.4783],395.4783,19.87,0.0444,1246,i,NO,0
20211115,112,learn_trial,categorize-lines-2,7,learning,13,212134,TRUE,in,in,in,,[433.4695],433.4695,21.75,0.0444,1166,u,YES,1
20211116,113,learn_trial,categorize-lines-2,7,learning,13,245578,TRUE,in,in,in,,[243.0264],243.0264,9.89,0.0444,762,i,NO,0
20211116,114,learn_trial,categorize-lines-2,7,learning,13,206618,TRUE,in,in,in,,[261.0969],261.0969,11.36,0.0444,1322,u,YES,1
20211116,115,learn_trial,categorize-lines-2,7,learning,13,214835,TRUE,in,in,in,,[381.2683],381.2683,19.12,0.0444,1497,u,YES,1
20211116,116,learn_trial,categorize-lines-2,7,learning,13,224894,TRUE,out,out,out,,[293.6756],293.6756,13.77,0.0947,2589,i,NO,1
20211116,117,learn_trial,categorize-lines-2,7,learning,13,221034,TRUE,in,in,in,,[433.4695],433.4695,21.75,0.0444,2470,u,YES,1
20211116,118,learn_trial,categorize-lines-2,7,learning,13,241714,TRUE,in,in,in,,[325.361],325.361,15.87,0.0444,628,u,YES,1
20211116,119,learn_trial,categorize-lines-2,7,learning,13,209378,TRUE,in,in,in,,[325.361],325.361,15.87,0.0444,622,u,YES,1
20211118,125,learn_trial,categorize-lines-2,7,learning,13,400153,TRUE,in,in,in,,[169.8728],169.8728,2.55,0.0444,1026,u,YES,1
20211118,126,learn_trial,categorize-lines-2,7,learning,13,478948,TRUE,out,out,out,,[286.1789],286.1789,13.24,0.1199,714,u,YES,0
20211118,127,learn_trial,categorize-lines-2,7,learning,13,584636,TRUE,out,out,out,,[235.4401],235.4401,9.24,0.119,2519,i,NO,1
20211118,128,learn_trial,categorize-lines-2,7,learning,13,371845,TRUE,in,in,in,,[173.1362],173.1362,2.94,0.0444,735,u,YES,1
20211118,129,learn_trial,categorize-lines-2,7,learning,13,411350,TRUE,out,out,out,,[293.6756],293.6756,13.77,0.0947,1204,u,YES,0
20211118,130,learn_trial,categorize-lines-2,7,learning,13,301357,TRUE,in,in,in,,[395.4783],395.4783,19.87,0.0444,1186,i,NO,0
20211118,131,learn_trial,categorize-lines-2,7,learning,13,415058,TRUE,in,in,in,,[249.3927],249.3927,10.42,0.0444,2158,i,NO,0
20211118,132,learn_trial,categorize-lines-2,7,learning,13,895944,TRUE,out,out,out,,[190.3246],190.3246,4.88,0.0032,407,u,YES,0
20211118,133,learn_trial,categorize-lines-2,7,learning,13,313716,TRUE,in,in,in,,[304.621],304.621,14.52,0.0444,951,u,YES,1
20211118,134,learn_trial,categorize-lines-2,7,learning,13,242448,TRUE,in,in,in,,[391.0651],391.0651,19.64,0.0444,1101,i,NO,0
20211119,135,learn_trial,categorize-lines-2,7,learning,13,258978,TRUE,in,in,in,,[177.9319],177.9319,3.5,0.0444,1800,u,YES,1
20211119,136,learn_trial,categorize-lines-2,7,learning,13,254090,TRUE,in,in,in,,[380.8964],380.8964,19.1,0.0444,1050,u,YES,1
20211119,137,learn_trial,categorize-lines-2,7,learning,13,293720,TRUE,in,in,in,,[177.9319],177.9319,3.5,0.0444,960,u,YES,1
20211119,138,learn_trial,categorize-lines-2,7,learning,13,230711,TRUE,in,in,in,,[189.1213],189.1213,4.75,0.0444,2343,i,NO,0
20211119,139,learn_trial,categorize-lines-2,7,learning,13,342296,TRUE,out,out,out,,[236.9381],236.9381,9.37,0.1251,1534,u,YES,0
20211119,140,learn_trial,categorize-lines-2,7,learning,13,227279,TRUE,in,in,in,,[204.8759],204.8759,6.39,0.0444,943,u,YES,1
20211119,141,learn_trial,categorize-lines-2,7,learning,13,212886,TRUE,out,out,out,,[241.019],241.019,9.72,0.1407,726,u,YES,0
20211119,142,learn_trial,categorize-lines-2,7,learning,13,314503,TRUE,in,in,in,,[370.2688],370.2688,18.52,0.0444,1295,u,YES,1
20211119,143,learn_trial,categorize-lines-2,7,learning,13,256854,TRUE,out,out,out,,[226.0962],226.0962,8.41,0.0799,1450,u,YES,0
20211119,144,learn_trial,categorize-lines-2,7,learning,13,199860,TRUE,out,out,out,,[261.6069],261.6069,11.4,0.1769,1182,i,NO,1
20211119,145,learn_trial,categorize-lines-2,7,learning,13,307250,TRUE,out,out,out,,[231.4537],231.4537,8.89,0.1023,942,u,YES,0
20211122,146,learn_trial,categorize-lines-2,7,learning,13,206472,TRUE,out,out,out,,[270.3],270.3,12.07,0.1659,544,i,NO,1
20211122,147,learn_trial,categorize-lines-2,7,learning,13,240006,TRUE,in,in,in,,[189.4907],189.4907,4.79,0.0444,2882,u,YES,1
20211122,148,learn_trial,categorize-lines-2,7,learning,13,193586,TRUE,in,in,in,,[179.6767],179.6767,3.7,0.0444,1064,u,YES,1
20211122,149,learn_trial,categorize-lines-2,7,learning,13,319060,TRUE,in,in,in,,[160.4473],160.4473,1.38,0.0444,1090,u,YES,1
20211122,150,learn_trial,categorize-lines-2,7,learning,13,169832,TRUE,out,out,out,,[245.1701],245.1701,10.07,0.1545,807,i,NO,1
20211203,300,learn_trial,categorize-lines-2,7,learning,13,216897,TRUE,in,in,in,,[340.7966],340.7966,16.82,0.0444,1597,u,YES,1
20211129,151,learn_trial,categorize-lines-2,7,learning,13,230014,TRUE,in,in,in,,[284.5082],284.5082,13.12,0.0444,1028,u,YES,1
20211129,152,learn_trial,categorize-lines-2,7,learning,13,315700,TRUE,out,out,out,,[266.3725],266.3725,11.77,0.1726,1234,i,NO,1
20211129,153,learn_trial,categorize-lines-2,7,learning,13,277442,TRUE,in,in,in,,[215.6451],215.6451,7.44,0.0444,1221,u,YES,1
20211129,154,learn_trial,categorize-lines-2,7,learning,13,291764,TRUE,in,in,in,,[340.7966],340.7966,16.82,0.0444,689,u,YES,1
20211129,155,learn_trial,categorize-lines-2,7,learning,13,241612,TRUE,out,out,out,,[260.5878],260.5878,11.32,0.1772,1758,i,NO,1
20211130,157,learn_trial,categorize-lines-2,7,learning,13,494555,TRUE,in,in,in,,[199.354],199.354,5.83,0.0444,1065,u,YES,1
20211130,158,learn_trial,categorize-lines-2,7,learning,13,203644,TRUE,in,in,in,,[433.4695],433.4695,21.75,0.0444,3288,i,NO,0
20211130,159,learn_trial,categorize-lines-2,7,learning,13,168693,TRUE,out,out,out,,[286.8779],286.8779,13.29,0.1176,1136,i,NO,1
20211130,160,learn_trial,categorize-lines-2,7,learning,13,216508,TRUE,in,in,in,,[160.7608],160.7608,1.42,0.0444,1312,i,NO,0
20211130,301,learn_trial,categorize-lines-2,7,learning,13,191594,TRUE,in,in,in,,[338.1466],338.1466,16.66,0.0444,652,i,NO,0
20211130,162,learn_trial,categorize-lines-2,7,learning,13,164176,TRUE,out,out,out,,[219.6805],219.6805,7.82,0.0555,991,i,NO,1
20211201,163,learn_trial,categorize-lines-2,7,learning,13,237026,TRUE,out,out,out,,[237.6328],237.6328,9.43,0.1278,2542,u,YES,0
20211201,164,learn_trial,categorize-lines-2,7,learning,13,357412,TRUE,out,out,out,,[215.1197],215.1197,7.39,0.0407,1168,u,YES,0
20211201,165,learn_trial,categorize-lines-2,7,learning,13,415744,TRUE,in,in,in,,[235.3252],235.3252,9.23,0.0444,9712,i,NO,0
20211202,166,learn_trial,categorize-lines-2,7,learning,13,464690,TRUE,out,out,out,,[259.5727],259.5727,11.24,0.1773,848,i,NO,1
20211202,167,learn_trial,categorize-lines-2,7,learning,13,489214,TRUE,in,in,in,,[238.6785],238.6785,9.52,0.0444,560,i,NO,0
20211202,168,learn_trial,categorize-lines-2,7,learning,13,507104,TRUE,in,in,in,,[378.8576],378.8576,18.99,0.0444,1617,u,YES,1
20211202,169,learn_trial,categorize-lines-2,7,learning,13,586345,TRUE,out,out,out,,[271.8872],271.8872,12.19,0.1625,1599,u,YES,0
20211202,170,learn_trial,categorize-lines-2,7,learning,13,455162,TRUE,in,in,in,,[160.7608],160.7608,1.42,0.0444,538,u,YES,1
20211202,171,learn_trial,categorize-lines-2,7,learning,13,394060,TRUE,in,in,in,,[431.9916],431.9916,21.68,0.0444,853,u,YES,1
20211202,172,learn_trial,categorize-lines-2,7,learning,13,417458,TRUE,out,out,out,,[216.1718],216.1718,7.49,0.0439,1310,u,YES,0
20211202,173,learn_trial,categorize-lines-2,7,learning,13,831501,TRUE,out,out,out,,[319.0728],319.0728,15.47,0.0305,985,u,YES,0
20211202,174,learn_trial,categorize-lines-2,7,learning,13,202165,TRUE,out,out,out,,[231.4537],231.4537,8.89,0.1023,2374,i,NO,1
20211202,175,learn_trial,categorize-lines-2,7,learning,13,329716,TRUE,in,in,in,,[214.9099],214.9099,7.37,0.0444,1064,i,NO,0
20211202,176,learn_trial,categorize-lines-2,7,learning,13,348244,TRUE,in,in,in,,[268.0673],268.0673,11.9,0.0444,857,i,NO,0
20211203,177,learn_trial,categorize-lines-2,7,learning,13,244588,TRUE,out,out,out,,[317.2101],317.2101,15.35,0.0337,1533,u,YES,0
20211203,178,learn_trial,categorize-lines-2,7,learning,13,290130,TRUE,in,in,in,,[378.8576],378.8576,18.99,0.0444,1090,u,YES,1
20211203,179,learn_trial,categorize-lines-2,7,learning,13,277548,TRUE,in,in,in,,[217.0172],217.0172,7.57,0.0444,2124,i,NO,0
20211203,180,learn_trial,categorize-lines-2,7,learning,13,206244,TRUE,in,in,in,,[261.0969],261.0969,11.36,0.0444,1010,i,NO,0
20211203,182,learn_trial,categorize-lines-2,7,learning,13,221812,TRUE,in,in,in,,[274.6873],274.6873,12.4,0.0444,852,i,NO,0
20211203,183,learn_trial,categorize-lines-2,7,learning,13,215667,TRUE,out,out,out,,[288.4217],288.4217,13.4,0.1123,1057,i,NO,1
20211203,184,learn_trial,categorize-lines-2,7,learning,13,267872,TRUE,in,in,in,,[402.0934],402.0934,20.21,0.0444,770,u,YES,1
20211203,185,learn_trial,categorize-lines-2,7,learning,13,311400,TRUE,in,in,in,,[214.2817],214.2817,7.31,0.0444,1445,u,YES,1
20211206,186,learn_trial,categorize-lines-2,7,learning,13,192184,TRUE,in,in,in,,[273.0837],273.0837,12.28,0.0444,1180,i,NO,0
20211206,302,learn_trial,categorize-lines-2,7,learning,13,243852,TRUE,out,out,out,,[211.3742],211.3742,7.03,0.0305,896,u,YES,0
20211206,187,learn_trial,categorize-lines-2,7,learning,13,187248,TRUE,out,out,out,,[221.9429],221.9429,8.03,0.0637,1152,u,YES,0
20211206,188,learn_trial,categorize-lines-2,7,learning,13,402908,TRUE,out,out,out,,[280.511],280.511,12.83,0.1386,5304,i,NO,1
20211206,189,learn_trial,categorize-lines-2,7,learning,13,267138,TRUE,in,in,in,,[318.7615],318.7615,15.45,0.0444,1003,u,YES,1
20211206,190,learn_trial,categorize-lines-2,7,learning,13,351236,TRUE,out,out,out,,[286.1789],286.1789,13.24,0.1199,2192,u,YES,0
20211207,200,learn_trial,categorize-lines-2,7,learning,13,328364,TRUE,in,in,in,,[196.841],196.841,5.57,0.0444,3560,u,YES,1
20211207,201,learn_trial,categorize-lines-2,7,learning,13,261788,TRUE,in,in,in,,[391.0651],391.0651,19.64,0.0444,1760,u,YES,1
20211207,202,learn_trial,categorize-lines-2,7,learning,13,168130,TRUE,out,out,out,,[219.0384],219.0384,7.76,0.0532,858,u,YES,0
20211207,203,learn_trial,categorize-lines-2,7,learning,13,318737,TRUE,in,in,in,,[440.9352],440.9352,22.1,0.0444,1135,u,YES,1
20211207,204,learn_trial,categorize-lines-2,7,learning,13,174794,TRUE,in,in,in,,[274.6873],274.6873,12.4,0.0444,616,u,YES,1
20211207,205,learn_trial,categorize-lines-2,7,learning,13,227153,TRUE,in,in,in,,[426.7543],426.7543,21.43,0.0444,1004,u,YES,1
20211208,206,learn_trial,categorize-lines-2,7,learning,13,223879,TRUE,in,in,in,,[256.4258],256.4258,10.99,0.0444,741,i,NO,0
20211208,207,learn_trial,categorize-lines-2,7,learning,13,188620,TRUE,in,in,in,,[309.2634],309.2634,14.83,0.0444,894,u,YES,1
20211110,100,learn_trial,categorize-lines-2,8,learning,14,382336,TRUE,out,out,out,,[260.5878],260.5878,11.32,0.1772,4548,i,NO,1
20211110,101,learn_trial,categorize-lines-2,8,learning,14,401102,TRUE,in,in,in,,[183.2177],183.2177,4.1,0.0444,594,u,YES,1
20211110,102,learn_trial,categorize-lines-2,8,learning,14,373864,TRUE,in,in,in,,[179.6767],179.6767,3.7,0.0444,2188,u,YES,1
20211110,103,learn_trial,categorize-lines-2,8,learning,14,215720,TRUE,out,out,out,,[211.3742],211.3742,7.03,0.0305,652,u,YES,0
20211110,104,learn_trial,categorize-lines-2,8,learning,14,441914,TRUE,out,out,out,,[270.3],270.3,12.07,0.1659,2490,u,YES,0
20211110,105,learn_trial,categorize-lines-2,8,learning,14,117592,TRUE,in,in,in,,[243.0264],243.0264,9.89,0.0444,828,u,YES,1
20211112,106,learn_trial,categorize-lines-2,8,learning,14,277852,TRUE,in,in,in,,[309.2634],309.2634,14.83,0.0444,1418,u,YES,1
20211112,107,learn_trial,categorize-lines-2,8,learning,14,242030,TRUE,in,in,in,,[348.1918],348.1918,17.26,0.0444,1210,i,NO,0
20211115,108,learn_trial,categorize-lines-2,8,learning,14,340614,TRUE,in,in,in,,[351.2632],351.2632,17.44,0.0444,1134,i,NO,0
20211115,109,learn_trial,categorize-lines-2,8,learning,14,237998,TRUE,in,in,in,,[273.0837],273.0837,12.28,0.0444,8998,i,NO,0
20211115,111,learn_trial,categorize-lines-2,8,learning,14,245116,TRUE,in,in,in,,[150.8808],150.8808,0.12,0.0444,3376,u,YES,1
20211115,112,learn_trial,categorize-lines-2,8,learning,14,217720,TRUE,out,out,out,,[207.8967],207.8967,6.69,0.0227,1546,u,YES,0
20211116,113,learn_trial,categorize-lines-2,8,learning,14,249882,TRUE,in,in,in,,[282.5715],282.5715,12.98,0.0444,2276,u,YES,1
20211116,114,learn_trial,categorize-lines-2,8,learning,14,211698,TRUE,out,out,out,,[288.4217],288.4217,13.4,0.1123,1050,u,YES,0
20211116,115,learn_trial,categorize-lines-2,8,learning,14,219937,TRUE,out,out,out,,[319.0728],319.0728,15.47,0.0305,1061,u,YES,0
20211116,116,learn_trial,categorize-lines-2,8,learning,14,228119,TRUE,out,out,out,,[286.8779],286.8779,13.29,0.1176,1190,i,NO,1
20211116,117,learn_trial,categorize-lines-2,8,learning,14,226150,TRUE,out,out,out,,[237.6328],237.6328,9.43,0.1278,1086,u,YES,0
20211116,118,learn_trial,categorize-lines-2,8,learning,14,244682,TRUE,out,out,out,,[219.0384],219.0384,7.76,0.0532,940,i,NO,1
20211116,119,learn_trial,categorize-lines-2,8,learning,14,212348,TRUE,out,out,out,,[258.8139],258.8139,11.18,0.1772,934,i,NO,1
20211118,125,learn_trial,categorize-lines-2,8,learning,14,405297,TRUE,out,out,out,,[356.2686],356.2686,17.73,0.0028,1105,u,YES,0
20211118,126,learn_trial,categorize-lines-2,8,learning,14,481634,TRUE,out,out,out,,[228.7593],228.7593,8.65,0.0909,650,i,NO,1
20211118,127,learn_trial,categorize-lines-2,8,learning,14,589676,TRUE,out,out,out,,[272.6843],272.6843,12.25,0.1606,1001,u,YES,0
20211118,128,learn_trial,categorize-lines-2,8,learning,14,377213,TRUE,in,in,in,,[391.0651],391.0651,19.64,0.0444,1328,i,NO,0
20211118,129,learn_trial,categorize-lines-2,8,learning,14,416732,TRUE,out,out,out,,[219.0384],219.0384,7.76,0.0532,1342,u,YES,0
20211118,130,learn_trial,categorize-lines-2,8,learning,14,303662,TRUE,in,in,in,,[273.0837],273.0837,12.28,0.0444,262,u,YES,1
20211118,131,learn_trial,categorize-lines-2,8,learning,14,417836,TRUE,in,in,in,,[348.1918],348.1918,17.26,0.0444,738,u,YES,1
20211118,132,learn_trial,categorize-lines-2,8,learning,14,900354,TRUE,in,in,in,,[197.1294],197.1294,5.6,0.0444,372,i,NO,0
20211118,133,learn_trial,categorize-lines-2,8,learning,14,318742,TRUE,in,in,in,,[226.3169],226.3169,8.43,0.0444,2984,u,YES,1
20211118,134,learn_trial,categorize-lines-2,8,learning,14,247119,TRUE,out,out,out,,[235.4401],235.4401,9.24,0.119,632,u,YES,0
20211119,135,learn_trial,categorize-lines-2,8,learning,14,264602,TRUE,out,out,out,,[229.318],229.318,8.7,0.0933,1580,u,YES,0
20211119,136,learn_trial,categorize-lines-2,8,learning,14,257664,TRUE,out,out,out,,[259.5727],259.5727,11.24,0.1773,1546,i,NO,1
20211119,137,learn_trial,categorize-lines-2,8,learning,14,296762,TRUE,out,out,out,,[286.1789],286.1789,13.24,0.1199,1006,i,NO,1
20211119,138,learn_trial,categorize-lines-2,8,learning,14,235687,TRUE,out,out,out,,[319.0728],319.0728,15.47,0.0305,936,u,YES,0
20211119,139,learn_trial,categorize-lines-2,8,learning,14,345592,TRUE,in,in,in,,[352.1211],352.1211,17.49,0.0444,1264,u,YES,1
20211119,140,learn_trial,categorize-lines-2,8,learning,14,230404,TRUE,out,out,out,,[270.9602],270.9602,12.12,0.1645,1083,i,NO,1
20211119,141,learn_trial,categorize-lines-2,8,learning,14,215752,TRUE,in,in,in,,[223.4641],223.4641,8.17,0.0444,830,u,YES,1
20211119,142,learn_trial,categorize-lines-2,8,learning,14,320685,TRUE,in,in,in,,[234.4085],234.4085,9.15,0.0444,2142,i,NO,0
20211119,143,learn_trial,categorize-lines-2,8,learning,14,260496,TRUE,out,out,out,,[215.1197],215.1197,7.39,0.0407,1608,i,NO,1
20211119,144,learn_trial,categorize-lines-2,8,learning,14,203284,TRUE,out,out,out,,[246.0089],246.0089,10.14,0.157,1394,i,NO,1
20211119,145,learn_trial,categorize-lines-2,8,learning,14,311456,TRUE,out,out,out,,[280.511],280.511,12.83,0.1386,2166,i,NO,1
20211122,146,learn_trial,categorize-lines-2,8,learning,14,209974,TRUE,in,in,in,,[414.0384],414.0384,20.81,0.0444,1458,u,YES,1
20211122,147,learn_trial,categorize-lines-2,8,learning,14,243358,TRUE,in,in,in,,[169.8728],169.8728,2.55,0.0444,1322,u,YES,1
20211122,148,learn_trial,categorize-lines-2,8,learning,14,198538,TRUE,out,out,out,,[211.3742],211.3742,7.03,0.0305,920,u,YES,0
20211122,149,learn_trial,categorize-lines-2,8,learning,14,324140,TRUE,in,in,in,,[228.4247],228.4247,8.62,0.0444,1050,i,NO,0
20211122,150,learn_trial,categorize-lines-2,8,learning,14,173827,TRUE,in,in,in,,[157.3464],157.3464,0.98,0.0444,1949,u,YES,1
20211203,300,learn_trial,categorize-lines-2,8,learning,14,222281,TRUE,in,in,in,,[273.0837],273.0837,12.28,0.0444,1340,i,NO,0
20211129,151,learn_trial,categorize-lines-2,8,learning,14,233956,TRUE,in,in,in,,[234.4085],234.4085,9.15,0.0444,1902,u,YES,1
20211129,152,learn_trial,categorize-lines-2,8,learning,14,322340,TRUE,out,out,out,,[254.3077],254.3077,10.82,0.1741,2608,u,YES,0
20211129,153,learn_trial,categorize-lines-2,8,learning,14,280962,TRUE,in,in,in,,[238.6785],238.6785,9.52,0.0444,1476,u,YES,1
20211129,154,learn_trial,categorize-lines-2,8,learning,14,294596,TRUE,in,in,in,,[380.8964],380.8964,19.1,0.0444,790,u,YES,1
20211129,155,learn_trial,categorize-lines-2,8,learning,14,246934,TRUE,out,out,out,,[286.8779],286.8779,13.29,0.1176,1282,u,YES,0
20211130,157,learn_trial,categorize-lines-2,8,learning,14,497522,TRUE,in,in,in,,[235.3252],235.3252,9.23,0.0444,930,u,YES,1
20211130,158,learn_trial,categorize-lines-2,8,learning,14,210144,TRUE,out,out,out,,[248.5424],248.5424,10.35,0.1637,2462,u,YES,0
20211130,159,learn_trial,categorize-lines-2,8,learning,14,171906,TRUE,out,out,out,,[271.7546],271.7546,12.18,0.1628,1174,i,NO,1
20211130,160,learn_trial,categorize-lines-2,8,learning,14,219988,TRUE,in,in,in,,[206.4815],206.4815,6.55,0.0444,1448,u,YES,1
20211130,301,learn_trial,categorize-lines-2,8,learning,14,200032,TRUE,out,out,out,,[235.555],235.555,9.25,0.1194,4392,u,YES,0
20211130,162,learn_trial,categorize-lines-2,8,learning,14,167128,TRUE,in,in,in,,[240.0801],240.0801,9.64,0.0444,910,u,YES,1
20211201,163,learn_trial,categorize-lines-2,8,learning,14,240010,TRUE,out,out,out,,[229.318],229.318,8.7,0.0933,952,i,NO,1
20211201,164,learn_trial,categorize-lines-2,8,learning,14,360636,TRUE,in,in,in,,[162.972],162.972,1.7,0.0444,1192,u,YES,1
20211201,165,learn_trial,categorize-lines-2,8,learning,14,419670,TRUE,in,in,in,,[158.6569],158.6569,1.15,0.0444,1894,u,YES,1
20211202,166,learn_trial,categorize-lines-2,8,learning,14,468667,TRUE,out,out,out,,[286.8779],286.8779,13.29,0.1176,1940,i,NO,1
20211202,167,learn_trial,categorize-lines-2,8,learning,14,492050,TRUE,in,in,in,,[335.8447],335.8447,16.52,0.0444,802,u,YES,1
20211202,168,learn_trial,categorize-lines-2,8,learning,14,513049,TRUE,in,in,in,,[223.4641],223.4641,8.17,0.0444,1905,i,NO,0
20211202,169,learn_trial,categorize-lines-2,8,learning,14,590521,TRUE,in,in,in,,[215.6451],215.6451,7.44,0.0444,2141,u,YES,1
20211202,170,learn_trial,categorize-lines-2,8,learning,14,458070,TRUE,in,in,in,,[257.4286],257.4286,11.07,0.0444,880,u,YES,1
20211202,171,learn_trial,categorize-lines-2,8,learning,14,399161,TRUE,in,in,in,,[172.2094],172.2094,2.83,0.0444,1055,i,NO,0
20211202,172,learn_trial,categorize-lines-2,8,learning,14,420074,TRUE,in,in,in,,[391.0651],391.0651,19.64,0.0444,578,u,YES,1
20211202,173,learn_trial,categorize-lines-2,8,learning,14,835325,TRUE,out,out,out,,[289.5496],289.5496,13.48,0.1085,1786,i,NO,1
20211202,174,learn_trial,categorize-lines-2,8,learning,14,207185,TRUE,in,in,in,,[217.0172],217.0172,7.57,0.0444,981,i,NO,0
20211202,175,learn_trial,categorize-lines-2,8,learning,14,333170,TRUE,in,in,in,,[183.2177],183.2177,4.1,0.0444,1420,u,YES,1
20211202,176,learn_trial,categorize-lines-2,8,learning,14,351172,TRUE,in,in,in,,[183.2177],183.2177,4.1,0.0444,887,u,YES,1
20211203,177,learn_trial,categorize-lines-2,8,learning,14,247982,TRUE,out,out,out,,[244.5727],244.5727,10.02,0.1527,1354,i,NO,1
20211203,178,learn_trial,categorize-lines-2,8,learning,14,293080,TRUE,out,out,out,,[278.7375],278.7375,12.7,0.1441,908,i,NO,1
20211203,179,learn_trial,categorize-lines-2,8,learning,14,283660,TRUE,in,in,in,,[274.8213],274.8213,12.41,0.0444,2070,i,NO,0
20211203,180,learn_trial,categorize-lines-2,8,learning,14,211086,TRUE,out,out,out,,[250.9796],250.9796,10.55,0.1689,810,u,YES,0
20211203,182,learn_trial,categorize-lines-2,8,learning,14,226842,TRUE,in,in,in,,[316.5916],316.5916,15.31,0.0444,998,i,NO,0
20211203,183,learn_trial,categorize-lines-2,8,learning,14,221108,TRUE,out,out,out,,[251.8382],251.8382,10.62,0.1705,1399,u,YES,0
20211203,184,learn_trial,categorize-lines-2,8,learning,14,272496,TRUE,in,in,in,,[268.0673],268.0673,11.9,0.0444,582,i,NO,0
20211203,185,learn_trial,categorize-lines-2,8,learning,14,314589,TRUE,in,in,in,,[185.4662],185.4662,4.35,0.0444,1149,u,YES,1
20211206,186,learn_trial,categorize-lines-2,8,learning,14,197670,TRUE,out,out,out,,[288.4217],288.4217,13.4,0.1123,1454,u,YES,0
20211206,302,learn_trial,categorize-lines-2,8,learning,14,246780,TRUE,in,in,in,,[381.2683],381.2683,19.12,0.0444,898,u,YES,1
20211206,187,learn_trial,categorize-lines-2,8,learning,14,190104,TRUE,in,in,in,,[170.787],170.787,2.66,0.0444,824,u,YES,1
20211206,188,learn_trial,categorize-lines-2,8,learning,14,409064,TRUE,out,out,out,,[282.1582],282.1582,12.95,0.1333,2122,u,YES,0
20211206,189,learn_trial,categorize-lines-2,8,learning,14,269843,TRUE,in,in,in,,[391.0651],391.0651,19.64,0.0444,669,u,YES,1
20211206,190,learn_trial,categorize-lines-2,8,learning,14,355768,TRUE,in,in,in,,[228.0906],228.0906,8.59,0.0444,2500,u,YES,1
20211207,200,learn_trial,categorize-lines-2,8,learning,14,337056,TRUE,out,out,out,,[243.7389],243.7389,9.95,0.1501,4658,u,YES,0
20211207,201,learn_trial,categorize-lines-2,8,learning,14,266956,TRUE,in,in,in,,[266.7626],266.7626,11.8,0.0444,3134,u,YES,1
20211207,202,learn_trial,categorize-lines-2,8,learning,14,171325,TRUE,in,in,in,,[169.8728],169.8728,2.55,0.0444,1154,u,YES,1
20211207,203,learn_trial,categorize-lines-2,8,learning,14,323768,TRUE,out,out,out,,[272.6843],272.6843,12.25,0.1606,990,u,YES,0
20211207,204,learn_trial,categorize-lines-2,8,learning,14,177940,TRUE,in,in,in,,[370.2688],370.2688,18.52,0.0444,1102,u,YES,1
20211207,205,learn_trial,categorize-lines-2,8,learning,14,231454,TRUE,out,out,out,,[251.8382],251.8382,10.62,0.1705,2261,i,NO,1
20211208,206,learn_trial,categorize-lines-2,8,learning,14,226553,TRUE,in,in,in,,[367.2103],367.2103,18.35,0.0444,629,u,YES,1
20211208,207,learn_trial,categorize-lines-2,8,learning,14,193606,TRUE,out,out,out,,[235.4401],235.4401,9.24,0.119,948,u,YES,0
20211110,100,learn_trial,categorize-lines-2,9,learning,15,386322,TRUE,out,out,out,,[270.9602],270.9602,12.12,0.1645,1952,i,NO,1
20211110,101,learn_trial,categorize-lines-2,9,learning,15,405810,TRUE,in,in,in,,[189.4907],189.4907,4.79,0.0444,674,i,NO,0
20211110,102,learn_trial,categorize-lines-2,9,learning,15,379754,TRUE,out,out,out,,[236.9381],236.9381,9.37,0.1251,1848,u,YES,0
20211110,103,learn_trial,categorize-lines-2,9,learning,15,220778,TRUE,out,out,out,,[226.0962],226.0962,8.41,0.0799,1026,u,YES,0
20211110,104,learn_trial,categorize-lines-2,9,learning,15,447910,TRUE,in,in,in,,[427.3794],427.3794,21.46,0.0444,3962,u,YES,1
20211110,105,learn_trial,categorize-lines-2,9,learning,15,120487,TRUE,in,in,in,,[338.8071],338.8071,16.7,0.0444,862,u,YES,1
20211112,106,learn_trial,categorize-lines-2,9,learning,15,283084,TRUE,out,out,out,,[228.7593],228.7593,8.65,0.0909,1196,u,YES,0
20211112,107,learn_trial,categorize-lines-2,9,learning,15,246800,TRUE,in,in,in,,[188.2927],188.2927,4.66,0.0444,736,i,NO,0
20211115,108,learn_trial,categorize-lines-2,9,learning,15,346488,TRUE,out,out,out,,[262.5019],262.5019,11.47,0.1765,1836,u,YES,0
20211115,109,learn_trial,categorize-lines-2,9,learning,15,243400,TRUE,in,in,in,,[266.7626],266.7626,11.8,0.0444,1368,i,NO,0
20211115,111,learn_trial,categorize-lines-2,9,learning,15,250605,TRUE,in,in,in,,[335.8447],335.8447,16.52,0.0444,1453,i,NO,0
20211115,112,learn_trial,categorize-lines-2,9,learning,15,222518,TRUE,out,out,out,,[349.0423],349.0423,17.31,0.0047,762,u,YES,0
20211116,113,learn_trial,categorize-lines-2,9,learning,15,253594,TRUE,in,in,in,,[170.787],170.787,2.66,0.0444,1672,u,YES,1
20211116,114,learn_trial,categorize-lines-2,9,learning,15,215148,TRUE,in,in,in,,[243.0264],243.0264,9.89,0.0444,1418,u,YES,1
20211116,115,learn_trial,categorize-lines-2,9,learning,15,225379,TRUE,out,out,out,,[219.1453],219.1453,7.77,0.0536,1400,u,YES,0
20211116,116,learn_trial,categorize-lines-2,9,learning,15,231680,TRUE,in,in,in,,[348.1918],348.1918,17.26,0.0444,1525,u,YES,1
20211116,117,learn_trial,categorize-lines-2,9,learning,15,229178,TRUE,in,in,in,,[196.841],196.841,5.57,0.0444,990,u,YES,1
20211116,118,learn_trial,categorize-lines-2,9,learning,15,249428,TRUE,out,out,out,,[299.0253],299.0253,14.14,0.0777,714,u,YES,0
20211116,119,learn_trial,categorize-lines-2,9,learning,15,215150,TRUE,out,out,out,,[228.7593],228.7593,8.65,0.0909,758,i,NO,1
20211118,125,learn_trial,categorize-lines-2,9,learning,15,409783,TRUE,out,out,out,,[242.6709],242.6709,9.86,0.1465,2451,i,NO,1
20211118,126,learn_trial,categorize-lines-2,9,learning,15,487070,TRUE,in,in,in,,[157.5],157.5,1,0.0444,1394,i,NO,0
20211118,127,learn_trial,categorize-lines-2,9,learning,15,594590,TRUE,in,in,in,,[352.1211],352.1211,17.49,0.0444,2867,u,YES,1
20211118,128,learn_trial,categorize-lines-2,9,learning,15,383671,TRUE,out,out,out,,[282.2959],282.2959,12.96,0.1328,2417,u,YES,0
20211118,129,learn_trial,categorize-lines-2,9,learning,15,420278,TRUE,out,out,out,,[289.5496],289.5496,13.48,0.1085,1506,i,NO,1
20211118,130,learn_trial,categorize-lines-2,9,learning,15,305951,TRUE,out,out,out,,[276.705],276.705,12.55,0.1501,251,i,NO,1
20211118,131,learn_trial,categorize-lines-2,9,learning,15,424258,TRUE,out,out,out,,[229.318],229.318,8.7,0.0933,2378,u,YES,0
20211118,132,learn_trial,categorize-lines-2,9,learning,15,902798,TRUE,in,in,in,,[188.2927],188.2927,4.66,0.0444,407,u,YES,1
20211118,133,learn_trial,categorize-lines-2,9,learning,15,321901,TRUE,in,in,in,,[433.4695],433.4695,21.75,0.0444,1116,u,YES,1
20211118,134,learn_trial,categorize-lines-2,9,learning,15,249720,TRUE,in,in,in,,[274.8213],274.8213,12.41,0.0444,559,u,YES,1
20211119,135,learn_trial,categorize-lines-2,9,learning,15,267635,TRUE,in,in,in,,[160.7608],160.7608,1.42,0.0444,986,u,YES,1
20211119,136,learn_trial,categorize-lines-2,9,learning,15,263484,TRUE,out,out,out,,[232.019],232.019,8.94,0.1047,1780,u,YES,0
20211119,137,learn_trial,categorize-lines-2,9,learning,15,299872,TRUE,out,out,out,,[259.5727],259.5727,11.24,0.1773,1076,i,NO,1
20211119,138,learn_trial,categorize-lines-2,9,learning,15,240266,TRUE,in,in,in,,[240.0801],240.0801,9.64,0.0444,2537,u,YES,1
20211119,139,learn_trial,categorize-lines-2,9,learning,15,348882,TRUE,in,in,in,,[335.8447],335.8447,16.52,0.0444,1256,u,YES,1
20211119,140,learn_trial,categorize-lines-2,9,learning,15,235681,TRUE,out,out,out,,[221.9429],221.9429,8.03,0.0637,1242,u,YES,0
20211119,141,learn_trial,categorize-lines-2,9,learning,15,218246,TRUE,in,in,in,,[244.931],244.931,10.05,0.0444,458,u,YES,1
20211119,142,learn_trial,categorize-lines-2,9,learning,15,330182,TRUE,in,in,in,,[235.3252],235.3252,9.23,0.0444,5456,i,NO,0
20211119,143,learn_trial,categorize-lines-2,9,learning,15,264532,TRUE,out,out,out,,[293.6756],293.6756,13.77,0.0947,1998,i,NO,1
20211119,144,learn_trial,categorize-lines-2,9,learning,15,208008,TRUE,in,in,in,,[217.0172],217.0172,7.57,0.0444,688,i,NO,0
20211119,145,learn_trial,categorize-lines-2,9,learning,15,314452,TRUE,in,in,in,,[427.3794],427.3794,21.46,0.0444,958,u,YES,1
20211122,146,learn_trial,categorize-lines-2,9,learning,15,212690,TRUE,out,out,out,,[229.318],229.318,8.7,0.0933,676,i,NO,1
20211122,147,learn_trial,categorize-lines-2,9,learning,15,247728,TRUE,out,out,out,,[278.7375],278.7375,12.7,0.1441,2336,i,NO,1
20211122,148,learn_trial,categorize-lines-2,9,learning,15,203342,TRUE,out,out,out,,[282.1582],282.1582,12.95,0.1333,2766,i,NO,1
20211122,149,learn_trial,categorize-lines-2,9,learning,15,328392,TRUE,out,out,out,,[242.9078],242.9078,9.88,0.1473,2216,i,NO,1
20211122,150,learn_trial,categorize-lines-2,9,learning,15,177880,TRUE,out,out,out,,[244.5727],244.5727,10.02,0.1527,2014,i,NO,1
20211203,300,learn_trial,categorize-lines-2,9,learning,15,226855,TRUE,out,out,out,,[281.4707],281.4707,12.9,0.1355,536,u,YES,0
20211129,151,learn_trial,categorize-lines-2,9,learning,15,236976,TRUE,in,in,in,,[183.2177],183.2177,4.1,0.0444,976,u,YES,1
20211129,152,learn_trial,categorize-lines-2,9,learning,15,328280,TRUE,out,out,out,,[250.9796],250.9796,10.55,0.1689,1900,u,YES,0
20211129,153,learn_trial,categorize-lines-2,9,learning,15,285441,TRUE,in,in,in,,[272.5513],272.5513,12.24,0.0444,2440,u,YES,1
20211129,154,learn_trial,categorize-lines-2,9,learning,15,299605,TRUE,in,in,in,,[172.2094],172.2094,2.83,0.0444,968,i,NO,0
