trial_type,trial_index,time_elapsed,exp_name,date,time,angle_mean_in,radius_mean_in,angle_sd_in,radius_sd_in,angle_min_out,angle_max_out,radius_min_out,radius_max_out,sub_n,age,race,ethnicity,gender,exp_duration,rt,response,exp_trial_type,screen_id,angle,radius,distribution,choice,correct
canvas-keyboard-response,15,207895,2d_cat_multi_stim_exp1,2022-03-28,10:49:53,25,75,3,9,10,40,30,120,1,18,"[""""Asian""""]",No,Female,1699139,2535,u,learn,learn_trial,25,75,in,1,1
canvas-keyboard-response,20,210999,2d_cat_multi_stim_exp1,2022-03-28,10:49:53,25,75,3,9,10,40,30,120,1,18,"[""""Asian""""]",No,Female,1699139,1498,u,learn,learn_trial,25,75,in,1,1
canvas-keyboard-response,25,214135,2d_cat_multi_stim_exp1,2022-03-28,10:49:53,25,75,3,9,10,40,30,120,1,18,"[""""Asian""""]",No,Female,1699139,1534,u,learn,learn_trial,40,90,out,1,0
canvas-keyboard-response,30,218239,2d_cat_multi_stim_exp1,2022-03-28,10:49:53,25,75,3,9,10,40,30,120,1,18,"[""""Asian""""]",No,Female,1699139,2002,i,learn,learn_trial,16.6667,30,out,0,1
canvas-keyboard-response,35,220752,2d_cat_multi_stim_exp1,2022-03-28,10:49:53,25,75,3,9,10,40,30,120,1,18,"[""""Asian""""]",No,Female,1699139,912,u,learn,learn_trial,10,70,out,1,0
canvas-keyboard-response,40,223935,2d_cat_multi_stim_exp1,2022-03-28,10:49:53,25,75,3,9,10,40,30,120,1,18,"[""""Asian""""]",No,Female,1699139,1079,u,learn,learn_trial,36.6667,70,out,1,0
canvas-keyboard-response,45,226599,2d_cat_multi_stim_exp1,2022-03-28,10:49:53,25,75,3,9,10,40,30,120,1,18,"[""""Asian""""]",No,Female,1699139,557,u,learn,learn_trial,25,75,in,1,1
canvas-keyboard-response,50,229135,2d_cat_multi_stim_exp1,2022-03-28,10:49:53,25,75,3,9,10,40,30,120,1,18,"[""""Asian""""]",No,Female,1699139,933,u,learn,learn_trial,25,75,in,1,1
canvas-keyboard-response,55,231599,2d_cat_multi_stim_exp1,2022-03-28,10:49:53,25,75,3,9,10,40,30,120,1,18,"[""""Asian""""]",No,Female,1699139,862,i,learn,learn_trial,20,60,out,0,1
canvas-keyboard-response,60,233830,2d_cat_multi_stim_exp1,2022-03-28,10:49:53,25,75,3,9,10,40,30,120,1,18,"[""""Asian""""]",No,Female,1699139,633,u,learn,learn_trial,25,75,in,1,1
canvas-keyboard-response,65,236375,2d_cat_multi_stim_exp1,2022-03-28,10:49:53,25,75,3,9,10,40,30,120,1,18,"[""""Asian""""]",No,Female,1699139,946,u,learn,learn_trial,25,75,in,1,1
canvas-keyboard-response,70,238934,2d_cat_multi_stim_exp1,2022-03-28,10:49:53,25,75,3,9,10,40,30,120,1,18,"[""""Asian""""]",No,Female,1699139,952,u,learn,learn_trial,27.9518,76.607,in,1,1
canvas-keyboard-response,75,241102,2d_cat_multi_stim_exp1,2022-03-28,10:49:53,25,75,3,9,10,40,30,120,1,18,"[""""Asian""""]",No,Female,1699139,568,u,learn,learn_trial,25,75,in,1,1
canvas-keyboard-response,80,243223,2d_cat_multi_stim_exp1,2022-03-28,10:49:53,25,75,3,9,10,40,30,120,1,18,"[""""Asian""""]",No,Female,1699139,520,u,learn,learn_trial,25,75,in,1,1
canvas-keyboard-response,85,246079,2d_cat_multi_stim_exp1,2022-03-28,10:49:53,25,75,3,9,10,40,30,120,1,18,"[""""Asian""""]",No,Female,1699139,1250,u,learn,learn_trial,13.3333,120,out,1,0
canvas-keyboard-response,90,249607,2d_cat_multi_stim_exp1,2022-03-28,10:49:53,25,75,3,9,10,40,30,120,1,18,"[""""Asian""""]",No,Female,1699139,1428,u,learn,learn_trial,13.3333,70,out,1,0
canvas-keyboard-response,95,252854,2d_cat_multi_stim_exp1,2022-03-28,10:49:53,25,75,3,9,10,40,30,120,1,18,"[""""Asian""""]",No,Female,1699139,1151,u,learn,learn_trial,25,93,in,1,1
canvas-keyboard-response,100,255065,2d_cat_multi_stim_exp1,2022-03-28,10:49:53,25,75,3,9,10,40,30,120,1,18,"[""""Asian""""]",No,Female,1699139,613,u,learn,learn_trial,25,75,in,1,1
canvas-keyboard-response,105,259526,2d_cat_multi_stim_exp1,2022-03-28,10:49:53,25,75,3,9,10,40,30,120,1,18,"[""""Asian""""]",No,Female,1699139,2860,i,learn,learn_trial,36.6667,50,out,0,1
canvas-keyboard-response,110,262015,2d_cat_multi_stim_exp1,2022-03-28,10:49:53,25,75,3,9,10,40,30,120,1,18,"[""""Asian""""]",No,Female,1699139,880,u,learn,learn_trial,25,75,in,1,1
canvas-keyboard-response,115,264487,2d_cat_multi_stim_exp1,2022-03-28,10:49:53,25,75,3,9,10,40,30,120,1,18,"[""""Asian""""]",No,Female,1699139,869,u,learn,learn_trial,25,75,in,1,1
canvas-keyboard-response,120,266815,2d_cat_multi_stim_exp1,2022-03-28,10:49:53,25,75,3,9,10,40,30,120,1,18,"[""""Asian""""]",No,Female,1699139,728,i,learn,learn_trial,40,30,out,0,1
canvas-keyboard-response,125,269271,2d_cat_multi_stim_exp1,2022-03-28,10:49:53,25,75,3,9,10,40,30,120,1,18,"[""""Asian""""]",No,Female,1699139,852,u,learn,learn_trial,25,75,in,1,1
canvas-keyboard-response,130,271718,2d_cat_multi_stim_exp1,2022-03-28,10:49:53,25,75,3,9,10,40,30,120,1,18,"[""""Asian""""]",No,Female,1699139,850,i,learn,learn_trial,40,70,out,0,1
canvas-keyboard-response,135,274590,2d_cat_multi_stim_exp1,2022-03-28,10:49:53,25,75,3,9,10,40,30,120,1,18,"[""""Asian""""]",No,Female,1699139,1271,u,learn,learn_trial,23.3473,67.4888,in,1,1
canvas-keyboard-response,140,278742,2d_cat_multi_stim_exp1,2022-03-28,10:49:53,25,75,3,9,10,40,30,120,1,18,"[""""Asian""""]",No,Female,1699139,2555,u,learn,learn_trial,26.4216,82.9254,in,1,1
canvas-keyboard-response,145,281031,2d_cat_multi_stim_exp1,2022-03-28,10:49:53,25,75,3,9,10,40,30,120,1,18,"[""""Asian""""]",No,Female,1699139,685,u,learn,learn_trial,16.6667,80,out,1,0
canvas-keyboard-response,150,284223,2d_cat_multi_stim_exp1,2022-03-28,10:49:53,25,75,3,9,10,40,30,120,1,18,"[""""Asian""""]",No,Female,1699139,1088,u,learn,learn_trial,23.3333,60,out,1,0
canvas-keyboard-response,155,286774,2d_cat_multi_stim_exp1,2022-03-28,10:49:53,25,75,3,9,10,40,30,120,1,18,"[""""Asian""""]",No,Female,1699139,451,u,learn,learn_trial,27.5753,79.6161,in,1,1
canvas-keyboard-response,160,289167,2d_cat_multi_stim_exp1,2022-03-28,10:49:53,25,75,3,9,10,40,30,120,1,18,"[""""Asian""""]",No,Female,1699139,790,u,learn,learn_trial,25,75,in,1,1
canvas-keyboard-response,165,291511,2d_cat_multi_stim_exp1,2022-03-28,10:49:53,25,75,3,9,10,40,30,120,1,18,"[""""Asian""""]",No,Female,1699139,738,u,learn,learn_trial,25,75,in,1,1
canvas-keyboard-response,170,293663,2d_cat_multi_stim_exp1,2022-03-28,10:49:53,25,75,3,9,10,40,30,120,1,18,"[""""Asian""""]",No,Female,1699139,552,u,learn,learn_trial,30,110,out,1,0
canvas-keyboard-response,175,296287,2d_cat_multi_stim_exp1,2022-03-28,10:49:53,25,75,3,9,10,40,30,120,1,18,"[""""Asian""""]",No,Female,1699139,524,u,learn,learn_trial,23.3333,50,out,1,0
canvas-keyboard-response,180,298982,2d_cat_multi_stim_exp1,2022-03-28,10:49:53,25,75,3,9,10,40,30,120,1,18,"[""""Asian""""]",No,Female,1699139,586,u,learn,learn_trial,31,75,in,1,1
canvas-keyboard-response,185,301671,2d_cat_multi_stim_exp1,2022-03-28,10:49:53,25,75,3,9,10,40,30,120,1,18,"[""""Asian""""]",No,Female,1699139,1086,i,learn,learn_trial,10,80,out,0,1
canvas-keyboard-response,190,303975,2d_cat_multi_stim_exp1,2022-03-28,10:49:53,25,75,3,9,10,40,30,120,1,18,"[""""Asian""""]",No,Female,1699139,697,u,learn,learn_trial,30,90,out,1,0
canvas-keyboard-response,195,307270,2d_cat_multi_stim_exp1,2022-03-28,10:49:53,25,75,3,9,10,40,30,120,1,18,"[""""Asian""""]",No,Female,1699139,1199,i,learn,learn_trial,26.6667,30,out,0,1
canvas-keyboard-response,200,310270,2d_cat_multi_stim_exp1,2022-03-28,10:49:53,25,75,3,9,10,40,30,120,1,18,"[""""Asian""""]",No,Female,1699139,1399,u,learn,learn_trial,25,75,in,1,1
canvas-keyboard-response,205,312927,2d_cat_multi_stim_exp1,2022-03-28,10:49:53,25,75,3,9,10,40,30,120,1,18,"[""""Asian""""]",No,Female,1699139,1050,u,learn,learn_trial,25,75,in,1,1
canvas-keyboard-response,210,315079,2d_cat_multi_stim_exp1,2022-03-28,10:49:53,25,75,3,9,10,40,30,120,1,18,"[""""Asian""""]",No,Female,1699139,546,u,learn,learn_trial,20,70,out,1,0
canvas-keyboard-response,215,318127,2d_cat_multi_stim_exp1,2022-03-28,10:49:53,25,75,3,9,10,40,30,120,1,18,"[""""Asian""""]",No,Female,1699139,946,i,learn,learn_trial,36.6667,60,out,0,1
canvas-keyboard-response,220,321102,2d_cat_multi_stim_exp1,2022-03-28,10:49:53,25,75,3,9,10,40,30,120,1,18,"[""""Asian""""]",No,Female,1699139,1378,i,learn,learn_trial,33.3333,50,out,0,1
canvas-keyboard-response,225,323375,2d_cat_multi_stim_exp1,2022-03-28,10:49:53,25,75,3,9,10,40,30,120,1,18,"[""""Asian""""]",No,Female,1699139,674,u,learn,learn_trial,24.8654,83.9909,in,1,1
canvas-keyboard-response,230,325895,2d_cat_multi_stim_exp1,2022-03-28,10:49:53,25,75,3,9,10,40,30,120,1,18,"[""""Asian""""]",No,Female,1699139,916,i,learn,learn_trial,40,80,out,0,1
canvas-keyboard-response,235,328510,2d_cat_multi_stim_exp1,2022-03-28,10:49:53,25,75,3,9,10,40,30,120,1,18,"[""""Asian""""]",No,Female,1699139,1011,u,learn,learn_trial,22.5729,80.2901,in,1,1
canvas-keyboard-response,240,330935,2d_cat_multi_stim_exp1,2022-03-28,10:49:53,25,75,3,9,10,40,30,120,1,18,"[""""Asian""""]",No,Female,1699139,828,i,learn,learn_trial,23.3333,30,out,0,1
canvas-keyboard-response,245,333535,2d_cat_multi_stim_exp1,2022-03-28,10:49:53,25,75,3,9,10,40,30,120,1,18,"[""""Asian""""]",No,Female,1699139,992,u,learn,learn_trial,13.3333,40,out,1,0
canvas-keyboard-response,250,336287,2d_cat_multi_stim_exp1,2022-03-28,10:49:53,25,75,3,9,10,40,30,120,1,18,"[""""Asian""""]",No,Female,1699139,647,i,learn,learn_trial,36.6667,40,out,0,1
canvas-keyboard-response,255,338718,2d_cat_multi_stim_exp1,2022-03-28,10:49:53,25,75,3,9,10,40,30,120,1,18,"[""""Asian""""]",No,Female,1699139,831,u,learn,learn_trial,25,75,in,1,1
canvas-keyboard-response,260,341446,2d_cat_multi_stim_exp1,2022-03-28,10:49:53,25,75,3,9,10,40,30,120,1,18,"[""""Asian""""]",No,Female,1699139,1133,u,learn,learn_trial,25,75,in,1,1
canvas-keyboard-response,265,343743,2d_cat_multi_stim_exp1,2022-03-28,10:49:53,25,75,3,9,10,40,30,120,1,18,"[""""Asian""""]",No,Female,1699139,691,u,learn,learn_trial,26.6667,90,out,1,0
canvas-keyboard-response,270,346711,2d_cat_multi_stim_exp1,2022-03-28,10:49:53,25,75,3,9,10,40,30,120,1,18,"[""""Asian""""]",No,Female,1699139,864,u,learn,learn_trial,23.3333,90,out,1,0
canvas-keyboard-response,275,351103,2d_cat_multi_stim_exp1,2022-03-28,10:49:53,25,75,3,9,10,40,30,120,1,18,"[""""Asian""""]",No,Female,1699139,2287,i,learn,learn_trial,22.9268,68.4948,in,0,0
canvas-keyboard-response,280,354415,2d_cat_multi_stim_exp1,2022-03-28,10:49:53,25,75,3,9,10,40,30,120,1,18,"[""""Asian""""]",No,Female,1699139,1207,i,learn,learn_trial,10,100,out,0,1
canvas-keyboard-response,285,356679,2d_cat_multi_stim_exp1,2022-03-28,10:49:53,25,75,3,9,10,40,30,120,1,18,"[""""Asian""""]",No,Female,1699139,663,u,learn,learn_trial,23.3473,82.5112,in,1,1
canvas-keyboard-response,290,358895,2d_cat_multi_stim_exp1,2022-03-28,10:49:53,25,75,3,9,10,40,30,120,1,18,"[""""Asian""""]",No,Female,1699139,616,u,learn,learn_trial,25,75,in,1,1
canvas-keyboard-response,295,362054,2d_cat_multi_stim_exp1,2022-03-28,10:49:53,25,75,3,9,10,40,30,120,1,18,"[""""Asian""""]",No,Female,1699139,1556,i,learn,learn_trial,16.6667,120,out,0,1
canvas-keyboard-response,300,365198,2d_cat_multi_stim_exp1,2022-03-28,10:49:53,25,75,3,9,10,40,30,120,1,18,"[""""Asian""""]",No,Female,1699139,1547,u,learn,learn_trial,26.6667,120,out,1,0
canvas-keyboard-response,305,368254,2d_cat_multi_stim_exp1,2022-03-28,10:49:53,25,75,3,9,10,40,30,120,1,18,"[""""Asian""""]",No,Female,1699139,960,i,learn,learn_trial,13.3333,50,out,0,1
canvas-keyboard-response,310,370934,2d_cat_multi_stim_exp1,2022-03-28,10:49:53,25,75,3,9,10,40,30,120,1,18,"[""""Asian""""]",No,Female,1699139,1079,u,learn,learn_trial,16.6667,70,out,1,0
canvas-keyboard-response,315,374039,2d_cat_multi_stim_exp1,2022-03-28,10:49:53,25,75,3,9,10,40,30,120,1,18,"[""""Asian""""]",No,Female,1699139,1006,u,learn,learn_trial,24.8654,66.0091,in,1,1
canvas-keyboard-response,320,376271,2d_cat_multi_stim_exp1,2022-03-28,10:49:53,25,75,3,9,10,40,30,120,1,18,"[""""Asian""""]",No,Female,1699139,620,u,learn,learn_trial,25,75,in,1,1
canvas-keyboard-response,325,378341,2d_cat_multi_stim_exp1,2022-03-28,10:49:53,25,75,3,9,10,40,30,120,1,18,"[""""Asian""""]",No,Female,1699139,461,u,learn,learn_trial,25,75,in,1,1
canvas-keyboard-response,330,380494,2d_cat_multi_stim_exp1,2022-03-28,10:49:53,25,75,3,9,10,40,30,120,1,18,"[""""Asian""""]",No,Female,1699139,549,u,learn,learn_trial,33.3333,60,out,1,0
canvas-keyboard-response,335,383375,2d_cat_multi_stim_exp1,2022-03-28,10:49:53,25,75,3,9,10,40,30,120,1,18,"[""""Asian""""]",No,Female,1699139,781,i,learn,learn_trial,40,50,out,0,1
canvas-keyboard-response,340,386007,2d_cat_multi_stim_exp1,2022-03-28,10:49:53,25,75,3,9,10,40,30,120,1,18,"[""""Asian""""]",No,Female,1699139,1030,i,learn,learn_trial,25,75,in,0,0
canvas-keyboard-response,345,389053,2d_cat_multi_stim_exp1,2022-03-28,10:49:53,25,75,3,9,10,40,30,120,1,18,"[""""Asian""""]",No,Female,1699139,942,i,learn,learn_trial,10,120,out,0,1
canvas-keyboard-response,350,391719,2d_cat_multi_stim_exp1,2022-03-28,10:49:53,25,75,3,9,10,40,30,120,1,18,"[""""Asian""""]",No,Female,1699139,1076,u,learn,learn_trial,25,75,in,1,1
canvas-keyboard-response,355,393927,2d_cat_multi_stim_exp1,2022-03-28,10:49:53,25,75,3,9,10,40,30,120,1,18,"[""""Asian""""]",No,Female,1699139,609,u,learn,learn_trial,27.9518,73.393,in,1,1
canvas-keyboard-response,360,396302,2d_cat_multi_stim_exp1,2022-03-28,10:49:53,25,75,3,9,10,40,30,120,1,18,"[""""Asian""""]",No,Female,1699139,780,i,learn,learn_trial,26.6667,100,out,0,1
canvas-keyboard-response,365,398895,2d_cat_multi_stim_exp1,2022-03-28,10:49:53,25,75,3,9,10,40,30,120,1,18,"[""""Asian""""]",No,Female,1699139,991,u,learn,learn_trial,27.5753,70.3839,in,1,1
canvas-keyboard-response,370,401279,2d_cat_multi_stim_exp1,2022-03-28,10:49:53,25,75,3,9,10,40,30,120,1,18,"[""""Asian""""]",No,Female,1699139,783,i,learn,learn_trial,10,50,out,0,1
canvas-keyboard-response,375,404079,2d_cat_multi_stim_exp1,2022-03-28,10:49:53,25,75,3,9,10,40,30,120,1,18,"[""""Asian""""]",No,Female,1699139,1199,i,learn,learn_trial,20,120,out,0,1
canvas-keyboard-response,380,406462,2d_cat_multi_stim_exp1,2022-03-28,10:49:53,25,75,3,9,10,40,30,120,1,18,"[""""Asian""""]",No,Female,1699139,783,i,learn,learn_trial,16.6667,110,out,0,1
canvas-keyboard-response,385,410007,2d_cat_multi_stim_exp1,2022-03-28,10:49:53,25,75,3,9,10,40,30,120,1,18,"[""""Asian""""]",No,Female,1699139,1938,u,learn,learn_trial,16.6667,90,out,1,0
canvas-keyboard-response,390,413038,2d_cat_multi_stim_exp1,2022-03-28,10:49:53,25,75,3,9,10,40,30,120,1,18,"[""""Asian""""]",No,Female,1699139,928,u,learn,learn_trial,30,70,out,1,0
canvas-keyboard-response,395,415855,2d_cat_multi_stim_exp1,2022-03-28,10:49:53,25,75,3,9,10,40,30,120,1,18,"[""""Asian""""]",No,Female,1699139,710,u,learn,learn_trial,25,75,in,1,1
canvas-keyboard-response,400,418199,2d_cat_multi_stim_exp1,2022-03-28,10:49:53,25,75,3,9,10,40,30,120,1,18,"[""""Asian""""]",No,Female,1699139,740,i,learn,learn_trial,10,40,out,0,1
canvas-keyboard-response,405,420463,2d_cat_multi_stim_exp1,2022-03-28,10:49:53,25,75,3,9,10,40,30,120,1,18,"[""""Asian""""]",No,Female,1699139,669,u,learn,learn_trial,26.6667,70,out,1,0
canvas-keyboard-response,410,422982,2d_cat_multi_stim_exp1,2022-03-28,10:49:53,25,75,3,9,10,40,30,120,1,18,"[""""Asian""""]",No,Female,1699139,425,u,learn,learn_trial,25,75,in,1,1
canvas-keyboard-response,415,426238,2d_cat_multi_stim_exp1,2022-03-28,10:49:53,25,75,3,9,10,40,30,120,1,18,"[""""Asian""""]",No,Female,1699139,1652,i,learn,learn_trial,16.6667,60,out,0,1
canvas-keyboard-response,420,428822,2d_cat_multi_stim_exp1,2022-03-28,10:49:53,25,75,3,9,10,40,30,120,1,18,"[""""Asian""""]",No,Female,1699139,978,u,learn,learn_trial,26.6667,60,out,1,0
canvas-keyboard-response,425,431598,2d_cat_multi_stim_exp1,2022-03-28,10:49:53,25,75,3,9,10,40,30,120,1,18,"[""""Asian""""]",No,Female,1699139,672,i,learn,learn_trial,22.0121,75.8068,in,0,0
canvas-keyboard-response,430,435207,2d_cat_multi_stim_exp1,2022-03-28,10:49:53,25,75,3,9,10,40,30,120,1,18,"[""""Asian""""]",No,Female,1699139,1512,u,learn,learn_trial,26.8705,67.9635,in,1,1
canvas-keyboard-response,435,437743,2d_cat_multi_stim_exp1,2022-03-28,10:49:53,25,75,3,9,10,40,30,120,1,18,"[""""Asian""""]",No,Female,1699139,936,i,learn,learn_trial,33.3333,40,out,0,1
canvas-keyboard-response,440,440895,2d_cat_multi_stim_exp1,2022-03-28,10:49:53,25,75,3,9,10,40,30,120,1,18,"[""""Asian""""]",No,Female,1699139,1544,u,learn,learn_trial,25,75,in,1,1
canvas-keyboard-response,445,443183,2d_cat_multi_stim_exp1,2022-03-28,10:49:53,25,75,3,9,10,40,30,120,1,18,"[""""Asian""""]",No,Female,1699139,681,u,learn,learn_trial,25,75,in,1,1
canvas-keyboard-response,450,445543,2d_cat_multi_stim_exp1,2022-03-28,10:49:53,25,75,3,9,10,40,30,120,1,18,"[""""Asian""""]",No,Female,1699139,749,i,learn,learn_trial,10,110,out,0,1
canvas-keyboard-response,455,447999,2d_cat_multi_stim_exp1,2022-03-28,10:49:53,25,75,3,9,10,40,30,120,1,18,"[""""Asian""""]",No,Female,1699139,854,i,learn,learn_trial,20,50,out,0,1
canvas-keyboard-response,460,450855,2d_cat_multi_stim_exp1,2022-03-28,10:49:53,25,75,3,9,10,40,30,120,1,18,"[""""Asian""""]",No,Female,1699139,1255,u,learn,learn_trial,40,60,out,1,0
canvas-keyboard-response,465,454430,2d_cat_multi_stim_exp1,2022-03-28,10:49:53,25,75,3,9,10,40,30,120,1,18,"[""""Asian""""]",No,Female,1699139,1475,i,learn,learn_trial,23.3333,120,out,0,1
canvas-keyboard-response,470,457311,2d_cat_multi_stim_exp1,2022-03-28,10:49:53,25,75,3,9,10,40,30,120,1,18,"[""""Asian""""]",No,Female,1699139,1278,u,learn,learn_trial,25.9271,83.5595,in,1,1
canvas-keyboard-response,475,459542,2d_cat_multi_stim_exp1,2022-03-28,10:49:53,25,75,3,9,10,40,30,120,1,18,"[""""Asian""""]",No,Female,1699139,625,u,learn,learn_trial,33.3333,80,out,1,0
canvas-keyboard-response,480,462631,2d_cat_multi_stim_exp1,2022-03-28,10:49:53,25,75,3,9,10,40,30,120,1,18,"[""""Asian""""]",No,Female,1699139,982,u,learn,learn_trial,26.4216,67.0746,in,1,1
canvas-keyboard-response,485,464830,2d_cat_multi_stim_exp1,2022-03-28,10:49:53,25,75,3,9,10,40,30,120,1,18,"[""""Asian""""]",No,Female,1699139,603,u,learn,learn_trial,25,75,in,1,1
canvas-keyboard-response,490,467159,2d_cat_multi_stim_exp1,2022-03-28,10:49:53,25,75,3,9,10,40,30,120,1,18,"[""""Asian""""]",No,Female,1699139,726,u,learn,learn_trial,27.2592,69.0786,in,1,1
canvas-keyboard-response,495,469415,2d_cat_multi_stim_exp1,2022-03-28,10:49:53,25,75,3,9,10,40,30,120,1,18,"[""""Asian""""]",No,Female,1699139,655,u,learn,learn_trial,20.7574,62.2721,in,1,1
canvas-keyboard-response,500,471407,2d_cat_multi_stim_exp1,2022-03-28,10:49:53,25,75,3,9,10,40,30,120,1,18,"[""""Asian""""]",No,Female,1699139,384,u,learn,learn_trial,33.3333,90,out,1,0
canvas-keyboard-response,505,474311,2d_cat_multi_stim_exp1,2022-03-28,10:49:53,25,75,3,9,10,40,30,120,1,18,"[""""Asian""""]",No,Female,1699139,796,i,learn,learn_trial,13.3333,110,out,0,1
canvas-keyboard-response,510,477022,2d_cat_multi_stim_exp1,2022-03-28,10:49:53,25,75,3,9,10,40,30,120,1,18,"[""""Asian""""]",No,Female,1699139,1105,u,learn,learn_trial,25,75,in,1,1
canvas-keyboard-response,515,479150,2d_cat_multi_stim_exp1,2022-03-28,10:49:53,25,75,3,9,10,40,30,120,1,18,"[""""Asian""""]",No,Female,1699139,523,u,learn,learn_trial,25,75,in,1,1
canvas-keyboard-response,520,481126,2d_cat_multi_stim_exp1,2022-03-28,10:49:53,25,75,3,9,10,40,30,120,1,18,"[""""Asian""""]",No,Female,1699139,374,u,learn,learn_trial,25,75,in,1,1
canvas-keyboard-response,525,483150,2d_cat_multi_stim_exp1,2022-03-28,10:49:53,25,75,3,9,10,40,30,120,1,18,"[""""Asian""""]",No,Female,1699139,423,u,learn,learn_trial,25,75,in,1,1
canvas-keyboard-response,530,485503,2d_cat_multi_stim_exp1,2022-03-28,10:49:53,25,75,3,9,10,40,30,120,1,18,"[""""Asian""""]",No,Female,1699139,751,i,learn,learn_trial,13.3333,80,out,0,1
canvas-keyboard-response,535,487663,2d_cat_multi_stim_exp1,2022-03-28,10:49:53,25,75,3,9,10,40,30,120,1,18,"[""""Asian""""]",No,Female,1699139,555,i,learn,learn_trial,13.3333,60,out,0,1
canvas-keyboard-response,540,489887,2d_cat_multi_stim_exp1,2022-03-28,10:49:53,25,75,3,9,10,40,30,120,1,18,"[""""Asian""""]",No,Female,1699139,621,u,learn,learn_trial,25.4027,83.9185,in,1,1
canvas-keyboard-response,545,492070,2d_cat_multi_stim_exp1,2022-03-28,10:49:53,25,75,3,9,10,40,30,120,1,18,"[""""Asian""""]",No,Female,1699139,583,u,learn,learn_trial,25,75,in,1,1
canvas-keyboard-response,550,494143,2d_cat_multi_stim_exp1,2022-03-28,10:49:53,25,75,3,9,10,40,30,120,1,18,"[""""Asian""""]",No,Female,1699139,472,u,learn,learn_trial,36.6667,100,out,1,0
canvas-keyboard-response,555,497119,2d_cat_multi_stim_exp1,2022-03-28,10:49:53,25,75,3,9,10,40,30,120,1,18,"[""""Asian""""]",No,Female,1699139,875,i,learn,learn_trial,16.6667,100,out,0,1
canvas-keyboard-response,560,499535,2d_cat_multi_stim_exp1,2022-03-28,10:49:53,25,75,3,9,10,40,30,120,1,18,"[""""Asian""""]",No,Female,1699139,809,u,learn,learn_trial,25,75,in,1,1
canvas-keyboard-response,565,501630,2d_cat_multi_stim_exp1,2022-03-28,10:49:53,25,75,3,9,10,40,30,120,1,18,"[""""Asian""""]",No,Female,1699139,495,u,learn,learn_trial,26.8705,82.0365,in,1,1
canvas-keyboard-response,570,503974,2d_cat_multi_stim_exp1,2022-03-28,10:49:53,25,75,3,9,10,40,30,120,1,18,"[""""Asian""""]",No,Female,1699139,742,i,learn,learn_trial,40,40,out,0,1
canvas-keyboard-response,575,506208,2d_cat_multi_stim_exp1,2022-03-28,10:49:53,25,75,3,9,10,40,30,120,1,18,"[""""Asian""""]",No,Female,1699139,631,i,learn,learn_trial,13.3333,30,out,0,1
canvas-keyboard-response,580,508966,2d_cat_multi_stim_exp1,2022-03-28,10:49:53,25,75,3,9,10,40,30,120,1,18,"[""""Asian""""]",No,Female,1699139,1153,i,learn,learn_trial,30,50,out,0,1
canvas-keyboard-response,585,511415,2d_cat_multi_stim_exp1,2022-03-28,10:49:53,25,75,3,9,10,40,30,120,1,18,"[""""Asian""""]",No,Female,1699139,839,u,learn,learn_trial,25.9271,66.4405,in,1,1
canvas-keyboard-response,590,513527,2d_cat_multi_stim_exp1,2022-03-28,10:49:53,25,75,3,9,10,40,30,120,1,18,"[""""Asian""""]",No,Female,1699139,510,u,learn,learn_trial,25,75,in,1,1
canvas-keyboard-response,595,516327,2d_cat_multi_stim_exp1,2022-03-28,10:49:53,25,75,3,9,10,40,30,120,1,18,"[""""Asian""""]",No,Female,1699139,1189,i,learn,learn_trial,23.3333,100,out,0,1
canvas-keyboard-response,600,518478,2d_cat_multi_stim_exp1,2022-03-28,10:49:53,25,75,3,9,10,40,30,120,1,18,"[""""Asian""""]",No,Female,1699139,549,u,learn,learn_trial,23.3333,80,out,1,0
canvas-keyboard-response,605,521158,2d_cat_multi_stim_exp1,2022-03-28,10:49:53,25,75,3,9,10,40,30,120,1,18,"[""""Asian""""]",No,Female,1699139,574,u,learn,learn_trial,25,75,in,1,1
canvas-keyboard-response,610,523271,2d_cat_multi_stim_exp1,2022-03-28,10:49:53,25,75,3,9,10,40,30,120,1,18,"[""""Asian""""]",No,Female,1699139,503,u,learn,learn_trial,27.8087,71.8376,in,1,1
canvas-keyboard-response,615,525967,2d_cat_multi_stim_exp1,2022-03-28,10:49:53,25,75,3,9,10,40,30,120,1,18,"[""""Asian""""]",No,Female,1699139,1094,i,learn,learn_trial,36.6667,120,out,0,1
canvas-keyboard-response,620,528334,2d_cat_multi_stim_exp1,2022-03-28,10:49:53,25,75,3,9,10,40,30,120,1,18,"[""""Asian""""]",No,Female,1699139,762,u,learn,learn_trial,20,100,out,1,0
canvas-keyboard-response,625,531143,2d_cat_multi_stim_exp1,2022-03-28,10:49:53,25,75,3,9,10,40,30,120,1,18,"[""""Asian""""]",No,Female,1699139,702,i,learn,learn_trial,40,120,out,0,1
canvas-keyboard-response,630,533566,2d_cat_multi_stim_exp1,2022-03-28,10:49:53,25,75,3,9,10,40,30,120,1,18,"[""""Asian""""]",No,Female,1699139,818,u,learn,learn_trial,26.6667,50,out,1,0
canvas-keyboard-response,635,536583,2d_cat_multi_stim_exp1,2022-03-28,10:49:53,25,75,3,9,10,40,30,120,1,18,"[""""Asian""""]",No,Female,1699139,915,u,learn,learn_trial,33.3333,70,out,1,0
canvas-keyboard-response,640,540255,2d_cat_multi_stim_exp1,2022-03-28,10:49:53,25,75,3,9,10,40,30,120,1,18,"[""""Asian""""]",No,Female,1699139,1568,i,learn,learn_trial,33.3333,100,out,0,1
canvas-keyboard-response,645,542726,2d_cat_multi_stim_exp1,2022-03-28,10:49:53,25,75,3,9,10,40,30,120,1,18,"[""""Asian""""]",No,Female,1699139,863,i,learn,learn_trial,20,90,out,0,1
canvas-keyboard-response,650,545894,2d_cat_multi_stim_exp1,2022-03-28,10:49:53,25,75,3,9,10,40,30,120,1,18,"[""""Asian""""]",No,Female,1699139,1562,u,learn,learn_trial,23.3333,70,out,1,0
canvas-keyboard-response,655,549014,2d_cat_multi_stim_exp1,2022-03-28,10:49:53,25,75,3,9,10,40,30,120,1,18,"[""""Asian""""]",No,Female,1699139,1015,i,learn,learn_trial,25,57,in,0,0
canvas-keyboard-response,660,551967,2d_cat_multi_stim_exp1,2022-03-28,10:49:53,25,75,3,9,10,40,30,120,1,18,"[""""Asian""""]",No,Female,1699139,844,u,learn,learn_trial,25,75,in,1,1
canvas-keyboard-response,665,554407,2d_cat_multi_stim_exp1,2022-03-28,10:49:53,25,75,3,9,10,40,30,120,1,18,"[""""Asian""""]",No,Female,1699139,843,i,learn,learn_trial,30,120,out,0,1
canvas-keyboard-response,670,556854,2d_cat_multi_stim_exp1,2022-03-28,10:49:53,25,75,3,9,10,40,30,120,1,18,"[""""Asian""""]",No,Female,1699139,842,i,learn,learn_trial,26.6667,40,out,0,1
canvas-keyboard-response,675,559319,2d_cat_multi_stim_exp1,2022-03-28,10:49:53,25,75,3,9,10,40,30,120,1,18,"[""""Asian""""]",No,Female,1699139,855,u,learn,learn_trial,25,75,in,1,1
canvas-keyboard-response,680,561646,2d_cat_multi_stim_exp1,2022-03-28,10:49:53,25,75,3,9,10,40,30,120,1,18,"[""""Asian""""]",No,Female,1699139,727,i,learn,learn_trial,30,30,out,0,1
canvas-keyboard-response,685,563910,2d_cat_multi_stim_exp1,2022-03-28,10:49:53,25,75,3,9,10,40,30,120,1,18,"[""""Asian""""]",No,Female,1699139,666,u,learn,learn_trial,36.6667,90,out,1,0
canvas-keyboard-response,690,567045,2d_cat_multi_stim_exp1,2022-03-28,10:49:53,25,75,3,9,10,40,30,120,1,18,"[""""Asian""""]",No,Female,1699139,1033,u,learn,learn_trial,22.1081,72.6057,in,1,1
canvas-keyboard-response,695,569343,2d_cat_multi_stim_exp1,2022-03-28,10:49:53,25,75,3,9,10,40,30,120,1,18,"[""""Asian""""]",No,Female,1699139,699,i,learn,learn_trial,26.6667,110,out,0,1
canvas-keyboard-response,700,571871,2d_cat_multi_stim_exp1,2022-03-28,10:49:53,25,75,3,9,10,40,30,120,1,18,"[""""Asian""""]",No,Female,1699139,918,u,learn,learn_trial,25,75,in,1,1
canvas-keyboard-response,705,574135,2d_cat_multi_stim_exp1,2022-03-28,10:49:53,25,75,3,9,10,40,30,120,1,18,"[""""Asian""""]",No,Female,1699139,658,u,learn,learn_trial,27.8087,78.1624,in,1,1
canvas-keyboard-response,710,576103,2d_cat_multi_stim_exp1,2022-03-28,10:49:53,25,75,3,9,10,40,30,120,1,18,"[""""Asian""""]",No,Female,1699139,368,u,learn,learn_trial,27.2592,80.9214,in,1,1
canvas-keyboard-response,715,578311,2d_cat_multi_stim_exp1,2022-03-28,10:49:53,25,75,3,9,10,40,30,120,1,18,"[""""Asian""""]",No,Female,1699139,601,u,learn,learn_trial,29.2426,62.2721,in,1,1
canvas-keyboard-response,720,580431,2d_cat_multi_stim_exp1,2022-03-28,10:49:53,25,75,3,9,10,40,30,120,1,18,"[""""Asian""""]",No,Female,1699139,516,u,learn,learn_trial,26.6667,80,out,1,0
canvas-keyboard-response,725,583182,2d_cat_multi_stim_exp1,2022-03-28,10:49:53,25,75,3,9,10,40,30,120,1,18,"[""""Asian""""]",No,Female,1699139,655,u,learn,learn_trial,28,75,in,1,1
canvas-keyboard-response,730,585679,2d_cat_multi_stim_exp1,2022-03-28,10:49:53,25,75,3,9,10,40,30,120,1,18,"[""""Asian""""]",No,Female,1699139,888,i,learn,learn_trial,20.7574,87.7279,in,0,0
canvas-keyboard-response,735,588630,2d_cat_multi_stim_exp1,2022-03-28,10:49:53,25,75,3,9,10,40,30,120,1,18,"[""""Asian""""]",No,Female,1699139,853,u,learn,learn_trial,25,75,in,1,1
canvas-keyboard-response,740,590758,2d_cat_multi_stim_exp1,2022-03-28,10:49:53,25,75,3,9,10,40,30,120,1,18,"[""""Asian""""]",No,Female,1699139,531,u,learn,learn_trial,29.2426,87.7279,in,1,1
canvas-keyboard-response,745,592687,2d_cat_multi_stim_exp1,2022-03-28,10:49:53,25,75,3,9,10,40,30,120,1,18,"[""""Asian""""]",No,Female,1699139,325,u,learn,learn_trial,23.3333,40,out,1,0
canvas-keyboard-response,750,595286,2d_cat_multi_stim_exp1,2022-03-28,10:49:53,25,75,3,9,10,40,30,120,1,18,"[""""Asian""""]",No,Female,1699139,496,u,learn,learn_trial,25,75,in,1,1
canvas-keyboard-response,755,597375,2d_cat_multi_stim_exp1,2022-03-28,10:49:53,25,75,3,9,10,40,30,120,1,18,"[""""Asian""""]",No,Female,1699139,485,u,learn,learn_trial,25,75,in,1,1
canvas-keyboard-response,760,599703,2d_cat_multi_stim_exp1,2022-03-28,10:49:53,25,75,3,9,10,40,30,120,1,18,"[""""Asian""""]",No,Female,1699139,719,i,learn,learn_trial,10,60,out,0,1
canvas-keyboard-response,765,601982,2d_cat_multi_stim_exp1,2022-03-28,10:49:53,25,75,3,9,10,40,30,120,1,18,"[""""Asian""""]",No,Female,1699139,681,u,learn,learn_trial,24.3324,83.7744,in,1,1
canvas-keyboard-response,770,604103,2d_cat_multi_stim_exp1,2022-03-28,10:49:53,25,75,3,9,10,40,30,120,1,18,"[""""Asian""""]",No,Female,1699139,522,u,learn,learn_trial,25,75,in,1,1
canvas-keyboard-response,775,606039,2d_cat_multi_stim_exp1,2022-03-28,10:49:53,25,75,3,9,10,40,30,120,1,18,"[""""Asian""""]",No,Female,1699139,327,u,learn,learn_trial,13.3333,100,out,1,0
canvas-keyboard-response,780,608919,2d_cat_multi_stim_exp1,2022-03-28,10:49:53,25,75,3,9,10,40,30,120,1,18,"[""""Asian""""]",No,Female,1699139,777,u,learn,learn_trial,23.3333,110,out,1,0
canvas-keyboard-response,785,611822,2d_cat_multi_stim_exp1,2022-03-28,10:49:53,25,75,3,9,10,40,30,120,1,18,"[""""Asian""""]",No,Female,1699139,801,u,learn,learn_trial,40,100,out,1,0
canvas-keyboard-response,790,615070,2d_cat_multi_stim_exp1,2022-03-28,10:49:53,25,75,3,9,10,40,30,120,1,18,"[""""Asian""""]",No,Female,1699139,1151,i,learn,learn_trial,30,60,out,0,1
canvas-keyboard-response,795,617550,2d_cat_multi_stim_exp1,2022-03-28,10:49:53,25,75,3,9,10,40,30,120,1,18,"[""""Asian""""]",No,Female,1699139,879,u,learn,learn_trial,23.8209,83.2757,in,1,1
canvas-keyboard-response,800,620422,2d_cat_multi_stim_exp1,2022-03-28,10:49:53,25,75,3,9,10,40,30,120,1,18,"[""""Asian""""]",No,Female,1699139,1270,i,learn,learn_trial,20,30,out,0,1
canvas-keyboard-response,805,622767,2d_cat_multi_stim_exp1,2022-03-28,10:49:53,25,75,3,9,10,40,30,120,1,18,"[""""Asian""""]",No,Female,1699139,742,u,learn,learn_trial,25,75,in,1,1
canvas-keyboard-response,810,624967,2d_cat_multi_stim_exp1,2022-03-28,10:49:53,25,75,3,9,10,40,30,120,1,18,"[""""Asian""""]",No,Female,1699139,595,i,learn,learn_trial,16.6667,40,out,0,1
canvas-keyboard-response,815,627182,2d_cat_multi_stim_exp1,2022-03-28,10:49:53,25,75,3,9,10,40,30,120,1,18,"[""""Asian""""]",No,Female,1699139,615,u,learn,learn_trial,25,75,in,1,1
canvas-keyboard-response,820,629872,2d_cat_multi_stim_exp1,2022-03-28,10:49:53,25,75,3,9,10,40,30,120,1,18,"[""""Asian""""]",No,Female,1699139,1087,u,learn,learn_trial,30,100,out,1,0
canvas-keyboard-response,825,632431,2d_cat_multi_stim_exp1,2022-03-28,10:49:53,25,75,3,9,10,40,30,120,1,18,"[""""Asian""""]",No,Female,1699139,446,u,learn,learn_trial,13.3333,90,out,1,0
canvas-keyboard-response,830,635143,2d_cat_multi_stim_exp1,2022-03-28,10:49:53,25,75,3,9,10,40,30,120,1,18,"[""""Asian""""]",No,Female,1699139,607,u,learn,learn_trial,25,75,in,1,1
canvas-keyboard-response,835,637471,2d_cat_multi_stim_exp1,2022-03-28,10:49:53,25,75,3,9,10,40,30,120,1,18,"[""""Asian""""]",No,Female,1699139,724,i,learn,learn_trial,19,75,in,0,0
canvas-keyboard-response,840,640127,2d_cat_multi_stim_exp1,2022-03-28,10:49:53,25,75,3,9,10,40,30,120,1,18,"[""""Asian""""]",No,Female,1699139,549,u,learn,learn_trial,22.2971,78.905,in,1,1
canvas-keyboard-response,845,642294,2d_cat_multi_stim_exp1,2022-03-28,10:49:53,25,75,3,9,10,40,30,120,1,18,"[""""Asian""""]",No,Female,1699139,568,u,learn,learn_trial,22.2971,71.095,in,1,1
canvas-keyboard-response,850,644414,2d_cat_multi_stim_exp1,2022-03-28,10:49:53,25,75,3,9,10,40,30,120,1,18,"[""""Asian""""]",No,Female,1699139,516,u,learn,learn_trial,25,75,in,1,1
canvas-keyboard-response,855,646694,2d_cat_multi_stim_exp1,2022-03-28,10:49:53,25,75,3,9,10,40,30,120,1,18,"[""""Asian""""]",No,Female,1699139,671,i,learn,learn_trial,10,30,out,0,1
canvas-keyboard-response,860,649534,2d_cat_multi_stim_exp1,2022-03-28,10:49:53,25,75,3,9,10,40,30,120,1,18,"[""""Asian""""]",No,Female,1699139,1235,i,learn,learn_trial,10,90,out,0,1
canvas-keyboard-response,865,651789,2d_cat_multi_stim_exp1,2022-03-28,10:49:53,25,75,3,9,10,40,30,120,1,18,"[""""Asian""""]",No,Female,1699139,649,u,learn,learn_trial,25,75,in,1,1
canvas-keyboard-response,870,654095,2d_cat_multi_stim_exp1,2022-03-28,10:49:53,25,75,3,9,10,40,30,120,1,18,"[""""Asian""""]",No,Female,1699139,701,u,learn,learn_trial,25,75,in,1,1
canvas-keyboard-response,875,656326,2d_cat_multi_stim_exp1,2022-03-28,10:49:53,25,75,3,9,10,40,30,120,1,18,"[""""Asian""""]",No,Female,1699139,630,i,learn,learn_trial,20,40,out,0,1
canvas-keyboard-response,880,658662,2d_cat_multi_stim_exp1,2022-03-28,10:49:53,25,75,3,9,10,40,30,120,1,18,"[""""Asian""""]",No,Female,1699139,729,u,learn,learn_trial,24.3324,66.2256,in,1,1
canvas-keyboard-response,885,660983,2d_cat_multi_stim_exp1,2022-03-28,10:49:53,25,75,3,9,10,40,30,120,1,18,"[""""Asian""""]",No,Female,1699139,718,i,learn,learn_trial,20,110,out,0,1
canvas-keyboard-response,890,663271,2d_cat_multi_stim_exp1,2022-03-28,10:49:53,25,75,3,9,10,40,30,120,1,18,"[""""Asian""""]",No,Female,1699139,677,u,learn,learn_trial,36.6667,80,out,1,0
canvas-keyboard-response,895,666582,2d_cat_multi_stim_exp1,2022-03-28,10:49:53,25,75,3,9,10,40,30,120,1,18,"[""""Asian""""]",No,Female,1699139,1224,u,learn,learn_trial,30,80,out,1,0
canvas-keyboard-response,900,670239,2d_cat_multi_stim_exp1,2022-03-28,10:49:53,25,75,3,9,10,40,30,120,1,18,"[""""Asian""""]",No,Female,1699139,1546,u,learn,learn_trial,22.9268,81.5052,in,1,1
canvas-keyboard-response,905,673430,2d_cat_multi_stim_exp1,2022-03-28,10:49:53,25,75,3,9,10,40,30,120,1,18,"[""""Asian""""]",No,Female,1699139,1580,u,learn,learn_trial,25,75,in,1,1
canvas-keyboard-response,910,675759,2d_cat_multi_stim_exp1,2022-03-28,10:49:53,25,75,3,9,10,40,30,120,1,18,"[""""Asian""""]",No,Female,1699139,727,u,learn,learn_trial,25,75,in,1,1
canvas-keyboard-response,915,677751,2d_cat_multi_stim_exp1,2022-03-28,10:49:53,25,75,3,9,10,40,30,120,1,18,"[""""Asian""""]",No,Female,1699139,377,u,learn,learn_trial,22.5729,69.7099,in,1,1
canvas-keyboard-response,920,680014,2d_cat_multi_stim_exp1,2022-03-28,10:49:53,25,75,3,9,10,40,30,120,1,18,"[""""Asian""""]",No,Female,1699139,653,u,learn,learn_trial,23.8209,66.7243,in,1,1
canvas-keyboard-response,925,682119,2d_cat_multi_stim_exp1,2022-03-28,10:49:53,25,75,3,9,10,40,30,120,1,18,"[""""Asian""""]",No,Female,1699139,498,u,learn,learn_trial,25,75,in,1,1
canvas-keyboard-response,930,684326,2d_cat_multi_stim_exp1,2022-03-28,10:49:53,25,75,3,9,10,40,30,120,1,18,"[""""Asian""""]",No,Female,1699139,601,u,learn,learn_trial,33.3333,110,out,1,0
canvas-keyboard-response,935,687551,2d_cat_multi_stim_exp1,2022-03-28,10:49:53,25,75,3,9,10,40,30,120,1,18,"[""""Asian""""]",No,Female,1699139,1116,u,learn,learn_trial,25.4027,66.0815,in,1,1
canvas-keyboard-response,940,690004,2d_cat_multi_stim_exp1,2022-03-28,10:49:53,25,75,3,9,10,40,30,120,1,18,"[""""Asian""""]",No,Female,1699139,848,u,learn,learn_trial,22.1081,77.3943,in,1,1
canvas-keyboard-response,945,692478,2d_cat_multi_stim_exp1,2022-03-28,10:49:53,25,75,3,9,10,40,30,120,1,18,"[""""Asian""""]",No,Female,1699139,874,u,learn,learn_trial,25,75,in,1,1
canvas-keyboard-response,950,695574,2d_cat_multi_stim_exp1,2022-03-28,10:49:53,25,75,3,9,10,40,30,120,1,18,"[""""Asian""""]",No,Female,1699139,1494,i,learn,learn_trial,33.3333,120,out,0,1
canvas-keyboard-response,955,697807,2d_cat_multi_stim_exp1,2022-03-28,10:49:53,25,75,3,9,10,40,30,120,1,18,"[""""Asian""""]",No,Female,1699139,623,u,learn,learn_trial,25,75,in,1,1
canvas-keyboard-response,960,700103,2d_cat_multi_stim_exp1,2022-03-28,10:49:53,25,75,3,9,10,40,30,120,1,18,"[""""Asian""""]",No,Female,1699139,688,u,learn,learn_trial,25,75,in,1,1
canvas-keyboard-response,965,702406,2d_cat_multi_stim_exp1,2022-03-28,10:49:53,25,75,3,9,10,40,30,120,1,18,"[""""Asian""""]",No,Female,1699139,698,u,learn,learn_trial,22.0121,74.1932,in,1,1
canvas-keyboard-response,970,704743,2d_cat_multi_stim_exp1,2022-03-28,10:49:53,25,75,3,9,10,40,30,120,1,18,"[""""Asian""""]",No,Female,1699139,722,i,learn,learn_trial,36.6667,110,out,0,1
canvas-keyboard-response,975,707743,2d_cat_multi_stim_exp1,2022-03-28,10:49:53,25,75,3,9,10,40,30,120,1,18,"[""""Asian""""]",No,Female,1699139,1389,i,learn,learn_trial,16.6667,50,out,0,1
canvas-keyboard-response,980,710102,2d_cat_multi_stim_exp1,2022-03-28,10:49:53,25,75,3,9,10,40,30,120,1,18,"[""""Asian""""]",No,Female,1699139,750,u,learn,learn_trial,25,75,in,1,1
canvas-keyboard-response,985,712559,2d_cat_multi_stim_exp1,2022-03-28,10:49:53,25,75,3,9,10,40,30,120,1,18,"[""""Asian""""]",No,Female,1699139,841,i,learn,learn_trial,36.6667,30,out,0,1
canvas-keyboard-response,990,715047,2d_cat_multi_stim_exp1,2022-03-28,10:49:53,25,75,3,9,10,40,30,120,1,18,"[""""Asian""""]",No,Female,1699139,887,u,learn,learn_trial,20,80,out,1,0
canvas-keyboard-response,995,718078,2d_cat_multi_stim_exp1,2022-03-28,10:49:53,25,75,3,9,10,40,30,120,1,18,"[""""Asian""""]",No,Female,1699139,927,i,learn,learn_trial,30,40,out,0,1
canvas-keyboard-response,1000,720535,2d_cat_multi_stim_exp1,2022-03-28,10:49:53,25,75,3,9,10,40,30,120,1,18,"[""""Asian""""]",No,Female,1699139,852,i,learn,learn_trial,40,110,out,0,1
canvas-keyboard-response,1005,722710,2d_cat_multi_stim_exp1,2022-03-28,10:49:53,25,75,3,9,10,40,30,120,1,18,"[""""Asian""""]",No,Female,1699139,572,i,learn,learn_trial,33.3333,30,out,0,1
canvas-keyboard-response,1010,725054,2d_cat_multi_stim_exp1,2022-03-28,10:49:53,25,75,3,9,10,40,30,120,1,18,"[""""Asian""""]",No,Female,1699139,745,u,learn,learn_trial,25,75,in,1,1
canvas-keyboard-response,15,206181,2d_cat_multi_stim_exp1,2022-04-04,12:5:54,25,75,3,9,10,40,30,120,10,19,"[""""Black or African-American""""]",No,Female,2111142,11698,u,learn,learn_trial,23.3333,50,out,1,0
canvas-keyboard-response,20,209885,2d_cat_multi_stim_exp1,2022-04-04,12:5:54,25,75,3,9,10,40,30,120,10,19,"[""""Black or African-American""""]",No,Female,2111142,1609,u,learn,learn_trial,23.8209,66.7243,in,1,1
canvas-keyboard-response,25,213596,2d_cat_multi_stim_exp1,2022-04-04,12:5:54,25,75,3,9,10,40,30,120,10,19,"[""""Black or African-American""""]",No,Female,2111142,2117,i,learn,learn_trial,20,40,out,0,1
canvas-keyboard-response,30,218253,2d_cat_multi_stim_exp1,2022-04-04,12:5:54,25,75,3,9,10,40,30,120,10,19,"[""""Black or African-American""""]",No,Female,2111142,3059,u,learn,learn_trial,22.5729,69.7099,in,1,1
canvas-keyboard-response,35,221805,2d_cat_multi_stim_exp1,2022-04-04,12:5:54,25,75,3,9,10,40,30,120,10,19,"[""""Black or African-American""""]",No,Female,2111142,1959,i,learn,learn_trial,16.6667,110,out,0,1
canvas-keyboard-response,40,225293,2d_cat_multi_stim_exp1,2022-04-04,12:5:54,25,75,3,9,10,40,30,120,10,19,"[""""Black or African-American""""]",No,Female,2111142,1895,u,learn,learn_trial,25,75,in,1,1
canvas-keyboard-response,45,228014,2d_cat_multi_stim_exp1,2022-04-04,12:5:54,25,75,3,9,10,40,30,120,10,19,"[""""Black or African-American""""]",No,Female,2111142,1128,u,learn,learn_trial,25,75,in,1,1
canvas-keyboard-response,50,230389,2d_cat_multi_stim_exp1,2022-04-04,12:5:54,25,75,3,9,10,40,30,120,10,19,"[""""Black or African-American""""]",No,Female,2111142,776,u,learn,learn_trial,23.3333,90,out,1,0
canvas-keyboard-response,55,234629,2d_cat_multi_stim_exp1,2022-04-04,12:5:54,25,75,3,9,10,40,30,120,10,19,"[""""Black or African-American""""]",No,Female,2111142,2144,i,learn,learn_trial,10,90,out,0,1
canvas-keyboard-response,60,238093,2d_cat_multi_stim_exp1,2022-04-04,12:5:54,25,75,3,9,10,40,30,120,10,19,"[""""Black or African-American""""]",No,Female,2111142,1871,i,learn,learn_trial,23.3333,120,out,0,1
canvas-keyboard-response,65,241925,2d_cat_multi_stim_exp1,2022-04-04,12:5:54,25,75,3,9,10,40,30,120,10,19,"[""""Black or African-American""""]",No,Female,2111142,2236,i,learn,learn_trial,20,120,out,0,1
canvas-keyboard-response,70,246284,2d_cat_multi_stim_exp1,2022-04-04,12:5:54,25,75,3,9,10,40,30,120,10,19,"[""""Black or African-American""""]",No,Female,2111142,2768,u,learn,learn_trial,13.3333,40,out,1,0
canvas-keyboard-response,75,250861,2d_cat_multi_stim_exp1,2022-04-04,12:5:54,25,75,3,9,10,40,30,120,10,19,"[""""Black or African-American""""]",No,Female,2111142,2484,u,learn,learn_trial,20,90,out,1,0
canvas-keyboard-response,80,254460,2d_cat_multi_stim_exp1,2022-04-04,12:5:54,25,75,3,9,10,40,30,120,10,19,"[""""Black or African-American""""]",No,Female,2111142,1507,u,learn,learn_trial,22.0121,75.8068,in,1,1
canvas-keyboard-response,85,257820,2d_cat_multi_stim_exp1,2022-04-04,12:5:54,25,75,3,9,10,40,30,120,10,19,"[""""Black or African-American""""]",No,Female,2111142,1768,i,learn,learn_trial,26.6667,50,out,0,1
canvas-keyboard-response,90,260596,2d_cat_multi_stim_exp1,2022-04-04,12:5:54,25,75,3,9,10,40,30,120,10,19,"[""""Black or African-American""""]",No,Female,2111142,1185,u,learn,learn_trial,25,75,in,1,1
canvas-keyboard-response,95,262797,2d_cat_multi_stim_exp1,2022-04-04,12:5:54,25,75,3,9,10,40,30,120,10,19,"[""""Black or African-American""""]",No,Female,2111142,605,u,learn,learn_trial,25,75,in,1,1
canvas-keyboard-response,100,265029,2d_cat_multi_stim_exp1,2022-04-04,12:5:54,25,75,3,9,10,40,30,120,10,19,"[""""Black or African-American""""]",No,Female,2111142,640,u,learn,learn_trial,26.4216,82.9254,in,1,1
canvas-keyboard-response,105,267405,2d_cat_multi_stim_exp1,2022-04-04,12:5:54,25,75,3,9,10,40,30,120,10,19,"[""""Black or African-American""""]",No,Female,2111142,778,u,learn,learn_trial,40,90,out,1,0
canvas-keyboard-response,110,270412,2d_cat_multi_stim_exp1,2022-04-04,12:5:54,25,75,3,9,10,40,30,120,10,19,"[""""Black or African-American""""]",No,Female,2111142,910,u,learn,learn_trial,20,70,out,1,0
canvas-keyboard-response,115,273405,2d_cat_multi_stim_exp1,2022-04-04,12:5:54,25,75,3,9,10,40,30,120,10,19,"[""""Black or African-American""""]",No,Female,2111142,892,u,learn,learn_trial,25,75,in,1,1
canvas-keyboard-response,120,275926,2d_cat_multi_stim_exp1,2022-04-04,12:5:54,25,75,3,9,10,40,30,120,10,19,"[""""Black or African-American""""]",No,Female,2111142,927,i,learn,learn_trial,27.2592,69.0786,in,0,0
canvas-keyboard-response,125,279045,2d_cat_multi_stim_exp1,2022-04-04,12:5:54,25,75,3,9,10,40,30,120,10,19,"[""""Black or African-American""""]",No,Female,2111142,1028,i,learn,learn_trial,36.6667,110,out,0,1
canvas-keyboard-response,130,281461,2d_cat_multi_stim_exp1,2022-04-04,12:5:54,25,75,3,9,10,40,30,120,10,19,"[""""Black or African-American""""]",No,Female,2111142,823,u,learn,learn_trial,25,75,in,1,1
canvas-keyboard-response,135,284197,2d_cat_multi_stim_exp1,2022-04-04,12:5:54,25,75,3,9,10,40,30,120,10,19,"[""""Black or African-American""""]",No,Female,2111142,1143,i,learn,learn_trial,25.9271,66.4405,in,0,0
canvas-keyboard-response,140,287828,2d_cat_multi_stim_exp1,2022-04-04,12:5:54,25,75,3,9,10,40,30,120,10,19,"[""""Black or African-American""""]",No,Female,2111142,1539,u,learn,learn_trial,25,75,in,1,1
canvas-keyboard-response,145,290492,2d_cat_multi_stim_exp1,2022-04-04,12:5:54,25,75,3,9,10,40,30,120,10,19,"[""""Black or African-American""""]",No,Female,2111142,1069,u,learn,learn_trial,25,75,in,1,1
canvas-keyboard-response,150,293100,2d_cat_multi_stim_exp1,2022-04-04,12:5:54,25,75,3,9,10,40,30,120,10,19,"[""""Black or African-American""""]",No,Female,2111142,1016,i,learn,learn_trial,13.3333,70,out,0,1
canvas-keyboard-response,155,295468,2d_cat_multi_stim_exp1,2022-04-04,12:5:54,25,75,3,9,10,40,30,120,10,19,"[""""Black or African-American""""]",No,Female,2111142,776,i,learn,learn_trial,10,110,out,0,1
canvas-keyboard-response,160,297949,2d_cat_multi_stim_exp1,2022-04-04,12:5:54,25,75,3,9,10,40,30,120,10,19,"[""""Black or African-American""""]",No,Female,2111142,884,i,learn,learn_trial,20.7574,62.2721,in,0,0
canvas-keyboard-response,165,300781,2d_cat_multi_stim_exp1,2022-04-04,12:5:54,25,75,3,9,10,40,30,120,10,19,"[""""Black or African-American""""]",No,Female,2111142,739,u,learn,learn_trial,19,75,in,1,1
canvas-keyboard-response,170,303237,2d_cat_multi_stim_exp1,2022-04-04,12:5:54,25,75,3,9,10,40,30,120,10,19,"[""""Black or African-American""""]",No,Female,2111142,864,i,learn,learn_trial,40,120,out,0,1
canvas-keyboard-response,175,305693,2d_cat_multi_stim_exp1,2022-04-04,12:5:54,25,75,3,9,10,40,30,120,10,19,"[""""Black or African-American""""]",No,Female,2111142,859,u,learn,learn_trial,24.3324,83.7744,in,1,1
canvas-keyboard-response,180,308101,2d_cat_multi_stim_exp1,2022-04-04,12:5:54,25,75,3,9,10,40,30,120,10,19,"[""""Black or African-American""""]",No,Female,2111142,808,u,learn,learn_trial,26.6667,90,out,1,0
canvas-keyboard-response,185,311364,2d_cat_multi_stim_exp1,2022-04-04,12:5:54,25,75,3,9,10,40,30,120,10,19,"[""""Black or African-American""""]",No,Female,2111142,1168,i,learn,learn_trial,10,50,out,0,1
canvas-keyboard-response,190,314028,2d_cat_multi_stim_exp1,2022-04-04,12:5:54,25,75,3,9,10,40,30,120,10,19,"[""""Black or African-American""""]",No,Female,2111142,1070,u,learn,learn_trial,24.3324,66.2256,in,1,1
canvas-keyboard-response,195,317420,2d_cat_multi_stim_exp1,2022-04-04,12:5:54,25,75,3,9,10,40,30,120,10,19,"[""""Black or African-American""""]",No,Female,2111142,1798,i,learn,learn_trial,20,80,out,0,1
canvas-keyboard-response,200,320317,2d_cat_multi_stim_exp1,2022-04-04,12:5:54,25,75,3,9,10,40,30,120,10,19,"[""""Black or African-American""""]",No,Female,2111142,1303,u,learn,learn_trial,27.5753,70.3839,in,1,1
canvas-keyboard-response,205,322741,2d_cat_multi_stim_exp1,2022-04-04,12:5:54,25,75,3,9,10,40,30,120,10,19,"[""""Black or African-American""""]",No,Female,2111142,830,i,learn,learn_trial,13.3333,120,out,0,1
canvas-keyboard-response,210,326021,2d_cat_multi_stim_exp1,2022-04-04,12:5:54,25,75,3,9,10,40,30,120,10,19,"[""""Black or African-American""""]",No,Female,2111142,1684,u,learn,learn_trial,25,75,in,1,1
canvas-keyboard-response,215,328245,2d_cat_multi_stim_exp1,2022-04-04,12:5:54,25,75,3,9,10,40,30,120,10,19,"[""""Black or African-American""""]",No,Female,2111142,632,i,learn,learn_trial,10,80,out,0,1
canvas-keyboard-response,220,332013,2d_cat_multi_stim_exp1,2022-04-04,12:5:54,25,75,3,9,10,40,30,120,10,19,"[""""Black or African-American""""]",No,Female,2111142,2176,i,learn,learn_trial,22.1081,72.6057,in,0,0
canvas-keyboard-response,225,335061,2d_cat_multi_stim_exp1,2022-04-04,12:5:54,25,75,3,9,10,40,30,120,10,19,"[""""Black or African-American""""]",No,Female,2111142,954,u,learn,learn_trial,23.3473,67.4888,in,1,1
canvas-keyboard-response,230,337717,2d_cat_multi_stim_exp1,2022-04-04,12:5:54,25,75,3,9,10,40,30,120,10,19,"[""""Black or African-American""""]",No,Female,2111142,1062,i,learn,learn_trial,40,40,out,0,1
canvas-keyboard-response,235,339989,2d_cat_multi_stim_exp1,2022-04-04,12:5:54,25,75,3,9,10,40,30,120,10,19,"[""""Black or African-American""""]",No,Female,2111142,674,u,learn,learn_trial,25,75,in,1,1
canvas-keyboard-response,240,342533,2d_cat_multi_stim_exp1,2022-04-04,12:5:54,25,75,3,9,10,40,30,120,10,19,"[""""Black or African-American""""]",No,Female,2111142,950,u,learn,learn_trial,25,75,in,1,1
canvas-keyboard-response,245,344948,2d_cat_multi_stim_exp1,2022-04-04,12:5:54,25,75,3,9,10,40,30,120,10,19,"[""""Black or African-American""""]",No,Female,2111142,824,u,learn,learn_trial,25.9271,83.5595,in,1,1
canvas-keyboard-response,250,347476,2d_cat_multi_stim_exp1,2022-04-04,12:5:54,25,75,3,9,10,40,30,120,10,19,"[""""Black or African-American""""]",No,Female,2111142,932,i,learn,learn_trial,36.6667,100,out,0,1
canvas-keyboard-response,255,350412,2d_cat_multi_stim_exp1,2022-04-04,12:5:54,25,75,3,9,10,40,30,120,10,19,"[""""Black or African-American""""]",No,Female,2111142,1342,i,learn,learn_trial,22.2971,71.095,in,0,0
canvas-keyboard-response,260,353348,2d_cat_multi_stim_exp1,2022-04-04,12:5:54,25,75,3,9,10,40,30,120,10,19,"[""""Black or African-American""""]",No,Female,2111142,842,i,learn,learn_trial,10,100,out,0,1
canvas-keyboard-response,265,355876,2d_cat_multi_stim_exp1,2022-04-04,12:5:54,25,75,3,9,10,40,30,120,10,19,"[""""Black or African-American""""]",No,Female,2111142,928,u,learn,learn_trial,36.6667,80,out,1,0
canvas-keyboard-response,270,359940,2d_cat_multi_stim_exp1,2022-04-04,12:5:54,25,75,3,9,10,40,30,120,10,19,"[""""Black or African-American""""]",No,Female,2111142,1963,u,learn,learn_trial,25,75,in,1,1
canvas-keyboard-response,275,362788,2d_cat_multi_stim_exp1,2022-04-04,12:5:54,25,75,3,9,10,40,30,120,10,19,"[""""Black or African-American""""]",No,Female,2111142,1252,u,learn,learn_trial,30,70,out,1,0
canvas-keyboard-response,280,365813,2d_cat_multi_stim_exp1,2022-04-04,12:5:54,25,75,3,9,10,40,30,120,10,19,"[""""Black or African-American""""]",No,Female,2111142,927,i,learn,learn_trial,16.6667,100,out,0,1
canvas-keyboard-response,285,369300,2d_cat_multi_stim_exp1,2022-04-04,12:5:54,25,75,3,9,10,40,30,120,10,19,"[""""Black or African-American""""]",No,Female,2111142,1894,i,learn,learn_trial,33.3333,90,out,0,1
canvas-keyboard-response,290,371612,2d_cat_multi_stim_exp1,2022-04-04,12:5:54,25,75,3,9,10,40,30,120,10,19,"[""""Black or African-American""""]",No,Female,2111142,720,i,learn,learn_trial,24.8654,83.9909,in,0,0
canvas-keyboard-response,295,374556,2d_cat_multi_stim_exp1,2022-04-04,12:5:54,25,75,3,9,10,40,30,120,10,19,"[""""Black or African-American""""]",No,Female,2111142,846,i,learn,learn_trial,30,30,out,0,1
canvas-keyboard-response,300,376844,2d_cat_multi_stim_exp1,2022-04-04,12:5:54,25,75,3,9,10,40,30,120,10,19,"[""""Black or African-American""""]",No,Female,2111142,694,u,learn,learn_trial,25,75,in,1,1
canvas-keyboard-response,305,379164,2d_cat_multi_stim_exp1,2022-04-04,12:5:54,25,75,3,9,10,40,30,120,10,19,"[""""Black or African-American""""]",No,Female,2111142,728,u,learn,learn_trial,27.8087,71.8376,in,1,1
canvas-keyboard-response,310,381781,2d_cat_multi_stim_exp1,2022-04-04,12:5:54,25,75,3,9,10,40,30,120,10,19,"[""""Black or African-American""""]",No,Female,2111142,1023,i,learn,learn_trial,20,50,out,0,1
canvas-keyboard-response,315,384300,2d_cat_multi_stim_exp1,2022-04-04,12:5:54,25,75,3,9,10,40,30,120,10,19,"[""""Black or African-American""""]",No,Female,2111142,928,i,learn,learn_trial,10,60,out,0,1
canvas-keyboard-response,320,387252,2d_cat_multi_stim_exp1,2022-04-04,12:5:54,25,75,3,9,10,40,30,120,10,19,"[""""Black or African-American""""]",No,Female,2111142,1358,u,learn,learn_trial,25,75,in,1,1
canvas-keyboard-response,325,390084,2d_cat_multi_stim_exp1,2022-04-04,12:5:54,25,75,3,9,10,40,30,120,10,19,"[""""Black or African-American""""]",No,Female,2111142,1239,u,learn,learn_trial,25,75,in,1,1
canvas-keyboard-response,330,392604,2d_cat_multi_stim_exp1,2022-04-04,12:5:54,25,75,3,9,10,40,30,120,10,19,"[""""Black or African-American""""]",No,Female,2111142,924,u,learn,learn_trial,25,75,in,1,1
canvas-keyboard-response,335,394861,2d_cat_multi_stim_exp1,2022-04-04,12:5:54,25,75,3,9,10,40,30,120,10,19,"[""""Black or African-American""""]",No,Female,2111142,665,u,learn,learn_trial,25,75,in,1,1
canvas-keyboard-response,340,397324,2d_cat_multi_stim_exp1,2022-04-04,12:5:54,25,75,3,9,10,40,30,120,10,19,"[""""Black or African-American""""]",No,Female,2111142,859,i,learn,learn_trial,30,50,out,0,1
canvas-keyboard-response,345,399837,2d_cat_multi_stim_exp1,2022-04-04,12:5:54,25,75,3,9,10,40,30,120,10,19,"[""""Black or African-American""""]",No,Female,2111142,912,i,learn,learn_trial,20,110,out,0,1
canvas-keyboard-response,350,402236,2d_cat_multi_stim_exp1,2022-04-04,12:5:54,25,75,3,9,10,40,30,120,10,19,"[""""Black or African-American""""]",No,Female,2111142,801,i,learn,learn_trial,20,60,out,0,1
canvas-keyboard-response,355,405661,2d_cat_multi_stim_exp1,2022-04-04,12:5:54,25,75,3,9,10,40,30,120,10,19,"[""""Black or African-American""""]",No,Female,2111142,1831,i,learn,learn_trial,23.3333,110,out,0,1
canvas-keyboard-response,360,408180,2d_cat_multi_stim_exp1,2022-04-04,12:5:54,25,75,3,9,10,40,30,120,10,19,"[""""Black or African-American""""]",No,Female,2111142,926,u,learn,learn_trial,26.8705,82.0365,in,1,1
canvas-keyboard-response,365,410692,2d_cat_multi_stim_exp1,2022-04-04,12:5:54,25,75,3,9,10,40,30,120,10,19,"[""""Black or African-American""""]",No,Female,2111142,917,u,learn,learn_trial,25,75,in,1,1
canvas-keyboard-response,370,412764,2d_cat_multi_stim_exp1,2022-04-04,12:5:54,25,75,3,9,10,40,30,120,10,19,"[""""Black or African-American""""]",No,Female,2111142,478,u,learn,learn_trial,25.4027,83.9185,in,1,1
canvas-keyboard-response,375,415372,2d_cat_multi_stim_exp1,2022-04-04,12:5:54,25,75,3,9,10,40,30,120,10,19,"[""""Black or African-American""""]",No,Female,2111142,1011,i,learn,learn_trial,40,100,out,0,1
canvas-keyboard-response,380,417628,2d_cat_multi_stim_exp1,2022-04-04,12:5:54,25,75,3,9,10,40,30,120,10,19,"[""""Black or African-American""""]",No,Female,2111142,661,u,learn,learn_trial,25,75,in,1,1
canvas-keyboard-response,385,420292,2d_cat_multi_stim_exp1,2022-04-04,12:5:54,25,75,3,9,10,40,30,120,10,19,"[""""Black or African-American""""]",No,Female,2111142,1071,u,learn,learn_trial,25,75,in,1,1
canvas-keyboard-response,390,422531,2d_cat_multi_stim_exp1,2022-04-04,12:5:54,25,75,3,9,10,40,30,120,10,19,"[""""Black or African-American""""]",No,Female,2111142,646,u,learn,learn_trial,27.9518,73.393,in,1,1
canvas-keyboard-response,395,425188,2d_cat_multi_stim_exp1,2022-04-04,12:5:54,25,75,3,9,10,40,30,120,10,19,"[""""Black or African-American""""]",No,Female,2111142,1062,i,learn,learn_trial,10,70,out,0,1
canvas-keyboard-response,400,427587,2d_cat_multi_stim_exp1,2022-04-04,12:5:54,25,75,3,9,10,40,30,120,10,19,"[""""Black or African-American""""]",No,Female,2111142,808,u,learn,learn_trial,25,75,in,1,1
canvas-keyboard-response,405,430564,2d_cat_multi_stim_exp1,2022-04-04,12:5:54,25,75,3,9,10,40,30,120,10,19,"[""""Black or African-American""""]",No,Female,2111142,1380,i,learn,learn_trial,16.6667,90,out,0,1
canvas-keyboard-response,410,432772,2d_cat_multi_stim_exp1,2022-04-04,12:5:54,25,75,3,9,10,40,30,120,10,19,"[""""Black or African-American""""]",No,Female,2111142,607,u,learn,learn_trial,25,75,in,1,1
canvas-keyboard-response,415,435220,2d_cat_multi_stim_exp1,2022-04-04,12:5:54,25,75,3,9,10,40,30,120,10,19,"[""""Black or African-American""""]",No,Female,2111142,850,i,learn,learn_trial,16.6667,30,out,0,1
canvas-keyboard-response,420,437684,2d_cat_multi_stim_exp1,2022-04-04,12:5:54,25,75,3,9,10,40,30,120,10,19,"[""""Black or African-American""""]",No,Female,2111142,866,u,learn,learn_trial,25,75,in,1,1
canvas-keyboard-response,425,439924,2d_cat_multi_stim_exp1,2022-04-04,12:5:54,25,75,3,9,10,40,30,120,10,19,"[""""Black or African-American""""]",No,Female,2111142,646,u,learn,learn_trial,25,75,in,1,1
canvas-keyboard-response,430,442092,2d_cat_multi_stim_exp1,2022-04-04,12:5:54,25,75,3,9,10,40,30,120,10,19,"[""""Black or African-American""""]",No,Female,2111142,573,u,learn,learn_trial,25,75,in,1,1
canvas-keyboard-response,435,444444,2d_cat_multi_stim_exp1,2022-04-04,12:5:54,25,75,3,9,10,40,30,120,10,19,"[""""Black or African-American""""]",No,Female,2111142,758,i,learn,learn_trial,33.3333,60,out,0,1
canvas-keyboard-response,440,447556,2d_cat_multi_stim_exp1,2022-04-04,12:5:54,25,75,3,9,10,40,30,120,10,19,"[""""Black or African-American""""]",No,Female,2111142,1519,u,learn,learn_trial,24.8654,66.0091,in,1,1
canvas-keyboard-response,445,450772,2d_cat_multi_stim_exp1,2022-04-04,12:5:54,25,75,3,9,10,40,30,120,10,19,"[""""Black or African-American""""]",No,Female,2111142,1621,u,learn,learn_trial,26.6667,100,out,1,0
canvas-keyboard-response,450,453812,2d_cat_multi_stim_exp1,2022-04-04,12:5:54,25,75,3,9,10,40,30,120,10,19,"[""""Black or African-American""""]",No,Female,2111142,946,u,learn,learn_trial,25,75,in,1,1
canvas-keyboard-response,455,456116,2d_cat_multi_stim_exp1,2022-04-04,12:5:54,25,75,3,9,10,40,30,120,10,19,"[""""Black or African-American""""]",No,Female,2111142,708,i,learn,learn_trial,23.3333,30,out,0,1
canvas-keyboard-response,460,458515,2d_cat_multi_stim_exp1,2022-04-04,12:5:54,25,75,3,9,10,40,30,120,10,19,"[""""Black or African-American""""]",No,Female,2111142,807,u,learn,learn_trial,26.6667,80,out,1,0
canvas-keyboard-response,465,461276,2d_cat_multi_stim_exp1,2022-04-04,12:5:54,25,75,3,9,10,40,30,120,10,19,"[""""Black or African-American""""]",No,Female,2111142,666,i,learn,learn_trial,25,57,in,0,0
canvas-keyboard-response,470,465652,2d_cat_multi_stim_exp1,2022-04-04,12:5:54,25,75,3,9,10,40,30,120,10,19,"[""""Black or African-American""""]",No,Female,2111142,2274,i,learn,learn_trial,16.6667,80,out,0,1
canvas-keyboard-response,475,467891,2d_cat_multi_stim_exp1,2022-04-04,12:5:54,25,75,3,9,10,40,30,120,10,19,"[""""Black or African-American""""]",No,Female,2111142,640,u,learn,learn_trial,33.3333,100,out,1,0
canvas-keyboard-response,480,471012,2d_cat_multi_stim_exp1,2022-04-04,12:5:54,25,75,3,9,10,40,30,120,10,19,"[""""Black or African-American""""]",No,Female,2111142,1021,u,learn,learn_trial,25,75,in,1,1
canvas-keyboard-response,485,473212,2d_cat_multi_stim_exp1,2022-04-04,12:5:54,25,75,3,9,10,40,30,120,10,19,"[""""Black or African-American""""]",No,Female,2111142,603,i,learn,learn_trial,40,50,out,0,1
canvas-keyboard-response,490,475947,2d_cat_multi_stim_exp1,2022-04-04,12:5:54,25,75,3,9,10,40,30,120,10,19,"[""""Black or African-American""""]",No,Female,2111142,1142,i,learn,learn_trial,23.3333,60,out,0,1
canvas-keyboard-response,495,478771,2d_cat_multi_stim_exp1,2022-04-04,12:5:54,25,75,3,9,10,40,30,120,10,19,"[""""Black or African-American""""]",No,Female,2111142,1231,i,learn,learn_trial,16.6667,60,out,0,1
canvas-keyboard-response,500,481587,2d_cat_multi_stim_exp1,2022-04-04,12:5:54,25,75,3,9,10,40,30,120,10,19,"[""""Black or African-American""""]",No,Female,2111142,1223,i,learn,learn_trial,36.6667,50,out,0,1
canvas-keyboard-response,505,484155,2d_cat_multi_stim_exp1,2022-04-04,12:5:54,25,75,3,9,10,40,30,120,10,19,"[""""Black or African-American""""]",No,Female,2111142,973,i,learn,learn_trial,33.3333,40,out,0,1
canvas-keyboard-response,510,486443,2d_cat_multi_stim_exp1,2022-04-04,12:5:54,25,75,3,9,10,40,30,120,10,19,"[""""Black or African-American""""]",No,Female,2111142,695,u,learn,learn_trial,31,75,in,1,1
canvas-keyboard-response,515,489603,2d_cat_multi_stim_exp1,2022-04-04,12:5:54,25,75,3,9,10,40,30,120,10,19,"[""""Black or African-American""""]",No,Female,2111142,1565,i,learn,learn_trial,20.7574,87.7279,in,0,0
canvas-keyboard-response,520,492436,2d_cat_multi_stim_exp1,2022-04-04,12:5:54,25,75,3,9,10,40,30,120,10,19,"[""""Black or African-American""""]",No,Female,2111142,738,i,learn,learn_trial,13.3333,110,out,0,1
canvas-keyboard-response,525,494859,2d_cat_multi_stim_exp1,2022-04-04,12:5:54,25,75,3,9,10,40,30,120,10,19,"[""""Black or African-American""""]",No,Female,2111142,830,u,learn,learn_trial,25,75,in,1,1
canvas-keyboard-response,530,498731,2d_cat_multi_stim_exp1,2022-04-04,12:5:54,25,75,3,9,10,40,30,120,10,19,"[""""Black or African-American""""]",No,Female,2111142,2278,u,learn,learn_trial,30,110,out,1,0
canvas-keyboard-response,535,501650,2d_cat_multi_stim_exp1,2022-04-04,12:5:54,25,75,3,9,10,40,30,120,10,19,"[""""Black or African-American""""]",No,Female,2111142,825,i,learn,learn_trial,13.3333,80,out,0,1
canvas-keyboard-response,540,504188,2d_cat_multi_stim_exp1,2022-04-04,12:5:54,25,75,3,9,10,40,30,120,10,19,"[""""Black or African-American""""]",No,Female,2111142,942,u,learn,learn_trial,25,75,in,1,1
canvas-keyboard-response,545,506299,2d_cat_multi_stim_exp1,2022-04-04,12:5:54,25,75,3,9,10,40,30,120,10,19,"[""""Black or African-American""""]",No,Female,2111142,518,i,learn,learn_trial,13.3333,100,out,0,1
canvas-keyboard-response,550,508587,2d_cat_multi_stim_exp1,2022-04-04,12:5:54,25,75,3,9,10,40,30,120,10,19,"[""""Black or African-American""""]",No,Female,2111142,690,u,learn,learn_trial,28,75,in,1,1
canvas-keyboard-response,555,511900,2d_cat_multi_stim_exp1,2022-04-04,12:5:54,25,75,3,9,10,40,30,120,10,19,"[""""Black or African-American""""]",No,Female,2111142,1718,u,learn,learn_trial,33.3333,80,out,1,0
canvas-keyboard-response,560,514843,2d_cat_multi_stim_exp1,2022-04-04,12:5:54,25,75,3,9,10,40,30,120,10,19,"[""""Black or African-American""""]",No,Female,2111142,850,i,learn,learn_trial,30,40,out,0,1
canvas-keyboard-response,565,517380,2d_cat_multi_stim_exp1,2022-04-04,12:5:54,25,75,3,9,10,40,30,120,10,19,"[""""Black or African-American""""]",No,Female,2111142,937,u,learn,learn_trial,25,75,in,1,1
canvas-keyboard-response,570,519707,2d_cat_multi_stim_exp1,2022-04-04,12:5:54,25,75,3,9,10,40,30,120,10,19,"[""""Black or African-American""""]",No,Female,2111142,726,i,learn,learn_trial,10,40,out,0,1
canvas-keyboard-response,575,522043,2d_cat_multi_stim_exp1,2022-04-04,12:5:54,25,75,3,9,10,40,30,120,10,19,"[""""Black or African-American""""]",No,Female,2111142,738,u,learn,learn_trial,25,75,in,1,1
canvas-keyboard-response,580,525091,2d_cat_multi_stim_exp1,2022-04-04,12:5:54,25,75,3,9,10,40,30,120,10,19,"[""""Black or African-American""""]",No,Female,2111142,1450,u,learn,learn_trial,22.9268,81.5052,in,1,1
canvas-keyboard-response,585,527451,2d_cat_multi_stim_exp1,2022-04-04,12:5:54,25,75,3,9,10,40,30,120,10,19,"[""""Black or African-American""""]",No,Female,2111142,762,u,learn,learn_trial,22.0121,74.1932,in,1,1
canvas-keyboard-response,590,529683,2d_cat_multi_stim_exp1,2022-04-04,12:5:54,25,75,3,9,10,40,30,120,10,19,"[""""Black or African-American""""]",No,Female,2111142,637,u,learn,learn_trial,25,75,in,1,1
canvas-keyboard-response,595,531947,2d_cat_multi_stim_exp1,2022-04-04,12:5:54,25,75,3,9,10,40,30,120,10,19,"[""""Black or African-American""""]",No,Female,2111142,669,u,learn,learn_trial,23.3333,70,out,1,0
canvas-keyboard-response,600,534730,2d_cat_multi_stim_exp1,2022-04-04,12:5:54,25,75,3,9,10,40,30,120,10,19,"[""""Black or African-American""""]",No,Female,2111142,689,u,learn,learn_trial,25,75,in,1,1
canvas-keyboard-response,605,537419,2d_cat_multi_stim_exp1,2022-04-04,12:5:54,25,75,3,9,10,40,30,120,10,19,"[""""Black or African-American""""]",No,Female,2111142,1094,i,learn,learn_trial,40,110,out,0,1
canvas-keyboard-response,610,539676,2d_cat_multi_stim_exp1,2022-04-04,12:5:54,25,75,3,9,10,40,30,120,10,19,"[""""Black or African-American""""]",No,Female,2111142,662,i,learn,learn_trial,36.6667,120,out,0,1
canvas-keyboard-response,615,542043,2d_cat_multi_stim_exp1,2022-04-04,12:5:54,25,75,3,9,10,40,30,120,10,19,"[""""Black or African-American""""]",No,Female,2111142,772,u,learn,learn_trial,25,75,in,1,1
canvas-keyboard-response,620,544435,2d_cat_multi_stim_exp1,2022-04-04,12:5:54,25,75,3,9,10,40,30,120,10,19,"[""""Black or African-American""""]",No,Female,2111142,797,u,learn,learn_trial,22.9268,68.4948,in,1,1
canvas-keyboard-response,625,550083,2d_cat_multi_stim_exp1,2022-04-04,12:5:54,25,75,3,9,10,40,30,120,10,19,"[""""Black or African-American""""]",No,Female,2111142,4053,u,learn,learn_trial,22.5729,80.2901,in,1,1
canvas-keyboard-response,630,552564,2d_cat_multi_stim_exp1,2022-04-04,12:5:54,25,75,3,9,10,40,30,120,10,19,"[""""Black or African-American""""]",No,Female,2111142,885,u,learn,learn_trial,29.2426,62.2721,in,1,1
canvas-keyboard-response,635,554851,2d_cat_multi_stim_exp1,2022-04-04,12:5:54,25,75,3,9,10,40,30,120,10,19,"[""""Black or African-American""""]",No,Female,2111142,682,u,learn,learn_trial,25,75,in,1,1
canvas-keyboard-response,640,557171,2d_cat_multi_stim_exp1,2022-04-04,12:5:54,25,75,3,9,10,40,30,120,10,19,"[""""Black or African-American""""]",No,Female,2111142,723,u,learn,learn_trial,25.4027,66.0815,in,1,1
canvas-keyboard-response,645,559498,2d_cat_multi_stim_exp1,2022-04-04,12:5:54,25,75,3,9,10,40,30,120,10,19,"[""""Black or African-American""""]",No,Female,2111142,731,u,learn,learn_trial,30,100,out,1,0
canvas-keyboard-response,650,562387,2d_cat_multi_stim_exp1,2022-04-04,12:5:54,25,75,3,9,10,40,30,120,10,19,"[""""Black or African-American""""]",No,Female,2111142,789,u,learn,learn_trial,26.6667,70,out,1,0
canvas-keyboard-response,655,565283,2d_cat_multi_stim_exp1,2022-04-04,12:5:54,25,75,3,9,10,40,30,120,10,19,"[""""Black or African-American""""]",No,Female,2111142,799,u,learn,learn_trial,29.2426,87.7279,in,1,1
canvas-keyboard-response,660,567810,2d_cat_multi_stim_exp1,2022-04-04,12:5:54,25,75,3,9,10,40,30,120,10,19,"[""""Black or African-American""""]",No,Female,2111142,934,u,learn,learn_trial,25,75,in,1,1
canvas-keyboard-response,665,570291,2d_cat_multi_stim_exp1,2022-04-04,12:5:54,25,75,3,9,10,40,30,120,10,19,"[""""Black or African-American""""]",No,Female,2111142,886,i,learn,learn_trial,40,70,out,0,1
canvas-keyboard-response,670,572731,2d_cat_multi_stim_exp1,2022-04-04,12:5:54,25,75,3,9,10,40,30,120,10,19,"[""""Black or African-American""""]",No,Female,2111142,845,u,learn,learn_trial,25,75,in,1,1
canvas-keyboard-response,675,575594,2d_cat_multi_stim_exp1,2022-04-04,12:5:54,25,75,3,9,10,40,30,120,10,19,"[""""Black or African-American""""]",No,Female,2111142,1270,u,learn,learn_trial,30,90,out,1,0
canvas-keyboard-response,680,580819,2d_cat_multi_stim_exp1,2022-04-04,12:5:54,25,75,3,9,10,40,30,120,10,19,"[""""Black or African-American""""]",No,Female,2111142,3129,u,learn,learn_trial,30,80,out,1,0
canvas-keyboard-response,685,585202,2d_cat_multi_stim_exp1,2022-04-04,12:5:54,25,75,3,9,10,40,30,120,10,19,"[""""Black or African-American""""]",No,Female,2111142,2289,u,learn,learn_trial,25,75,in,1,1
canvas-keyboard-response,690,593876,2d_cat_multi_stim_exp1,2022-04-04,12:5:54,25,75,3,9,10,40,30,120,10,19,"[""""Black or African-American""""]",No,Female,2111142,7080,i,learn,learn_trial,26.8705,67.9635,in,0,0
canvas-keyboard-response,695,598266,2d_cat_multi_stim_exp1,2022-04-04,12:5:54,25,75,3,9,10,40,30,120,10,19,"[""""Black or African-American""""]",No,Female,2111142,2286,i,learn,learn_trial,16.6667,40,out,0,1
canvas-keyboard-response,700,601395,2d_cat_multi_stim_exp1,2022-04-04,12:5:54,25,75,3,9,10,40,30,120,10,19,"[""""Black or African-American""""]",No,Female,2111142,1530,i,learn,learn_trial,23.3333,40,out,0,1
canvas-keyboard-response,705,603843,2d_cat_multi_stim_exp1,2022-04-04,12:5:54,25,75,3,9,10,40,30,120,10,19,"[""""Black or African-American""""]",No,Female,2111142,851,u,learn,learn_trial,25,75,in,1,1
canvas-keyboard-response,710,605627,2d_cat_multi_stim_exp1,2022-04-04,12:5:54,25,75,3,9,10,40,30,120,10,19,"[""""Black or African-American""""]",No,Female,2111142,188,u,learn,learn_trial,25,75,in,1,1
canvas-keyboard-response,715,607850,2d_cat_multi_stim_exp1,2022-04-04,12:5:54,25,75,3,9,10,40,30,120,10,19,"[""""Black or African-American""""]",No,Female,2111142,626,i,learn,learn_trial,26.6667,30,out,0,1
canvas-keyboard-response,720,610331,2d_cat_multi_stim_exp1,2022-04-04,12:5:54,25,75,3,9,10,40,30,120,10,19,"[""""Black or African-American""""]",No,Female,2111142,885,i,learn,learn_trial,30,120,out,0,1
canvas-keyboard-response,725,612682,2d_cat_multi_stim_exp1,2022-04-04,12:5:54,25,75,3,9,10,40,30,120,10,19,"[""""Black or African-American""""]",No,Female,2111142,754,i,learn,learn_trial,36.6667,30,out,0,1
canvas-keyboard-response,730,615403,2d_cat_multi_stim_exp1,2022-04-04,12:5:54,25,75,3,9,10,40,30,120,10,19,"[""""Black or African-American""""]",No,Female,2111142,1125,i,learn,learn_trial,40,80,out,0,1
canvas-keyboard-response,735,617602,2d_cat_multi_stim_exp1,2022-04-04,12:5:54,25,75,3,9,10,40,30,120,10,19,"[""""Black or African-American""""]",No,Female,2111142,606,u,learn,learn_trial,27.5753,79.6161,in,1,1
canvas-keyboard-response,740,621259,2d_cat_multi_stim_exp1,2022-04-04,12:5:54,25,75,3,9,10,40,30,120,10,19,"[""""Black or African-American""""]",No,Female,2111142,2062,u,learn,learn_trial,30,60,out,1,0
canvas-keyboard-response,745,624098,2d_cat_multi_stim_exp1,2022-04-04,12:5:54,25,75,3,9,10,40,30,120,10,19,"[""""Black or African-American""""]",No,Female,2111142,743,u,learn,learn_trial,25,75,in,1,1
canvas-keyboard-response,750,626331,2d_cat_multi_stim_exp1,2022-04-04,12:5:54,25,75,3,9,10,40,30,120,10,19,"[""""Black or African-American""""]",No,Female,2111142,637,u,learn,learn_trial,25,75,in,1,1
canvas-keyboard-response,755,629338,2d_cat_multi_stim_exp1,2022-04-04,12:5:54,25,75,3,9,10,40,30,120,10,19,"[""""Black or African-American""""]",No,Female,2111142,1411,i,learn,learn_trial,36.6667,70,out,0,1
canvas-keyboard-response,760,631914,2d_cat_multi_stim_exp1,2022-04-04,12:5:54,25,75,3,9,10,40,30,120,10,19,"[""""Black or African-American""""]",No,Female,2111142,979,u,learn,learn_trial,25,75,in,1,1
canvas-keyboard-response,765,634306,2d_cat_multi_stim_exp1,2022-04-04,12:5:54,25,75,3,9,10,40,30,120,10,19,"[""""Black or African-American""""]",No,Female,2111142,797,i,learn,learn_trial,26.6667,110,out,0,1
canvas-keyboard-response,770,636754,2d_cat_multi_stim_exp1,2022-04-04,12:5:54,25,75,3,9,10,40,30,120,10,19,"[""""Black or African-American""""]",No,Female,2111142,854,i,learn,learn_trial,13.3333,50,out,0,1
canvas-keyboard-response,775,639068,2d_cat_multi_stim_exp1,2022-04-04,12:5:54,25,75,3,9,10,40,30,120,10,19,"[""""Black or African-American""""]",No,Female,2111142,718,u,learn,learn_trial,25,75,in,1,1
canvas-keyboard-response,780,641202,2d_cat_multi_stim_exp1,2022-04-04,12:5:54,25,75,3,9,10,40,30,120,10,19,"[""""Black or African-American""""]",No,Female,2111142,527,u,learn,learn_trial,13.3333,60,out,1,0
canvas-keyboard-response,785,644347,2d_cat_multi_stim_exp1,2022-04-04,12:5:54,25,75,3,9,10,40,30,120,10,19,"[""""Black or African-American""""]",No,Female,2111142,1047,u,learn,learn_trial,25,75,in,1,1
canvas-keyboard-response,790,646603,2d_cat_multi_stim_exp1,2022-04-04,12:5:54,25,75,3,9,10,40,30,120,10,19,"[""""Black or African-American""""]",No,Female,2111142,658,u,learn,learn_trial,25,75,in,1,1
canvas-keyboard-response,795,648882,2d_cat_multi_stim_exp1,2022-04-04,12:5:54,25,75,3,9,10,40,30,120,10,19,"[""""Black or African-American""""]",No,Female,2111142,679,i,learn,learn_trial,10,30,out,0,1
canvas-keyboard-response,800,651306,2d_cat_multi_stim_exp1,2022-04-04,12:5:54,25,75,3,9,10,40,30,120,10,19,"[""""Black or African-American""""]",No,Female,2111142,828,i,learn,learn_trial,33.3333,110,out,0,1
canvas-keyboard-response,805,653690,2d_cat_multi_stim_exp1,2022-04-04,12:5:54,25,75,3,9,10,40,30,120,10,19,"[""""Black or African-American""""]",No,Female,2111142,788,u,learn,learn_trial,27.8087,78.1624,in,1,1
canvas-keyboard-response,810,655922,2d_cat_multi_stim_exp1,2022-04-04,12:5:54,25,75,3,9,10,40,30,120,10,19,"[""""Black or African-American""""]",No,Female,2111142,638,u,learn,learn_trial,25,75,in,1,1
canvas-keyboard-response,815,658402,2d_cat_multi_stim_exp1,2022-04-04,12:5:54,25,75,3,9,10,40,30,120,10,19,"[""""Black or African-American""""]",No,Female,2111142,886,i,learn,learn_trial,20,30,out,0,1
canvas-keyboard-response,820,661074,2d_cat_multi_stim_exp1,2022-04-04,12:5:54,25,75,3,9,10,40,30,120,10,19,"[""""Black or African-American""""]",No,Female,2111142,1076,i,learn,learn_trial,33.3333,30,out,0,1
canvas-keyboard-response,825,663707,2d_cat_multi_stim_exp1,2022-04-04,12:5:54,25,75,3,9,10,40,30,120,10,19,"[""""Black or African-American""""]",No,Female,2111142,1036,u,learn,learn_trial,25,75,in,1,1
canvas-keyboard-response,830,666034,2d_cat_multi_stim_exp1,2022-04-04,12:5:54,25,75,3,9,10,40,30,120,10,19,"[""""Black or African-American""""]",No,Female,2111142,732,u,learn,learn_trial,22.1081,77.3943,in,1,1
canvas-keyboard-response,835,668330,2d_cat_multi_stim_exp1,2022-04-04,12:5:54,25,75,3,9,10,40,30,120,10,19,"[""""Black or African-American""""]",No,Female,2111142,702,i,learn,learn_trial,26.6667,120,out,0,1
canvas-keyboard-response,840,670657,2d_cat_multi_stim_exp1,2022-04-04,12:5:54,25,75,3,9,10,40,30,120,10,19,"[""""Black or African-American""""]",No,Female,2111142,729,i,learn,learn_trial,13.3333,30,out,0,1
canvas-keyboard-response,845,673626,2d_cat_multi_stim_exp1,2022-04-04,12:5:54,25,75,3,9,10,40,30,120,10,19,"[""""Black or African-American""""]",No,Female,2111142,1374,u,learn,learn_trial,23.8209,83.2757,in,1,1
canvas-keyboard-response,850,677041,2d_cat_multi_stim_exp1,2022-04-04,12:5:54,25,75,3,9,10,40,30,120,10,19,"[""""Black or African-American""""]",No,Female,2111142,1823,i,learn,learn_trial,13.3333,90,out,0,1
canvas-keyboard-response,855,679458,2d_cat_multi_stim_exp1,2022-04-04,12:5:54,25,75,3,9,10,40,30,120,10,19,"[""""Black or African-American""""]",No,Female,2111142,817,i,learn,learn_trial,40,60,out,0,1
canvas-keyboard-response,860,681721,2d_cat_multi_stim_exp1,2022-04-04,12:5:54,25,75,3,9,10,40,30,120,10,19,"[""""Black or African-American""""]",No,Female,2111142,668,u,learn,learn_trial,27.2592,80.9214,in,1,1
canvas-keyboard-response,865,684322,2d_cat_multi_stim_exp1,2022-04-04,12:5:54,25,75,3,9,10,40,30,120,10,19,"[""""Black or African-American""""]",No,Female,2111142,1005,u,learn,learn_trial,25,75,in,1,1
canvas-keyboard-response,870,686818,2d_cat_multi_stim_exp1,2022-04-04,12:5:54,25,75,3,9,10,40,30,120,10,19,"[""""Black or African-American""""]",No,Female,2111142,898,i,learn,learn_trial,36.6667,40,out,0,1
canvas-keyboard-response,875,690330,2d_cat_multi_stim_exp1,2022-04-04,12:5:54,25,75,3,9,10,40,30,120,10,19,"[""""Black or African-American""""]",No,Female,2111142,1917,i,learn,learn_trial,26.6667,40,out,0,1
canvas-keyboard-response,880,692642,2d_cat_multi_stim_exp1,2022-04-04,12:5:54,25,75,3,9,10,40,30,120,10,19,"[""""Black or African-American""""]",No,Female,2111142,716,u,learn,learn_trial,25,75,in,1,1
canvas-keyboard-response,885,694923,2d_cat_multi_stim_exp1,2022-04-04,12:5:54,25,75,3,9,10,40,30,120,10,19,"[""""Black or African-American""""]",No,Female,2111142,684,i,learn,learn_trial,16.6667,120,out,0,1
canvas-keyboard-response,890,697331,2d_cat_multi_stim_exp1,2022-04-04,12:5:54,25,75,3,9,10,40,30,120,10,19,"[""""Black or African-American""""]",No,Female,2111142,798,i,learn,learn_trial,33.3333,120,out,0,1
canvas-keyboard-response,895,699835,2d_cat_multi_stim_exp1,2022-04-04,12:5:54,25,75,3,9,10,40,30,120,10,19,"[""""Black or African-American""""]",No,Female,2111142,905,u,learn,learn_trial,26.4216,67.0746,in,1,1
canvas-keyboard-response,900,703154,2d_cat_multi_stim_exp1,2022-04-04,12:5:54,25,75,3,9,10,40,30,120,10,19,"[""""Black or African-American""""]",No,Female,2111142,1722,u,learn,learn_trial,25,75,in,1,1
canvas-keyboard-response,905,705602,2d_cat_multi_stim_exp1,2022-04-04,12:5:54,25,75,3,9,10,40,30,120,10,19,"[""""Black or African-American""""]",No,Female,2111142,842,u,learn,learn_trial,25,93,in,1,1
canvas-keyboard-response,910,707697,2d_cat_multi_stim_exp1,2022-04-04,12:5:54,25,75,3,9,10,40,30,120,10,19,"[""""Black or African-American""""]",No,Female,2111142,500,u,learn,learn_trial,25,75,in,1,1
canvas-keyboard-response,915,710010,2d_cat_multi_stim_exp1,2022-04-04,12:5:54,25,75,3,9,10,40,30,120,10,19,"[""""Black or African-American""""]",No,Female,2111142,718,i,learn,learn_trial,40,30,out,0,1
canvas-keyboard-response,920,713409,2d_cat_multi_stim_exp1,2022-04-04,12:5:54,25,75,3,9,10,40,30,120,10,19,"[""""Black or African-American""""]",No,Female,2111142,1804,u,learn,learn_trial,16.6667,70,out,1,0
canvas-keyboard-response,925,716602,2d_cat_multi_stim_exp1,2022-04-04,12:5:54,25,75,3,9,10,40,30,120,10,19,"[""""Black or African-American""""]",No,Female,2111142,1096,u,learn,learn_trial,25,75,in,1,1
canvas-keyboard-response,930,718970,2d_cat_multi_stim_exp1,2022-04-04,12:5:54,25,75,3,9,10,40,30,120,10,19,"[""""Black or African-American""""]",No,Female,2111142,772,u,learn,learn_trial,23.3473,82.5112,in,1,1
canvas-keyboard-response,935,721338,2d_cat_multi_stim_exp1,2022-04-04,12:5:54,25,75,3,9,10,40,30,120,10,19,"[""""Black or African-American""""]",No,Female,2111142,769,i,learn,learn_trial,33.3333,50,out,0,1
canvas-keyboard-response,940,724314,2d_cat_multi_stim_exp1,2022-04-04,12:5:54,25,75,3,9,10,40,30,120,10,19,"[""""Black or African-American""""]",No,Female,2111142,1380,u,learn,learn_trial,25,75,in,1,1
canvas-keyboard-response,945,726754,2d_cat_multi_stim_exp1,2022-04-04,12:5:54,25,75,3,9,10,40,30,120,10,19,"[""""Black or African-American""""]",No,Female,2111142,834,u,learn,learn_trial,25,75,in,1,1
canvas-keyboard-response,950,730162,2d_cat_multi_stim_exp1,2022-04-04,12:5:54,25,75,3,9,10,40,30,120,10,19,"[""""Black or African-American""""]",No,Female,2111142,1807,i,learn,learn_trial,20,100,out,0,1
canvas-keyboard-response,955,733010,2d_cat_multi_stim_exp1,2022-04-04,12:5:54,25,75,3,9,10,40,30,120,10,19,"[""""Black or African-American""""]",No,Female,2111142,1248,u,learn,learn_trial,33.3333,70,out,1,0
canvas-keyboard-response,960,736554,2d_cat_multi_stim_exp1,2022-04-04,12:5:54,25,75,3,9,10,40,30,120,10,19,"[""""Black or African-American""""]",No,Female,2111142,1441,i,learn,learn_trial,27.9518,76.607,in,0,0
canvas-keyboard-response,965,739545,2d_cat_multi_stim_exp1,2022-04-04,12:5:54,25,75,3,9,10,40,30,120,10,19,"[""""Black or African-American""""]",No,Female,2111142,892,u,learn,learn_trial,23.3333,80,out,1,0
canvas-keyboard-response,970,742241,2d_cat_multi_stim_exp1,2022-04-04,12:5:54,25,75,3,9,10,40,30,120,10,19,"[""""Black or African-American""""]",No,Female,2111142,600,i,learn,learn_trial,16.6667,50,out,0,1
canvas-keyboard-response,975,744489,2d_cat_multi_stim_exp1,2022-04-04,12:5:54,25,75,3,9,10,40,30,120,10,19,"[""""Black or African-American""""]",No,Female,2111142,653,u,learn,learn_trial,25,75,in,1,1
canvas-keyboard-response,980,746818,2d_cat_multi_stim_exp1,2022-04-04,12:5:54,25,75,3,9,10,40,30,120,10,19,"[""""Black or African-American""""]",No,Female,2111142,732,i,learn,learn_trial,23.3333,100,out,0,1
canvas-keyboard-response,985,749097,2d_cat_multi_stim_exp1,2022-04-04,12:5:54,25,75,3,9,10,40,30,120,10,19,"[""""Black or African-American""""]",No,Female,2111142,683,u,learn,learn_trial,22.2971,78.905,in,1,1
canvas-keyboard-response,990,751330,2d_cat_multi_stim_exp1,2022-04-04,12:5:54,25,75,3,9,10,40,30,120,10,19,"[""""Black or African-American""""]",No,Female,2111142,637,i,learn,learn_trial,10,120,out,0,1
canvas-keyboard-response,995,754066,2d_cat_multi_stim_exp1,2022-04-04,12:5:54,25,75,3,9,10,40,30,120,10,19,"[""""Black or African-American""""]",No,Female,2111142,1138,i,learn,learn_trial,36.6667,60,out,0,1
canvas-keyboard-response,1000,756777,2d_cat_multi_stim_exp1,2022-04-04,12:5:54,25,75,3,9,10,40,30,120,10,19,"[""""Black or African-American""""]",No,Female,2111142,1115,u,learn,learn_trial,25,75,in,1,1
canvas-keyboard-response,1005,759201,2d_cat_multi_stim_exp1,2022-04-04,12:5:54,25,75,3,9,10,40,30,120,10,19,"[""""Black or African-American""""]",No,Female,2111142,828,i,learn,learn_trial,26.6667,60,out,0,1
canvas-keyboard-response,1010,762121,2d_cat_multi_stim_exp1,2022-04-04,12:5:54,25,75,3,9,10,40,30,120,10,19,"[""""Black or African-American""""]",No,Female,2111142,1323,u,learn,learn_trial,36.6667,90,out,1,0
canvas-keyboard-response,15,160229,2d_cat_multi_stim_exp1,2022-04-04,12:31:42,25,75,3,9,10,40,30,120,11,19,"[""""White""""]",No,Female,2423990,6893,u,learn,learn_trial,23.3333,40,out,1,0
canvas-keyboard-response,20,165204,2d_cat_multi_stim_exp1,2022-04-04,12:31:42,25,75,3,9,10,40,30,120,11,19,"[""""White""""]",No,Female,2423990,2869,u,learn,learn_trial,25,75,in,1,1
canvas-keyboard-response,25,169388,2d_cat_multi_stim_exp1,2022-04-04,12:31:42,25,75,3,9,10,40,30,120,11,19,"[""""White""""]",No,Female,2423990,2584,i,learn,learn_trial,16.6667,120,out,0,1
canvas-keyboard-response,30,173571,2d_cat_multi_stim_exp1,2022-04-04,12:31:42,25,75,3,9,10,40,30,120,11,19,"[""""White""""]",No,Female,2423990,2583,i,learn,learn_trial,16.6667,100,out,0,1
canvas-keyboard-response,35,179237,2d_cat_multi_stim_exp1,2022-04-04,12:31:42,25,75,3,9,10,40,30,120,11,19,"[""""White""""]",No,Female,2423990,4067,u,learn,learn_trial,13.3333,60,out,1,0
canvas-keyboard-response,40,184661,2d_cat_multi_stim_exp1,2022-04-04,12:31:42,25,75,3,9,10,40,30,120,11,19,"[""""White""""]",No,Female,2423990,3328,i,learn,learn_trial,36.6667,50,out,0,1
canvas-keyboard-response,45,187980,2d_cat_multi_stim_exp1,2022-04-04,12:31:42,25,75,3,9,10,40,30,120,11,19,"[""""White""""]",No,Female,2423990,1723,u,learn,learn_trial,26.6667,80,out,1,0
canvas-keyboard-response,50,192611,2d_cat_multi_stim_exp1,2022-04-04,12:31:42,25,75,3,9,10,40,30,120,11,19,"[""""White""""]",No,Female,2423990,2535,u,learn,learn_trial,25,75,in,1,1
canvas-keyboard-response,55,200572,2d_cat_multi_stim_exp1,2022-04-04,12:31:42,25,75,3,9,10,40,30,120,11,19,"[""""White""""]",No,Female,2423990,6361,u,learn,learn_trial,22.0121,74.1932,in,1,1
canvas-keyboard-response,60,204244,2d_cat_multi_stim_exp1,2022-04-04,12:31:42,25,75,3,9,10,40,30,120,11,19,"[""""White""""]",No,Female,2423990,2077,u,learn,learn_trial,30,100,out,1,0
canvas-keyboard-response,65,208100,2d_cat_multi_stim_exp1,2022-04-04,12:31:42,25,75,3,9,10,40,30,120,11,19,"[""""White""""]",No,Female,2423990,1757,u,learn,learn_trial,29.2426,87.7279,in,1,1
canvas-keyboard-response,70,210947,2d_cat_multi_stim_exp1,2022-04-04,12:31:42,25,75,3,9,10,40,30,120,11,19,"[""""White""""]",No,Female,2423990,1252,i,learn,learn_trial,27.2592,69.0786,in,0,0
canvas-keyboard-response,75,214068,2d_cat_multi_stim_exp1,2022-04-04,12:31:42,25,75,3,9,10,40,30,120,11,19,"[""""White""""]",No,Female,2423990,1023,u,learn,learn_trial,27.9518,76.607,in,1,1
canvas-keyboard-response,80,216821,2d_cat_multi_stim_exp1,2022-04-04,12:31:42,25,75,3,9,10,40,30,120,11,19,"[""""White""""]",No,Female,2423990,1155,i,learn,learn_trial,10,80,out,0,1
canvas-keyboard-response,85,220124,2d_cat_multi_stim_exp1,2022-04-04,12:31:42,25,75,3,9,10,40,30,120,11,19,"[""""White""""]",No,Female,2423990,1697,i,learn,learn_trial,40,70,out,0,1
canvas-keyboard-response,90,222741,2d_cat_multi_stim_exp1,2022-04-04,12:31:42,25,75,3,9,10,40,30,120,11,19,"[""""White""""]",No,Female,2423990,1016,i,learn,learn_trial,30,30,out,0,1
canvas-keyboard-response,95,225156,2d_cat_multi_stim_exp1,2022-04-04,12:31:42,25,75,3,9,10,40,30,120,11,19,"[""""White""""]",No,Female,2423990,813,u,learn,learn_trial,30,60,out,1,0
canvas-keyboard-response,100,228340,2d_cat_multi_stim_exp1,2022-04-04,12:31:42,25,75,3,9,10,40,30,120,11,19,"[""""White""""]",No,Female,2423990,1086,i,learn,learn_trial,36.6667,30,out,0,1
canvas-keyboard-response,105,230908,2d_cat_multi_stim_exp1,2022-04-04,12:31:42,25,75,3,9,10,40,30,120,11,19,"[""""White""""]",No,Female,2423990,972,u,learn,learn_trial,25,75,in,1,1
canvas-keyboard-response,110,235428,2d_cat_multi_stim_exp1,2022-04-04,12:31:42,25,75,3,9,10,40,30,120,11,19,"[""""White""""]",No,Female,2423990,2923,u,learn,learn_trial,25,75,in,1,1
canvas-keyboard-response,115,238884,2d_cat_multi_stim_exp1,2022-04-04,12:31:42,25,75,3,9,10,40,30,120,11,19,"[""""White""""]",No,Female,2423990,1858,u,learn,learn_trial,30,70,out,1,0
canvas-keyboard-response,120,243371,2d_cat_multi_stim_exp1,2022-04-04,12:31:42,25,75,3,9,10,40,30,120,11,19,"[""""White""""]",No,Female,2423990,2390,i,learn,learn_trial,40,110,out,0,1
canvas-keyboard-response,125,248212,2d_cat_multi_stim_exp1,2022-04-04,12:31:42,25,75,3,9,10,40,30,120,11,19,"[""""White""""]",No,Female,2423990,3244,u,learn,learn_trial,25,75,in,1,1
canvas-keyboard-response,130,251972,2d_cat_multi_stim_exp1,2022-04-04,12:31:42,25,75,3,9,10,40,30,120,11,19,"[""""White""""]",No,Female,2423990,2163,u,learn,learn_trial,25,75,in,1,1
canvas-keyboard-response,135,255643,2d_cat_multi_stim_exp1,2022-04-04,12:31:42,25,75,3,9,10,40,30,120,11,19,"[""""White""""]",No,Female,2423990,2075,i,learn,learn_trial,20,70,out,0,1
canvas-keyboard-response,140,258532,2d_cat_multi_stim_exp1,2022-04-04,12:31:42,25,75,3,9,10,40,30,120,11,19,"[""""White""""]",No,Female,2423990,1291,i,learn,learn_trial,30,110,out,0,1
canvas-keyboard-response,145,261491,2d_cat_multi_stim_exp1,2022-04-04,12:31:42,25,75,3,9,10,40,30,120,11,19,"[""""White""""]",No,Female,2423990,1350,u,learn,learn_trial,24.3324,83.7744,in,1,1
canvas-keyboard-response,150,266580,2d_cat_multi_stim_exp1,2022-04-04,12:31:42,25,75,3,9,10,40,30,120,11,19,"[""""White""""]",No,Female,2423990,3488,i,learn,learn_trial,30,80,out,0,1
canvas-keyboard-response,155,269508,2d_cat_multi_stim_exp1,2022-04-04,12:31:42,25,75,3,9,10,40,30,120,11,19,"[""""White""""]",No,Female,2423990,1328,i,learn,learn_trial,20.7574,87.7279,in,0,0
canvas-keyboard-response,160,272532,2d_cat_multi_stim_exp1,2022-04-04,12:31:42,25,75,3,9,10,40,30,120,11,19,"[""""White""""]",No,Female,2423990,924,i,learn,learn_trial,25.4027,66.0815,in,0,0
canvas-keyboard-response,165,275884,2d_cat_multi_stim_exp1,2022-04-04,12:31:42,25,75,3,9,10,40,30,120,11,19,"[""""White""""]",No,Female,2423990,1255,u,learn,learn_trial,25,75,in,1,1
canvas-keyboard-response,170,278307,2d_cat_multi_stim_exp1,2022-04-04,12:31:42,25,75,3,9,10,40,30,120,11,19,"[""""White""""]",No,Female,2423990,827,i,learn,learn_trial,40,60,out,0,1
canvas-keyboard-response,175,281715,2d_cat_multi_stim_exp1,2022-04-04,12:31:42,25,75,3,9,10,40,30,120,11,19,"[""""White""""]",No,Female,2423990,1809,u,learn,learn_trial,22.5729,69.7099,in,1,1
canvas-keyboard-response,180,285548,2d_cat_multi_stim_exp1,2022-04-04,12:31:42,25,75,3,9,10,40,30,120,11,19,"[""""White""""]",No,Female,2423990,2235,u,learn,learn_trial,25,75,in,1,1
canvas-keyboard-response,185,288597,2d_cat_multi_stim_exp1,2022-04-04,12:31:42,25,75,3,9,10,40,30,120,11,19,"[""""White""""]",No,Female,2423990,1451,u,learn,learn_trial,25,75,in,1,1
canvas-keyboard-response,190,290940,2d_cat_multi_stim_exp1,2022-04-04,12:31:42,25,75,3,9,10,40,30,120,11,19,"[""""White""""]",No,Female,2423990,736,u,learn,learn_trial,25,75,in,1,1
canvas-keyboard-response,195,293636,2d_cat_multi_stim_exp1,2022-04-04,12:31:42,25,75,3,9,10,40,30,120,11,19,"[""""White""""]",No,Female,2423990,1095,u,learn,learn_trial,27.9518,73.393,in,1,1
canvas-keyboard-response,200,296091,2d_cat_multi_stim_exp1,2022-04-04,12:31:42,25,75,3,9,10,40,30,120,11,19,"[""""White""""]",No,Female,2423990,856,i,learn,learn_trial,36.6667,40,out,0,1
canvas-keyboard-response,205,298723,2d_cat_multi_stim_exp1,2022-04-04,12:31:42,25,75,3,9,10,40,30,120,11,19,"[""""White""""]",No,Female,2423990,1036,i,learn,learn_trial,36.6667,120,out,0,1
canvas-keyboard-response,210,301315,2d_cat_multi_stim_exp1,2022-04-04,12:31:42,25,75,3,9,10,40,30,120,11,19,"[""""White""""]",No,Female,2423990,994,i,learn,learn_trial,33.3333,100,out,0,1
canvas-keyboard-response,215,303746,2d_cat_multi_stim_exp1,2022-04-04,12:31:42,25,75,3,9,10,40,30,120,11,19,"[""""White""""]",No,Female,2423990,834,i,learn,learn_trial,13.3333,50,out,0,1
canvas-keyboard-response,220,306451,2d_cat_multi_stim_exp1,2022-04-04,12:31:42,25,75,3,9,10,40,30,120,11,19,"[""""White""""]",No,Female,2423990,1108,u,learn,learn_trial,25,75,in,1,1
canvas-keyboard-response,225,310571,2d_cat_multi_stim_exp1,2022-04-04,12:31:42,25,75,3,9,10,40,30,120,11,19,"[""""White""""]",No,Female,2423990,2522,u,learn,learn_trial,25,75,in,1,1
canvas-keyboard-response,230,313419,2d_cat_multi_stim_exp1,2022-04-04,12:31:42,25,75,3,9,10,40,30,120,11,19,"[""""White""""]",No,Female,2423990,1250,u,learn,learn_trial,25,75,in,1,1
canvas-keyboard-response,235,317491,2d_cat_multi_stim_exp1,2022-04-04,12:31:42,25,75,3,9,10,40,30,120,11,19,"[""""White""""]",No,Female,2423990,2475,i,learn,learn_trial,28,75,in,0,0
canvas-keyboard-response,240,320819,2d_cat_multi_stim_exp1,2022-04-04,12:31:42,25,75,3,9,10,40,30,120,11,19,"[""""White""""]",No,Female,2423990,1230,u,learn,learn_trial,27.8087,71.8376,in,1,1
canvas-keyboard-response,245,323539,2d_cat_multi_stim_exp1,2022-04-04,12:31:42,25,75,3,9,10,40,30,120,11,19,"[""""White""""]",No,Female,2423990,1111,i,learn,learn_trial,23.3473,67.4888,in,0,0
canvas-keyboard-response,250,326435,2d_cat_multi_stim_exp1,2022-04-04,12:31:42,25,75,3,9,10,40,30,120,11,19,"[""""White""""]",No,Female,2423990,796,i,learn,learn_trial,40,30,out,0,1
canvas-keyboard-response,255,329027,2d_cat_multi_stim_exp1,2022-04-04,12:31:42,25,75,3,9,10,40,30,120,11,19,"[""""White""""]",No,Female,2423990,991,u,learn,learn_trial,26.6667,60,out,1,0
canvas-keyboard-response,260,334291,2d_cat_multi_stim_exp1,2022-04-04,12:31:42,25,75,3,9,10,40,30,120,11,19,"[""""White""""]",No,Female,2423990,3166,i,learn,learn_trial,13.3333,90,out,0,1
canvas-keyboard-response,265,337779,2d_cat_multi_stim_exp1,2022-04-04,12:31:42,25,75,3,9,10,40,30,120,11,19,"[""""White""""]",No,Female,2423990,1890,u,learn,learn_trial,19,75,in,1,1
canvas-keyboard-response,270,340323,2d_cat_multi_stim_exp1,2022-04-04,12:31:42,25,75,3,9,10,40,30,120,11,19,"[""""White""""]",No,Female,2423990,946,i,learn,learn_trial,13.3333,120,out,0,1
canvas-keyboard-response,275,353820,2d_cat_multi_stim_exp1,2022-04-04,12:31:42,25,75,3,9,10,40,30,120,11,19,"[""""White""""]",No,Female,2423990,11898,u,learn,learn_trial,25,75,in,1,1
canvas-keyboard-response,280,356219,2d_cat_multi_stim_exp1,2022-04-04,12:31:42,25,75,3,9,10,40,30,120,11,19,"[""""White""""]",No,Female,2423990,792,i,learn,learn_trial,25,57,in,0,0
canvas-keyboard-response,285,361660,2d_cat_multi_stim_exp1,2022-04-04,12:31:42,25,75,3,9,10,40,30,120,11,19,"[""""White""""]",No,Female,2423990,3340,u,learn,learn_trial,23.3333,80,out,1,0
canvas-keyboard-response,290,367132,2d_cat_multi_stim_exp1,2022-04-04,12:31:42,25,75,3,9,10,40,30,120,11,19,"[""""White""""]",No,Female,2423990,3372,u,learn,learn_trial,25,75,in,1,1
canvas-keyboard-response,295,369580,2d_cat_multi_stim_exp1,2022-04-04,12:31:42,25,75,3,9,10,40,30,120,11,19,"[""""White""""]",No,Female,2423990,850,i,learn,learn_trial,33.3333,50,out,0,1
canvas-keyboard-response,300,372371,2d_cat_multi_stim_exp1,2022-04-04,12:31:42,25,75,3,9,10,40,30,120,11,19,"[""""White""""]",No,Female,2423990,1194,u,learn,learn_trial,29.2426,62.2721,in,1,1
canvas-keyboard-response,305,378803,2d_cat_multi_stim_exp1,2022-04-04,12:31:42,25,75,3,9,10,40,30,120,11,19,"[""""White""""]",No,Female,2423990,4835,u,learn,learn_trial,30,90,out,1,0
canvas-keyboard-response,310,383964,2d_cat_multi_stim_exp1,2022-04-04,12:31:42,25,75,3,9,10,40,30,120,11,19,"[""""White""""]",No,Female,2423990,3064,u,learn,learn_trial,25,75,in,1,1
canvas-keyboard-response,315,387011,2d_cat_multi_stim_exp1,2022-04-04,12:31:42,25,75,3,9,10,40,30,120,11,19,"[""""White""""]",No,Female,2423990,1450,i,learn,learn_trial,24.3324,66.2256,in,0,0
canvas-keyboard-response,320,390026,2d_cat_multi_stim_exp1,2022-04-04,12:31:42,25,75,3,9,10,40,30,120,11,19,"[""""White""""]",No,Female,2423990,918,i,learn,learn_trial,30,50,out,0,1
canvas-keyboard-response,325,392507,2d_cat_multi_stim_exp1,2022-04-04,12:31:42,25,75,3,9,10,40,30,120,11,19,"[""""White""""]",No,Female,2423990,883,u,learn,learn_trial,26.6667,70,out,1,0
canvas-keyboard-response,330,396092,2d_cat_multi_stim_exp1,2022-04-04,12:31:42,25,75,3,9,10,40,30,120,11,19,"[""""White""""]",No,Female,2423990,1487,i,learn,learn_trial,33.3333,70,out,0,1
canvas-keyboard-response,335,398579,2d_cat_multi_stim_exp1,2022-04-04,12:31:42,25,75,3,9,10,40,30,120,11,19,"[""""White""""]",No,Female,2423990,877,i,learn,learn_trial,23.3333,120,out,0,1
canvas-keyboard-response,340,401180,2d_cat_multi_stim_exp1,2022-04-04,12:31:42,25,75,3,9,10,40,30,120,11,19,"[""""White""""]",No,Female,2423990,998,u,learn,learn_trial,25,75,in,1,1
canvas-keyboard-response,345,403531,2d_cat_multi_stim_exp1,2022-04-04,12:31:42,25,75,3,9,10,40,30,120,11,19,"[""""White""""]",No,Female,2423990,751,u,learn,learn_trial,26.4216,67.0746,in,1,1
canvas-keyboard-response,350,405946,2d_cat_multi_stim_exp1,2022-04-04,12:31:42,25,75,3,9,10,40,30,120,11,19,"[""""White""""]",No,Female,2423990,815,i,learn,learn_trial,23.3333,30,out,0,1
canvas-keyboard-response,355,409059,2d_cat_multi_stim_exp1,2022-04-04,12:31:42,25,75,3,9,10,40,30,120,11,19,"[""""White""""]",No,Female,2423990,1513,i,learn,learn_trial,26.6667,40,out,0,1
canvas-keyboard-response,360,411523,2d_cat_multi_stim_exp1,2022-04-04,12:31:42,25,75,3,9,10,40,30,120,11,19,"[""""White""""]",No,Female,2423990,867,i,learn,learn_trial,33.3333,30,out,0,1
canvas-keyboard-response,365,415419,2d_cat_multi_stim_exp1,2022-04-04,12:31:42,25,75,3,9,10,40,30,120,11,19,"[""""White""""]",No,Female,2423990,2296,u,learn,learn_trial,25,75,in,1,1
canvas-keyboard-response,370,418443,2d_cat_multi_stim_exp1,2022-04-04,12:31:42,25,75,3,9,10,40,30,120,11,19,"[""""White""""]",No,Female,2423990,1425,u,learn,learn_trial,25,75,in,1,1
canvas-keyboard-response,375,420914,2d_cat_multi_stim_exp1,2022-04-04,12:31:42,25,75,3,9,10,40,30,120,11,19,"[""""White""""]",No,Female,2423990,875,i,learn,learn_trial,33.3333,120,out,0,1
canvas-keyboard-response,380,423483,2d_cat_multi_stim_exp1,2022-04-04,12:31:42,25,75,3,9,10,40,30,120,11,19,"[""""White""""]",No,Female,2423990,969,i,learn,learn_trial,10,100,out,0,1
canvas-keyboard-response,385,426355,2d_cat_multi_stim_exp1,2022-04-04,12:31:42,25,75,3,9,10,40,30,120,11,19,"[""""White""""]",No,Female,2423990,1273,u,learn,learn_trial,25,75,in,1,1
canvas-keyboard-response,390,429690,2d_cat_multi_stim_exp1,2022-04-04,12:31:42,25,75,3,9,10,40,30,120,11,19,"[""""White""""]",No,Female,2423990,1738,u,learn,learn_trial,20,80,out,1,0
canvas-keyboard-response,395,433379,2d_cat_multi_stim_exp1,2022-04-04,12:31:42,25,75,3,9,10,40,30,120,11,19,"[""""White""""]",No,Female,2423990,1581,i,learn,learn_trial,40,50,out,0,1
canvas-keyboard-response,400,436827,2d_cat_multi_stim_exp1,2022-04-04,12:31:42,25,75,3,9,10,40,30,120,11,19,"[""""White""""]",No,Female,2423990,1844,u,learn,learn_trial,22.2971,78.905,in,1,1
canvas-keyboard-response,405,441115,2d_cat_multi_stim_exp1,2022-04-04,12:31:42,25,75,3,9,10,40,30,120,11,19,"[""""White""""]",No,Female,2423990,2685,u,learn,learn_trial,33.3333,80,out,1,0
canvas-keyboard-response,410,444746,2d_cat_multi_stim_exp1,2022-04-04,12:31:42,25,75,3,9,10,40,30,120,11,19,"[""""White""""]",No,Female,2423990,1530,i,learn,learn_trial,40,100,out,0,1
canvas-keyboard-response,415,447858,2d_cat_multi_stim_exp1,2022-04-04,12:31:42,25,75,3,9,10,40,30,120,11,19,"[""""White""""]",No,Female,2423990,1514,i,learn,learn_trial,16.6667,70,out,0,1
canvas-keyboard-response,420,453098,2d_cat_multi_stim_exp1,2022-04-04,12:31:42,25,75,3,9,10,40,30,120,11,19,"[""""White""""]",No,Female,2423990,3642,i,learn,learn_trial,16.6667,90,out,0,1
canvas-keyboard-response,425,456091,2d_cat_multi_stim_exp1,2022-04-04,12:31:42,25,75,3,9,10,40,30,120,11,19,"[""""White""""]",No,Female,2423990,1394,i,learn,learn_trial,30,120,out,0,1
canvas-keyboard-response,430,461546,2d_cat_multi_stim_exp1,2022-04-04,12:31:42,25,75,3,9,10,40,30,120,11,19,"[""""White""""]",No,Female,2423990,3855,u,learn,learn_trial,25,75,in,1,1
canvas-keyboard-response,435,464090,2d_cat_multi_stim_exp1,2022-04-04,12:31:42,25,75,3,9,10,40,30,120,11,19,"[""""White""""]",No,Female,2423990,946,i,learn,learn_trial,36.6667,80,out,0,1
canvas-keyboard-response,440,470131,2d_cat_multi_stim_exp1,2022-04-04,12:31:42,25,75,3,9,10,40,30,120,11,19,"[""""White""""]",No,Female,2423990,4443,i,learn,learn_trial,22.0121,75.8068,in,0,0
canvas-keyboard-response,445,472978,2d_cat_multi_stim_exp1,2022-04-04,12:31:42,25,75,3,9,10,40,30,120,11,19,"[""""White""""]",No,Female,2423990,748,i,learn,learn_trial,10,30,out,0,1
canvas-keyboard-response,450,475307,2d_cat_multi_stim_exp1,2022-04-04,12:31:42,25,75,3,9,10,40,30,120,11,19,"[""""White""""]",No,Female,2423990,730,i,learn,learn_trial,10,60,out,0,1
canvas-keyboard-response,455,478778,2d_cat_multi_stim_exp1,2022-04-04,12:31:42,25,75,3,9,10,40,30,120,11,19,"[""""White""""]",No,Female,2423990,1872,i,learn,learn_trial,16.6667,80,out,0,1
canvas-keyboard-response,460,482363,2d_cat_multi_stim_exp1,2022-04-04,12:31:42,25,75,3,9,10,40,30,120,11,19,"[""""White""""]",No,Female,2423990,1984,u,learn,learn_trial,25,75,in,1,1
canvas-keyboard-response,465,486195,2d_cat_multi_stim_exp1,2022-04-04,12:31:42,25,75,3,9,10,40,30,120,11,19,"[""""White""""]",No,Female,2423990,2224,u,learn,learn_trial,25,75,in,1,1
canvas-keyboard-response,470,488603,2d_cat_multi_stim_exp1,2022-04-04,12:31:42,25,75,3,9,10,40,30,120,11,19,"[""""White""""]",No,Female,2423990,805,i,learn,learn_trial,13.3333,100,out,0,1
canvas-keyboard-response,475,490874,2d_cat_multi_stim_exp1,2022-04-04,12:31:42,25,75,3,9,10,40,30,120,11,19,"[""""White""""]",No,Female,2423990,671,i,learn,learn_trial,26.6667,50,out,0,1
canvas-keyboard-response,480,493778,2d_cat_multi_stim_exp1,2022-04-04,12:31:42,25,75,3,9,10,40,30,120,11,19,"[""""White""""]",No,Female,2423990,1305,u,learn,learn_trial,25,75,in,1,1
canvas-keyboard-response,485,497330,2d_cat_multi_stim_exp1,2022-04-04,12:31:42,25,75,3,9,10,40,30,120,11,19,"[""""White""""]",No,Female,2423990,1951,i,learn,learn_trial,27.5753,70.3839,in,0,0
canvas-keyboard-response,490,500562,2d_cat_multi_stim_exp1,2022-04-04,12:31:42,25,75,3,9,10,40,30,120,11,19,"[""""White""""]",No,Female,2423990,1134,u,learn,learn_trial,25,75,in,1,1
canvas-keyboard-response,495,502938,2d_cat_multi_stim_exp1,2022-04-04,12:31:42,25,75,3,9,10,40,30,120,11,19,"[""""White""""]",No,Female,2423990,777,u,learn,learn_trial,27.8087,78.1624,in,1,1
canvas-keyboard-response,500,505802,2d_cat_multi_stim_exp1,2022-04-04,12:31:42,25,75,3,9,10,40,30,120,11,19,"[""""White""""]",No,Female,2423990,1266,i,learn,learn_trial,23.8209,83.2757,in,0,0
canvas-keyboard-response,505,508641,2d_cat_multi_stim_exp1,2022-04-04,12:31:42,25,75,3,9,10,40,30,120,11,19,"[""""White""""]",No,Female,2423990,741,i,learn,learn_trial,36.6667,60,out,0,1
canvas-keyboard-response,510,511210,2d_cat_multi_stim_exp1,2022-04-04,12:31:42,25,75,3,9,10,40,30,120,11,19,"[""""White""""]",No,Female,2423990,971,i,learn,learn_trial,20,110,out,0,1
canvas-keyboard-response,515,513666,2d_cat_multi_stim_exp1,2022-04-04,12:31:42,25,75,3,9,10,40,30,120,11,19,"[""""White""""]",No,Female,2423990,857,i,learn,learn_trial,10,40,out,0,1
canvas-keyboard-response,520,518506,2d_cat_multi_stim_exp1,2022-04-04,12:31:42,25,75,3,9,10,40,30,120,11,19,"[""""White""""]",No,Female,2423990,3242,i,learn,learn_trial,25,75,in,0,0
canvas-keyboard-response,525,522610,2d_cat_multi_stim_exp1,2022-04-04,12:31:42,25,75,3,9,10,40,30,120,11,19,"[""""White""""]",No,Female,2423990,2007,u,learn,learn_trial,25,75,in,1,1
canvas-keyboard-response,530,525218,2d_cat_multi_stim_exp1,2022-04-04,12:31:42,25,75,3,9,10,40,30,120,11,19,"[""""White""""]",No,Female,2423990,1009,i,learn,learn_trial,36.6667,100,out,0,1
canvas-keyboard-response,535,527649,2d_cat_multi_stim_exp1,2022-04-04,12:31:42,25,75,3,9,10,40,30,120,11,19,"[""""White""""]",No,Female,2423990,833,u,learn,learn_trial,24.8654,83.9909,in,1,1
canvas-keyboard-response,540,530042,2d_cat_multi_stim_exp1,2022-04-04,12:31:42,25,75,3,9,10,40,30,120,11,19,"[""""White""""]",No,Female,2423990,795,i,learn,learn_trial,20,40,out,0,1
canvas-keyboard-response,545,532434,2d_cat_multi_stim_exp1,2022-04-04,12:31:42,25,75,3,9,10,40,30,120,11,19,"[""""White""""]",No,Female,2423990,792,i,learn,learn_trial,16.6667,30,out,0,1
canvas-keyboard-response,550,535761,2d_cat_multi_stim_exp1,2022-04-04,12:31:42,25,75,3,9,10,40,30,120,11,19,"[""""White""""]",No,Female,2423990,1721,u,learn,learn_trial,25,75,in,1,1
canvas-keyboard-response,555,539114,2d_cat_multi_stim_exp1,2022-04-04,12:31:42,25,75,3,9,10,40,30,120,11,19,"[""""White""""]",No,Female,2423990,1750,u,learn,learn_trial,25,75,in,1,1
canvas-keyboard-response,560,541882,2d_cat_multi_stim_exp1,2022-04-04,12:31:42,25,75,3,9,10,40,30,120,11,19,"[""""White""""]",No,Female,2423990,1169,u,learn,learn_trial,25,75,in,1,1
canvas-keyboard-response,565,544362,2d_cat_multi_stim_exp1,2022-04-04,12:31:42,25,75,3,9,10,40,30,120,11,19,"[""""White""""]",No,Female,2423990,878,u,learn,learn_trial,25,75,in,1,1
canvas-keyboard-response,570,550289,2d_cat_multi_stim_exp1,2022-04-04,12:31:42,25,75,3,9,10,40,30,120,11,19,"[""""White""""]",No,Female,2423990,4329,u,learn,learn_trial,25,75,in,1,1
canvas-keyboard-response,575,552681,2d_cat_multi_stim_exp1,2022-04-04,12:31:42,25,75,3,9,10,40,30,120,11,19,"[""""White""""]",No,Female,2423990,793,i,learn,learn_trial,13.3333,110,out,0,1
canvas-keyboard-response,580,555153,2d_cat_multi_stim_exp1,2022-04-04,12:31:42,25,75,3,9,10,40,30,120,11,19,"[""""White""""]",No,Female,2423990,872,i,learn,learn_trial,20,60,out,0,1
canvas-keyboard-response,585,557881,2d_cat_multi_stim_exp1,2022-04-04,12:31:42,25,75,3,9,10,40,30,120,11,19,"[""""White""""]",No,Female,2423990,1129,u,learn,learn_trial,25,75,in,1,1
canvas-keyboard-response,590,560442,2d_cat_multi_stim_exp1,2022-04-04,12:31:42,25,75,3,9,10,40,30,120,11,19,"[""""White""""]",No,Female,2423990,961,u,learn,learn_trial,25,75,in,1,1
canvas-keyboard-response,595,564034,2d_cat_multi_stim_exp1,2022-04-04,12:31:42,25,75,3,9,10,40,30,120,11,19,"[""""White""""]",No,Female,2423990,1995,i,learn,learn_trial,33.3333,90,out,0,1
canvas-keyboard-response,600,566465,2d_cat_multi_stim_exp1,2022-04-04,12:31:42,25,75,3,9,10,40,30,120,11,19,"[""""White""""]",No,Female,2423990,825,i,learn,learn_trial,13.3333,30,out,0,1
