"success","screen_id","trial_type","trial_index","time_elapsed","internal_node_id","date","sub_n","rt","response","timeout","failed_images","failed_audio","failed_video","view_history","stim","line_lens","line_lens_order","choices","stim_names","corr_ans","give_fb","in_cat","key_choice","yn_choice","choice","correct","fb_in_cat","stim_1_in_order","stim_2_in_order","stim_3_in_order","line_length","cat_trial_type","jnds","T_psy","T_phys","C_psy","C_phys","D_psy","D_phys","corr_choice","correct_psy","stim_1","stim_2","stim_3","stim_1_psy","stim_2_psy","stim_3_psy","transfer_trial_type","trial_choice_set","difficulty_level","target_side","competitor_side","tc_correct","correct_dist_to_mean","side_correct","attr_choice","stimulus"
"true","enter-fullscreen-mode","fullscreen","0","2244","0.0-0.0","20211013","151","","","","","","","","","","","","","","","","","","","","","","","","","","","","","","","","","","","","","","","","","","","","","","","","","",""
"","enter-sub-number","survey-html-form","1","7352","0.0-1.0","20211013","151","5090","{""response"":""151""}","","","","","","","","","","","","","","","","","","","","","","","","","","","","","","","","","","","","","","","","","","","","","","","",""
"true","","preload","2","7378","0.0-2.0-0.0","20211013","151","","","false","[]","[]","[]","","","","","","","","","","","","","","","","","","","","","","","","","","","","","","","","","","","","","","","","","","","",""
"","instructions","instructions","3","284938","0.0-2.0-1.0","20211013","151","277558","","","","","","[{""page_index"":0,""viewing_time"":2008},{""page_index"":1,""viewing_time"":138246},{""page_index"":2,""viewing_time"":39448},{""page_index"":3,""viewing_time"":66544},{""page_index"":4,""viewing_time"":16184},{""page_index"":5,""viewing_time"":3520},{""page_index"":6,""viewing_time"":11608}]","","","","","","","","","","","","","","","","","","","","","","","","","","","","","","","","","","","","","","","","","","",""
"","demo-lines","draw-demo-lines","4","344958","0.0-2.0-2.0","20211013","151","","","","","","","","lines","","","","","","","","","","","","","","","","","","","","","","","","","","","","","","","","","","","","","","","","","",""
"","click-to-begin-the-experiment","instructions","5","347832","0.0-2.0-3.0","20211013","151","2874","","","","","","[{""page_index"":0,""viewing_time"":2872}]","","","","","","","","","","","","","","","","","","","","","","","","","","","","","","","","","","","","","","","","","","",""
"","learn_trial","categorize-lines","6","355798","0.0-3.0-0.0","20211013","151","5926","","","","","","","","[319.8521]","[319.8521]","[""u"",""i""]","[""""]","null","true","in","u","YES","","1","in","","","","319.8521","learning","15.52","","","","","","","","","","","","","","","","","","","","","","","",""
"","learn_trial","categorize-lines","7","359114","0.0-3.0-0.1","20211013","151","1288","","","","","","","","[288.4217]","[288.4217]","[""u"",""i""]","[""""]","null","true","in","u","YES","","1","in","","","","288.4217","learning","13.4","","","","","","","","","","","","","","","","","","","","","","","",""
"","learn_trial","categorize-lines","8","365090","0.0-3.0-0.2","20211013","151","1946","","","","","","","","[383.8815]","[383.8815]","[""u"",""i""]","[""""]","null","true","out","u","YES","","0","out","","","","383.8815","learning","19.26","","","","","","","","","","","","","","","","","","","","","","","",""
"","learn_trial","categorize-lines","9","370356","0.0-3.0-0.3","20211013","151","3234","","","","","","","","[261.0969]","[261.0969]","[""u"",""i""]","[""""]","null","true","out","i","NO","","1","out","","","","261.0969","learning","11.36","","","","","","","","","","","","","","","","","","","","","","","",""
"","learn_trial","categorize-lines","10","376050","0.0-3.0-0.4","20211013","151","1668","","","","","","","","[219.6805]","[219.6805]","[""u"",""i""]","[""""]","null","true","in","i","NO","","0","in","","","","219.6805","learning","7.82","","","","","","","","","","","","","","","","","","","","","","","",""
"","learn_trial","categorize-lines","11","385476","0.0-3.0-0.5","20211013","151","5398","","","","","","","","[425.0919]","[425.0919]","[""u"",""i""]","[""""]","null","true","out","u","YES","","0","out","","","","425.0919","learning","21.35","","","","","","","","","","","","","","","","","","","","","","","",""
"","learn_trial","categorize-lines","12","391418","0.0-3.0-0.6","20211013","151","1914","","","","","","","","[235.0957]","[235.0957]","[""u"",""i""]","[""""]","null","true","in","i","NO","","0","in","","","","235.0957","learning","9.21","","","","","","","","","","","","","","","","","","","","","","","",""
"","learn_trial","categorize-lines","13","395986","0.0-3.0-0.7","20211013","151","2540","","","","","","","","[185.4662]","[185.4662]","[""u"",""i""]","[""""]","null","true","out","i","NO","","1","out","","","","185.4662","learning","4.35","","","","","","","","","","","","","","","","","","","","","","","",""
"","learn_trial","categorize-lines","14","403228","0.0-3.0-0.8","20211013","151","3208","","","","","","","","[223.4641]","[223.4641]","[""u"",""i""]","[""""]","null","true","out","u","YES","","0","out","","","","223.4641","learning","8.17","","","","","","","","","","","","","","","","","","","","","","","",""
"","learn_trial","categorize-lines","15","411720","0.0-3.0-0.9","20211013","151","4456","","","","","","","","[213.0308]","[213.0308]","[""u"",""i""]","[""""]","null","true","in","i","NO","","0","in","","","","213.0308","learning","7.19","","","","","","","","","","","","","","","","","","","","","","","",""
"","learn_trial","categorize-lines","16","417452","0.0-3.0-0.10","20211013","151","1700","","","","","","","","[274.8213]","[274.8213]","[""u"",""i""]","[""""]","null","true","out","u","YES","","0","out","","","","274.8213","learning","12.41","","","","","","","","","","","","","","","","","","","","","","","",""
"","learn_trial","categorize-lines","17","424850","0.0-3.0-0.11","20211013","151","3370","","","","","","","","[260.5878]","[260.5878]","[""u"",""i""]","[""""]","null","true","in","i","NO","","0","in","","","","260.5878","learning","11.32","","","","","","","","","","","","","","","","","","","","","","","",""
"","learn_trial","categorize-lines","18","430522","0.0-3.0-0.12","20211013","151","1642","","","","","","","","[225.3253]","[225.3253]","[""u"",""i""]","[""""]","null","true","in","i","NO","","0","in","","","","225.3253","learning","8.34","","","","","","","","","","","","","","","","","","","","","","","",""
"","learn_trial","categorize-lines","19","435138","0.0-3.0-0.13","20211013","151","2586","","","","","","","","[271.7546]","[271.7546]","[""u"",""i""]","[""""]","null","true","in","u","YES","","1","in","","","","271.7546","learning","12.18","","","","","","","","","","","","","","","","","","","","","","","",""
"","learn_trial","categorize-lines","20","439298","0.0-3.0-0.14","20211013","151","2130","","","","","","","","[212.3044]","[212.3044]","[""u"",""i""]","[""""]","null","true","in","u","YES","","1","in","","","","212.3044","learning","7.12","","","","","","","","","","","","","","","","","","","","","","","",""
"","learn_trial","categorize-lines","21","442378","0.0-3.0-0.15","20211013","151","1046","","","","","","","","[354.5346]","[354.5346]","[""u"",""i""]","[""""]","null","true","in","u","YES","","1","in","","","","354.5346","learning","17.63","","","","","","","","","","","","","","","","","","","","","","","",""
"","learn_trial","categorize-lines","22","445266","0.0-3.0-0.16","20211013","151","858","","","","","","","","[286.1789]","[286.1789]","[""u"",""i""]","[""""]","null","true","in","u","YES","","1","in","","","","286.1789","learning","13.24","","","","","","","","","","","","","","","","","","","","","","","",""
"","learn_trial","categorize-lines","23","450506","0.0-3.0-0.17","20211013","151","1210","","","","","","","","[441.7966]","[441.7966]","[""u"",""i""]","[""""]","null","true","out","u","YES","","0","out","","","","441.7966","learning","22.14","","","","","","","","","","","","","","","","","","","","","","","",""
"","learn_trial","categorize-lines","24","454178","0.0-3.0-0.18","20211013","151","1644","","","","","","","","[303.4343]","[303.4343]","[""u"",""i""]","[""""]","null","true","in","u","YES","","1","in","","","","303.4343","learning","14.44","","","","","","","","","","","","","","","","","","","","","","","",""
"","learn_trial","categorize-lines","25","464982","0.0-3.0-0.19","20211013","151","8770","","","","","","","","[214.2817]","[214.2817]","[""u"",""i""]","[""""]","null","true","out","i","NO","","1","out","","","","214.2817","learning","7.31","","","","","","","","","","","","","","","","","","","","","","","",""
"","learn_trial","categorize-lines","26","468530","0.0-3.0-0.20","20211013","151","1520","","","","","","","","[211.2711]","[211.2711]","[""u"",""i""]","[""""]","null","true","out","i","NO","","1","out","","","","211.2711","learning","7.02","","","","","","","","","","","","","","","","","","","","","","","",""
"","learn_trial","categorize-lines","27","471826","0.0-3.0-0.21","20211013","151","1266","","","","","","","","[258.5615]","[258.5615]","[""u"",""i""]","[""""]","null","true","in","u","YES","","1","in","","","","258.5615","learning","11.16","","","","","","","","","","","","","","","","","","","","","","","",""
"","learn_trial","categorize-lines","28","474938","0.0-3.0-0.22","20211013","151","1082","","","","","","","","[269.5099]","[269.5099]","[""u"",""i""]","[""""]","null","true","in","u","YES","","1","in","","","","269.5099","learning","12.01","","","","","","","","","","","","","","","","","","","","","","","",""
"","learn_trial","categorize-lines","29","479050","0.0-3.0-0.23","20211013","151","2084","","","","","","","","[215.6451]","[215.6451]","[""u"",""i""]","[""""]","null","true","out","i","NO","","1","out","","","","215.6451","learning","7.44","","","","","","","","","","","","","","","","","","","","","","","",""
"","learn_trial","categorize-lines","30","484234","0.0-3.0-0.24","20211013","151","1156","","","","","","","","[260.715]","[260.715]","[""u"",""i""]","[""""]","null","true","in","i","NO","","0","in","","","","260.715","learning","11.33","","","","","","","","","","","","","","","","","","","","","","","",""
"","learn_trial","categorize-lines","31","487210","0.0-3.0-0.25","20211013","151","948","","","","","","","","[351.4346]","[351.4346]","[""u"",""i""]","[""""]","null","true","in","u","YES","","1","in","","","","351.4346","learning","17.45","","","","","","","","","","","","","","","","","","","","","","","",""
"","learn_trial","categorize-lines","32","493690","0.0-3.0-0.26","20211013","151","2452","","","","","","","","[238.6785]","[238.6785]","[""u"",""i""]","[""""]","null","true","out","u","YES","","0","out","","","","238.6785","learning","9.52","","","","","","","","","","","","","","","","","","","","","","","",""
"","learn_trial","categorize-lines","33","499154","0.0-3.0-0.27","20211013","151","1432","","","","","","","","[242.9078]","[242.9078]","[""u"",""i""]","[""""]","null","true","in","i","NO","","0","in","","","","242.9078","learning","9.88","","","","","","","","","","","","","","","","","","","","","","","",""
"","learn_trial","categorize-lines","34","504224","0.0-3.0-0.28","20211013","151","1040","","","","","","","","[433.4695]","[433.4695]","[""u"",""i""]","[""""]","null","true","out","u","YES","","0","out","","","","433.4695","learning","21.75","","","","","","","","","","","","","","","","","","","","","","","",""
"","learn_trial","categorize-lines","35","510168","0.0-3.0-0.29","20211013","151","1916","","","","","","","","[235.3252]","[235.3252]","[""u"",""i""]","[""""]","null","true","out","u","YES","","0","out","","","","235.3252","learning","9.23","","","","","","","","","","","","","","","","","","","","","","","",""
"","learn_trial","categorize-lines","36","513130","0.0-3.0-0.30","20211013","151","932","","","","","","","","[302.5474]","[302.5474]","[""u"",""i""]","[""""]","null","true","in","u","YES","","1","in","","","","302.5474","learning","14.38","","","","","","","","","","","","","","","","","","","","","","","",""
"","learn_trial","categorize-lines","37","516168","0.0-3.0-0.31","20211013","151","998","","","","","","","","[169.8728]","[169.8728]","[""u"",""i""]","[""""]","null","true","out","i","NO","","1","out","","","","169.8728","learning","2.55","","","","","","","","","","","","","","","","","","","","","","","",""
"","learn_trial","categorize-lines","38","519186","0.0-3.0-0.32","20211013","151","986","","","","","","","","[228.0906]","[228.0906]","[""u"",""i""]","[""""]","null","true","out","i","NO","","1","out","","","","228.0906","learning","8.59","","","","","","","","","","","","","","","","","","","","","","","",""
"","learn_trial","categorize-lines","39","522178","0.0-3.0-0.33","20211013","151","962","","","","","","","","[199.354]","[199.354]","[""u"",""i""]","[""""]","null","true","out","i","NO","","1","out","","","","199.354","learning","5.83","","","","","","","","","","","","","","","","","","","","","","","",""
"","learn_trial","categorize-lines","40","528026","0.0-3.0-0.34","20211013","151","1820","","","","","","","","[244.931]","[244.931]","[""u"",""i""]","[""""]","null","true","out","u","YES","","0","out","","","","244.931","learning","10.05","","","","","","","","","","","","","","","","","","","","","","","",""
"","learn_trial","categorize-lines","41","534754","0.0-3.0-0.35","20211013","151","2698","","","","","","","","[372.443]","[372.443]","[""u"",""i""]","[""""]","null","true","in","i","NO","","0","in","","","","372.443","learning","18.64","","","","","","","","","","","","","","","","","","","","","","","",""
"","learn_trial","categorize-lines","42","540760","0.0-3.0-0.36","20211013","151","1980","","","","","","","","[196.3614]","[196.3614]","[""u"",""i""]","[""""]","null","true","in","i","NO","","0","in","","","","196.3614","learning","5.52","","","","","","","","","","","","","","","","","","","","","","","",""
"","learn_trial","categorize-lines","43","552890","0.0-3.0-0.37","20211013","151","8102","","","","","","","","[261.6069]","[261.6069]","[""u"",""i""]","[""""]","null","true","in","i","NO","","0","in","","","","261.6069","learning","11.4","","","","","","","","","","","","","","","","","","","","","","","",""
"","learn_trial","categorize-lines","44","557848","0.0-3.0-0.38","20211013","151","932","","","","","","","","[196.2656]","[196.2656]","[""u"",""i""]","[""""]","null","true","in","i","NO","","0","in","","","","196.2656","learning","5.51","","","","","","","","","","","","","","","","","","","","","","","",""
"","learn_trial","categorize-lines","45","561616","0.0-3.0-0.39","20211013","151","1742","","","","","","","","[157.3464]","[157.3464]","[""u"",""i""]","[""""]","null","true","out","i","NO","","1","out","","","","157.3464","learning","0.98","","","","","","","","","","","","","","","","","","","","","","","",""
"","learn_trial","categorize-lines","46","565544","0.0-3.0-0.40","20211013","151","1900","","","","","","","","[395.4783]","[395.4783]","[""u"",""i""]","[""""]","null","true","out","i","NO","","1","out","","","","395.4783","learning","19.87","","","","","","","","","","","","","","","","","","","","","","","",""
"","learn_trial","categorize-lines","47","570464","0.0-3.0-0.41","20211013","151","2892","","","","","","","","[254.3077]","[254.3077]","[""u"",""i""]","[""""]","null","true","in","u","YES","","1","in","","","","254.3077","learning","10.82","","","","","","","","","","","","","","","","","","","","","","","",""
"","learn_trial","categorize-lines","48","574448","0.0-3.0-0.42","20211013","151","1956","","","","","","","","[217.0172]","[217.0172]","[""u"",""i""]","[""""]","null","true","out","i","NO","","1","out","","","","217.0172","learning","7.57","","","","","","","","","","","","","","","","","","","","","","","",""
"","learn_trial","categorize-lines","49","578968","0.0-3.0-0.43","20211013","151","2492","","","","","","","","[172.2094]","[172.2094]","[""u"",""i""]","[""""]","null","true","out","i","NO","","1","out","","","","172.2094","learning","2.83","","","","","","","","","","","","","","","","","","","","","","","",""
"","learn_trial","categorize-lines","50","583448","0.0-3.0-0.44","20211013","151","2452","","","","","","","","[281.4707]","[281.4707]","[""u"",""i""]","[""""]","null","true","in","u","YES","","1","in","","","","281.4707","learning","12.9","","","","","","","","","","","","","","","","","","","","","","","",""
"","learn_trial","categorize-lines","51","587144","0.0-3.0-0.45","20211013","151","1668","","","","","","","","[328.3911]","[328.3911]","[""u"",""i""]","[""""]","null","true","out","i","NO","","1","out","","","","328.3911","learning","16.06","","","","","","","","","","","","","","","","","","","","","","","",""
"","learn_trial","categorize-lines","52","592480","0.0-3.0-0.46","20211013","151","1310","","","","","","","","[234.4085]","[234.4085]","[""u"",""i""]","[""""]","null","true","out","u","YES","","0","out","","","","234.4085","learning","9.15","","","","","","","","","","","","","","","","","","","","","","","",""
"","learn_trial","categorize-lines","53","595824","0.0-3.0-0.47","20211013","151","1318","","","","","","","","[378.8576]","[378.8576]","[""u"",""i""]","[""""]","null","true","out","i","NO","","1","out","","","","378.8576","learning","18.99","","","","","","","","","","","","","","","","","","","","","","","",""
"","learn_trial","categorize-lines","54","611482","0.0-3.0-0.48","20211013","151","13628","","","","","","","","[235.555]","[235.555]","[""u"",""i""]","[""""]","null","true","in","u","YES","","1","in","","","","235.555","learning","9.25","","","","","","","","","","","","","","","","","","","","","","","",""
"","learn_trial","categorize-lines","55","618432","0.0-3.0-0.49","20211013","151","2918","","","","","","","","[367.7482]","[367.7482]","[""u"",""i""]","[""""]","null","true","out","u","YES","","0","out","","","","367.7482","learning","18.38","","","","","","","","","","","","","","","","","","","","","","","",""
"","learn_trial","categorize-lines","56","621362","0.0-3.0-0.50","20211013","151","900","","","","","","","","[348.1918]","[348.1918]","[""u"",""i""]","[""""]","null","true","out","i","NO","","1","out","","","","348.1918","learning","17.26","","","","","","","","","","","","","","","","","","","","","","","",""
"","learn_trial","categorize-lines","57","626560","0.0-3.0-0.51","20211013","151","1172","","","","","","","","[204.3767]","[204.3767]","[""u"",""i""]","[""""]","null","true","out","u","YES","","0","out","","","","204.3767","learning","6.34","","","","","","","","","","","","","","","","","","","","","","","",""
"","learn_trial","categorize-lines","58","629960","0.0-3.0-0.52","20211013","151","1372","","","","","","","","[160.4473]","[160.4473]","[""u"",""i""]","[""""]","null","true","out","i","NO","","1","out","","","","160.4473","learning","1.38","","","","","","","","","","","","","","","","","","","","","","","",""
"","learn_trial","categorize-lines","59","635752","0.0-3.0-0.53","20211013","151","3766","","","","","","","","[426.7543]","[426.7543]","[""u"",""i""]","[""""]","null","true","out","i","NO","","1","out","","","","426.7543","learning","21.43","","","","","","","","","","","","","","","","","","","","","","","",""
"","learn_trial","categorize-lines","60","642768","0.0-3.0-0.54","20211013","151","4988","","","","","","","","[273.0837]","[273.0837]","[""u"",""i""]","[""""]","null","true","out","i","NO","","1","out","","","","273.0837","learning","12.28","","","","","","","","","","","","","","","","","","","","","","","",""
"","learn_trial","categorize-lines","61","649010","0.0-3.0-0.55","20211013","151","4212","","","","","","","","[370.2688]","[370.2688]","[""u"",""i""]","[""""]","null","true","out","i","NO","","1","out","","","","370.2688","learning","18.52","","","","","","","","","","","","","","","","","","","","","","","",""
"","learn_trial","categorize-lines","62","652624","0.0-3.0-0.56","20211013","151","1588","","","","","","","","[440.9352]","[440.9352]","[""u"",""i""]","[""""]","null","true","out","i","NO","","1","out","","","","440.9352","learning","22.1","","","","","","","","","","","","","","","","","","","","","","","",""
"","learn_trial","categorize-lines","63","658944","0.0-3.0-0.57","20211013","151","2294","","","","","","","","[306.8586]","[306.8586]","[""u"",""i""]","[""""]","null","true","out","u","YES","","0","out","","","","306.8586","learning","14.67","","","","","","","","","","","","","","","","","","","","","","","",""
"","learn_trial","categorize-lines","64","667568","0.0-3.0-0.58","20211013","151","4596","","","","","","","","[234.2942]","[234.2942]","[""u"",""i""]","[""""]","null","true","in","i","NO","","0","in","","","","234.2942","learning","9.14","","","","","","","","","","","","","","","","","","","","","","","",""
"","learn_trial","categorize-lines","65","671160","0.0-3.0-0.59","20211013","151","1566","","","","","","","","[189.3983]","[189.3983]","[""u"",""i""]","[""""]","null","true","in","u","YES","","1","in","","","","189.3983","learning","4.78","","","","","","","","","","","","","","","","","","","","","","","",""
"","learn_trial","categorize-lines","66","680424","0.0-3.0-0.60","20211013","151","5236","","","","","","","","[304.3239]","[304.3239]","[""u"",""i""]","[""""]","null","true","in","i","NO","","0","in","","","","304.3239","learning","14.5","","","","","","","","","","","","","","","","","","","","","","","",""
"","learn_trial","categorize-lines","67","683720","0.0-3.0-0.61","20211013","151","1264","","","","","","","","[259.6994]","[259.6994]","[""u"",""i""]","[""""]","null","true","in","u","YES","","1","in","","","","259.6994","learning","11.25","","","","","","","","","","","","","","","","","","","","","","","",""
"","learn_trial","categorize-lines","68","689136","0.0-3.0-0.62","20211013","151","1386","","","","","","","","[223.5732]","[223.5732]","[""u"",""i""]","[""""]","null","true","in","i","NO","","0","in","","","","223.5732","learning","8.18","","","","","","","","","","","","","","","","","","","","","","","",""
"","learn_trial","categorize-lines","69","692536","0.0-3.0-0.63","20211013","151","1370","","","","","","","","[282.8474]","[282.8474]","[""u"",""i""]","[""""]","null","true","out","i","NO","","1","out","","","","282.8474","learning","13","","","","","","","","","","","","","","","","","","","","","","","",""
"","learn_trial","categorize-lines","70","695960","0.0-3.0-0.64","20211013","151","1396","","","","","","","","[282.5715]","[282.5715]","[""u"",""i""]","[""""]","null","true","out","i","NO","","1","out","","","","282.5715","learning","12.98","","","","","","","","","","","","","","","","","","","","","","","",""
"","learn_trial","categorize-lines","71","701408","0.0-3.0-0.65","20211013","151","1418","","","","","","","","[268.8532]","[268.8532]","[""u"",""i""]","[""""]","null","true","in","i","NO","","0","in","","","","268.8532","learning","11.96","","","","","","","","","","","","","","","","","","","","","","","",""
"","learn_trial","categorize-lines","72","704544","0.0-3.0-0.66","20211013","151","1106","","","","","","","","[262.5019]","[262.5019]","[""u"",""i""]","[""""]","null","true","in","u","YES","","1","in","","","","262.5019","learning","11.47","","","","","","","","","","","","","","","","","","","","","","","",""
"","learn_trial","categorize-lines","73","709626","0.0-3.0-0.67","20211013","151","1050","","","","","","","","[414.0384]","[414.0384]","[""u"",""i""]","[""""]","null","true","out","u","YES","","0","out","","","","414.0384","learning","20.81","","","","","","","","","","","","","","","","","","","","","","","",""
"","learn_trial","categorize-lines","74","715088","0.0-3.0-0.68","20211013","151","1434","","","","","","","","[243.0264]","[243.0264]","[""u"",""i""]","[""""]","null","true","out","u","YES","","0","out","","","","243.0264","learning","9.89","","","","","","","","","","","","","","","","","","","","","","","",""
"","learn_trial","categorize-lines","75","718336","0.0-3.0-0.69","20211013","151","1220","","","","","","","","[189.4907]","[189.4907]","[""u"",""i""]","[""""]","null","true","out","i","NO","","1","out","","","","189.4907","learning","4.79","","","","","","","","","","","","","","","","","","","","","","","",""
"","learn_trial","categorize-lines","76","721944","0.0-3.0-0.70","20211013","151","1580","","","","","","","","[300.928]","[300.928]","[""u"",""i""]","[""""]","null","true","out","i","NO","","1","out","","","","300.928","learning","14.27","","","","","","","","","","","","","","","","","","","","","","","",""
"","learn_trial","categorize-lines","77","726984","0.0-3.0-0.71","20211013","151","1012","","","","","","","","[242.9078]","[242.9078]","[""u"",""i""]","[""""]","null","true","in","i","NO","","0","in","","","","242.9078","learning","9.88","","","","","","","","","","","","","","","","","","","","","","","",""
"","learn_trial","categorize-lines","78","733032","0.0-3.0-0.72","20211013","151","2020","","","","","","","","[381.2683]","[381.2683]","[""u"",""i""]","[""""]","null","true","out","u","YES","","0","out","","","","381.2683","learning","19.12","","","","","","","","","","","","","","","","","","","","","","","",""
"","learn_trial","categorize-lines","79","739552","0.0-3.0-0.73","20211013","151","2490","","","","","","","","[251.8382]","[251.8382]","[""u"",""i""]","[""""]","null","true","in","i","NO","","0","in","","","","251.8382","learning","10.62","","","","","","","","","","","","","","","","","","","","","","","",""
"","learn_trial","categorize-lines","80","745456","0.0-3.0-0.74","20211013","151","1876","","","","","","","","[268.0673]","[268.0673]","[""u"",""i""]","[""""]","null","true","out","u","YES","","0","out","","","","268.0673","learning","11.9","","","","","","","","","","","","","","","","","","","","","","","",""
"","learn_trial","categorize-lines","81","751608","0.0-3.0-0.75","20211013","151","4124","","","","","","","","[160.7608]","[160.7608]","[""u"",""i""]","[""""]","null","true","out","i","NO","","1","out","","","","160.7608","learning","1.42","","","","","","","","","","","","","","","","","","","","","","","",""
"","learn_trial","categorize-lines","82","758448","0.0-3.0-0.76","20211013","151","2810","","","","","","","","[150.8808]","[150.8808]","[""u"",""i""]","[""""]","null","true","out","u","YES","","0","out","","","","150.8808","learning","0.12","","","","","","","","","","","","","","","","","","","","","","","",""
"","learn_trial","categorize-lines","83","763784","0.0-3.0-0.77","20211013","151","1306","","","","","","","","[242.6709]","[242.6709]","[""u"",""i""]","[""""]","null","true","in","i","NO","","0","in","","","","242.6709","learning","9.86","","","","","","","","","","","","","","","","","","","","","","","",""
"","learn_trial","categorize-lines","84","768384","0.0-3.0-0.78","20211013","151","570","","","","","","","","[354.016]","[354.016]","[""u"",""i""]","[""""]","null","true","in","i","NO","","0","in","","","","354.016","learning","17.6","","","","","","","","","","","","","","","","","","","","","","","",""
"","learn_trial","categorize-lines","85","773344","0.0-3.0-0.79","20211013","151","2932","","","","","","","","[233.8373]","[233.8373]","[""u"",""i""]","[""""]","null","true","in","u","YES","","1","in","","","","233.8373","learning","9.1","","","","","","","","","","","","","","","","","","","","","","","",""
"","learn_trial","categorize-lines","86","776876","0.0-3.0-0.80","20211013","151","1500","","","","","","","","[197.1294]","[197.1294]","[""u"",""i""]","[""""]","null","true","out","i","NO","","1","out","","","","197.1294","learning","5.6","","","","","","","","","","","","","","","","","","","","","","","",""
"","learn_trial","categorize-lines","87","780352","0.0-3.0-0.81","20211013","151","1448","","","","","","","","[206.4815]","[206.4815]","[""u"",""i""]","[""""]","null","true","out","i","NO","","1","out","","","","206.4815","learning","6.55","","","","","","","","","","","","","","","","","","","","","","","",""
"","learn_trial","categorize-lines","88","785080","0.0-3.0-0.82","20211013","151","698","","","","","","","","[186.2824]","[186.2824]","[""u"",""i""]","[""""]","null","true","in","i","NO","","0","in","","","","186.2824","learning","4.44","","","","","","","","","","","","","","","","","","","","","","","",""
"","learn_trial","categorize-lines","89","789264","0.0-3.0-0.83","20211013","151","2154","","","","","","","","[232.019]","[232.019]","[""u"",""i""]","[""""]","null","true","in","u","YES","","1","in","","","","232.019","learning","8.94","","","","","","","","","","","","","","","","","","","","","","","",""
"","learn_trial","categorize-lines","90","794928","0.0-3.0-0.84","20211013","151","1634","","","","","","","","[278.7375]","[278.7375]","[""u"",""i""]","[""""]","null","true","in","i","NO","","0","in","","","","278.7375","learning","12.7","","","","","","","","","","","","","","","","","","","","","","","",""
"","learn_trial","categorize-lines","91","800640","0.0-3.0-0.85","20211013","151","1684","","","","","","","","[257.4286]","[257.4286]","[""u"",""i""]","[""""]","null","true","out","u","YES","","0","out","","","","257.4286","learning","11.07","","","","","","","","","","","","","","","","","","","","","","","",""
"","learn_trial","categorize-lines","92","807134","0.0-3.0-0.86","20211013","151","2466","","","","","","","","[266.7626]","[266.7626]","[""u"",""i""]","[""""]","null","true","out","u","YES","","0","out","","","","266.7626","learning","11.8","","","","","","","","","","","","","","","","","","","","","","","",""
"","learn_trial","categorize-lines","93","812264","0.0-3.0-0.87","20211013","151","1100","","","","","","","","[278.0583]","[278.0583]","[""u"",""i""]","[""""]","null","true","in","i","NO","","0","in","","","","278.0583","learning","12.65","","","","","","","","","","","","","","","","","","","","","","","",""
"","learn_trial","categorize-lines","94","820230","0.0-3.0-0.88","20211013","151","3938","","","","","","","","[189.1213]","[189.1213]","[""u"",""i""]","[""""]","null","true","out","u","YES","","0","out","","","","189.1213","learning","4.75","","","","","","","","","","","","","","","","","","","","","","","",""
"","learn_trial","categorize-lines","95","823872","0.0-3.0-0.89","20211013","151","1612","","","","","","","","[173.1362]","[173.1362]","[""u"",""i""]","[""""]","null","true","out","i","NO","","1","out","","","","173.1362","learning","2.94","","","","","","","","","","","","","","","","","","","","","","","",""
"","learn_trial","categorize-lines","96","827728","0.0-3.0-0.90","20211013","151","1828","","","","","","","","[325.361]","[325.361]","[""u"",""i""]","[""""]","null","true","out","i","NO","","1","out","","","","325.361","learning","15.87","","","","","","","","","","","","","","","","","","","","","","","",""
"","learn_trial","categorize-lines","97","833320","0.0-3.0-0.91","20211013","151","1564","","","","","","","","[270.9602]","[270.9602]","[""u"",""i""]","[""""]","null","true","in","i","NO","","0","in","","","","270.9602","learning","12.12","","","","","","","","","","","","","","","","","","","","","","","",""
"","learn_trial","categorize-lines","98","838350","0.0-3.0-0.92","20211013","151","1004","","","","","","","","[205.4765]","[205.4765]","[""u"",""i""]","[""""]","null","true","in","i","NO","","0","in","","","","205.4765","learning","6.45","","","","","","","","","","","","","","","","","","","","","","","",""
"","learn_trial","categorize-lines","99","841288","0.0-3.0-0.93","20211013","151","908","","","","","","","","[246.0089]","[246.0089]","[""u"",""i""]","[""""]","null","true","in","u","YES","","1","in","","","","246.0089","learning","10.14","","","","","","","","","","","","","","","","","","","","","","","",""
"","learn_trial","categorize-lines","100","847286","0.0-3.0-0.94","20211013","151","1970","","","","","","","","[315.0507]","[315.0507]","[""u"",""i""]","[""""]","null","true","in","i","NO","","0","in","","","","315.0507","learning","15.21","","","","","","","","","","","","","","","","","","","","","","","",""
"","learn_trial","categorize-lines","101","855558","0.0-3.0-0.95","20211013","151","6244","","","","","","","","[305.9616]","[305.9616]","[""u"",""i""]","[""""]","null","true","in","u","YES","","1","in","","","","305.9616","learning","14.61","","","","","","","","","","","","","","","","","","","","","","","",""
"","learn_trial","categorize-lines","102","863654","0.0-3.0-0.96","20211013","151","6068","","","","","","","","[233.9515]","[233.9515]","[""u"",""i""]","[""""]","null","true","in","u","YES","","1","in","","","","233.9515","learning","9.11","","","","","","","","","","","","","","","","","","","","","","","",""
"","learn_trial","categorize-lines","103","875608","0.0-3.0-0.97","20211013","151","7924","","","","","","","","[179.6767]","[179.6767]","[""u"",""i""]","[""""]","null","true","out","u","YES","","0","out","","","","179.6767","learning","3.7","","","","","","","","","","","","","","","","","","","","","","","",""
"","learn_trial","categorize-lines","104","883496","0.0-3.0-0.98","20211013","151","5858","","","","","","","","[391.0651]","[391.0651]","[""u"",""i""]","[""""]","null","true","out","i","NO","","1","out","","","","391.0651","learning","19.64","","","","","","","","","","","","","","","","","","","","","","","",""
"","learn_trial","categorize-lines","105","886390","0.0-3.0-0.99","20211013","151","868","","","","","","","","[301.663]","[301.663]","[""u"",""i""]","[""""]","null","true","in","u","YES","","1","in","","","","301.663","learning","14.32","","","","","","","","","","","","","","","","","","","","","","","",""
"","learn_trial","categorize-lines","106","889038","0.0-3.0-0.100","20211013","151","622","","","","","","","","[290.1153]","[290.1153]","[""u"",""i""]","[""""]","null","true","in","u","YES","","1","in","","","","290.1153","learning","13.52","","","","","","","","","","","","","","","","","","","","","","","",""
"","learn_trial","categorize-lines","107","894136","0.0-3.0-0.101","20211013","151","1068","","","","","","","","[274.6873]","[274.6873]","[""u"",""i""]","[""""]","null","true","out","u","YES","","0","out","","","","274.6873","learning","12.4","","","","","","","","","","","","","","","","","","","","","","","",""
"","learn_trial","categorize-lines","108","900174","0.0-3.0-0.102","20211013","151","2012","","","","","","","","[259.5727]","[259.5727]","[""u"",""i""]","[""""]","null","true","in","i","NO","","0","in","","","","259.5727","learning","11.24","","","","","","","","","","","","","","","","","","","","","","","",""
"","learn_trial","categorize-lines","109","905704","0.0-3.0-0.103","20211013","151","1500","","","","","","","","[286.0393]","[286.0393]","[""u"",""i""]","[""""]","null","true","in","i","NO","","0","in","","","","286.0393","learning","13.23","","","","","","","","","","","","","","","","","","","","","","","",""
"","learn_trial","categorize-lines","110","909054","0.0-3.0-0.104","20211013","151","1324","","","","","","","","[338.1466]","[338.1466]","[""u"",""i""]","[""""]","null","true","out","i","NO","","1","out","","","","338.1466","learning","16.66","","","","","","","","","","","","","","","","","","","","","","","",""
"","learn_trial","categorize-lines","111","915782","0.0-3.0-0.105","20211013","151","2700","","","","","","","","[356.0948]","[356.0948]","[""u"",""i""]","[""""]","null","true","in","i","NO","","0","in","","","","356.0948","learning","17.72","","","","","","","","","","","","","","","","","","","","","","","",""
"","learn_trial","categorize-lines","112","920534","0.0-3.0-0.106","20211013","151","724","","","","","","","","[155.8185]","[155.8185]","[""u"",""i""]","[""""]","null","true","out","u","YES","","0","out","","","","155.8185","learning","0.78","","","","","","","","","","","","","","","","","","","","","","","",""
"","learn_trial","categorize-lines","113","926270","0.0-3.0-0.107","20211013","151","1710","","","","","","","","[258.8139]","[258.8139]","[""u"",""i""]","[""""]","null","true","in","i","NO","","0","in","","","","258.8139","learning","11.18","","","","","","","","","","","","","","","","","","","","","","","",""
"","learn_trial","categorize-lines","114","929062","0.0-3.0-0.108","20211013","151","766","","","","","","","","[308.8111]","[308.8111]","[""u"",""i""]","[""""]","null","true","in","u","YES","","1","in","","","","308.8111","learning","14.8","","","","","","","","","","","","","","","","","","","","","","","",""
"","learn_trial","categorize-lines","115","932734","0.0-3.0-0.109","20211013","151","1644","","","","","","","","[186.3733]","[186.3733]","[""u"",""i""]","[""""]","null","true","out","i","NO","","1","out","","","","186.3733","learning","4.45","","","","","","","","","","","","","","","","","","","","","","","",""
"","learn_trial","categorize-lines","116","936134","0.0-3.0-0.110","20211013","151","1372","","","","","","","","[302.2523]","[302.2523]","[""u"",""i""]","[""""]","null","true","out","i","NO","","1","out","","","","302.2523","learning","14.36","","","","","","","","","","","","","","","","","","","","","","","",""
"","learn_trial","categorize-lines","117","941338","0.0-3.0-0.111","20211013","151","1172","","","","","","","","[319.0728]","[319.0728]","[""u"",""i""]","[""""]","null","true","in","i","NO","","0","in","","","","319.0728","learning","15.47","","","","","","","","","","","","","","","","","","","","","","","",""
"","learn_trial","categorize-lines","118","947590","0.0-3.0-0.112","20211013","151","2224","","","","","","","","[275.2239]","[275.2239]","[""u"",""i""]","[""""]","null","true","in","i","NO","","0","in","","","","275.2239","learning","12.44","","","","","","","","","","","","","","","","","","","","","","","",""
"","learn_trial","categorize-lines","119","951062","0.0-3.0-0.113","20211013","151","1446","","","","","","","","[318.7615]","[318.7615]","[""u"",""i""]","[""""]","null","true","out","i","NO","","1","out","","","","318.7615","learning","15.45","","","","","","","","","","","","","","","","","","","","","","","",""
"","learn_trial","categorize-lines","120","954942","0.0-3.0-0.114","20211013","151","1854","","","","","","","","[219.1453]","[219.1453]","[""u"",""i""]","[""""]","null","true","in","u","YES","","1","in","","","","219.1453","learning","7.77","","","","","","","","","","","","","","","","","","","","","","","",""
"","learn_trial","categorize-lines","121","958238","0.0-3.0-0.115","20211013","151","1268","","","","","","","","[309.2634]","[309.2634]","[""u"",""i""]","[""""]","null","true","out","i","NO","","1","out","","","","309.2634","learning","14.83","","","","","","","","","","","","","","","","","","","","","","","",""
"","learn_trial","categorize-lines","122","966190","0.0-3.0-0.116","20211013","151","3924","","","","","","","","[255.801]","[255.801]","[""u"",""i""]","[""""]","null","true","out","u","YES","","0","out","","","","255.801","learning","10.94","","","","","","","","","","","","","","","","","","","","","","","",""
"","learn_trial","categorize-lines","123","972494","0.0-3.0-0.117","20211013","151","2278","","","","","","","","[324.5682]","[324.5682]","[""u"",""i""]","[""""]","null","true","in","i","NO","","0","in","","","","324.5682","learning","15.82","","","","","","","","","","","","","","","","","","","","","","","",""
"","learn_trial","categorize-lines","124","975442","0.0-3.0-0.118","20211013","151","916","","","","","","","","[314.8971]","[314.8971]","[""u"",""i""]","[""""]","null","true","in","u","YES","","1","in","","","","314.8971","learning","15.2","","","","","","","","","","","","","","","","","","","","","","","",""
"","learn_trial","categorize-lines","125","978894","0.0-3.0-0.119","20211013","151","1420","","","","","","","","[188.2927]","[188.2927]","[""u"",""i""]","[""""]","null","true","out","i","NO","","1","out","","","","188.2927","learning","4.66","","","","","","","","","","","","","","","","","","","","","","","",""
"","learn_trial","categorize-lines","126","986750","0.0-3.0-0.120","20211013","151","3826","","","","","","","","[217.0172]","[217.0172]","[""u"",""i""]","[""""]","null","true","out","u","YES","","0","out","","","","217.0172","learning","7.57","","","","","","","","","","","","","","","","","","","","","","","",""
"","learn_trial","categorize-lines","127","990614","0.0-3.0-0.121","20211013","151","1836","","","","","","","","[179.0641]","[179.0641]","[""u"",""i""]","[""""]","null","true","in","u","YES","","1","in","","","","179.0641","learning","3.63","","","","","","","","","","","","","","","","","","","","","","","",""
"","learn_trial","categorize-lines","128","995382","0.0-3.0-0.122","20211013","151","2738","","","","","","","","[356.0948]","[356.0948]","[""u"",""i""]","[""""]","null","true","in","u","YES","","1","in","","","","356.0948","learning","17.72","","","","","","","","","","","","","","","","","","","","","","","",""
"","learn_trial","categorize-lines","129","1000550","0.0-3.0-0.123","20211013","151","1140","","","","","","","","[286.8779]","[286.8779]","[""u"",""i""]","[""""]","null","true","in","i","NO","","0","in","","","","286.8779","learning","13.29","","","","","","","","","","","","","","","","","","","","","","","",""
"","learn_trial","categorize-lines","130","1003726","0.0-3.0-0.124","20211013","151","1146","","","","","","","","[259.5727]","[259.5727]","[""u"",""i""]","[""""]","null","true","in","u","YES","","1","in","","","","259.5727","learning","11.24","","","","","","","","","","","","","","","","","","","","","","","",""
"","learn_trial","categorize-lines","131","1006510","0.0-3.0-0.125","20211013","151","756","","","","","","","","[294.3929]","[294.3929]","[""u"",""i""]","[""""]","null","true","in","u","YES","","1","in","","","","294.3929","learning","13.82","","","","","","","","","","","","","","","","","","","","","","","",""
"","learn_trial","categorize-lines","132","1011894","0.0-3.0-0.126","20211013","151","1354","","","","","","","","[292.6743]","[292.6743]","[""u"",""i""]","[""""]","null","true","out","u","YES","","0","out","","","","292.6743","learning","13.7","","","","","","","","","","","","","","","","","","","","","","","",""
"","learn_trial","categorize-lines","133","1015230","0.0-3.0-0.127","20211013","151","1306","","","","","","","","[304.621]","[304.621]","[""u"",""i""]","[""""]","null","true","out","i","NO","","1","out","","","","304.621","learning","14.52","","","","","","","","","","","","","","","","","","","","","","","",""
"","learn_trial","categorize-lines","134","1024262","0.0-3.0-0.128","20211013","151","5004","","","","","","","","[197.4181]","[197.4181]","[""u"",""i""]","[""""]","null","true","in","i","NO","","0","in","","","","197.4181","learning","5.63","","","","","","","","","","","","","","","","","","","","","","","",""
"","learn_trial","categorize-lines","135","1028230","0.0-3.0-0.129","20211013","151","1940","","","","","","","","[242.5526]","[242.5526]","[""u"",""i""]","[""""]","null","true","in","u","YES","","1","in","","","","242.5526","learning","9.85","","","","","","","","","","","","","","","","","","","","","","","",""
"","learn_trial","categorize-lines","136","1033318","0.0-3.0-0.130","20211013","151","1058","","","","","","","","[224.886]","[224.886]","[""u"",""i""]","[""""]","null","true","in","i","NO","","0","in","","","","224.886","learning","8.3","","","","","","","","","","","","","","","","","","","","","","","",""
"","learn_trial","categorize-lines","137","1039406","0.0-3.0-0.131","20211013","151","2060","","","","","","","","[351.2632]","[351.2632]","[""u"",""i""]","[""""]","null","true","out","u","YES","","0","out","","","","351.2632","learning","17.44","","","","","","","","","","","","","","","","","","","","","","","",""
"","learn_trial","categorize-lines","138","1047376","0.0-3.0-0.132","20211013","151","3934","","","","","","","","[237.6328]","[237.6328]","[""u"",""i""]","[""""]","null","true","in","i","NO","","0","in","","","","237.6328","learning","9.43","","","","","","","","","","","","","","","","","","","","","","","",""
"","learn_trial","categorize-lines","139","1050470","0.0-3.0-0.133","20211013","151","1062","","","","","","","","[269.773]","[269.773]","[""u"",""i""]","[""""]","null","true","in","u","YES","","1","in","","","","269.773","learning","12.03","","","","","","","","","","","","","","","","","","","","","","","",""
"","learn_trial","categorize-lines","140","1055174","0.0-3.0-0.134","20211013","151","672","","","","","","","","[162.972]","[162.972]","[""u"",""i""]","[""""]","null","true","out","u","YES","","0","out","","","","162.972","learning","1.7","","","","","","","","","","","","","","","","","","","","","","","",""
"","learn_trial","categorize-lines","141","1059886","0.0-3.0-0.135","20211013","151","682","","","","","","","","[397.6065]","[397.6065]","[""u"",""i""]","[""""]","null","true","in","i","NO","","0","in","","","","397.6065","learning","19.98","","","","","","","","","","","","","","","","","","","","","","","",""
"","learn_trial","categorize-lines","142","1063014","0.0-3.0-0.136","20211013","151","1098","","","","","","","","[389.5417]","[389.5417]","[""u"",""i""]","[""""]","null","true","in","u","YES","","1","in","","","","389.5417","learning","19.56","","","","","","","","","","","","","","","","","","","","","","","",""
"","learn_trial","categorize-lines","143","1070566","0.0-3.0-0.137","20211013","151","3522","","","","","","","","[280.511]","[280.511]","[""u"",""i""]","[""""]","null","true","in","i","NO","","0","in","","","","280.511","learning","12.83","","","","","","","","","","","","","","","","","","","","","","","",""
"","learn_trial","categorize-lines","144","1075638","0.0-3.0-0.138","20211013","151","1044","","","","","","","","[414.4426]","[414.4426]","[""u"",""i""]","[""""]","null","true","out","u","YES","","0","out","","","","414.4426","learning","20.83","","","","","","","","","","","","","","","","","","","","","","","",""
"","learn_trial","categorize-lines","145","1085774","0.0-3.0-0.139","20211013","151","6108","","","","","","","","[170.5372]","[170.5372]","[""u"",""i""]","[""""]","null","true","in","i","NO","","0","in","","","","170.5372","learning","2.63","","","","","","","","","","","","","","","","","","","","","","","",""
"","learn_trial","categorize-lines","146","1090230","0.0-3.0-0.140","20211013","151","428","","","","","","","","[335.8447]","[335.8447]","[""u"",""i""]","[""""]","null","true","out","u","YES","","0","out","","","","335.8447","learning","16.52","","","","","","","","","","","","","","","","","","","","","","","",""
"","learn_trial","categorize-lines","147","1096608","0.0-3.0-0.141","20211013","151","2348","","","","","","","","[346.6662]","[346.6662]","[""u"",""i""]","[""""]","null","true","in","i","NO","","0","in","","","","346.6662","learning","17.17","","","","","","","","","","","","","","","","","","","","","","","",""
"","learn_trial","categorize-lines","148","1101454","0.0-3.0-0.142","20211013","151","814","","","","","","","","[302.3998]","[302.3998]","[""u"",""i""]","[""""]","null","true","out","u","YES","","0","out","","","","302.3998","learning","14.37","","","","","","","","","","","","","","","","","","","","","","","",""
"","learn_trial","categorize-lines","149","1105876","0.0-3.0-0.143","20211013","151","392","","","","","","","","[226.0962]","[226.0962]","[""u"",""i""]","[""""]","null","true","in","i","NO","","0","in","","","","226.0962","learning","8.41","","","","","","","","","","","","","","","","","","","","","","","",""
"","learn_trial","categorize-lines","150","1110316","0.0-3.0-0.144","20211013","151","414","","","","","","","","[431.9916]","[431.9916]","[""u"",""i""]","[""""]","null","true","out","u","YES","","0","out","","","","431.9916","learning","21.68","","","","","","","","","","","","","","","","","","","","","","","",""
"","learn_trial","categorize-lines","151","1114718","0.0-3.0-0.145","20211013","151","374","","","","","","","","[338.8071]","[338.8071]","[""u"",""i""]","[""""]","null","true","out","u","YES","","0","out","","","","338.8071","learning","16.7","","","","","","","","","","","","","","","","","","","","","","","",""
"","learn_trial","categorize-lines","152","1117564","0.0-3.0-0.146","20211013","151","820","","","","","","","","[367.2103]","[367.2103]","[""u"",""i""]","[""""]","null","true","out","i","NO","","1","out","","","","367.2103","learning","18.35","","","","","","","","","","","","","","","","","","","","","","","",""
"","learn_trial","categorize-lines","153","1120854","0.0-3.0-0.147","20211013","151","1260","","","","","","","","[228.6477]","[228.6477]","[""u"",""i""]","[""""]","null","true","in","u","YES","","1","in","","","","228.6477","learning","8.64","","","","","","","","","","","","","","","","","","","","","","","",""
"","learn_trial","categorize-lines","154","1123878","0.0-3.0-0.148","20211013","151","994","","","","","","","","[176.8932]","[176.8932]","[""u"",""i""]","[""""]","null","true","out","i","NO","","1","out","","","","176.8932","learning","3.38","","","","","","","","","","","","","","","","","","","","","","","",""
"","learn_trial","categorize-lines","155","1129750","0.0-3.0-0.149","20211013","151","1842","","","","","","","","[316.5916]","[316.5916]","[""u"",""i""]","[""""]","null","true","out","u","YES","","0","out","","","","316.5916","learning","15.31","","","","","","","","","","","","","","","","","","","","","","","",""
"","learn_trial","categorize-lines","156","1132164","0.0-3.0-0.150","20211013","151","388","","","","","","","","[240.0801]","[240.0801]","[""u"",""i""]","[""""]","null","true","out","i","NO","","1","out","","","","240.0801","learning","9.64","","","","","","","","","","","","","","","","","","","","","","","",""
"","learn_trial","categorize-lines","157","1136854","0.0-3.0-0.151","20211013","151","660","","","","","","","","[272.5513]","[272.5513]","[""u"",""i""]","[""""]","null","true","out","u","YES","","0","out","","","","272.5513","learning","12.24","","","","","","","","","","","","","","","","","","","","","","","",""
"","learn_trial","categorize-lines","158","1141172","0.0-3.0-0.152","20211013","151","292","","","","","","","","[297.2797]","[297.2797]","[""u"",""i""]","[""""]","null","true","in","i","NO","","0","in","","","","297.2797","learning","14.02","","","","","","","","","","","","","","","","","","","","","","","",""
"","learn_trial","categorize-lines","159","1145836","0.0-3.0-0.153","20211013","151","638","","","","","","","","[315.3583]","[315.3583]","[""u"",""i""]","[""""]","null","true","out","u","YES","","0","out","","","","315.3583","learning","15.23","","","","","","","","","","","","","","","","","","","","","","","",""
"","learn_trial","categorize-lines","160","1150950","0.0-3.0-0.154","20211013","151","1084","","","","","","","","[215.1197]","[215.1197]","[""u"",""i""]","[""""]","null","true","in","i","NO","","0","in","","","","215.1197","learning","7.39","","","","","","","","","","","","","","","","","","","","","","","",""
"","learn_trial","categorize-lines","161","1154052","0.0-3.0-0.155","20211013","151","1074","","","","","","","","[245.4095]","[245.4095]","[""u"",""i""]","[""""]","null","true","in","u","YES","","1","in","","","","245.4095","learning","10.09","","","","","","","","","","","","","","","","","","","","","","","",""
"","learn_trial","categorize-lines","162","1161212","0.0-3.0-0.156","20211013","151","3132","","","","","","","","[306.8586]","[306.8586]","[""u"",""i""]","[""""]","null","true","in","i","NO","","0","in","","","","306.8586","learning","14.67","","","","","","","","","","","","","","","","","","","","","","","",""
"","learn_trial","categorize-lines","163","1163810","0.0-3.0-0.157","20211013","151","564","","","","","","","","[289.5496]","[289.5496]","[""u"",""i""]","[""""]","null","true","in","u","YES","","1","in","","","","289.5496","learning","13.48","","","","","","","","","","","","","","","","","","","","","","","",""
"","learn_trial","categorize-lines","164","1169036","0.0-3.0-0.158","20211013","151","1198","","","","","","","","[241.7256]","[241.7256]","[""u"",""i""]","[""""]","null","true","in","i","NO","","0","in","","","","241.7256","learning","9.78","","","","","","","","","","","","","","","","","","","","","","","",""
"","learn_trial","categorize-lines","165","1171516","0.0-3.0-0.159","20211013","151","452","","","","","","","","[292.2463]","[292.2463]","[""u"",""i""]","[""""]","null","true","in","u","YES","","1","in","","","","292.2463","learning","13.67","","","","","","","","","","","","","","","","","","","","","","","",""
"","learn_trial","categorize-lines","166","1176164","0.0-3.0-0.160","20211013","151","2620","","","","","","","","[327.7509]","[327.7509]","[""u"",""i""]","[""""]","null","true","in","u","YES","","1","in","","","","327.7509","learning","16.02","","","","","","","","","","","","","","","","","","","","","","","",""
"","learn_trial","categorize-lines","167","1180676","0.0-3.0-0.161","20211013","151","484","","","","","","","","[256.4258]","[256.4258]","[""u"",""i""]","[""""]","null","true","out","u","YES","","0","out","","","","256.4258","learning","10.99","","","","","","","","","","","","","","","","","","","","","","","",""
"","learn_trial","categorize-lines","168","1183084","0.0-3.0-0.162","20211013","151","380","","","","","","","","[204.8759]","[204.8759]","[""u"",""i""]","[""""]","null","true","out","i","NO","","1","out","","","","204.8759","learning","6.39","","","","","","","","","","","","","","","","","","","","","","","",""
"","learn_trial","categorize-lines","169","1191012","0.0-3.0-0.163","20211013","151","3900","","","","","","","","[284.5082]","[284.5082]","[""u"",""i""]","[""""]","null","true","out","u","YES","","0","out","","","","284.5082","learning","13.12","","","","","","","","","","","","","","","","","","","","","","","",""
"","learn_trial","categorize-lines","170","1193660","0.0-3.0-0.164","20211013","151","620","","","","","","","","[340.7966]","[340.7966]","[""u"",""i""]","[""""]","null","true","out","i","NO","","1","out","","","","340.7966","learning","16.82","","","","","","","","","","","","","","","","","","","","","","","",""
"","learn_trial","categorize-lines","171","1196918","0.0-3.0-0.165","20211013","151","1228","","","","","","","","[433.4695]","[433.4695]","[""u"",""i""]","[""""]","null","true","out","i","NO","","1","out","","","","433.4695","learning","21.75","","","","","","","","","","","","","","","","","","","","","","","",""
"","learn_trial","categorize-lines","172","1200076","0.0-3.0-0.166","20211013","151","1130","","","","","","","","[160.2908]","[160.2908]","[""u"",""i""]","[""""]","null","true","out","i","NO","","1","out","","","","160.2908","learning","1.36","","","","","","","","","","","","","","","","","","","","","","","",""
"","learn_trial","categorize-lines","173","1203300","0.0-3.0-0.167","20211013","151","1194","","","","","","","","[260.715]","[260.715]","[""u"",""i""]","[""""]","null","true","in","u","YES","","1","in","","","","260.715","learning","11.33","","","","","","","","","","","","","","","","","","","","","","","",""
"","learn_trial","categorize-lines","174","1210300","0.0-3.0-0.168","20211013","151","4974","","","","","","","","[235.4401]","[235.4401]","[""u"",""i""]","[""""]","null","true","in","u","YES","","1","in","","","","235.4401","learning","9.24","","","","","","","","","","","","","","","","","","","","","","","",""
"","learn_trial","categorize-lines","175","1216604","0.0-3.0-0.169","20211013","151","2276","","","","","","","","[316.4372]","[316.4372]","[""u"",""i""]","[""""]","null","true","in","i","NO","","0","in","","","","316.4372","learning","15.3","","","","","","","","","","","","","","","","","","","","","","","",""
"","learn_trial","categorize-lines","176","1219564","0.0-3.0-0.170","20211013","151","932","","","","","","","","[248.5424]","[248.5424]","[""u"",""i""]","[""""]","null","true","in","u","YES","","1","in","","","","248.5424","learning","10.35","","","","","","","","","","","","","","","","","","","","","","","",""
"","learn_trial","categorize-lines","177","1227438","0.0-3.0-0.171","20211013","151","3844","","","","","","","","[231.4537]","[231.4537]","[""u"",""i""]","[""""]","null","true","in","i","NO","","0","in","","","","231.4537","learning","8.89","","","","","","","","","","","","","","","","","","","","","","","",""
"","learn_trial","categorize-lines","178","1230590","0.0-3.0-0.172","20211013","151","1118","","","","","","","","[157.5]","[157.5]","[""u"",""i""]","[""""]","null","true","out","i","NO","","1","out","","","","157.5","learning","1","","","","","","","","","","","","","","","","","","","","","","","",""
"","learn_trial","categorize-lines","179","1234102","0.0-3.0-0.173","20211013","151","1480","","","","","","","","[223.5732]","[223.5732]","[""u"",""i""]","[""""]","null","true","in","u","YES","","1","in","","","","223.5732","learning","8.18","","","","","","","","","","","","","","","","","","","","","","","",""
"","learn_trial","categorize-lines","180","1240214","0.0-3.0-0.174","20211013","151","2082","","","","","","","","[264.3011]","[264.3011]","[""u"",""i""]","[""""]","null","true","in","i","NO","","0","in","","","","264.3011","learning","11.61","","","","","","","","","","","","","","","","","","","","","","","",""
"","learn_trial","categorize-lines","181","1243748","0.0-3.0-0.175","20211013","151","1506","","","","","","","","[170.787]","[170.787]","[""u"",""i""]","[""""]","null","true","out","i","NO","","1","out","","","","170.787","learning","2.66","","","","","","","","","","","","","","","","","","","","","","","",""
"","learn_trial","categorize-lines","182","1250254","0.0-3.0-0.176","20211013","151","2476","","","","","","","","[287.8593]","[287.8593]","[""u"",""i""]","[""""]","null","true","in","i","NO","","0","in","","","","287.8593","learning","13.36","","","","","","","","","","","","","","","","","","","","","","","",""
"","learn_trial","categorize-lines","183","1255164","0.0-3.0-0.177","20211013","151","882","","","","","","","","[226.3169]","[226.3169]","[""u"",""i""]","[""""]","null","true","out","u","YES","","0","out","","","","226.3169","learning","8.43","","","","","","","","","","","","","","","","","","","","","","","",""
"","learn_trial","categorize-lines","184","1257580","0.0-3.0-0.178","20211013","151","388","","","","","","","","[158.6569]","[158.6569]","[""u"",""i""]","[""""]","null","true","out","i","NO","","1","out","","","","158.6569","learning","1.15","","","","","","","","","","","","","","","","","","","","","","","",""
"","learn_trial","categorize-lines","185","1262900","0.0-3.0-0.179","20211013","151","1294","","","","","","","","[243.7389]","[243.7389]","[""u"",""i""]","[""""]","null","true","in","i","NO","","0","in","","","","243.7389","learning","9.95","","","","","","","","","","","","","","","","","","","","","","","",""
"","learn_trial","categorize-lines","186","1266212","0.0-3.0-0.180","20211013","151","1284","","","","","","","","[228.4247]","[228.4247]","[""u"",""i""]","[""""]","null","true","out","i","NO","","1","out","","","","228.4247","learning","8.62","","","","","","","","","","","","","","","","","","","","","","","",""
"","learn_trial","categorize-lines","187","1270550","0.0-3.0-0.181","20211013","151","2310","","","","","","","","[249.3927]","[249.3927]","[""u"",""i""]","[""""]","null","true","out","i","NO","","1","out","","","","249.3927","learning","10.42","","","","","","","","","","","","","","","","","","","","","","","",""
"","learn_trial","categorize-lines","188","1275844","0.0-3.0-0.182","20211013","151","3262","","","","","","","","[214.9099]","[214.9099]","[""u"",""i""]","[""""]","null","true","out","i","NO","","1","out","","","","214.9099","learning","7.37","","","","","","","","","","","","","","","","","","","","","","","",""
"","learn_trial","categorize-lines","189","1282100","0.0-3.0-0.183","20211013","151","4224","","","","","","","","[153.0308]","[153.0308]","[""u"",""i""]","[""""]","null","true","out","i","NO","","1","out","","","","153.0308","learning","0.41","","","","","","","","","","","","","","","","","","","","","","","",""
"","learn_trial","categorize-lines","190","1285364","0.0-3.0-0.184","20211013","151","1236","","","","","","","","[427.3794]","[427.3794]","[""u"",""i""]","[""""]","null","true","out","i","NO","","1","out","","","","427.3794","learning","21.46","","","","","","","","","","","","","","","","","","","","","","","",""
"","learn_trial","categorize-lines","191","1290684","0.0-3.0-0.185","20211013","151","3294","","","","","","","","[215.1197]","[215.1197]","[""u"",""i""]","[""""]","null","true","in","u","YES","","1","in","","","","215.1197","learning","7.39","","","","","","","","","","","","","","","","","","","","","","","",""
"","learn_trial","categorize-lines","192","1294060","0.0-3.0-0.186","20211013","151","1348","","","","","","","","[177.9319]","[177.9319]","[""u"",""i""]","[""""]","null","true","out","i","NO","","1","out","","","","177.9319","learning","3.5","","","","","","","","","","","","","","","","","","","","","","","",""
"","learn_trial","categorize-lines","193","1299084","0.0-3.0-0.187","20211013","151","2994","","","","","","","","[183.2177]","[183.2177]","[""u"",""i""]","[""""]","null","true","out","i","NO","","1","out","","","","183.2177","learning","4.1","","","","","","","","","","","","","","","","","","","","","","","",""
"","learn_trial","categorize-lines","194","1305252","0.0-3.0-0.188","20211013","151","2140","","","","","","","","[241.019]","[241.019]","[""u"",""i""]","[""""]","null","true","in","i","NO","","0","in","","","","241.019","learning","9.72","","","","","","","","","","","","","","","","","","","","","","","",""
"","learn_trial","categorize-lines","195","1308564","0.0-3.0-0.189","20211013","151","1284","","","","","","","","[196.841]","[196.841]","[""u"",""i""]","[""""]","null","true","out","i","NO","","1","out","","","","196.841","learning","5.57","","","","","","","","","","","","","","","","","","","","","","","",""
"","learn_trial","categorize-lines","196","1315532","0.0-3.0-0.190","20211013","151","2938","","","","","","","","[193.6971]","[193.6971]","[""u"",""i""]","[""""]","null","true","in","i","NO","","0","in","","","","193.6971","learning","5.24","","","","","","","","","","","","","","","","","","","","","","","",""
"","learn_trial","categorize-lines","197","1320444","0.0-3.0-0.191","20211013","151","884","","","","","","","","[219.6805]","[219.6805]","[""u"",""i""]","[""""]","null","true","in","i","NO","","0","in","","","","219.6805","learning","7.82","","","","","","","","","","","","","","","","","","","","","","","",""
"","learn_trial","categorize-lines","198","1323012","0.0-3.0-0.192","20211013","151","540","","","","","","","","[204.9759]","[204.9759]","[""u"",""i""]","[""""]","null","true","in","u","YES","","1","in","","","","204.9759","learning","6.4","","","","","","","","","","","","","","","","","","","","","","","",""
"","learn_trial","categorize-lines","199","1327172","0.0-3.0-0.193","20211013","151","2132","","","","","","","","[402.0934]","[402.0934]","[""u"",""i""]","[""""]","null","true","out","i","NO","","1","out","","","","402.0934","learning","20.21","","","","","","","","","","","","","","","","","","","","","","","",""
"","learn_trial","categorize-lines","200","1334164","0.0-3.0-0.194","20211013","151","2962","","","","","","","","[343.8027]","[343.8027]","[""u"",""i""]","[""""]","null","true","out","u","YES","","0","out","","","","343.8027","learning","17","","","","","","","","","","","","","","","","","","","","","","","",""
"","learn_trial","categorize-lines","201","1338780","0.0-3.0-0.195","20211013","151","586","","","","","","","","[198.8682]","[198.8682]","[""u"",""i""]","[""""]","null","true","in","i","NO","","0","in","","","","198.8682","learning","5.78","","","","","","","","","","","","","","","","","","","","","","","",""
"","learn_trial","categorize-lines","202","1345196","0.0-3.0-0.196","20211013","151","2388","","","","","","","","[219.1453]","[219.1453]","[""u"",""i""]","[""""]","null","true","in","i","NO","","0","in","","","","219.1453","learning","7.77","","","","","","","","","","","","","","","","","","","","","","","",""
"","learn_trial","categorize-lines","203","1348352","0.0-3.0-0.197","20211013","151","1124","","","","","","","","[380.8964]","[380.8964]","[""u"",""i""]","[""""]","null","true","out","i","NO","","1","out","","","","380.8964","learning","19.1","","","","","","","","","","","","","","","","","","","","","","","",""
"","learn_trial","categorize-lines","204","1351364","0.0-3.0-0.198","20211013","151","982","","","","","","","","[188.2927]","[188.2927]","[""u"",""i""]","[""""]","null","true","out","i","NO","","1","out","","","","188.2927","learning","4.66","","","","","","","","","","","","","","","","","","","","","","","",""
"","learn_trial","categorize-lines","205","1354282","0.0-3.0-0.199","20211013","151","890","","","","","","","","[352.1211]","[352.1211]","[""u"",""i""]","[""""]","null","true","out","i","NO","","1","out","","","","352.1211","learning","17.49","","","","","","","","","","","","","","","","","","","","","","","",""
"","transfer_instructions","instructions","206","1398682","0.0-4.0-0.0","20211013","151","44398","","","","","","[{""page_index"":0,""viewing_time"":29446},{""page_index"":1,""viewing_time"":14952}]","","","","","","","","","","","","","","","","","","","","","","","","","","","","","","","","","","","","","","","","","","",""
"","transfer_trial","categorize-lines","207","1405030","0.0-5.0-0.0","20211013","151","5274","","","","","","","","[272.6843,235.555,213.6553]","[235.555,272.6843,213.6553]","[""j"",""k"",""l""]","[""J"",""K"",""L""]","272.6843","false","null","k","","272.6843","1","null","272.6843","213.6553","","","transfer","","9.25","235.555","12.25","272.6843","7.25","213.6553","272.6843","12.25","272.6843","235.555","213.6553","12.25","9.25","7.25","attraction","trinary","difficult","left","right","competitor","1","right","competitor",""
"","transfer_trial","categorize-lines","208","1410110","0.0-5.0-0.1","20211013","151","4008","","","","","","","","[247.3327,286.3185,315.6662]","[286.3185,315.6662,247.3327]","[""j"",""k"",""l""]","[""J"",""K"",""L""]","247.3327","false","null","j","","286.3185","0","null","315.6662","247.3327","","","transfer","","13.25","286.3185","10.25","247.3327","15.25","315.6662","247.3327","10.25","247.3327","286.3185","315.6662","10.25","13.25","15.25","attraction","trinary","difficult","right","left","competitor","1","left","target",""
"","transfer_trial","categorize-lines","209","1417582","0.0-5.0-0.2","20211013","151","6392","","","","","","","","[238.2482,245.7076]","[245.7076,238.2482]","[""j"",""k""]","[""J"",""K""]","238.2482","false","null","k","","238.2482","1","null","238.2482","","","","transfer","","","","","","","","238.2482","9.483","238.2482","245.7076","0","9.483","10.1149","0","filler","binary","","","","","1.767","left","NA",""
"","transfer_trial","categorize-lines","210","1421134","0.0-5.0-0.3","20211013","151","2478","","","","","","","","[247.3327,300.6345,331.4495]","[300.6345,331.4495,247.3327]","[""j"",""k"",""l""]","[""J"",""K"",""L""]","247.3327","false","null","j","","300.6345","0","null","331.4495","247.3327","","","transfer","","14.25","300.6345","10.25","247.3327","16.25","331.4495","247.3327","10.25","247.3327","300.6345","331.4495","10.25","14.25","16.25","attraction","trinary","easy","right","left","competitor","1","left","target",""
"","transfer_trial","categorize-lines","211","1425822","0.0-5.0-0.4","20211013","151","3614","","","","","","","","[272.6843,224.3381]","[272.6843,224.3381]","[""j"",""k""]","[""J"",""K""]","272.6843","false","null","j","","272.6843","1","null","224.3381","","","","transfer","","12.25","272.6843","8.25","224.3381","","","272.6843","12.25","272.6843","224.3381","0","12.25","8.25","0","attraction","binary","easy","right","left","target","1","right","target",""
"","transfer_trial","categorize-lines","212","1429878","0.0-5.0-0.5","20211013","151","2982","","","","","","","","[239.0713,448.3953,269.3784]","[239.0713,269.3784,448.3953]","[""j"",""k"",""l""]","[""J"",""K"",""L""]","239.0713","false","null","l","","448.3953","0","null","269.3784","448.3953","","","transfer","","","","","","","","239.0713","9.5537","239.0713","448.3953","269.3784","9.5537","22.4439","12","filler","trinary","","","","","1.6963","left","NA",""
"","transfer_trial","categorize-lines","213","1433556","0.0-5.0-0.6","20211013","151","2610","","","","","","","","[282.4293,184.8867,211.0651]","[184.8867,211.0651,282.4293]","[""j"",""k"",""l""]","[""J"",""K"",""L""]","282.4293","false","null","j","","184.8867","0","null","211.0651","282.4293","","","transfer","","","","","","","","282.4293","12.9697","282.4293","184.8867","211.0651","12.9697","4.2859","7","filler","trinary","","","","","1.7197","right","NA",""
"","transfer_trial","categorize-lines","214","1437908","0.0-5.0-0.7","20211013","151","3282","","","","","","","","[247.3327,300.6345]","[247.3327,300.6345]","[""j"",""k""]","[""J"",""K""]","247.3327","false","null","j","","247.3327","1","null","300.6345","","","","transfer","","10.25","247.3327","14.25","300.6345","","","247.3327","10.25","247.3327","300.6345","0","10.25","14.25","0","attraction","binary","easy","left","right","target","1","left","target",""
"","transfer_trial","categorize-lines","215","1440884","0.0-5.0-0.8","20211013","151","1904","","","","","","","","[247.3327,286.3185,224.3381]","[224.3381,247.3327,286.3185]","[""j"",""k"",""l""]","[""J"",""K"",""L""]","247.3327","false","null","j","","224.3381","0","null","247.3327","286.3185","","","transfer","","10.25","247.3327","13.25","286.3185","8.25","224.3381","247.3327","10.25","247.3327","286.3185","224.3381","10.25","13.25","8.25","attraction","trinary","difficult","left","right","target","1","left","decoy",""
"","transfer_trial","categorize-lines","216","1443604","0.0-5.0-0.9","20211013","151","1648","","","","","","","","[272.6843,235.555]","[272.6843,235.555]","[""j"",""k""]","[""J"",""K""]","272.6843","false","null","k","","235.555","0","null","235.555","","","","transfer","","9.25","235.555","12.25","272.6843","","","272.6843","12.25","272.6843","235.555","0","12.25","9.25","0","attraction","binary","difficult","left","right","competitor","1","right","target",""
"","transfer_trial","categorize-lines","217","1445764","0.0-5.0-0.10","20211013","151","1086","","","","","","","","[227.6639,153.6208,379.0425]","[227.6639,379.0425,153.6208]","[""j"",""k"",""l""]","[""J"",""K"",""L""]","227.6639","false","null","j","","227.6639","1","null","379.0425","153.6208","","","transfer","","","","","","","","227.6639","8.5516","227.6639","153.6208","379.0425","8.5516","0.4889","19","filler","trinary","","","","","2.6984","left","NA",""
"","transfer_trial","categorize-lines","218","1447752","0.0-5.0-0.11","20211013","151","912","","","","","","","","[235.555,286.3185,315.6662]","[286.3185,235.555,315.6662]","[""j"",""k"",""l""]","[""J"",""K"",""L""]","null","false","null","k","","235.555","0","null","235.555","315.6662","","","transfer","","13.25","286.3185","9.25","235.555","15.25","315.6662","","","235.555","286.3185","315.6662","9.25","13.25","15.25","attraction","trinary","equal_chance_2_JND","right","left","both","2","equal","competitor",""
"","transfer_trial","categorize-lines","219","1450020","0.0-5.0-0.12","20211013","151","1192","","","","","","","","[235.555,286.3185,315.6662]","[286.3185,315.6662,235.555]","[""j"",""k"",""l""]","[""J"",""K"",""L""]","null","false","null","k","","315.6662","0","null","315.6662","235.555","","","transfer","","13.25","286.3185","9.25","235.555","15.25","315.6662","","","235.555","286.3185","315.6662","9.25","13.25","15.25","attraction","trinary","equal_chance_2_JND","right","left","both","2","equal","decoy",""
"","transfer_trial","categorize-lines","220","1451980","0.0-5.0-0.13","20211013","151","888","","","","","","","","[235.555,286.3185]","[286.3185,235.555]","[""j"",""k""]","[""J"",""K""]","null","false","null","j","","286.3185","0","null","235.555","","","","transfer","","9.25","235.555","13.25","286.3185","","","","","235.555","286.3185","0","9.25","13.25","0","attraction","binary","equal_chance_2_JND","left","right","both","2","equal","competitor",""
"","transfer_trial","categorize-lines","221","1454148","0.0-5.0-0.14","20211013","151","1096","","","","","","","","[289.2816,392.1136]","[392.1136,289.2816]","[""j"",""k""]","[""J"",""K""]","289.2816","false","null","j","","392.1136","0","null","289.2816","","","","transfer","","","","","","","","289.2816","13.461","289.2816","392.1136","0","13.461","19.6949","0","filler","binary","","","","","2.211","right","NA",""
"","transfer_trial","categorize-lines","222","1456412","0.0-5.0-0.15","20211013","151","1192","","","","","","","","[247.3327,286.3185]","[247.3327,286.3185]","[""j"",""k""]","[""J"",""K""]","247.3327","false","null","k","","286.3185","0","null","286.3185","","","","transfer","","10.25","247.3327","13.25","286.3185","","","247.3327","10.25","247.3327","286.3185","0","10.25","13.25","0","attraction","binary","difficult","left","right","target","1","left","competitor",""
"","transfer_trial","categorize-lines","223","1459380","0.0-5.0-0.16","20211013","151","1896","","","","","","","","[247.3327,300.6345,224.3381]","[224.3381,300.6345,247.3327]","[""j"",""k"",""l""]","[""J"",""K"",""L""]","247.3327","false","null","j","","224.3381","0","null","300.6345","247.3327","","","transfer","","10.25","247.3327","14.25","300.6345","8.25","224.3381","247.3327","10.25","247.3327","300.6345","224.3381","10.25","14.25","8.25","attraction","trinary","easy","left","right","target","1","left","decoy",""
"","transfer_trial","categorize-lines","224","1461804","0.0-5.0-0.17","20211013","151","1352","","","","","","","","[272.6843,235.555,300.6345]","[300.6345,272.6843,235.555]","[""j"",""k"",""l""]","[""J"",""K"",""L""]","272.6843","false","null","k","","272.6843","1","null","272.6843","235.555","","","transfer","","12.25","272.6843","9.25","235.555","14.25","300.6345","272.6843","12.25","272.6843","235.555","300.6345","12.25","9.25","14.25","attraction","trinary","difficult","right","left","target","1","right","target",""
"","transfer_trial","categorize-lines","225","1464260","0.0-5.0-0.18","20211013","151","1386","","","","","","","","[272.6843,224.3381,203.4812]","[203.4812,272.6843,224.3381]","[""j"",""k"",""l""]","[""J"",""K"",""L""]","272.6843","false","null","k","","272.6843","1","null","272.6843","224.3381","","","transfer","","8.25","224.3381","12.25","272.6843","6.25","203.4812","272.6843","12.25","272.6843","224.3381","203.4812","12.25","8.25","6.25","attraction","trinary","easy","left","right","competitor","1","right","competitor",""
"","transfer_trial","categorize-lines","226","1466668","0.0-5.0-0.19","20211013","151","1336","","","","","","","","[247.3327,272.6843,300.6345]","[247.3327,272.6843,300.6345]","[""j"",""k"",""l""]","[""J"",""K"",""L""]","null","false","null","k","","272.6843","0","null","272.6843","300.6345","","","transfer","","12.25","272.6843","10.25","247.3327","14.25","300.6345","","","247.3327","272.6843","300.6345","10.25","12.25","14.25","attraction","trinary","equal_chance_1_JND","right","left","both","1","equal","target",""
"","transfer_trial","categorize-lines","227","1470468","0.0-5.0-0.20","20211013","151","2726","","","","","","","","[247.3327,272.6843]","[247.3327,272.6843]","[""j"",""k""]","[""J"",""K""]","null","false","null","j","","247.3327","0","null","272.6843","","","","transfer","","12.25","272.6843","10.25","247.3327","","","","","247.3327","272.6843","0","10.25","12.25","0","attraction","binary","equal_chance_1_JND","right","left","both","1","equal","competitor",""
"","transfer_trial","categorize-lines","228","1472932","0.0-5.0-0.21","20211013","151","1390","","","","","","","","[263.5487,191.6791]","[263.5487,191.6791]","[""j"",""k""]","[""J"",""K""]","263.5487","false","null","k","","191.6791","0","null","191.6791","","","","transfer","","","","","","","","263.5487","11.5516","263.5487","191.6791","0","11.5516","5.0253","0","filler","binary","","","","","0.3016","right","NA",""
"","transfer_trial","categorize-lines","229","1476668","0.0-5.0-0.22","20211013","151","2666","","","","","","","","[225.2208,219.0756]","[219.0756,225.2208]","[""j"",""k""]","[""J"",""K""]","225.2208","false","null","j","","219.0756","0","null","225.2208","","","","transfer","","","","","","","","225.2208","8.3305","225.2208","219.0756","0","8.3305","7.7635","0","filler","binary","","","","","2.9195","left","NA",""
"","transfer_trial","categorize-lines","230","1478708","0.0-5.0-0.23","20211013","151","970","","","","","","","","[272.6843,235.555]","[235.555,272.6843]","[""j"",""k""]","[""J"",""K""]","272.6843","false","null","j","","235.555","0","null","272.6843","","","","transfer","","12.25","272.6843","9.25","235.555","","","272.6843","12.25","272.6843","235.555","0","12.25","9.25","0","attraction","binary","difficult","right","left","target","1","right","competitor",""
"","transfer_trial","categorize-lines","231","1481468","0.0-5.0-0.24","20211013","151","1690","","","","","","","","[272.6843,235.555]","[272.6843,235.555]","[""j"",""k""]","[""J"",""K""]","272.6843","false","null","k","","235.555","0","null","235.555","","","","transfer","","12.25","272.6843","9.25","235.555","","","272.6843","12.25","272.6843","235.555","0","12.25","9.25","0","attraction","binary","difficult","right","left","target","1","right","competitor",""
"","transfer_trial","categorize-lines","232","1484740","0.0-5.0-0.25","20211013","151","2202","","","","","","","","[272.6843,235.555,213.6553]","[213.6553,272.6843,235.555]","[""j"",""k"",""l""]","[""J"",""K"",""L""]","272.6843","false","null","k","","272.6843","1","null","272.6843","235.555","","","transfer","","9.25","235.555","12.25","272.6843","7.25","213.6553","272.6843","12.25","272.6843","235.555","213.6553","12.25","9.25","7.25","attraction","trinary","difficult","left","right","competitor","1","right","competitor",""
"","transfer_trial","categorize-lines","233","1487172","0.0-5.0-0.26","20211013","151","1362","","","","","","","","[272.6843,235.555]","[272.6843,235.555]","[""j"",""k""]","[""J"",""K""]","272.6843","false","null","k","","235.555","0","null","235.555","","","","transfer","","12.25","272.6843","9.25","235.555","","","272.6843","12.25","272.6843","235.555","0","12.25","9.25","0","attraction","binary","difficult","right","left","target","1","right","competitor",""
"","transfer_trial","categorize-lines","234","1489100","0.0-5.0-0.27","20211013","151","858","","","","","","","","[247.3327,272.6843]","[272.6843,247.3327]","[""j"",""k""]","[""J"",""K""]","null","false","null","k","","247.3327","0","null","247.3327","","","","transfer","","12.25","272.6843","10.25","247.3327","","","","","247.3327","272.6843","0","10.25","12.25","0","attraction","binary","equal_chance_1_JND","right","left","both","1","equal","competitor",""
"","transfer_trial","categorize-lines","235","1492852","0.0-5.0-0.28","20211013","151","2682","","","","","","","","[235.555,286.3185,213.6553]","[286.3185,213.6553,235.555]","[""j"",""k"",""l""]","[""J"",""K"",""L""]","null","false","null","j","","286.3185","0","null","213.6553","235.555","","","transfer","","9.25","235.555","13.25","286.3185","7.25","213.6553","","","235.555","286.3185","213.6553","9.25","13.25","7.25","attraction","trinary","equal_chance_2_JND","left","right","both","2","equal","competitor",""
"","transfer_trial","categorize-lines","236","1495708","0.0-5.0-0.29","20211013","151","1784","","","","","","","","[247.3327,300.6345]","[300.6345,247.3327]","[""j"",""k""]","[""J"",""K""]","247.3327","false","null","k","","247.3327","1","null","247.3327","","","","transfer","","14.25","300.6345","10.25","247.3327","","","247.3327","10.25","247.3327","300.6345","0","10.25","14.25","0","attraction","binary","easy","right","left","competitor","1","left","competitor",""
"","transfer_trial","categorize-lines","237","1497684","0.0-5.0-0.30","20211013","151","904","","","","","","","","[235.555,286.3185]","[235.555,286.3185]","[""j"",""k""]","[""J"",""K""]","null","false","null","k","","286.3185","0","null","286.3185","","","","transfer","","9.25","235.555","13.25","286.3185","","","","","235.555","286.3185","0","9.25","13.25","0","attraction","binary","equal_chance_2_JND","left","right","both","2","equal","competitor",""
"","transfer_trial","categorize-lines","238","1501292","0.0-5.0-0.31","20211013","151","2538","","","","","","","","[247.3327,272.6843,224.3381]","[272.6843,224.3381,247.3327]","[""j"",""k"",""l""]","[""J"",""K"",""L""]","null","false","null","j","","272.6843","0","null","224.3381","247.3327","","","transfer","","10.25","247.3327","12.25","272.6843","8.25","224.3381","","","247.3327","272.6843","224.3381","10.25","12.25","8.25","attraction","trinary","equal_chance_1_JND","left","right","both","1","equal","competitor",""
"","transfer_trial","categorize-lines","239","1505292","0.0-5.0-0.32","20211013","151","2930","","","","","","","","[235.555,286.3185,213.6553]","[286.3185,235.555,213.6553]","[""j"",""k"",""l""]","[""J"",""K"",""L""]","null","false","null","j","","286.3185","0","null","235.555","213.6553","","","transfer","","9.25","235.555","13.25","286.3185","7.25","213.6553","","","235.555","286.3185","213.6553","9.25","13.25","7.25","attraction","trinary","equal_chance_2_JND","left","right","both","2","equal","competitor",""
"","transfer_trial","categorize-lines","240","1507340","0.0-5.0-0.33","20211013","151","978","","","","","","","","[235.555,286.3185]","[235.555,286.3185]","[""j"",""k""]","[""J"",""K""]","null","false","null","j","","235.555","0","null","286.3185","","","","transfer","","13.25","286.3185","9.25","235.555","","","","","235.555","286.3185","0","9.25","13.25","0","attraction","binary","equal_chance_2_JND","right","left","both","2","equal","competitor",""
"","transfer_trial","categorize-lines","241","1509180","0.0-5.0-0.34","20211013","151","770","","","","","","","","[247.3327,300.6345]","[300.6345,247.3327]","[""j"",""k""]","[""J"",""K""]","247.3327","false","null","j","","300.6345","0","null","247.3327","","","","transfer","","14.25","300.6345","10.25","247.3327","","","247.3327","10.25","247.3327","300.6345","0","10.25","14.25","0","attraction","binary","easy","right","left","competitor","1","left","target",""
"","transfer_trial","categorize-lines","242","1511148","0.0-5.0-0.35","20211013","151","896","","","","","","","","[272.6843,235.555,213.6553]","[235.555,272.6843,213.6553]","[""j"",""k"",""l""]","[""J"",""K"",""L""]","272.6843","false","null","k","","272.6843","1","null","272.6843","213.6553","","","transfer","","9.25","235.555","12.25","272.6843","7.25","213.6553","272.6843","12.25","272.6843","235.555","213.6553","12.25","9.25","7.25","attraction","trinary","difficult","left","right","competitor","1","right","competitor",""
"","transfer_trial","categorize-lines","243","1514596","0.0-5.0-0.36","20211013","151","2372","","","","","","","","[247.3327,272.6843,224.3381]","[272.6843,247.3327,224.3381]","[""j"",""k"",""l""]","[""J"",""K"",""L""]","null","false","null","l","","224.3381","0","null","247.3327","224.3381","","","transfer","","10.25","247.3327","12.25","272.6843","8.25","224.3381","","","247.3327","272.6843","224.3381","10.25","12.25","8.25","attraction","trinary","equal_chance_1_JND","left","right","both","1","equal","decoy",""
"","transfer_trial","categorize-lines","244","1516844","0.0-5.0-0.37","20211013","151","1176","","","","","","","","[247.3327,300.6345]","[247.3327,300.6345]","[""j"",""k""]","[""J"",""K""]","247.3327","false","null","k","","300.6345","0","null","300.6345","","","","transfer","","10.25","247.3327","14.25","300.6345","","","247.3327","10.25","247.3327","300.6345","0","10.25","14.25","0","attraction","binary","easy","left","right","target","1","left","competitor",""
"","transfer_trial","categorize-lines","245","1519812","0.0-5.0-0.38","20211013","151","1898","","","","","","","","[209.6228,170.5024]","[170.5024,209.6228]","[""j"",""k""]","[""J"",""K""]","209.6228","false","null","j","","170.5024","0","null","209.6228","","","","transfer","","","","","","","","209.6228","6.8595","209.6228","170.5024","0","6.8595","2.6258","0","filler","binary","","","","","4.3905","left","NA",""
"","transfer_trial","categorize-lines","246","1521860","0.0-5.0-0.39","20211013","151","980","","","","","","","","[247.3327,286.3185]","[247.3327,286.3185]","[""j"",""k""]","[""J"",""K""]","247.3327","false","null","j","","247.3327","1","null","286.3185","","","","transfer","","13.25","286.3185","10.25","247.3327","","","247.3327","10.25","247.3327","286.3185","0","10.25","13.25","0","attraction","binary","difficult","right","left","competitor","1","left","competitor",""
"","transfer_trial","categorize-lines","247","1525036","0.0-5.0-0.40","20211013","151","2106","","","","","","","","[247.3327,300.6345,224.3381]","[300.6345,247.3327,224.3381]","[""j"",""k"",""l""]","[""J"",""K"",""L""]","247.3327","false","null","l","","224.3381","0","null","247.3327","224.3381","","","transfer","","10.25","247.3327","14.25","300.6345","8.25","224.3381","247.3327","10.25","247.3327","300.6345","224.3381","10.25","14.25","8.25","attraction","trinary","easy","left","right","target","1","left","decoy",""
"","transfer_trial","categorize-lines","248","1527276","0.0-5.0-0.41","20211013","151","1170","","","","","","","","[235.555,286.3185]","[235.555,286.3185]","[""j"",""k""]","[""J"",""K""]","null","false","null","j","","235.555","0","null","286.3185","","","","transfer","","9.25","235.555","13.25","286.3185","","","","","235.555","286.3185","0","9.25","13.25","0","attraction","binary","equal_chance_2_JND","left","right","both","2","equal","target",""
"","transfer_trial","categorize-lines","249","1529260","0.0-5.0-0.42","20211013","151","914","","","","","","","","[272.6843,235.555]","[272.6843,235.555]","[""j"",""k""]","[""J"",""K""]","272.6843","false","null","k","","235.555","0","null","235.555","","","","transfer","","9.25","235.555","12.25","272.6843","","","272.6843","12.25","272.6843","235.555","0","12.25","9.25","0","attraction","binary","difficult","left","right","competitor","1","right","target",""
"","transfer_trial","categorize-lines","250","1532052","0.0-5.0-0.43","20211013","151","1722","","","","","","","","[247.3327,272.6843,224.3381]","[247.3327,272.6843,224.3381]","[""j"",""k"",""l""]","[""J"",""K"",""L""]","null","false","null","j","","247.3327","0","null","272.6843","224.3381","","","transfer","","10.25","247.3327","12.25","272.6843","8.25","224.3381","","","247.3327","272.6843","224.3381","10.25","12.25","8.25","attraction","trinary","equal_chance_1_JND","left","right","both","1","equal","target",""
"","transfer_trial","categorize-lines","251","1534284","0.0-5.0-0.44","20211013","151","1162","","","","","","","","[247.3327,286.3185,224.3381]","[224.3381,247.3327,286.3185]","[""j"",""k"",""l""]","[""J"",""K"",""L""]","247.3327","false","null","l","","286.3185","0","null","247.3327","286.3185","","","transfer","","10.25","247.3327","13.25","286.3185","8.25","224.3381","247.3327","10.25","247.3327","286.3185","224.3381","10.25","13.25","8.25","attraction","trinary","difficult","left","right","target","1","left","competitor",""
"","transfer_trial","categorize-lines","252","1536884","0.0-5.0-0.45","20211013","151","1530","","","","","","","","[256.5345,203.5786]","[203.5786,256.5345]","[""j"",""k""]","[""J"",""K""]","256.5345","false","null","j","","203.5786","0","null","256.5345","","","","transfer","","","","","","","","256.5345","10.9987","256.5345","203.5786","0","10.9987","6.2598","0","filler","binary","","","","","0.2513","left","NA",""
"","transfer_trial","categorize-lines","253","1539620","0.0-5.0-0.46","20211013","151","1668","","","","","","","","[247.3327,286.3185,224.3381]","[247.3327,286.3185,224.3381]","[""j"",""k"",""l""]","[""J"",""K"",""L""]","247.3327","false","null","l","","224.3381","0","null","286.3185","224.3381","","","transfer","","10.25","247.3327","13.25","286.3185","8.25","224.3381","247.3327","10.25","247.3327","286.3185","224.3381","10.25","13.25","8.25","attraction","trinary","difficult","left","right","target","1","left","decoy",""
"","transfer_trial","categorize-lines","254","1543628","0.0-5.0-0.47","20211013","151","2938","","","","","","","","[274.234,201.1364]","[201.1364,274.234]","[""j"",""k""]","[""J"",""K""]","274.234","false","null","k","","274.234","1","null","274.234","","","","transfer","","","","","","","","274.234","12.3661","274.234","201.1364","0","12.3661","6.0124","0","filler","binary","","","","","1.1161","right","NA",""
"","transfer_trial","categorize-lines","255","1545772","0.0-5.0-0.48","20211013","151","1076","","","","","","","","[209.4107,272.2156,360.9929]","[360.9929,272.2156,209.4107]","[""j"",""k"",""l""]","[""J"",""K"",""L""]","209.4107","false","null","k","","272.2156","0","null","272.2156","209.4107","","","transfer","","","","","","","","209.4107","6.8387","209.4107","272.2156","360.9929","6.8387","12.2147","18","filler","trinary","","","","","4.4113","left","NA",""
"","transfer_trial","categorize-lines","256","1547644","0.0-5.0-0.49","20211013","151","802","","","","","","","","[247.3327,286.3185]","[247.3327,286.3185]","[""j"",""k""]","[""J"",""K""]","247.3327","false","null","k","","286.3185","0","null","286.3185","","","","transfer","","13.25","286.3185","10.25","247.3327","","","247.3327","10.25","247.3327","286.3185","0","10.25","13.25","0","attraction","binary","difficult","right","left","competitor","1","left","target",""
"","transfer_trial","categorize-lines","257","1549564","0.0-5.0-0.50","20211013","151","850","","","","","","","","[289.9466,270.9946,182.3259]","[182.3259,270.9946,289.9466]","[""j"",""k"",""l""]","[""J"",""K"",""L""]","289.9466","false","null","k","","270.9946","0","null","270.9946","289.9466","","","transfer","","","","","","","","289.9466","13.5081","289.9466","270.9946","182.3259","13.5081","12.1226","4","filler","trinary","","","","","2.2581","right","NA",""
"","transfer_trial","categorize-lines","258","1551636","0.0-5.0-0.51","20211013","151","1002","","","","","","","","[272.6843,224.3381]","[272.6843,224.3381]","[""j"",""k""]","[""J"",""K""]","272.6843","false","null","k","","224.3381","0","null","224.3381","","","","transfer","","8.25","224.3381","12.25","272.6843","","","272.6843","12.25","272.6843","224.3381","0","12.25","8.25","0","attraction","binary","easy","left","right","competitor","1","right","target",""
"","transfer_trial","categorize-lines","259","1553716","0.0-5.0-0.52","20211013","151","1010","","","","","","","","[247.3327,300.6345]","[247.3327,300.6345]","[""j"",""k""]","[""J"",""K""]","247.3327","false","null","j","","247.3327","1","null","300.6345","","","","transfer","","14.25","300.6345","10.25","247.3327","","","247.3327","10.25","247.3327","300.6345","0","10.25","14.25","0","attraction","binary","easy","right","left","competitor","1","left","competitor",""
"","transfer_trial","categorize-lines","260","1556228","0.0-5.0-0.53","20211013","151","1442","","","","","","","","[167.4275,266.5615]","[266.5615,167.4275]","[""j"",""k""]","[""J"",""K""]","167.4275","false","null","j","","266.5615","0","null","167.4275","","","","transfer","","","","","","","","167.4275","2.2528","167.4275","266.5615","0","2.2528","11.7845","0","filler","binary","","","","","8.9972","left","NA",""
"","transfer_trial","categorize-lines","261","1558364","0.0-5.0-0.54","20211013","151","1066","","","","","","","","[247.3327,272.6843,300.6345]","[300.6345,247.3327,272.6843]","[""j"",""k"",""l""]","[""J"",""K"",""L""]","null","false","null","k","","247.3327","0","null","247.3327","272.6843","","","transfer","","12.25","272.6843","10.25","247.3327","14.25","300.6345","","","247.3327","272.6843","300.6345","10.25","12.25","14.25","attraction","trinary","equal_chance_1_JND","right","left","both","1","equal","competitor",""
"","transfer_trial","categorize-lines","262","1561068","0.0-5.0-0.55","20211013","151","1634","","","","","","","","[272.6843,224.3381]","[272.6843,224.3381]","[""j"",""k""]","[""J"",""K""]","272.6843","false","null","k","","224.3381","0","null","224.3381","","","","transfer","","8.25","224.3381","12.25","272.6843","","","272.6843","12.25","272.6843","224.3381","0","12.25","8.25","0","attraction","binary","easy","left","right","competitor","1","right","target",""
"","transfer_trial","categorize-lines","263","1563004","0.0-5.0-0.56","20211013","151","868","","","","","","","","[247.3327,286.3185]","[247.3327,286.3185]","[""j"",""k""]","[""J"",""K""]","247.3327","false","null","j","","247.3327","1","null","286.3185","","","","transfer","","10.25","247.3327","13.25","286.3185","","","247.3327","10.25","247.3327","286.3185","0","10.25","13.25","0","attraction","binary","difficult","left","right","target","1","left","target",""
"","transfer_trial","categorize-lines","264","1564876","0.0-5.0-0.57","20211013","151","802","","","","","","","","[235.555,286.3185]","[286.3185,235.555]","[""j"",""k""]","[""J"",""K""]","null","false","null","j","","286.3185","0","null","235.555","","","","transfer","","13.25","286.3185","9.25","235.555","","","","","235.555","286.3185","0","9.25","13.25","0","attraction","binary","equal_chance_2_JND","right","left","both","2","equal","target",""
"","transfer_trial","categorize-lines","265","1566620","0.0-5.0-0.58","20211013","151","674","","","","","","","","[247.3327,300.6345]","[247.3327,300.6345]","[""j"",""k""]","[""J"",""K""]","247.3327","false","null","j","","247.3327","1","null","300.6345","","","","transfer","","10.25","247.3327","14.25","300.6345","","","247.3327","10.25","247.3327","300.6345","0","10.25","14.25","0","attraction","binary","easy","left","right","target","1","left","target",""
"","transfer_trial","categorize-lines","266","1569372","0.0-5.0-0.59","20211013","151","1680","","","","","","","","[272.6843,235.555,300.6345]","[272.6843,300.6345,235.555]","[""j"",""k"",""l""]","[""J"",""K"",""L""]","272.6843","false","null","k","","300.6345","0","null","300.6345","235.555","","","transfer","","12.25","272.6843","9.25","235.555","14.25","300.6345","272.6843","12.25","272.6843","235.555","300.6345","12.25","9.25","14.25","attraction","trinary","difficult","right","left","target","1","right","decoy",""
"","transfer_trial","categorize-lines","267","1572284","0.0-5.0-0.60","20211013","151","1840","","","","","","","","[247.3327,272.6843,300.6345]","[272.6843,300.6345,247.3327]","[""j"",""k"",""l""]","[""J"",""K"",""L""]","null","false","null","j","","272.6843","0","null","300.6345","247.3327","","","transfer","","12.25","272.6843","10.25","247.3327","14.25","300.6345","","","247.3327","272.6843","300.6345","10.25","12.25","14.25","attraction","trinary","equal_chance_1_JND","right","left","both","1","equal","target",""
"","transfer_trial","categorize-lines","268","1574916","0.0-5.0-0.61","20211013","151","1554","","","","","","","","[247.3327,272.6843]","[272.6843,247.3327]","[""j"",""k""]","[""J"",""K""]","null","false","null","j","","272.6843","0","null","247.3327","","","","transfer","","10.25","247.3327","12.25","272.6843","","","","","247.3327","272.6843","0","10.25","12.25","0","attraction","binary","equal_chance_1_JND","left","right","both","1","equal","competitor",""
"","transfer_trial","categorize-lines","269","1579004","0.0-5.0-0.62","20211013","151","3012","","","","","","","","[272.6843,224.3381,203.4812]","[272.6843,224.3381,203.4812]","[""j"",""k"",""l""]","[""J"",""K"",""L""]","272.6843","false","null","k","","224.3381","0","null","224.3381","203.4812","","","transfer","","8.25","224.3381","12.25","272.6843","6.25","203.4812","272.6843","12.25","272.6843","224.3381","203.4812","12.25","8.25","6.25","attraction","trinary","easy","left","right","competitor","1","right","target",""
"","transfer_trial","categorize-lines","270","1583564","0.0-5.0-0.63","20211013","151","3488","","","","","","","","[272.6843,224.3381]","[272.6843,224.3381]","[""j"",""k""]","[""J"",""K""]","272.6843","false","null","k","","224.3381","0","null","224.3381","","","","transfer","","12.25","272.6843","8.25","224.3381","","","272.6843","12.25","272.6843","224.3381","0","12.25","8.25","0","attraction","binary","easy","right","left","target","1","right","competitor",""
"","transfer_trial","categorize-lines","271","1587420","0.0-5.0-0.64","20211013","151","2784","","","","","","","","[272.6843,224.3381,300.6345]","[272.6843,300.6345,224.3381]","[""j"",""k"",""l""]","[""J"",""K"",""L""]","272.6843","false","null","j","","272.6843","1","null","300.6345","224.3381","","","transfer","","12.25","272.6843","8.25","224.3381","14.25","300.6345","272.6843","12.25","272.6843","224.3381","300.6345","12.25","8.25","14.25","attraction","trinary","easy","right","left","target","1","right","target",""
"","transfer_trial","categorize-lines","272","1589644","0.0-5.0-0.65","20211013","151","1150","","","","","","","","[328.3209,169.4252,256.5509]","[256.5509,328.3209,169.4252]","[""j"",""k"",""l""]","[""J"",""K"",""L""]","328.3209","false","null","k","","328.3209","1","null","328.3209","169.4252","","","transfer","","","","","","","","328.3209","16.0556","328.3209","169.4252","256.5509","16.0556","2.4959","11","filler","trinary","","","","","4.8056","right","NA",""
"","transfer_trial","categorize-lines","273","1591684","0.0-5.0-0.66","20211013","151","966","","","","","","","","[282.7171,237.1519]","[237.1519,282.7171]","[""j"",""k""]","[""J"",""K""]","282.7171","false","null","k","","282.7171","1","null","282.7171","","","","transfer","","","","","","","","282.7171","12.9906","282.7171","237.1519","0","12.9906","9.3885","0","filler","binary","","","","","1.7406","right","NA",""
"","transfer_trial","categorize-lines","274","1594060","0.0-5.0-0.67","20211013","151","1304","","","","","","","","[272.6843,224.3381]","[272.6843,224.3381]","[""j"",""k""]","[""J"",""K""]","272.6843","false","null","k","","224.3381","0","null","224.3381","","","","transfer","","8.25","224.3381","12.25","272.6843","","","272.6843","12.25","272.6843","224.3381","0","12.25","8.25","0","attraction","binary","easy","left","right","competitor","1","right","target",""
"","transfer_trial","categorize-lines","275","1596500","0.0-5.0-0.68","20211013","151","1370","","","","","","","","[235.555,286.3185,213.6553]","[286.3185,213.6553,235.555]","[""j"",""k"",""l""]","[""J"",""K"",""L""]","null","false","null","l","","235.555","0","null","213.6553","235.555","","","transfer","","9.25","235.555","13.25","286.3185","7.25","213.6553","","","235.555","286.3185","213.6553","9.25","13.25","7.25","attraction","trinary","equal_chance_2_JND","left","right","both","2","equal","target",""
"","transfer_trial","categorize-lines","276","1598460","0.0-5.0-0.69","20211013","151","888","","","","","","","","[272.6843,224.3381,203.4812]","[203.4812,272.6843,224.3381]","[""j"",""k"",""l""]","[""J"",""K"",""L""]","272.6843","false","null","l","","224.3381","0","null","272.6843","224.3381","","","transfer","","8.25","224.3381","12.25","272.6843","6.25","203.4812","272.6843","12.25","272.6843","224.3381","203.4812","12.25","8.25","6.25","attraction","trinary","easy","left","right","competitor","1","right","target",""
