"success","screen_id","trial_type","trial_index","time_elapsed","internal_node_id","date","sub_n","rt","response","timeout","failed_images","failed_audio","failed_video","view_history","stim","line_lens","line_lens_order","choices","stim_names","corr_ans","give_fb","in_cat","key_choice","yn_choice","choice","correct","fb_in_cat","stim_1_in_order","stim_2_in_order","stim_3_in_order","line_length","cat_trial_type","jnds","T_psy","T_phys","C_psy","C_phys","D_psy","D_phys","corr_choice","correct_psy","stim_1","stim_2","stim_3","stim_1_psy","stim_2_psy","stim_3_psy","transfer_trial_type","trial_choice_set","difficulty_level","target_side","competitor_side","tc_correct","correct_dist_to_mean","side_correct","attr_choice","stimulus"
"true","enter-fullscreen-mode","fullscreen","0","1788","0.0-0.0","20211015","165","","","","","","","","","","","","","","","","","","","","","","","","","","","","","","","","","","","","","","","","","","","","","","","","","",""
"","enter-sub-number","survey-html-form","1","4132","0.0-1.0","20211015","165","2326","{""response"":""165""}","","","","","","","","","","","","","","","","","","","","","","","","","","","","","","","","","","","","","","","","","","","","","","","",""
"true","","preload","2","4160","0.0-2.0-0.0","20211015","165","","","false","[]","[]","[]","","","","","","","","","","","","","","","","","","","","","","","","","","","","","","","","","","","","","","","","","","","",""
"","instructions","instructions","3","78548","0.0-2.0-1.0","20211015","165","74386","","","","","","[{""page_index"":0,""viewing_time"":7358},{""page_index"":1,""viewing_time"":8768},{""page_index"":2,""viewing_time"":14704},{""page_index"":3,""viewing_time"":29960},{""page_index"":4,""viewing_time"":6840},{""page_index"":5,""viewing_time"":3360},{""page_index"":6,""viewing_time"":3394}]","","","","","","","","","","","","","","","","","","","","","","","","","","","","","","","","","","","","","","","","","","",""
"","demo-lines","draw-demo-lines","4","138562","0.0-2.0-2.0","20211015","165","","","","","","","","lines","","","","","","","","","","","","","","","","","","","","","","","","","","","","","","","","","","","","","","","","","",""
"","click-to-begin-the-experiment","instructions","5","140136","0.0-2.0-3.0","20211015","165","1570","","","","","","[{""page_index"":0,""viewing_time"":1570}]","","","","","","","","","","","","","","","","","","","","","","","","","","","","","","","","","","","","","","","","","","",""
"","learn_trial","categorize-lines","6","143704","0.0-3.0-0.0","20211015","165","1530","","","","","","","","[258.8139]","[258.8139]","[""u"",""i""]","[""""]","null","true","in","u","YES","","1","in","","","","258.8139","learning","11.18","","","","","","","","","","","","","","","","","","","","","","","",""
"","learn_trial","categorize-lines","7","149744","0.0-3.0-0.1","20211015","165","2008","","","","","","","","[204.3767]","[204.3767]","[""u"",""i""]","[""""]","null","true","out","u","YES","","0","out","","","","204.3767","learning","6.34","","","","","","","","","","","","","","","","","","","","","","","",""
"","learn_trial","categorize-lines","8","154798","0.0-3.0-0.2","20211015","165","1026","","","","","","","","[431.9916]","[431.9916]","[""u"",""i""]","[""""]","null","true","out","u","YES","","0","out","","","","431.9916","learning","21.68","","","","","","","","","","","","","","","","","","","","","","","",""
"","learn_trial","categorize-lines","9","157678","0.0-3.0-0.3","20211015","165","846","","","","","","","","[427.3794]","[427.3794]","[""u"",""i""]","[""""]","null","true","out","i","NO","","1","out","","","","427.3794","learning","21.46","","","","","","","","","","","","","","","","","","","","","","","",""
"","learn_trial","categorize-lines","10","163942","0.0-3.0-0.4","20211015","165","2232","","","","","","","","[238.6785]","[238.6785]","[""u"",""i""]","[""""]","null","true","out","u","YES","","0","out","","","","238.6785","learning","9.52","","","","","","","","","","","","","","","","","","","","","","","",""
"","learn_trial","categorize-lines","11","169646","0.0-3.0-0.5","20211015","165","1672","","","","","","","","[351.4346]","[351.4346]","[""u"",""i""]","[""""]","null","true","in","i","NO","","0","in","","","","351.4346","learning","17.45","","","","","","","","","","","","","","","","","","","","","","","",""
"","learn_trial","categorize-lines","12","172910","0.0-3.0-0.6","20211015","165","1234","","","","","","","","[223.5732]","[223.5732]","[""u"",""i""]","[""""]","null","true","in","u","YES","","1","in","","","","223.5732","learning","8.18","","","","","","","","","","","","","","","","","","","","","","","",""
"","learn_trial","categorize-lines","13","176262","0.0-3.0-0.7","20211015","165","1322","","","","","","","","[193.6971]","[193.6971]","[""u"",""i""]","[""""]","null","true","in","u","YES","","1","in","","","","193.6971","learning","5.24","","","","","","","","","","","","","","","","","","","","","","","",""
"","learn_trial","categorize-lines","14","182122","0.0-3.0-0.8","20211015","165","1826","","","","","","","","[309.2634]","[309.2634]","[""u"",""i""]","[""""]","null","true","out","u","YES","","0","out","","","","309.2634","learning","14.83","","","","","","","","","","","","","","","","","","","","","","","",""
"","learn_trial","categorize-lines","15","187314","0.0-3.0-0.9","20211015","165","1158","","","","","","","","[286.0393]","[286.0393]","[""u"",""i""]","[""""]","null","true","in","i","NO","","0","in","","","","286.0393","learning","13.23","","","","","","","","","","","","","","","","","","","","","","","",""
"","learn_trial","categorize-lines","16","191408","0.0-3.0-0.10","20211015","165","2062","","","","","","","","[232.019]","[232.019]","[""u"",""i""]","[""""]","null","true","in","u","YES","","1","in","","","","232.019","learning","8.94","","","","","","","","","","","","","","","","","","","","","","","",""
"","learn_trial","categorize-lines","17","195198","0.0-3.0-0.11","20211015","165","1758","","","","","","","","[204.8759]","[204.8759]","[""u"",""i""]","[""""]","null","true","out","i","NO","","1","out","","","","204.8759","learning","6.39","","","","","","","","","","","","","","","","","","","","","","","",""
"","learn_trial","categorize-lines","18","198828","0.0-3.0-0.12","20211015","165","1604","","","","","","","","[188.2927]","[188.2927]","[""u"",""i""]","[""""]","null","true","out","i","NO","","1","out","","","","188.2927","learning","4.66","","","","","","","","","","","","","","","","","","","","","","","",""
"","learn_trial","categorize-lines","19","204134","0.0-3.0-0.13","20211015","165","1274","","","","","","","","[302.2523]","[302.2523]","[""u"",""i""]","[""""]","null","true","out","u","YES","","0","out","","","","302.2523","learning","14.36","","","","","","","","","","","","","","","","","","","","","","","",""
"","learn_trial","categorize-lines","20","207076","0.0-3.0-0.14","20211015","165","914","","","","","","","","[260.715]","[260.715]","[""u"",""i""]","[""""]","null","true","in","u","YES","","1","in","","","","260.715","learning","11.33","","","","","","","","","","","","","","","","","","","","","","","",""
"","learn_trial","categorize-lines","21","212326","0.0-3.0-0.15","20211015","165","1214","","","","","","","","[286.8779]","[286.8779]","[""u"",""i""]","[""""]","null","true","in","i","NO","","0","in","","","","286.8779","learning","13.29","","","","","","","","","","","","","","","","","","","","","","","",""
"","learn_trial","categorize-lines","22","217214","0.0-3.0-0.16","20211015","165","856","","","","","","","","[217.0172]","[217.0172]","[""u"",""i""]","[""""]","null","true","out","u","YES","","0","out","","","","217.0172","learning","7.57","","","","","","","","","","","","","","","","","","","","","","","",""
"","learn_trial","categorize-lines","23","222592","0.0-3.0-0.17","20211015","165","1342","","","","","","","","[197.4181]","[197.4181]","[""u"",""i""]","[""""]","null","true","in","i","NO","","0","in","","","","197.4181","learning","5.63","","","","","","","","","","","","","","","","","","","","","","","",""
"","learn_trial","categorize-lines","24","227470","0.0-3.0-0.18","20211015","165","848","","","","","","","","[197.1294]","[197.1294]","[""u"",""i""]","[""""]","null","true","out","u","YES","","0","out","","","","197.1294","learning","5.6","","","","","","","","","","","","","","","","","","","","","","","",""
"","learn_trial","categorize-lines","25","232670","0.0-3.0-0.19","20211015","165","1170","","","","","","","","[315.0507]","[315.0507]","[""u"",""i""]","[""""]","null","true","in","i","NO","","0","in","","","","315.0507","learning","15.21","","","","","","","","","","","","","","","","","","","","","","","",""
"","learn_trial","categorize-lines","26","237942","0.0-3.0-0.20","20211015","165","1242","","","","","","","","[242.9078]","[242.9078]","[""u"",""i""]","[""""]","null","true","in","i","NO","","0","in","","","","242.9078","learning","9.88","","","","","","","","","","","","","","","","","","","","","","","",""
"","learn_trial","categorize-lines","27","241294","0.0-3.0-0.21","20211015","165","1324","","","","","","","","[318.7615]","[318.7615]","[""u"",""i""]","[""""]","null","true","out","i","NO","","1","out","","","","318.7615","learning","15.45","","","","","","","","","","","","","","","","","","","","","","","",""
"","learn_trial","categorize-lines","28","244966","0.0-3.0-0.22","20211015","165","1644","","","","","","","","[162.972]","[162.972]","[""u"",""i""]","[""""]","null","true","out","i","NO","","1","out","","","","162.972","learning","1.7","","","","","","","","","","","","","","","","","","","","","","","",""
"","learn_trial","categorize-lines","29","249798","0.0-3.0-0.23","20211015","165","804","","","","","","","","[199.354]","[199.354]","[""u"",""i""]","[""""]","null","true","out","u","YES","","0","out","","","","199.354","learning","5.83","","","","","","","","","","","","","","","","","","","","","","","",""
"","learn_trial","categorize-lines","30","255174","0.0-3.0-0.24","20211015","165","1342","","","","","","","","[288.4217]","[288.4217]","[""u"",""i""]","[""""]","null","true","in","i","NO","","0","in","","","","288.4217","learning","13.4","","","","","","","","","","","","","","","","","","","","","","","",""
"","learn_trial","categorize-lines","31","257894","0.0-3.0-0.25","20211015","165","688","","","","","","","","[425.0919]","[425.0919]","[""u"",""i""]","[""""]","null","true","out","i","NO","","1","out","","","","425.0919","learning","21.35","","","","","","","","","","","","","","","","","","","","","","","",""
"","learn_trial","categorize-lines","32","262966","0.0-3.0-0.26","20211015","165","1042","","","","","","","","[223.4641]","[223.4641]","[""u"",""i""]","[""""]","null","true","out","u","YES","","0","out","","","","223.4641","learning","8.17","","","","","","","","","","","","","","","","","","","","","","","",""
"","learn_trial","categorize-lines","33","265888","0.0-3.0-0.27","20211015","165","888","","","","","","","","[381.2683]","[381.2683]","[""u"",""i""]","[""""]","null","true","out","i","NO","","1","out","","","","381.2683","learning","19.12","","","","","","","","","","","","","","","","","","","","","","","",""
"","learn_trial","categorize-lines","34","269004","0.0-3.0-0.28","20211015","165","1090","","","","","","","","[269.773]","[269.773]","[""u"",""i""]","[""""]","null","true","in","u","YES","","1","in","","","","269.773","learning","12.03","","","","","","","","","","","","","","","","","","","","","","","",""
"","learn_trial","categorize-lines","35","272366","0.0-3.0-0.29","20211015","165","1332","","","","","","","","[278.7375]","[278.7375]","[""u"",""i""]","[""""]","null","true","in","u","YES","","1","in","","","","278.7375","learning","12.7","","","","","","","","","","","","","","","","","","","","","","","",""
"","learn_trial","categorize-lines","36","277756","0.0-3.0-0.30","20211015","165","1362","","","","","","","","[185.4662]","[185.4662]","[""u"",""i""]","[""""]","null","true","out","u","YES","","0","out","","","","185.4662","learning","4.35","","","","","","","","","","","","","","","","","","","","","","","",""
"","learn_trial","categorize-lines","37","280478","0.0-3.0-0.31","20211015","165","692","","","","","","","","[237.6328]","[237.6328]","[""u"",""i""]","[""""]","null","true","in","u","YES","","1","in","","","","237.6328","learning","9.43","","","","","","","","","","","","","","","","","","","","","","","",""
"","learn_trial","categorize-lines","38","285534","0.0-3.0-0.32","20211015","165","1028","","","","","","","","[170.5372]","[170.5372]","[""u"",""i""]","[""""]","null","true","in","i","NO","","0","in","","","","170.5372","learning","2.63","","","","","","","","","","","","","","","","","","","","","","","",""
"","learn_trial","categorize-lines","39","290564","0.0-3.0-0.33","20211015","165","1004","","","","","","","","[256.4258]","[256.4258]","[""u"",""i""]","[""""]","null","true","out","u","YES","","0","out","","","","256.4258","learning","10.99","","","","","","","","","","","","","","","","","","","","","","","",""
"","learn_trial","categorize-lines","40","295892","0.0-3.0-0.34","20211015","165","1300","","","","","","","","[189.3983]","[189.3983]","[""u"",""i""]","[""""]","null","true","in","i","NO","","0","in","","","","189.3983","learning","4.78","","","","","","","","","","","","","","","","","","","","","","","",""
"","learn_trial","categorize-lines","41","298828","0.0-3.0-0.35","20211015","165","904","","","","","","","","[286.1789]","[286.1789]","[""u"",""i""]","[""""]","null","true","in","u","YES","","1","in","","","","286.1789","learning","13.24","","","","","","","","","","","","","","","","","","","","","","","",""
"","learn_trial","categorize-lines","42","303886","0.0-3.0-0.36","20211015","165","1028","","","","","","","","[306.8586]","[306.8586]","[""u"",""i""]","[""""]","null","true","in","i","NO","","0","in","","","","306.8586","learning","14.67","","","","","","","","","","","","","","","","","","","","","","","",""
"","learn_trial","categorize-lines","43","308972","0.0-3.0-0.37","20211015","165","1060","","","","","","","","[186.2824]","[186.2824]","[""u"",""i""]","[""""]","null","true","in","i","NO","","0","in","","","","186.2824","learning","4.44","","","","","","","","","","","","","","","","","","","","","","","",""
"","learn_trial","categorize-lines","44","312156","0.0-3.0-0.38","20211015","165","1156","","","","","","","","[160.4473]","[160.4473]","[""u"",""i""]","[""""]","null","true","out","i","NO","","1","out","","","","160.4473","learning","1.38","","","","","","","","","","","","","","","","","","","","","","","",""
"","learn_trial","categorize-lines","45","317870","0.0-3.0-0.39","20211015","165","3684","","","","","","","","[241.7256]","[241.7256]","[""u"",""i""]","[""""]","null","true","in","u","YES","","1","in","","","","241.7256","learning","9.78","","","","","","","","","","","","","","","","","","","","","","","",""
"","learn_trial","categorize-lines","46","323052","0.0-3.0-0.40","20211015","165","1154","","","","","","","","[297.2797]","[297.2797]","[""u"",""i""]","[""""]","null","true","in","i","NO","","0","in","","","","297.2797","learning","14.02","","","","","","","","","","","","","","","","","","","","","","","",""
"","learn_trial","categorize-lines","47","327444","0.0-3.0-0.41","20211015","165","2364","","","","","","","","[325.361]","[325.361]","[""u"",""i""]","[""""]","null","true","out","i","NO","","1","out","","","","325.361","learning","15.87","","","","","","","","","","","","","","","","","","","","","","","",""
"","learn_trial","categorize-lines","48","331668","0.0-3.0-0.42","20211015","165","2196","","","","","","","","[254.3077]","[254.3077]","[""u"",""i""]","[""""]","null","true","in","u","YES","","1","in","","","","254.3077","learning","10.82","","","","","","","","","","","","","","","","","","","","","","","",""
"","learn_trial","categorize-lines","49","337060","0.0-3.0-0.43","20211015","165","1364","","","","","","","","[212.3044]","[212.3044]","[""u"",""i""]","[""""]","null","true","in","i","NO","","0","in","","","","212.3044","learning","7.12","","","","","","","","","","","","","","","","","","","","","","","",""
"","learn_trial","categorize-lines","50","342444","0.0-3.0-0.44","20211015","165","1356","","","","","","","","[324.5682]","[324.5682]","[""u"",""i""]","[""""]","null","true","in","i","NO","","0","in","","","","324.5682","learning","15.82","","","","","","","","","","","","","","","","","","","","","","","",""
"","learn_trial","categorize-lines","51","345660","0.0-3.0-0.45","20211015","165","1188","","","","","","","","[157.5]","[157.5]","[""u"",""i""]","[""""]","null","true","out","i","NO","","1","out","","","","157.5","learning","1","","","","","","","","","","","","","","","","","","","","","","","",""
"","learn_trial","categorize-lines","52","350582","0.0-3.0-0.46","20211015","165","892","","","","","","","","[266.7626]","[266.7626]","[""u"",""i""]","[""""]","null","true","out","u","YES","","0","out","","","","266.7626","learning","11.8","","","","","","","","","","","","","","","","","","","","","","","",""
"","learn_trial","categorize-lines","53","353556","0.0-3.0-0.47","20211015","165","946","","","","","","","","[228.0906]","[228.0906]","[""u"",""i""]","[""""]","null","true","out","i","NO","","1","out","","","","228.0906","learning","8.59","","","","","","","","","","","","","","","","","","","","","","","",""
"","learn_trial","categorize-lines","54","356556","0.0-3.0-0.48","20211015","165","972","","","","","","","","[367.7482]","[367.7482]","[""u"",""i""]","[""""]","null","true","out","i","NO","","1","out","","","","367.7482","learning","18.38","","","","","","","","","","","","","","","","","","","","","","","",""
"","learn_trial","categorize-lines","55","359172","0.0-3.0-0.49","20211015","165","588","","","","","","","","[327.7509]","[327.7509]","[""u"",""i""]","[""""]","null","true","in","u","YES","","1","in","","","","327.7509","learning","16.02","","","","","","","","","","","","","","","","","","","","","","","",""
"","learn_trial","categorize-lines","56","363060","0.0-3.0-0.50","20211015","165","1860","","","","","","","","[259.5727]","[259.5727]","[""u"",""i""]","[""""]","null","true","in","u","YES","","1","in","","","","259.5727","learning","11.24","","","","","","","","","","","","","","","","","","","","","","","",""
"","learn_trial","categorize-lines","57","368292","0.0-3.0-0.51","20211015","165","1202","","","","","","","","[278.0583]","[278.0583]","[""u"",""i""]","[""""]","null","true","in","i","NO","","0","in","","","","278.0583","learning","12.65","","","","","","","","","","","","","","","","","","","","","","","",""
"","learn_trial","categorize-lines","58","371452","0.0-3.0-0.52","20211015","165","1130","","","","","","","","[316.5916]","[316.5916]","[""u"",""i""]","[""""]","null","true","out","i","NO","","1","out","","","","316.5916","learning","15.31","","","","","","","","","","","","","","","","","","","","","","","",""
"","learn_trial","categorize-lines","59","377036","0.0-3.0-0.53","20211015","165","1552","","","","","","","","[260.715]","[260.715]","[""u"",""i""]","[""""]","null","true","in","i","NO","","0","in","","","","260.715","learning","11.33","","","","","","","","","","","","","","","","","","","","","","","",""
"","learn_trial","categorize-lines","60","380172","0.0-3.0-0.54","20211015","165","1108","","","","","","","","[426.7543]","[426.7543]","[""u"",""i""]","[""""]","null","true","out","i","NO","","1","out","","","","426.7543","learning","21.43","","","","","","","","","","","","","","","","","","","","","","","",""
"","learn_trial","categorize-lines","61","385420","0.0-3.0-0.55","20211015","165","1220","","","","","","","","[234.4085]","[234.4085]","[""u"",""i""]","[""""]","null","true","out","u","YES","","0","out","","","","234.4085","learning","9.15","","","","","","","","","","","","","","","","","","","","","","","",""
"","learn_trial","categorize-lines","62","388700","0.0-3.0-0.56","20211015","165","1254","","","","","","","","[261.6069]","[261.6069]","[""u"",""i""]","[""""]","null","true","in","u","YES","","1","in","","","","261.6069","learning","11.4","","","","","","","","","","","","","","","","","","","","","","","",""
"","learn_trial","categorize-lines","63","393300","0.0-3.0-0.57","20211015","165","2572","","","","","","","","[383.8815]","[383.8815]","[""u"",""i""]","[""""]","null","true","out","i","NO","","1","out","","","","383.8815","learning","19.26","","","","","","","","","","","","","","","","","","","","","","","",""
"","learn_trial","categorize-lines","64","396132","0.0-3.0-0.58","20211015","165","804","","","","","","","","[433.4695]","[433.4695]","[""u"",""i""]","[""""]","null","true","out","i","NO","","1","out","","","","433.4695","learning","21.75","","","","","","","","","","","","","","","","","","","","","","","",""
"","learn_trial","categorize-lines","65","398780","0.0-3.0-0.59","20211015","165","620","","","","","","","","[258.5615]","[258.5615]","[""u"",""i""]","[""""]","null","true","in","u","YES","","1","in","","","","258.5615","learning","11.16","","","","","","","","","","","","","","","","","","","","","","","",""
"","learn_trial","categorize-lines","66","401636","0.0-3.0-0.60","20211015","165","826","","","","","","","","[251.8382]","[251.8382]","[""u"",""i""]","[""""]","null","true","in","u","YES","","1","in","","","","251.8382","learning","10.62","","","","","","","","","","","","","","","","","","","","","","","",""
"","learn_trial","categorize-lines","67","406356","0.0-3.0-0.61","20211015","165","692","","","","","","","","[304.621]","[304.621]","[""u"",""i""]","[""""]","null","true","out","u","YES","","0","out","","","","304.621","learning","14.52","","","","","","","","","","","","","","","","","","","","","","","",""
"","learn_trial","categorize-lines","68","411116","0.0-3.0-0.62","20211015","165","734","","","","","","","","[257.4286]","[257.4286]","[""u"",""i""]","[""""]","null","true","out","u","YES","","0","out","","","","257.4286","learning","11.07","","","","","","","","","","","","","","","","","","","","","","","",""
"","learn_trial","categorize-lines","69","416204","0.0-3.0-0.63","20211015","165","1058","","","","","","","","[346.6662]","[346.6662]","[""u"",""i""]","[""""]","null","true","in","i","NO","","0","in","","","","346.6662","learning","17.17","","","","","","","","","","","","","","","","","","","","","","","",""
"","learn_trial","categorize-lines","70","420850","0.0-3.0-0.64","20211015","165","620","","","","","","","","[282.5715]","[282.5715]","[""u"",""i""]","[""""]","null","true","out","u","YES","","0","out","","","","282.5715","learning","12.98","","","","","","","","","","","","","","","","","","","","","","","",""
"","learn_trial","categorize-lines","71","423756","0.0-3.0-0.65","20211015","165","876","","","","","","","","[176.8932]","[176.8932]","[""u"",""i""]","[""""]","null","true","out","i","NO","","1","out","","","","176.8932","learning","3.38","","","","","","","","","","","","","","","","","","","","","","","",""
"","learn_trial","categorize-lines","72","429364","0.0-3.0-0.66","20211015","165","1578","","","","","","","","[306.8586]","[306.8586]","[""u"",""i""]","[""""]","null","true","out","u","YES","","0","out","","","","306.8586","learning","14.67","","","","","","","","","","","","","","","","","","","","","","","",""
"","learn_trial","categorize-lines","73","432148","0.0-3.0-0.67","20211015","165","756","","","","","","","","[226.0962]","[226.0962]","[""u"",""i""]","[""""]","null","true","in","u","YES","","1","in","","","","226.0962","learning","8.41","","","","","","","","","","","","","","","","","","","","","","","",""
"","learn_trial","categorize-lines","74","437900","0.0-3.0-0.68","20211015","165","1722","","","","","","","","[157.3464]","[157.3464]","[""u"",""i""]","[""""]","null","true","out","u","YES","","0","out","","","","157.3464","learning","0.98","","","","","","","","","","","","","","","","","","","","","","","",""
"","learn_trial","categorize-lines","75","442780","0.0-3.0-0.69","20211015","165","850","","","","","","","","[389.5417]","[389.5417]","[""u"",""i""]","[""""]","null","true","in","i","NO","","0","in","","","","389.5417","learning","19.56","","","","","","","","","","","","","","","","","","","","","","","",""
"","learn_trial","categorize-lines","76","448084","0.0-3.0-0.70","20211015","165","1274","","","","","","","","[348.1918]","[348.1918]","[""u"",""i""]","[""""]","null","true","out","u","YES","","0","out","","","","348.1918","learning","17.26","","","","","","","","","","","","","","","","","","","","","","","",""
"","learn_trial","categorize-lines","77","451332","0.0-3.0-0.71","20211015","165","1218","","","","","","","","[315.3583]","[315.3583]","[""u"",""i""]","[""""]","null","true","out","i","NO","","1","out","","","","315.3583","learning","15.23","","","","","","","","","","","","","","","","","","","","","","","",""
"","learn_trial","categorize-lines","78","454668","0.0-3.0-0.72","20211015","165","1308","","","","","","","","[160.7608]","[160.7608]","[""u"",""i""]","[""""]","null","true","out","i","NO","","1","out","","","","160.7608","learning","1.42","","","","","","","","","","","","","","","","","","","","","","","",""
"","learn_trial","categorize-lines","79","457516","0.0-3.0-0.73","20211015","165","818","","","","","","","","[183.2177]","[183.2177]","[""u"",""i""]","[""""]","null","true","out","i","NO","","1","out","","","","183.2177","learning","4.1","","","","","","","","","","","","","","","","","","","","","","","",""
"","learn_trial","categorize-lines","80","462388","0.0-3.0-0.74","20211015","165","842","","","","","","","","[235.3252]","[235.3252]","[""u"",""i""]","[""""]","null","true","out","u","YES","","0","out","","","","235.3252","learning","9.23","","","","","","","","","","","","","","","","","","","","","","","",""
"","learn_trial","categorize-lines","81","465116","0.0-3.0-0.75","20211015","165","698","","","","","","","","[249.3927]","[249.3927]","[""u"",""i""]","[""""]","null","true","out","i","NO","","1","out","","","","249.3927","learning","10.42","","","","","","","","","","","","","","","","","","","","","","","",""
"","learn_trial","categorize-lines","82","469748","0.0-3.0-0.76","20211015","165","602","","","","","","","","[241.019]","[241.019]","[""u"",""i""]","[""""]","null","true","in","i","NO","","0","in","","","","241.019","learning","9.72","","","","","","","","","","","","","","","","","","","","","","","",""
"","learn_trial","categorize-lines","83","472556","0.0-3.0-0.77","20211015","165","778","","","","","","","","[414.4426]","[414.4426]","[""u"",""i""]","[""""]","null","true","out","i","NO","","1","out","","","","414.4426","learning","20.83","","","","","","","","","","","","","","","","","","","","","","","",""
"","learn_trial","categorize-lines","84","477194","0.0-3.0-0.78","20211015","165","610","","","","","","","","[189.4907]","[189.4907]","[""u"",""i""]","[""""]","null","true","out","u","YES","","0","out","","","","189.4907","learning","4.79","","","","","","","","","","","","","","","","","","","","","","","",""
"","learn_trial","categorize-lines","85","483524","0.0-3.0-0.79","20211015","165","2300","","","","","","","","[228.4247]","[228.4247]","[""u"",""i""]","[""""]","null","true","out","u","YES","","0","out","","","","228.4247","learning","8.62","","","","","","","","","","","","","","","","","","","","","","","",""
"","learn_trial","categorize-lines","86","486716","0.0-3.0-0.80","20211015","165","1164","","","","","","","","[233.8373]","[233.8373]","[""u"",""i""]","[""""]","null","true","in","u","YES","","1","in","","","","233.8373","learning","9.1","","","","","","","","","","","","","","","","","","","","","","","",""
"","learn_trial","categorize-lines","87","489722","0.0-3.0-0.81","20211015","165","980","","","","","","","","[273.0837]","[273.0837]","[""u"",""i""]","[""""]","null","true","out","i","NO","","1","out","","","","273.0837","learning","12.28","","","","","","","","","","","","","","","","","","","","","","","",""
"","learn_trial","categorize-lines","88","492804","0.0-3.0-0.82","20211015","165","1052","","","","","","","","[169.8728]","[169.8728]","[""u"",""i""]","[""""]","null","true","out","i","NO","","1","out","","","","169.8728","learning","2.55","","","","","","","","","","","","","","","","","","","","","","","",""
"","learn_trial","categorize-lines","89","496284","0.0-3.0-0.83","20211015","165","1450","","","","","","","","[246.0089]","[246.0089]","[""u"",""i""]","[""""]","null","true","in","u","YES","","1","in","","","","246.0089","learning","10.14","","","","","","","","","","","","","","","","","","","","","","","",""
"","learn_trial","categorize-lines","90","501516","0.0-3.0-0.84","20211015","165","1204","","","","","","","","[234.2942]","[234.2942]","[""u"",""i""]","[""""]","null","true","in","i","NO","","0","in","","","","234.2942","learning","9.14","","","","","","","","","","","","","","","","","","","","","","","",""
"","learn_trial","categorize-lines","91","506396","0.0-3.0-0.85","20211015","165","852","","","","","","","","[275.2239]","[275.2239]","[""u"",""i""]","[""""]","null","true","in","i","NO","","0","in","","","","275.2239","learning","12.44","","","","","","","","","","","","","","","","","","","","","","","",""
"","learn_trial","categorize-lines","92","511236","0.0-3.0-0.86","20211015","165","812","","","","","","","","[319.8521]","[319.8521]","[""u"",""i""]","[""""]","null","true","in","i","NO","","0","in","","","","319.8521","learning","15.52","","","","","","","","","","","","","","","","","","","","","","","",""
"","learn_trial","categorize-lines","93","514194","0.0-3.0-0.87","20211015","165","932","","","","","","","","[155.8185]","[155.8185]","[""u"",""i""]","[""""]","null","true","out","i","NO","","1","out","","","","155.8185","learning","0.78","","","","","","","","","","","","","","","","","","","","","","","",""
"","learn_trial","categorize-lines","94","517020","0.0-3.0-0.88","20211015","165","792","","","","","","","","[340.7966]","[340.7966]","[""u"",""i""]","[""""]","null","true","out","i","NO","","1","out","","","","340.7966","learning","16.82","","","","","","","","","","","","","","","","","","","","","","","",""
"","learn_trial","categorize-lines","95","519788","0.0-3.0-0.89","20211015","165","738","","","","","","","","[189.1213]","[189.1213]","[""u"",""i""]","[""""]","null","true","out","i","NO","","1","out","","","","189.1213","learning","4.75","","","","","","","","","","","","","","","","","","","","","","","",""
"","learn_trial","categorize-lines","96","524876","0.0-3.0-0.90","20211015","165","1060","","","","","","","","[328.3911]","[328.3911]","[""u"",""i""]","[""""]","null","true","out","u","YES","","0","out","","","","328.3911","learning","16.06","","","","","","","","","","","","","","","","","","","","","","","",""
"","learn_trial","categorize-lines","97","527956","0.0-3.0-0.91","20211015","165","1050","","","","","","","","[215.1197]","[215.1197]","[""u"",""i""]","[""""]","null","true","in","u","YES","","1","in","","","","215.1197","learning","7.39","","","","","","","","","","","","","","","","","","","","","","","",""
"","learn_trial","categorize-lines","98","533068","0.0-3.0-0.92","20211015","165","1084","","","","","","","","[352.1211]","[352.1211]","[""u"",""i""]","[""""]","null","true","out","u","YES","","0","out","","","","352.1211","learning","17.49","","","","","","","","","","","","","","","","","","","","","","","",""
"","learn_trial","categorize-lines","99","537738","0.0-3.0-0.93","20211015","165","644","","","","","","","","[255.801]","[255.801]","[""u"",""i""]","[""""]","null","true","out","u","YES","","0","out","","","","255.801","learning","10.94","","","","","","","","","","","","","","","","","","","","","","","",""
"","learn_trial","categorize-lines","100","540612","0.0-3.0-0.94","20211015","165","842","","","","","","","","[213.0308]","[213.0308]","[""u"",""i""]","[""""]","null","true","in","u","YES","","1","in","","","","213.0308","learning","7.19","","","","","","","","","","","","","","","","","","","","","","","",""
"","learn_trial","categorize-lines","101","543634","0.0-3.0-0.95","20211015","165","994","","","","","","","","[235.4401]","[235.4401]","[""u"",""i""]","[""""]","null","true","in","u","YES","","1","in","","","","235.4401","learning","9.24","","","","","","","","","","","","","","","","","","","","","","","",""
"","learn_trial","categorize-lines","102","548404","0.0-3.0-0.96","20211015","165","740","","","","","","","","[214.2817]","[214.2817]","[""u"",""i""]","[""""]","null","true","out","u","YES","","0","out","","","","214.2817","learning","7.31","","","","","","","","","","","","","","","","","","","","","","","",""
"","learn_trial","categorize-lines","103","553394","0.0-3.0-0.97","20211015","165","964","","","","","","","","[274.6873]","[274.6873]","[""u"",""i""]","[""""]","null","true","out","u","YES","","0","out","","","","274.6873","learning","12.4","","","","","","","","","","","","","","","","","","","","","","","",""
"","learn_trial","categorize-lines","104","556810","0.0-3.0-0.98","20211015","165","1388","","","","","","","","[244.931]","[244.931]","[""u"",""i""]","[""""]","null","true","out","i","NO","","1","out","","","","244.931","learning","10.05","","","","","","","","","","","","","","","","","","","","","","","",""
"","learn_trial","categorize-lines","105","562378","0.0-3.0-0.99","20211015","165","1540","","","","","","","","[243.7389]","[243.7389]","[""u"",""i""]","[""""]","null","true","in","i","NO","","0","in","","","","243.7389","learning","9.95","","","","","","","","","","","","","","","","","","","","","","","",""
"","learn_trial","categorize-lines","106","565594","0.0-3.0-0.100","20211015","165","1186","","","","","","","","[391.0651]","[391.0651]","[""u"",""i""]","[""""]","null","true","out","i","NO","","1","out","","","","391.0651","learning","19.64","","","","","","","","","","","","","","","","","","","","","","","",""
"","learn_trial","categorize-lines","107","568572","0.0-3.0-0.101","20211015","165","948","","","","","","","","[268.0673]","[268.0673]","[""u"",""i""]","[""""]","null","true","out","i","NO","","1","out","","","","268.0673","learning","11.9","","","","","","","","","","","","","","","","","","","","","","","",""
"","learn_trial","categorize-lines","108","571338","0.0-3.0-0.102","20211015","165","740","","","","","","","","[179.6767]","[179.6767]","[""u"",""i""]","[""""]","null","true","out","i","NO","","1","out","","","","179.6767","learning","3.7","","","","","","","","","","","","","","","","","","","","","","","",""
"","learn_trial","categorize-lines","109","573794","0.0-3.0-0.103","20211015","165","428","","","","","","","","[292.6743]","[292.6743]","[""u"",""i""]","[""""]","null","true","out","i","NO","","1","out","","","","292.6743","learning","13.7","","","","","","","","","","","","","","","","","","","","","","","",""
"","learn_trial","categorize-lines","110","576260","0.0-3.0-0.104","20211015","165","436","","","","","","","","[204.9759]","[204.9759]","[""u"",""i""]","[""""]","null","true","in","u","YES","","1","in","","","","204.9759","learning","6.4","","","","","","","","","","","","","","","","","","","","","","","",""
"","learn_trial","categorize-lines","111","579772","0.0-3.0-0.105","20211015","165","1482","","","","","","","","[274.8213]","[274.8213]","[""u"",""i""]","[""""]","null","true","out","i","NO","","1","out","","","","274.8213","learning","12.41","","","","","","","","","","","","","","","","","","","","","","","",""
"","learn_trial","categorize-lines","112","584642","0.0-3.0-0.106","20211015","165","842","","","","","","","","[308.8111]","[308.8111]","[""u"",""i""]","[""""]","null","true","in","i","NO","","0","in","","","","308.8111","learning","14.8","","","","","","","","","","","","","","","","","","","","","","","",""
"","learn_trial","categorize-lines","113","587004","0.0-3.0-0.107","20211015","165","330","","","","","","","","[304.3239]","[304.3239]","[""u"",""i""]","[""""]","null","true","in","u","YES","","1","in","","","","304.3239","learning","14.5","","","","","","","","","","","","","","","","","","","","","","","",""
"","learn_trial","categorize-lines","114","590114","0.0-3.0-0.108","20211015","165","1082","","","","","","","","[314.8971]","[314.8971]","[""u"",""i""]","[""""]","null","true","in","u","YES","","1","in","","","","314.8971","learning","15.2","","","","","","","","","","","","","","","","","","","","","","","",""
"","learn_trial","categorize-lines","115","592804","0.0-3.0-0.109","20211015","165","660","","","","","","","","[219.1453]","[219.1453]","[""u"",""i""]","[""""]","null","true","in","u","YES","","1","in","","","","219.1453","learning","7.77","","","","","","","","","","","","","","","","","","","","","","","",""
"","learn_trial","categorize-lines","116","595450","0.0-3.0-0.110","20211015","165","620","","","","","","","","[338.8071]","[338.8071]","[""u"",""i""]","[""""]","null","true","out","i","NO","","1","out","","","","338.8071","learning","16.7","","","","","","","","","","","","","","","","","","","","","","","",""
"","learn_trial","categorize-lines","117","600298","0.0-3.0-0.111","20211015","165","820","","","","","","","","[245.4095]","[245.4095]","[""u"",""i""]","[""""]","null","true","in","i","NO","","0","in","","","","245.4095","learning","10.09","","","","","","","","","","","","","","","","","","","","","","","",""
"","learn_trial","categorize-lines","118","603050","0.0-3.0-0.112","20211015","165","724","","","","","","","","[270.9602]","[270.9602]","[""u"",""i""]","[""""]","null","true","in","u","YES","","1","in","","","","270.9602","learning","12.12","","","","","","","","","","","","","","","","","","","","","","","",""
"","learn_trial","categorize-lines","119","608170","0.0-3.0-0.113","20211015","165","1092","","","","","","","","[281.4707]","[281.4707]","[""u"",""i""]","[""""]","null","true","in","i","NO","","0","in","","","","281.4707","learning","12.9","","","","","","","","","","","","","","","","","","","","","","","",""
"","learn_trial","categorize-lines","120","612586","0.0-3.0-0.114","20211015","165","388","","","","","","","","[153.0308]","[153.0308]","[""u"",""i""]","[""""]","null","true","out","u","YES","","0","out","","","","153.0308","learning","0.41","","","","","","","","","","","","","","","","","","","","","","","",""
"","learn_trial","categorize-lines","121","615322","0.0-3.0-0.115","20211015","165","708","","","","","","","","[225.3253]","[225.3253]","[""u"",""i""]","[""""]","null","true","in","u","YES","","1","in","","","","225.3253","learning","8.34","","","","","","","","","","","","","","","","","","","","","","","",""
"","learn_trial","categorize-lines","122","620276","0.0-3.0-0.116","20211015","165","924","","","","","","","","[397.6065]","[397.6065]","[""u"",""i""]","[""""]","null","true","in","i","NO","","0","in","","","","397.6065","learning","19.98","","","","","","","","","","","","","","","","","","","","","","","",""
"","learn_trial","categorize-lines","123","625074","0.0-3.0-0.117","20211015","165","770","","","","","","","","[215.1197]","[215.1197]","[""u"",""i""]","[""""]","null","true","in","i","NO","","0","in","","","","215.1197","learning","7.39","","","","","","","","","","","","","","","","","","","","","","","",""
"","learn_trial","categorize-lines","124","627218","0.0-3.0-0.118","20211015","165","116","","","","","","","","[302.5474]","[302.5474]","[""u"",""i""]","[""""]","null","true","in","u","YES","","1","in","","","","302.5474","learning","14.38","","","","","","","","","","","","","","","","","","","","","","","",""
"","learn_trial","categorize-lines","125","631594","0.0-3.0-0.119","20211015","165","346","","","","","","","","[305.9616]","[305.9616]","[""u"",""i""]","[""""]","null","true","in","i","NO","","0","in","","","","305.9616","learning","14.61","","","","","","","","","","","","","","","","","","","","","","","",""
"","learn_trial","categorize-lines","126","634010","0.0-3.0-0.120","20211015","165","388","","","","","","","","[198.8682]","[198.8682]","[""u"",""i""]","[""""]","null","true","in","u","YES","","1","in","","","","198.8682","learning","5.78","","","","","","","","","","","","","","","","","","","","","","","",""
"","learn_trial","categorize-lines","127","638522","0.0-3.0-0.121","20211015","165","484","","","","","","","","[224.886]","[224.886]","[""u"",""i""]","[""""]","null","true","in","i","NO","","0","in","","","","224.886","learning","8.3","","","","","","","","","","","","","","","","","","","","","","","",""
"","learn_trial","categorize-lines","128","641458","0.0-3.0-0.122","20211015","165","908","","","","","","","","[289.5496]","[289.5496]","[""u"",""i""]","[""""]","null","true","in","u","YES","","1","in","","","","289.5496","learning","13.48","","","","","","","","","","","","","","","","","","","","","","","",""
"","learn_trial","categorize-lines","129","646378","0.0-3.0-0.123","20211015","165","892","","","","","","","","[262.5019]","[262.5019]","[""u"",""i""]","[""""]","null","true","in","i","NO","","0","in","","","","262.5019","learning","11.47","","","","","","","","","","","","","","","","","","","","","","","",""
"","learn_trial","categorize-lines","130","648698","0.0-3.0-0.124","20211015","165","292","","","","","","","","[259.6994]","[259.6994]","[""u"",""i""]","[""""]","null","true","in","u","YES","","1","in","","","","259.6994","learning","11.25","","","","","","","","","","","","","","","","","","","","","","","",""
"","learn_trial","categorize-lines","131","651218","0.0-3.0-0.125","20211015","165","492","","","","","","","","[243.0264]","[243.0264]","[""u"",""i""]","[""""]","null","true","out","i","NO","","1","out","","","","243.0264","learning","9.89","","","","","","","","","","","","","","","","","","","","","","","",""
"","learn_trial","categorize-lines","132","654642","0.0-3.0-0.126","20211015","165","1396","","","","","","","","[223.5732]","[223.5732]","[""u"",""i""]","[""""]","null","true","in","u","YES","","1","in","","","","223.5732","learning","8.18","","","","","","","","","","","","","","","","","","","","","","","",""
"","learn_trial","categorize-lines","133","657866","0.0-3.0-0.127","20211015","165","1196","","","","","","","","[206.4815]","[206.4815]","[""u"",""i""]","[""""]","null","true","out","i","NO","","1","out","","","","206.4815","learning","6.55","","","","","","","","","","","","","","","","","","","","","","","",""
"","learn_trial","categorize-lines","134","662698","0.0-3.0-0.128","20211015","165","804","","","","","","","","[231.4537]","[231.4537]","[""u"",""i""]","[""""]","null","true","in","i","NO","","0","in","","","","231.4537","learning","8.89","","","","","","","","","","","","","","","","","","","","","","","",""
"","learn_trial","categorize-lines","135","665082","0.0-3.0-0.129","20211015","165","356","","","","","","","","[214.9099]","[214.9099]","[""u"",""i""]","[""""]","null","true","out","i","NO","","1","out","","","","214.9099","learning","7.37","","","","","","","","","","","","","","","","","","","","","","","",""
"","learn_trial","categorize-lines","136","667550","0.0-3.0-0.130","20211015","165","436","","","","","","","","[172.2094]","[172.2094]","[""u"",""i""]","[""""]","null","true","out","i","NO","","1","out","","","","172.2094","learning","2.83","","","","","","","","","","","","","","","","","","","","","","","",""
"","learn_trial","categorize-lines","137","669922","0.0-3.0-0.131","20211015","165","344","","","","","","","","[300.928]","[300.928]","[""u"",""i""]","[""""]","null","true","out","i","NO","","1","out","","","","300.928","learning","14.27","","","","","","","","","","","","","","","","","","","","","","","",""
"","learn_trial","categorize-lines","138","674394","0.0-3.0-0.132","20211015","165","444","","","","","","","","[233.9515]","[233.9515]","[""u"",""i""]","[""""]","null","true","in","i","NO","","0","in","","","","233.9515","learning","9.11","","","","","","","","","","","","","","","","","","","","","","","",""
"","learn_trial","categorize-lines","139","678802","0.0-3.0-0.133","20211015","165","382","","","","","","","","[196.841]","[196.841]","[""u"",""i""]","[""""]","null","true","out","u","YES","","0","out","","","","196.841","learning","5.57","","","","","","","","","","","","","","","","","","","","","","","",""
"","learn_trial","categorize-lines","140","681240","0.0-3.0-0.134","20211015","165","408","","","","","","","","[272.5513]","[272.5513]","[""u"",""i""]","[""""]","null","true","out","i","NO","","1","out","","","","272.5513","learning","12.24","","","","","","","","","","","","","","","","","","","","","","","",""
"","learn_trial","categorize-lines","141","685850","0.0-3.0-0.135","20211015","165","582","","","","","","","","[372.443]","[372.443]","[""u"",""i""]","[""""]","null","true","in","i","NO","","0","in","","","","372.443","learning","18.64","","","","","","","","","","","","","","","","","","","","","","","",""
"","learn_trial","categorize-lines","142","688530","0.0-3.0-0.136","20211015","165","652","","","","","","","","[228.6477]","[228.6477]","[""u"",""i""]","[""""]","null","true","in","u","YES","","1","in","","","","228.6477","learning","8.64","","","","","","","","","","","","","","","","","","","","","","","",""
"","learn_trial","categorize-lines","143","691098","0.0-3.0-0.137","20211015","165","540","","","","","","","","[316.4372]","[316.4372]","[""u"",""i""]","[""""]","null","true","in","u","YES","","1","in","","","","316.4372","learning","15.3","","","","","","","","","","","","","","","","","","","","","","","",""
"","learn_trial","categorize-lines","144","693666","0.0-3.0-0.138","20211015","165","538","","","","","","","","[259.5727]","[259.5727]","[""u"",""i""]","[""""]","null","true","in","u","YES","","1","in","","","","259.5727","learning","11.24","","","","","","","","","","","","","","","","","","","","","","","",""
"","learn_trial","categorize-lines","145","696138","0.0-3.0-0.139","20211015","165","446","","","","","","","","[302.3998]","[302.3998]","[""u"",""i""]","[""""]","null","true","out","i","NO","","1","out","","","","302.3998","learning","14.37","","","","","","","","","","","","","","","","","","","","","","","",""
"","learn_trial","categorize-lines","146","700576","0.0-3.0-0.140","20211015","165","410","","","","","","","","[242.6709]","[242.6709]","[""u"",""i""]","[""""]","null","true","in","i","NO","","0","in","","","","242.6709","learning","9.86","","","","","","","","","","","","","","","","","","","","","","","",""
"","learn_trial","categorize-lines","147","704842","0.0-3.0-0.141","20211015","165","238","","","","","","","","[335.8447]","[335.8447]","[""u"",""i""]","[""""]","null","true","out","u","YES","","0","out","","","","335.8447","learning","16.52","","","","","","","","","","","","","","","","","","","","","","","",""
"","learn_trial","categorize-lines","148","709322","0.0-3.0-0.142","20211015","165","454","","","","","","","","[280.511]","[280.511]","[""u"",""i""]","[""""]","null","true","in","i","NO","","0","in","","","","280.511","learning","12.83","","","","","","","","","","","","","","","","","","","","","","","",""
"","learn_trial","categorize-lines","149","711658","0.0-3.0-0.143","20211015","165","310","","","","","","","","[264.3011]","[264.3011]","[""u"",""i""]","[""""]","null","true","in","u","YES","","1","in","","","","264.3011","learning","11.61","","","","","","","","","","","","","","","","","","","","","","","",""
"","learn_trial","categorize-lines","150","714058","0.0-3.0-0.144","20211015","165","374","","","","","","","","[205.4765]","[205.4765]","[""u"",""i""]","[""""]","null","true","in","u","YES","","1","in","","","","205.4765","learning","6.45","","","","","","","","","","","","","","","","","","","","","","","",""
"","learn_trial","categorize-lines","151","719098","0.0-3.0-0.145","20211015","165","1010","","","","","","","","[356.0948]","[356.0948]","[""u"",""i""]","[""""]","null","true","in","i","NO","","0","in","","","","356.0948","learning","17.72","","","","","","","","","","","","","","","","","","","","","","","",""
"","learn_trial","categorize-lines","152","721786","0.0-3.0-0.146","20211015","165","660","","","","","","","","[402.0934]","[402.0934]","[""u"",""i""]","[""""]","null","true","out","i","NO","","1","out","","","","402.0934","learning","20.21","","","","","","","","","","","","","","","","","","","","","","","",""
"","learn_trial","categorize-lines","153","726330","0.0-3.0-0.147","20211015","165","514","","","","","","","","[248.5424]","[248.5424]","[""u"",""i""]","[""""]","null","true","in","i","NO","","0","in","","","","248.5424","learning","10.35","","","","","","","","","","","","","","","","","","","","","","","",""
"","learn_trial","categorize-lines","154","731466","0.0-3.0-0.148","20211015","165","1106","","","","","","","","[378.8576]","[378.8576]","[""u"",""i""]","[""""]","null","true","out","u","YES","","0","out","","","","378.8576","learning","18.99","","","","","","","","","","","","","","","","","","","","","","","",""
"","learn_trial","categorize-lines","155","735930","0.0-3.0-0.149","20211015","165","434","","","","","","","","[303.4343]","[303.4343]","[""u"",""i""]","[""""]","null","true","in","i","NO","","0","in","","","","303.4343","learning","14.44","","","","","","","","","","","","","","","","","","","","","","","",""
"","learn_trial","categorize-lines","156","739338","0.0-3.0-0.150","20211015","165","1380","","","","","","","","[173.1362]","[173.1362]","[""u"",""i""]","[""""]","null","true","out","i","NO","","1","out","","","","173.1362","learning","2.94","","","","","","","","","","","","","","","","","","","","","","","",""
"","learn_trial","categorize-lines","157","744450","0.0-3.0-0.151","20211015","165","1084","","","","","","","","[338.1466]","[338.1466]","[""u"",""i""]","[""""]","null","true","out","u","YES","","0","out","","","","338.1466","learning","16.66","","","","","","","","","","","","","","","","","","","","","","","",""
"","learn_trial","categorize-lines","158","747282","0.0-3.0-0.152","20211015","165","802","","","","","","","","[188.2927]","[188.2927]","[""u"",""i""]","[""""]","null","true","out","i","NO","","1","out","","","","188.2927","learning","4.66","","","","","","","","","","","","","","","","","","","","","","","",""
"","learn_trial","categorize-lines","159","751954","0.0-3.0-0.153","20211015","165","642","","","","","","","","[235.555]","[235.555]","[""u"",""i""]","[""""]","null","true","in","i","NO","","0","in","","","","235.555","learning","9.25","","","","","","","","","","","","","","","","","","","","","","","",""
"","learn_trial","categorize-lines","160","756328","0.0-3.0-0.154","20211015","165","346","","","","","","","","[177.9319]","[177.9319]","[""u"",""i""]","[""""]","null","true","out","u","YES","","0","out","","","","177.9319","learning","3.5","","","","","","","","","","","","","","","","","","","","","","","",""
"","learn_trial","categorize-lines","161","760722","0.0-3.0-0.155","20211015","165","364","","","","","","","","[196.3614]","[196.3614]","[""u"",""i""]","[""""]","null","true","in","i","NO","","0","in","","","","196.3614","learning","5.52","","","","","","","","","","","","","","","","","","","","","","","",""
"","learn_trial","categorize-lines","162","762930","0.0-3.0-0.156","20211015","165","178","","","","","","","","[179.0641]","[179.0641]","[""u"",""i""]","[""""]","null","true","in","u","YES","","1","in","","","","179.0641","learning","3.63","","","","","","","","","","","","","","","","","","","","","","","",""
"","learn_trial","categorize-lines","163","767306","0.0-3.0-0.157","20211015","165","346","","","","","","","","[217.0172]","[217.0172]","[""u"",""i""]","[""""]","null","true","out","u","YES","","0","out","","","","217.0172","learning","7.57","","","","","","","","","","","","","","","","","","","","","","","",""
"","learn_trial","categorize-lines","164","769618","0.0-3.0-0.158","20211015","165","282","","","","","","","","[284.5082]","[284.5082]","[""u"",""i""]","[""""]","null","true","out","i","NO","","1","out","","","","284.5082","learning","13.12","","","","","","","","","","","","","","","","","","","","","","","",""
"","learn_trial","categorize-lines","165","771962","0.0-3.0-0.159","20211015","165","316","","","","","","","","[226.3169]","[226.3169]","[""u"",""i""]","[""""]","null","true","out","i","NO","","1","out","","","","226.3169","learning","8.43","","","","","","","","","","","","","","","","","","","","","","","",""
"","learn_trial","categorize-lines","166","774282","0.0-3.0-0.160","20211015","165","290","","","","","","","","[414.0384]","[414.0384]","[""u"",""i""]","[""""]","null","true","out","i","NO","","1","out","","","","414.0384","learning","20.81","","","","","","","","","","","","","","","","","","","","","","","",""
"","learn_trial","categorize-lines","167","776600","0.0-3.0-0.161","20211015","165","288","","","","","","","","[290.1153]","[290.1153]","[""u"",""i""]","[""""]","null","true","in","u","YES","","1","in","","","","290.1153","learning","13.52","","","","","","","","","","","","","","","","","","","","","","","",""
"","learn_trial","categorize-lines","168","780898","0.0-3.0-0.162","20211015","165","268","","","","","","","","[215.6451]","[215.6451]","[""u"",""i""]","[""""]","null","true","out","u","YES","","0","out","","","","215.6451","learning","7.44","","","","","","","","","","","","","","","","","","","","","","","",""
"","learn_trial","categorize-lines","169","783258","0.0-3.0-0.163","20211015","165","330","","","","","","","","[219.6805]","[219.6805]","[""u"",""i""]","[""""]","null","true","in","u","YES","","1","in","","","","219.6805","learning","7.82","","","","","","","","","","","","","","","","","","","","","","","",""
"","learn_trial","categorize-lines","170","787770","0.0-3.0-0.164","20211015","165","484","","","","","","","","[219.6805]","[219.6805]","[""u"",""i""]","[""""]","null","true","in","i","NO","","0","in","","","","219.6805","learning","7.82","","","","","","","","","","","","","","","","","","","","","","","",""
"","learn_trial","categorize-lines","171","792114","0.0-3.0-0.165","20211015","165","316","","","","","","","","[211.2711]","[211.2711]","[""u"",""i""]","[""""]","null","true","out","u","YES","","0","out","","","","211.2711","learning","7.02","","","","","","","","","","","","","","","","","","","","","","","",""
"","learn_trial","categorize-lines","172","796546","0.0-3.0-0.166","20211015","165","400","","","","","","","","[287.8593]","[287.8593]","[""u"",""i""]","[""""]","null","true","in","i","NO","","0","in","","","","287.8593","learning","13.36","","","","","","","","","","","","","","","","","","","","","","","",""
"","learn_trial","categorize-lines","173","798850","0.0-3.0-0.167","20211015","165","276","","","","","","","","[356.0948]","[356.0948]","[""u"",""i""]","[""""]","null","true","in","u","YES","","1","in","","","","356.0948","learning","17.72","","","","","","","","","","","","","","","","","","","","","","","",""
"","learn_trial","categorize-lines","174","801240","0.0-3.0-0.168","20211015","165","364","","","","","","","","[292.2463]","[292.2463]","[""u"",""i""]","[""""]","null","true","in","u","YES","","1","in","","","","292.2463","learning","13.67","","","","","","","","","","","","","","","","","","","","","","","",""
"","learn_trial","categorize-lines","175","805748","0.0-3.0-0.169","20211015","165","478","","","","","","","","[160.2908]","[160.2908]","[""u"",""i""]","[""""]","null","true","out","u","YES","","0","out","","","","160.2908","learning","1.36","","","","","","","","","","","","","","","","","","","","","","","",""
"","learn_trial","categorize-lines","176","808072","0.0-3.0-0.170","20211015","165","296","","","","","","","","[282.8474]","[282.8474]","[""u"",""i""]","[""""]","null","true","out","i","NO","","1","out","","","","282.8474","learning","13","","","","","","","","","","","","","","","","","","","","","","","",""
"","learn_trial","categorize-lines","177","812578","0.0-3.0-0.171","20211015","165","476","","","","","","","","[269.5099]","[269.5099]","[""u"",""i""]","[""""]","null","true","in","i","NO","","0","in","","","","269.5099","learning","12.01","","","","","","","","","","","","","","","","","","","","","","","",""
"","learn_trial","categorize-lines","178","815016","0.0-3.0-0.172","20211015","165","412","","","","","","","","[235.0957]","[235.0957]","[""u"",""i""]","[""""]","null","true","in","u","YES","","1","in","","","","235.0957","learning","9.21","","","","","","","","","","","","","","","","","","","","","","","",""
"","learn_trial","categorize-lines","179","817826","0.0-3.0-0.173","20211015","165","778","","","","","","","","[354.016]","[354.016]","[""u"",""i""]","[""""]","null","true","in","u","YES","","1","in","","","","354.016","learning","17.6","","","","","","","","","","","","","","","","","","","","","","","",""
"","learn_trial","categorize-lines","180","822586","0.0-3.0-0.174","20211015","165","712","","","","","","","","[395.4783]","[395.4783]","[""u"",""i""]","[""""]","null","true","out","u","YES","","0","out","","","","395.4783","learning","19.87","","","","","","","","","","","","","","","","","","","","","","","",""
"","learn_trial","categorize-lines","181","824866","0.0-3.0-0.175","20211015","165","252","","","","","","","","[367.2103]","[367.2103]","[""u"",""i""]","[""""]","null","true","out","i","NO","","1","out","","","","367.2103","learning","18.35","","","","","","","","","","","","","","","","","","","","","","","",""
"","learn_trial","categorize-lines","182","829234","0.0-3.0-0.176","20211015","165","340","","","","","","","","[196.2656]","[196.2656]","[""u"",""i""]","[""""]","null","true","in","i","NO","","0","in","","","","196.2656","learning","5.51","","","","","","","","","","","","","","","","","","","","","","","",""
"","learn_trial","categorize-lines","183","835722","0.0-3.0-0.177","20211015","165","2458","","","","","","","","[380.8964]","[380.8964]","[""u"",""i""]","[""""]","null","true","out","u","YES","","0","out","","","","380.8964","learning","19.1","","","","","","","","","","","","","","","","","","","","","","","",""
"","learn_trial","categorize-lines","184","838088","0.0-3.0-0.178","20211015","165","340","","","","","","","","[343.8027]","[343.8027]","[""u"",""i""]","[""""]","null","true","out","i","NO","","1","out","","","","343.8027","learning","17","","","","","","","","","","","","","","","","","","","","","","","",""
"","learn_trial","categorize-lines","185","840762","0.0-3.0-0.179","20211015","165","644","","","","","","","","[433.4695]","[433.4695]","[""u"",""i""]","[""""]","null","true","out","i","NO","","1","out","","","","433.4695","learning","21.75","","","","","","","","","","","","","","","","","","","","","","","",""
"","learn_trial","categorize-lines","186","845714","0.0-3.0-0.180","20211015","165","922","","","","","","","","[186.3733]","[186.3733]","[""u"",""i""]","[""""]","null","true","out","u","YES","","0","out","","","","186.3733","learning","4.45","","","","","","","","","","","","","","","","","","","","","","","",""
"","learn_trial","categorize-lines","187","847754","0.0-3.0-0.181","20211015","165","12","","","","","","","","[354.5346]","[354.5346]","[""u"",""i""]","[""""]","null","true","in","u","YES","","1","in","","","","354.5346","learning","17.63","","","","","","","","","","","","","","","","","","","","","","","",""
"","learn_trial","categorize-lines","188","850522","0.0-3.0-0.182","20211015","165","740","","","","","","","","[319.0728]","[319.0728]","[""u"",""i""]","[""""]","null","true","in","u","YES","","1","in","","","","319.0728","learning","15.47","","","","","","","","","","","","","","","","","","","","","","","",""
"","learn_trial","categorize-lines","189","853042","0.0-3.0-0.183","20211015","165","492","","","","","","","","[240.0801]","[240.0801]","[""u"",""i""]","[""""]","null","true","out","i","NO","","1","out","","","","240.0801","learning","9.64","","","","","","","","","","","","","","","","","","","","","","","",""
"","learn_trial","categorize-lines","190","856162","0.0-3.0-0.184","20211015","165","1090","","","","","","","","[440.9352]","[440.9352]","[""u"",""i""]","[""""]","null","true","out","i","NO","","1","out","","","","440.9352","learning","22.1","","","","","","","","","","","","","","","","","","","","","","","",""
"","learn_trial","categorize-lines","191","858818","0.0-3.0-0.185","20211015","165","628","","","","","","","","[370.2688]","[370.2688]","[""u"",""i""]","[""""]","null","true","out","i","NO","","1","out","","","","370.2688","learning","18.52","","","","","","","","","","","","","","","","","","","","","","","",""
"","learn_trial","categorize-lines","192","863226","0.0-3.0-0.186","20211015","165","378","","","","","","","","[219.1453]","[219.1453]","[""u"",""i""]","[""""]","null","true","in","i","NO","","0","in","","","","219.1453","learning","7.77","","","","","","","","","","","","","","","","","","","","","","","",""
"","learn_trial","categorize-lines","193","865842","0.0-3.0-0.187","20211015","165","588","","","","","","","","[441.7966]","[441.7966]","[""u"",""i""]","[""""]","null","true","out","i","NO","","1","out","","","","441.7966","learning","22.14","","","","","","","","","","","","","","","","","","","","","","","",""
"","learn_trial","categorize-lines","194","870286","0.0-3.0-0.188","20211015","165","420","","","","","","","","[150.8808]","[150.8808]","[""u"",""i""]","[""""]","null","true","out","u","YES","","0","out","","","","150.8808","learning","0.12","","","","","","","","","","","","","","","","","","","","","","","",""
"","learn_trial","categorize-lines","195","874880","0.0-3.0-0.189","20211015","165","566","","","","","","","","[271.7546]","[271.7546]","[""u"",""i""]","[""""]","null","true","in","i","NO","","0","in","","","","271.7546","learning","12.18","","","","","","","","","","","","","","","","","","","","","","","",""
"","learn_trial","categorize-lines","196","877288","0.0-3.0-0.190","20211015","165","382","","","","","","","","[301.663]","[301.663]","[""u"",""i""]","[""""]","null","true","in","u","YES","","1","in","","","","301.663","learning","14.32","","","","","","","","","","","","","","","","","","","","","","","",""
"","learn_trial","categorize-lines","197","881850","0.0-3.0-0.191","20211015","165","532","","","","","","","","[261.0969]","[261.0969]","[""u"",""i""]","[""""]","null","true","out","u","YES","","0","out","","","","261.0969","learning","11.36","","","","","","","","","","","","","","","","","","","","","","","",""
"","learn_trial","categorize-lines","198","886224","0.0-3.0-0.192","20211015","165","346","","","","","","","","[260.5878]","[260.5878]","[""u"",""i""]","[""""]","null","true","in","i","NO","","0","in","","","","260.5878","learning","11.32","","","","","","","","","","","","","","","","","","","","","","","",""
"","learn_trial","categorize-lines","199","888664","0.0-3.0-0.193","20211015","165","412","","","","","","","","[268.8532]","[268.8532]","[""u"",""i""]","[""""]","null","true","in","u","YES","","1","in","","","","268.8532","learning","11.96","","","","","","","","","","","","","","","","","","","","","","","",""
"","learn_trial","categorize-lines","200","892074","0.0-3.0-0.194","20211015","165","1378","","","","","","","","[294.3929]","[294.3929]","[""u"",""i""]","[""""]","null","true","in","u","YES","","1","in","","","","294.3929","learning","13.82","","","","","","","","","","","","","","","","","","","","","","","",""
"","learn_trial","categorize-lines","201","895704","0.0-3.0-0.195","20211015","165","1602","","","","","","","","[242.5526]","[242.5526]","[""u"",""i""]","[""""]","null","true","in","u","YES","","1","in","","","","242.5526","learning","9.85","","","","","","","","","","","","","","","","","","","","","","","",""
"","learn_trial","categorize-lines","202","898808","0.0-3.0-0.196","20211015","165","1076","","","","","","","","[158.6569]","[158.6569]","[""u"",""i""]","[""""]","null","true","out","i","NO","","1","out","","","","158.6569","learning","1.15","","","","","","","","","","","","","","","","","","","","","","","",""
"","learn_trial","categorize-lines","203","901856","0.0-3.0-0.197","20211015","165","1020","","","","","","","","[170.787]","[170.787]","[""u"",""i""]","[""""]","null","true","out","i","NO","","1","out","","","","170.787","learning","2.66","","","","","","","","","","","","","","","","","","","","","","","",""
"","learn_trial","categorize-lines","204","909098","0.0-3.0-0.198","20211015","165","3212","","","","","","","","[351.2632]","[351.2632]","[""u"",""i""]","[""""]","null","true","out","u","YES","","0","out","","","","351.2632","learning","17.44","","","","","","","","","","","","","","","","","","","","","","","",""
"","learn_trial","categorize-lines","205","913616","0.0-3.0-0.199","20211015","165","492","","","","","","","","[242.9078]","[242.9078]","[""u"",""i""]","[""""]","null","true","in","i","NO","","0","in","","","","242.9078","learning","9.88","","","","","","","","","","","","","","","","","","","","","","","",""
"","transfer_instructions","instructions","206","922450","0.0-4.0-0.0","20211015","165","8834","","","","","","[{""page_index"":0,""viewing_time"":2138},{""page_index"":1,""viewing_time"":6694}]","","","","","","","","","","","","","","","","","","","","","","","","","","","","","","","","","","","","","","","","","","",""
"","transfer_trial","categorize-lines","207","928466","0.0-5.0-0.0","20211015","165","4942","","","","","","","","[247.3327,300.6345]","[300.6345,247.3327]","[""j"",""k""]","[""J"",""K""]","247.3327","false","null","j","","300.6345","0","null","247.3327","","","","transfer","","14.25","300.6345","10.25","247.3327","","","247.3327","10.25","247.3327","300.6345","0","10.25","14.25","0","attraction","binary","easy","right","left","competitor","1","left","target",""
"","transfer_trial","categorize-lines","208","932650","0.0-5.0-0.1","20211015","165","3112","","","","","","","","[272.6843,235.555,300.6345]","[300.6345,235.555,272.6843]","[""j"",""k"",""l""]","[""J"",""K"",""L""]","272.6843","false","null","j","","300.6345","0","null","235.555","272.6843","","","transfer","","12.25","272.6843","9.25","235.555","14.25","300.6345","272.6843","12.25","272.6843","235.555","300.6345","12.25","9.25","14.25","attraction","trinary","difficult","right","left","target","1","right","decoy",""
"","transfer_trial","categorize-lines","209","937202","0.0-5.0-0.2","20211015","165","3480","","","","","","","","[272.6843,235.555,213.6553]","[272.6843,213.6553,235.555]","[""j"",""k"",""l""]","[""J"",""K"",""L""]","272.6843","false","null","j","","272.6843","1","null","213.6553","235.555","","","transfer","","9.25","235.555","12.25","272.6843","7.25","213.6553","272.6843","12.25","272.6843","235.555","213.6553","12.25","9.25","7.25","attraction","trinary","difficult","left","right","competitor","1","right","competitor",""
"","transfer_trial","categorize-lines","210","940386","0.0-5.0-0.3","20211015","165","2112","","","","","","","","[256.5345,203.5786]","[256.5345,203.5786]","[""j"",""k""]","[""J"",""K""]","256.5345","false","null","j","","256.5345","1","null","203.5786","","","","transfer","","","","","","","","256.5345","10.9987","256.5345","203.5786","0","10.9987","6.2598","0","filler","binary","","","","","0.2513","left","NA",""
"","transfer_trial","categorize-lines","211","943634","0.0-5.0-0.4","20211015","165","2178","","","","","","","","[235.555,286.3185,315.6662]","[235.555,286.3185,315.6662]","[""j"",""k"",""l""]","[""J"",""K"",""L""]","null","false","null","k","","286.3185","0","null","286.3185","315.6662","","","transfer","","13.25","286.3185","9.25","235.555","15.25","315.6662","","","235.555","286.3185","315.6662","9.25","13.25","15.25","attraction","trinary","equal_chance_2_JND","right","left","both","2","equal","target",""
"","transfer_trial","categorize-lines","212","948306","0.0-5.0-0.5","20211015","165","3602","","","","","","","","[247.3327,272.6843,224.3381]","[224.3381,247.3327,272.6843]","[""j"",""k"",""l""]","[""J"",""K"",""L""]","null","false","null","k","","247.3327","0","null","247.3327","272.6843","","","transfer","","10.25","247.3327","12.25","272.6843","8.25","224.3381","","","247.3327","272.6843","224.3381","10.25","12.25","8.25","attraction","trinary","equal_chance_1_JND","left","right","both","1","equal","target",""
"","transfer_trial","categorize-lines","213","951066","0.0-5.0-0.6","20211015","165","1688","","","","","","","","[209.6228,170.5024]","[209.6228,170.5024]","[""j"",""k""]","[""J"",""K""]","209.6228","false","null","j","","209.6228","1","null","170.5024","","","","transfer","","","","","","","","209.6228","6.8595","209.6228","170.5024","0","6.8595","2.6258","0","filler","binary","","","","","4.3905","left","NA",""
"","transfer_trial","categorize-lines","214","955274","0.0-5.0-0.7","20211015","165","3138","","","","","","","","[235.555,286.3185]","[235.555,286.3185]","[""j"",""k""]","[""J"",""K""]","null","false","null","k","","286.3185","0","null","286.3185","","","","transfer","","13.25","286.3185","9.25","235.555","","","","","235.555","286.3185","0","9.25","13.25","0","attraction","binary","equal_chance_2_JND","right","left","both","2","equal","target",""
"","transfer_trial","categorize-lines","215","959210","0.0-5.0-0.8","20211015","165","2864","","","","","","","","[247.3327,286.3185]","[247.3327,286.3185]","[""j"",""k""]","[""J"",""K""]","247.3327","false","null","j","","247.3327","1","null","286.3185","","","","transfer","","10.25","247.3327","13.25","286.3185","","","247.3327","10.25","247.3327","286.3185","0","10.25","13.25","0","attraction","binary","difficult","left","right","target","1","left","target",""
"","transfer_trial","categorize-lines","216","963026","0.0-5.0-0.9","20211015","165","2744","","","","","","","","[167.4275,266.5615]","[167.4275,266.5615]","[""j"",""k""]","[""J"",""K""]","167.4275","false","null","k","","266.5615","0","null","266.5615","","","","transfer","","","","","","","","167.4275","2.2528","167.4275","266.5615","0","2.2528","11.7845","0","filler","binary","","","","","8.9972","left","NA",""
"","transfer_trial","categorize-lines","217","966586","0.0-5.0-0.10","20211015","165","2488","","","","","","","","[272.6843,235.555]","[235.555,272.6843]","[""j"",""k""]","[""J"",""K""]","272.6843","false","null","j","","235.555","0","null","272.6843","","","","transfer","","9.25","235.555","12.25","272.6843","","","272.6843","12.25","272.6843","235.555","0","12.25","9.25","0","attraction","binary","difficult","left","right","competitor","1","right","target",""
"","transfer_trial","categorize-lines","218","969810","0.0-5.0-0.11","20211015","165","2148","","","","","","","","[272.6843,224.3381]","[272.6843,224.3381]","[""j"",""k""]","[""J"",""K""]","272.6843","false","null","j","","272.6843","1","null","224.3381","","","","transfer","","12.25","272.6843","8.25","224.3381","","","272.6843","12.25","272.6843","224.3381","0","12.25","8.25","0","attraction","binary","easy","right","left","target","1","right","target",""
"","transfer_trial","categorize-lines","219","973170","0.0-5.0-0.12","20211015","165","2288","","","","","","","","[247.3327,300.6345,331.4495]","[300.6345,331.4495,247.3327]","[""j"",""k"",""l""]","[""J"",""K"",""L""]","247.3327","false","null","k","","331.4495","0","null","331.4495","247.3327","","","transfer","","14.25","300.6345","10.25","247.3327","16.25","331.4495","247.3327","10.25","247.3327","300.6345","331.4495","10.25","14.25","16.25","attraction","trinary","easy","right","left","competitor","1","left","decoy",""
"","transfer_trial","categorize-lines","220","976690","0.0-5.0-0.13","20211015","165","2450","","","","","","","","[386.139,312.1544,417.8944]","[386.139,417.8944,312.1544]","[""j"",""k"",""l""]","[""J"",""K"",""L""]","386.139","false","null","k","","417.8944","0","null","417.8944","312.1544","","","transfer","","","","","","","","386.139","19.3802","386.139","312.1544","417.8944","19.3802","15.0207","21","filler","trinary","","","","","8.1302","right","NA",""
"","transfer_trial","categorize-lines","221","979274","0.0-5.0-0.14","20211015","165","1512","","","","","","","","[262.3725,331.3835,157.5]","[157.5,262.3725,331.3835]","[""j"",""k"",""l""]","[""J"",""K"",""L""]","262.3725","false","null","j","","157.5","0","null","262.3725","331.3835","","","transfer","","","","","","","","262.3725","11.4599","262.3725","331.3835","157.5","11.4599","16.2459","1","filler","trinary","","","","","0.2099","right","NA",""
"","transfer_trial","categorize-lines","222","981186","0.0-5.0-0.15","20211015","165","840","","","","","","","","[272.6843,224.3381]","[224.3381,272.6843]","[""j"",""k""]","[""J"",""K""]","272.6843","false","null","j","","224.3381","0","null","272.6843","","","","transfer","","8.25","224.3381","12.25","272.6843","","","272.6843","12.25","272.6843","224.3381","0","12.25","8.25","0","attraction","binary","easy","left","right","competitor","1","right","target",""
"","transfer_trial","categorize-lines","223","983618","0.0-5.0-0.16","20211015","165","1362","","","","","","","","[247.3327,286.3185,315.6662]","[247.3327,286.3185,315.6662]","[""j"",""k"",""l""]","[""J"",""K"",""L""]","247.3327","false","null","k","","286.3185","0","null","286.3185","315.6662","","","transfer","","13.25","286.3185","10.25","247.3327","15.25","315.6662","247.3327","10.25","247.3327","286.3185","315.6662","10.25","13.25","15.25","attraction","trinary","difficult","right","left","competitor","1","left","target",""
"","transfer_trial","categorize-lines","224","986322","0.0-5.0-0.17","20211015","165","1634","","","","","","","","[247.3327,300.6345]","[247.3327,300.6345]","[""j"",""k""]","[""J"",""K""]","247.3327","false","null","k","","300.6345","0","null","300.6345","","","","transfer","","10.25","247.3327","14.25","300.6345","","","247.3327","10.25","247.3327","300.6345","0","10.25","14.25","0","attraction","binary","easy","left","right","target","1","left","competitor",""
"","transfer_trial","categorize-lines","225","990754","0.0-5.0-0.18","20211015","165","3362","","","","","","","","[235.555,286.3185,213.6553]","[235.555,286.3185,213.6553]","[""j"",""k"",""l""]","[""J"",""K"",""L""]","null","false","null","j","","235.555","0","null","286.3185","213.6553","","","transfer","","9.25","235.555","13.25","286.3185","7.25","213.6553","","","235.555","286.3185","213.6553","9.25","13.25","7.25","attraction","trinary","equal_chance_2_JND","left","right","both","2","equal","target",""
"","transfer_trial","categorize-lines","226","992562","0.0-5.0-0.19","20211015","165","736","","","","","","","","[274.234,201.1364]","[274.234,201.1364]","[""j"",""k""]","[""J"",""K""]","274.234","false","null","j","","274.234","1","null","201.1364","","","","transfer","","","","","","","","274.234","12.3661","274.234","201.1364","0","12.3661","6.0124","0","filler","binary","","","","","1.1161","right","NA",""
"","transfer_trial","categorize-lines","227","994266","0.0-5.0-0.20","20211015","165","634","","","","","","","","[272.6843,224.3381]","[224.3381,272.6843]","[""j"",""k""]","[""J"",""K""]","272.6843","false","null","j","","224.3381","0","null","272.6843","","","","transfer","","8.25","224.3381","12.25","272.6843","","","272.6843","12.25","272.6843","224.3381","0","12.25","8.25","0","attraction","binary","easy","left","right","competitor","1","right","target",""
"","transfer_trial","categorize-lines","228","997058","0.0-5.0-0.21","20211015","165","1722","","","","","","","","[247.3327,300.6345]","[300.6345,247.3327]","[""j"",""k""]","[""J"",""K""]","247.3327","false","null","k","","247.3327","1","null","247.3327","","","","transfer","","14.25","300.6345","10.25","247.3327","","","247.3327","10.25","247.3327","300.6345","0","10.25","14.25","0","attraction","binary","easy","right","left","competitor","1","left","competitor",""
"","transfer_trial","categorize-lines","229","999578","0.0-5.0-0.22","20211015","165","1450","","","","","","","","[272.6843,235.555]","[235.555,272.6843]","[""j"",""k""]","[""J"",""K""]","272.6843","false","null","j","","235.555","0","null","272.6843","","","","transfer","","9.25","235.555","12.25","272.6843","","","272.6843","12.25","272.6843","235.555","0","12.25","9.25","0","attraction","binary","difficult","left","right","competitor","1","right","target",""
"","transfer_trial","categorize-lines","230","1001330","0.0-5.0-0.23","20211015","165","676","","","","","","","","[341.3932,233.7879]","[341.3932,233.7879]","[""j"",""k""]","[""J"",""K""]","341.3932","false","null","j","","341.3932","1","null","233.7879","","","","transfer","","","","","","","","341.3932","16.8558","341.3932","233.7879","0","16.8558","9.0957","0","filler","binary","","","","","5.6058","right","NA",""
"","transfer_trial","categorize-lines","231","1003122","0.0-5.0-0.24","20211015","165","720","","","","","","","","[235.555,286.3185,315.6662]","[235.555,315.6662,286.3185]","[""j"",""k"",""l""]","[""J"",""K"",""L""]","null","false","null","k","","315.6662","0","null","315.6662","286.3185","","","transfer","","13.25","286.3185","9.25","235.555","15.25","315.6662","","","235.555","286.3185","315.6662","9.25","13.25","15.25","attraction","trinary","equal_chance_2_JND","right","left","both","2","equal","decoy",""
"","transfer_trial","categorize-lines","232","1006786","0.0-5.0-0.25","20211015","165","2590","","","","","","","","[328.3209,169.4252,256.5509]","[328.3209,256.5509,169.4252]","[""j"",""k"",""l""]","[""J"",""K"",""L""]","328.3209","false","null","l","","169.4252","0","null","256.5509","169.4252","","","transfer","","","","","","","","328.3209","16.0556","328.3209","169.4252","256.5509","16.0556","2.4959","11","filler","trinary","","","","","4.8056","right","NA",""
"","transfer_trial","categorize-lines","233","1009138","0.0-5.0-0.26","20211015","165","1280","","","","","","","","[282.4293,184.8867,211.0651]","[282.4293,211.0651,184.8867]","[""j"",""k"",""l""]","[""J"",""K"",""L""]","282.4293","false","null","j","","282.4293","1","null","211.0651","184.8867","","","transfer","","","","","","","","282.4293","12.9697","282.4293","184.8867","211.0651","12.9697","4.2859","7","filler","trinary","","","","","1.7197","right","NA",""
"","transfer_trial","categorize-lines","234","1012154","0.0-5.0-0.27","20211015","165","1944","","","","","","","","[272.6843,224.3381,300.6345]","[300.6345,272.6843,224.3381]","[""j"",""k"",""l""]","[""J"",""K"",""L""]","272.6843","false","null","j","","300.6345","0","null","272.6843","224.3381","","","transfer","","12.25","272.6843","8.25","224.3381","14.25","300.6345","272.6843","12.25","272.6843","224.3381","300.6345","12.25","8.25","14.25","attraction","trinary","easy","right","left","target","1","right","decoy",""
"","transfer_trial","categorize-lines","235","1015274","0.0-5.0-0.28","20211015","165","2048","","","","","","","","[247.3327,300.6345,224.3381]","[247.3327,300.6345,224.3381]","[""j"",""k"",""l""]","[""J"",""K"",""L""]","247.3327","false","null","k","","300.6345","0","null","300.6345","224.3381","","","transfer","","10.25","247.3327","14.25","300.6345","8.25","224.3381","247.3327","10.25","247.3327","300.6345","224.3381","10.25","14.25","8.25","attraction","trinary","easy","left","right","target","1","left","competitor",""
"","transfer_trial","categorize-lines","236","1017408","0.0-5.0-0.29","20211015","165","1062","","","","","","","","[247.3327,286.3185]","[247.3327,286.3185]","[""j"",""k""]","[""J"",""K""]","247.3327","false","null","j","","247.3327","1","null","286.3185","","","","transfer","","13.25","286.3185","10.25","247.3327","","","247.3327","10.25","247.3327","286.3185","0","10.25","13.25","0","attraction","binary","difficult","right","left","competitor","1","left","competitor",""
"","transfer_trial","categorize-lines","237","1020650","0.0-5.0-0.30","20211015","165","2172","","","","","","","","[272.6843,224.3381,300.6345]","[300.6345,272.6843,224.3381]","[""j"",""k"",""l""]","[""J"",""K"",""L""]","272.6843","false","null","j","","300.6345","0","null","272.6843","224.3381","","","transfer","","12.25","272.6843","8.25","224.3381","14.25","300.6345","272.6843","12.25","272.6843","224.3381","300.6345","12.25","8.25","14.25","attraction","trinary","easy","right","left","target","1","right","decoy",""
"","transfer_trial","categorize-lines","238","1023362","0.0-5.0-0.31","20211015","165","1640","","","","","","","","[304.3135,400.7464,165.375]","[304.3135,165.375,400.7464]","[""j"",""k"",""l""]","[""J"",""K"",""L""]","304.3135","false","null","j","","304.3135","1","null","165.375","400.7464","","","transfer","","","","","","","","304.3135","14.4993","304.3135","400.7464","165.375","14.4993","20.1412","2","filler","trinary","","","","","3.2493","right","NA",""
"","transfer_trial","categorize-lines","239","1028506","0.0-5.0-0.32","20211015","165","4074","","","","","","","","[235.555,286.3185,213.6553]","[235.555,286.3185,213.6553]","[""j"",""k"",""l""]","[""J"",""K"",""L""]","null","false","null","j","","235.555","0","null","286.3185","213.6553","","","transfer","","9.25","235.555","13.25","286.3185","7.25","213.6553","","","235.555","286.3185","213.6553","9.25","13.25","7.25","attraction","trinary","equal_chance_2_JND","left","right","both","2","equal","target",""
"","transfer_trial","categorize-lines","240","1030602","0.0-5.0-0.33","20211015","165","1024","","","","","","","","[272.6843,235.555]","[235.555,272.6843]","[""j"",""k""]","[""J"",""K""]","272.6843","false","null","j","","235.555","0","null","272.6843","","","","transfer","","12.25","272.6843","9.25","235.555","","","272.6843","12.25","272.6843","235.555","0","12.25","9.25","0","attraction","binary","difficult","right","left","target","1","right","competitor",""
"","transfer_trial","categorize-lines","241","1033194","0.0-5.0-0.34","20211015","165","1522","","","","","","","","[272.6843,224.3381,203.4812]","[224.3381,272.6843,203.4812]","[""j"",""k"",""l""]","[""J"",""K"",""L""]","272.6843","false","null","j","","224.3381","0","null","272.6843","203.4812","","","transfer","","8.25","224.3381","12.25","272.6843","6.25","203.4812","272.6843","12.25","272.6843","224.3381","203.4812","12.25","8.25","6.25","attraction","trinary","easy","left","right","competitor","1","right","target",""
"","transfer_trial","categorize-lines","242","1035016","0.0-5.0-0.35","20211015","165","752","","","","","","","","[272.6843,235.555]","[235.555,272.6843]","[""j"",""k""]","[""J"",""K""]","272.6843","false","null","j","","235.555","0","null","272.6843","","","","transfer","","12.25","272.6843","9.25","235.555","","","272.6843","12.25","272.6843","235.555","0","12.25","9.25","0","attraction","binary","difficult","right","left","target","1","right","competitor",""
"","transfer_trial","categorize-lines","243","1036802","0.0-5.0-0.36","20211015","165","712","","","","","","","","[247.3327,272.6843]","[247.3327,272.6843]","[""j"",""k""]","[""J"",""K""]","null","false","null","k","","272.6843","0","null","272.6843","","","","transfer","","12.25","272.6843","10.25","247.3327","","","","","247.3327","272.6843","0","10.25","12.25","0","attraction","binary","equal_chance_1_JND","right","left","both","1","equal","target",""
"","transfer_trial","categorize-lines","244","1039122","0.0-5.0-0.37","20211015","165","1248","","","","","","","","[281.7339,200.4552,191.4422]","[281.7339,200.4552,191.4422]","[""j"",""k"",""l""]","[""J"",""K"",""L""]","281.7339","false","null","j","","281.7339","1","null","200.4552","191.4422","","","transfer","","","","","","","","281.7339","12.9192","281.7339","200.4552","191.4422","12.9192","5.9429","5","filler","trinary","","","","","1.6692","right","NA",""
"","transfer_trial","categorize-lines","245","1042778","0.0-5.0-0.38","20211015","165","2586","","","","","","","","[235.555,286.3185,315.6662]","[315.6662,286.3185,235.555]","[""j"",""k"",""l""]","[""J"",""K"",""L""]","null","false","null","k","","286.3185","0","null","286.3185","235.555","","","transfer","","13.25","286.3185","9.25","235.555","15.25","315.6662","","","235.555","286.3185","315.6662","9.25","13.25","15.25","attraction","trinary","equal_chance_2_JND","right","left","both","2","equal","target",""
"","transfer_trial","categorize-lines","246","1045418","0.0-5.0-0.39","20211015","165","1570","","","","","","","","[272.6843,235.555,213.6553]","[235.555,272.6843,213.6553]","[""j"",""k"",""l""]","[""J"",""K"",""L""]","272.6843","false","null","j","","235.555","0","null","272.6843","213.6553","","","transfer","","9.25","235.555","12.25","272.6843","7.25","213.6553","272.6843","12.25","272.6843","235.555","213.6553","12.25","9.25","7.25","attraction","trinary","difficult","left","right","competitor","1","right","target",""
"","transfer_trial","categorize-lines","247","1048530","0.0-5.0-0.40","20211015","165","2040","","","","","","","","[272.6843,235.555,213.6553]","[235.555,213.6553,272.6843]","[""j"",""k"",""l""]","[""J"",""K"",""L""]","272.6843","false","null","j","","235.555","0","null","213.6553","272.6843","","","transfer","","9.25","235.555","12.25","272.6843","7.25","213.6553","272.6843","12.25","272.6843","235.555","213.6553","12.25","9.25","7.25","attraction","trinary","difficult","left","right","competitor","1","right","target",""
"","transfer_trial","categorize-lines","248","1050496","0.0-5.0-0.41","20211015","165","896","","","","","","","","[289.2816,392.1136]","[392.1136,289.2816]","[""j"",""k""]","[""J"",""K""]","289.2816","false","null","j","","392.1136","0","null","289.2816","","","","transfer","","","","","","","","289.2816","13.461","289.2816","392.1136","0","13.461","19.6949","0","filler","binary","","","","","2.211","right","NA",""
"","transfer_trial","categorize-lines","249","1053530","0.0-5.0-0.42","20211015","165","1962","","","","","","","","[247.3327,286.3185]","[286.3185,247.3327]","[""j"",""k""]","[""J"",""K""]","247.3327","false","null","k","","247.3327","1","null","247.3327","","","","transfer","","10.25","247.3327","13.25","286.3185","","","247.3327","10.25","247.3327","286.3185","0","10.25","13.25","0","attraction","binary","difficult","left","right","target","1","left","target",""
"","transfer_trial","categorize-lines","250","1056352","0.0-5.0-0.43","20211015","165","1752","","","","","","","","[247.3327,300.6345,224.3381]","[224.3381,300.6345,247.3327]","[""j"",""k"",""l""]","[""J"",""K"",""L""]","247.3327","false","null","k","","300.6345","0","null","300.6345","247.3327","","","transfer","","10.25","247.3327","14.25","300.6345","8.25","224.3381","247.3327","10.25","247.3327","300.6345","224.3381","10.25","14.25","8.25","attraction","trinary","easy","left","right","target","1","left","competitor",""
"","transfer_trial","categorize-lines","251","1059480","0.0-5.0-0.44","20211015","165","2056","","","","","","","","[247.3327,272.6843,300.6345]","[247.3327,272.6843,300.6345]","[""j"",""k"",""l""]","[""J"",""K"",""L""]","null","false","null","k","","272.6843","0","null","272.6843","300.6345","","","transfer","","12.25","272.6843","10.25","247.3327","14.25","300.6345","","","247.3327","272.6843","300.6345","10.25","12.25","14.25","attraction","trinary","equal_chance_1_JND","right","left","both","1","equal","target",""
"","transfer_trial","categorize-lines","252","1061872","0.0-5.0-0.45","20211015","165","1322","","","","","","","","[272.6843,224.3381]","[224.3381,272.6843]","[""j"",""k""]","[""J"",""K""]","272.6843","false","null","j","","224.3381","0","null","272.6843","","","","transfer","","8.25","224.3381","12.25","272.6843","","","272.6843","12.25","272.6843","224.3381","0","12.25","8.25","0","attraction","binary","easy","left","right","competitor","1","right","target",""
"","transfer_trial","categorize-lines","253","1064536","0.0-5.0-0.46","20211015","165","1592","","","","","","","","[247.3327,286.3185]","[286.3185,247.3327]","[""j"",""k""]","[""J"",""K""]","247.3327","false","null","k","","247.3327","1","null","247.3327","","","","transfer","","10.25","247.3327","13.25","286.3185","","","247.3327","10.25","247.3327","286.3185","0","10.25","13.25","0","attraction","binary","difficult","left","right","target","1","left","target",""
"","transfer_trial","categorize-lines","254","1067816","0.0-5.0-0.47","20211015","165","2210","","","","","","","","[247.3327,286.3185]","[247.3327,286.3185]","[""j"",""k""]","[""J"",""K""]","247.3327","false","null","k","","286.3185","0","null","286.3185","","","","transfer","","13.25","286.3185","10.25","247.3327","","","247.3327","10.25","247.3327","286.3185","0","10.25","13.25","0","attraction","binary","difficult","right","left","competitor","1","left","target",""
"","transfer_trial","categorize-lines","255","1070376","0.0-5.0-0.48","20211015","165","1488","","","","","","","","[272.6843,235.555]","[272.6843,235.555]","[""j"",""k""]","[""J"",""K""]","272.6843","false","null","j","","272.6843","1","null","235.555","","","","transfer","","12.25","272.6843","9.25","235.555","","","272.6843","12.25","272.6843","235.555","0","12.25","9.25","0","attraction","binary","difficult","right","left","target","1","right","target",""
"","transfer_trial","categorize-lines","256","1073304","0.0-5.0-0.49","20211015","165","1856","","","","","","","","[235.555,286.3185]","[235.555,286.3185]","[""j"",""k""]","[""J"",""K""]","null","false","null","k","","286.3185","0","null","286.3185","","","","transfer","","9.25","235.555","13.25","286.3185","","","","","235.555","286.3185","0","9.25","13.25","0","attraction","binary","equal_chance_2_JND","left","right","both","2","equal","competitor",""
"","transfer_trial","categorize-lines","257","1077530","0.0-5.0-0.50","20211015","165","3152","","","","","","","","[272.6843,235.555,300.6345]","[235.555,272.6843,300.6345]","[""j"",""k"",""l""]","[""J"",""K"",""L""]","272.6843","false","null","j","","235.555","0","null","272.6843","300.6345","","","transfer","","12.25","272.6843","9.25","235.555","14.25","300.6345","272.6843","12.25","272.6843","235.555","300.6345","12.25","9.25","14.25","attraction","trinary","difficult","right","left","target","1","right","competitor",""
"","transfer_trial","categorize-lines","258","1080328","0.0-5.0-0.51","20211015","165","1728","","","","","","","","[247.3327,272.6843]","[247.3327,272.6843]","[""j"",""k""]","[""J"",""K""]","null","false","null","k","","272.6843","0","null","272.6843","","","","transfer","","12.25","272.6843","10.25","247.3327","","","","","247.3327","272.6843","0","10.25","12.25","0","attraction","binary","equal_chance_1_JND","right","left","both","1","equal","target",""
"","transfer_trial","categorize-lines","259","1082408","0.0-5.0-0.52","20211015","165","1010","","","","","","","","[235.555,286.3185]","[235.555,286.3185]","[""j"",""k""]","[""J"",""K""]","null","false","null","k","","286.3185","0","null","286.3185","","","","transfer","","9.25","235.555","13.25","286.3185","","","","","235.555","286.3185","0","9.25","13.25","0","attraction","binary","equal_chance_2_JND","left","right","both","2","equal","competitor",""
"","transfer_trial","categorize-lines","260","1085152","0.0-5.0-0.53","20211015","165","1672","","","","","","","","[227.6639,153.6208,379.0425]","[379.0425,227.6639,153.6208]","[""j"",""k"",""l""]","[""J"",""K"",""L""]","227.6639","false","null","j","","379.0425","0","null","227.6639","153.6208","","","transfer","","","","","","","","227.6639","8.5516","227.6639","153.6208","379.0425","8.5516","0.4889","19","filler","trinary","","","","","2.6984","left","NA",""
"","transfer_trial","categorize-lines","261","1090760","0.0-5.0-0.54","20211015","165","4536","","","","","","","","[272.6843,224.3381,203.4812]","[224.3381,203.4812,272.6843]","[""j"",""k"",""l""]","[""J"",""K"",""L""]","272.6843","false","null","k","","203.4812","0","null","203.4812","272.6843","","","transfer","","8.25","224.3381","12.25","272.6843","6.25","203.4812","272.6843","12.25","272.6843","224.3381","203.4812","12.25","8.25","6.25","attraction","trinary","easy","left","right","competitor","1","right","decoy",""
"","transfer_trial","categorize-lines","262","1093968","0.0-5.0-0.55","20211015","165","2138","","","","","","","","[247.3327,272.6843,300.6345]","[247.3327,300.6345,272.6843]","[""j"",""k"",""l""]","[""J"",""K"",""L""]","null","false","null","k","","300.6345","0","null","300.6345","272.6843","","","transfer","","12.25","272.6843","10.25","247.3327","14.25","300.6345","","","247.3327","272.6843","300.6345","10.25","12.25","14.25","attraction","trinary","equal_chance_1_JND","right","left","both","1","equal","decoy",""
"","transfer_trial","categorize-lines","263","1096352","0.0-5.0-0.56","20211015","165","1314","","","","","","","","[235.555,286.3185]","[286.3185,235.555]","[""j"",""k""]","[""J"",""K""]","null","false","null","j","","286.3185","0","null","235.555","","","","transfer","","13.25","286.3185","9.25","235.555","","","","","235.555","286.3185","0","9.25","13.25","0","attraction","binary","equal_chance_2_JND","right","left","both","2","equal","target",""
"","transfer_trial","categorize-lines","264","1098634","0.0-5.0-0.57","20211015","165","1210","","","","","","","","[247.3327,300.6345,331.4495]","[331.4495,247.3327,300.6345]","[""j"",""k"",""l""]","[""J"",""K"",""L""]","247.3327","false","null","j","","331.4495","0","null","247.3327","300.6345","","","transfer","","14.25","300.6345","10.25","247.3327","16.25","331.4495","247.3327","10.25","247.3327","300.6345","331.4495","10.25","14.25","16.25","attraction","trinary","easy","right","left","competitor","1","left","decoy",""
"","transfer_trial","categorize-lines","265","1100256","0.0-5.0-0.58","20211015","165","550","","","","","","","","[247.3327,286.3185,224.3381]","[224.3381,286.3185,247.3327]","[""j"",""k"",""l""]","[""J"",""K"",""L""]","247.3327","false","null","k","","286.3185","0","null","286.3185","247.3327","","","transfer","","10.25","247.3327","13.25","286.3185","8.25","224.3381","247.3327","10.25","247.3327","286.3185","224.3381","10.25","13.25","8.25","attraction","trinary","difficult","left","right","target","1","left","competitor",""
"","transfer_trial","categorize-lines","266","1103914","0.0-5.0-0.59","20211015","165","2584","","","","","","","","[238.2482,245.7076]","[238.2482,245.7076]","[""j"",""k""]","[""J"",""K""]","238.2482","false","null","j","","238.2482","1","null","245.7076","","","","transfer","","","","","","","","238.2482","9.483","238.2482","245.7076","0","9.483","10.1149","0","filler","binary","","","","","1.767","left","NA",""
"","transfer_trial","categorize-lines","267","1106336","0.0-5.0-0.60","20211015","165","1352","","","","","","","","[272.6843,235.555,300.6345]","[272.6843,300.6345,235.555]","[""j"",""k"",""l""]","[""J"",""K"",""L""]","272.6843","false","null","j","","272.6843","1","null","300.6345","235.555","","","transfer","","12.25","272.6843","9.25","235.555","14.25","300.6345","272.6843","12.25","272.6843","235.555","300.6345","12.25","9.25","14.25","attraction","trinary","difficult","right","left","target","1","right","target",""
"","transfer_trial","categorize-lines","268","1110824","0.0-5.0-0.61","20211015","165","3418","","","","","","","","[225.2208,219.0756]","[219.0756,225.2208]","[""j"",""k""]","[""J"",""K""]","225.2208","false","null","k","","225.2208","1","null","225.2208","","","","transfer","","","","","","","","225.2208","8.3305","225.2208","219.0756","0","8.3305","7.7635","0","filler","binary","","","","","2.9195","left","NA",""
"","transfer_trial","categorize-lines","269","1113528","0.0-5.0-0.62","20211015","165","1634","","","","","","","","[235.555,286.3185]","[286.3185,235.555]","[""j"",""k""]","[""J"",""K""]","null","false","null","j","","286.3185","0","null","235.555","","","","transfer","","13.25","286.3185","9.25","235.555","","","","","235.555","286.3185","0","9.25","13.25","0","attraction","binary","equal_chance_2_JND","right","left","both","2","equal","target",""
"","transfer_trial","categorize-lines","270","1116160","0.0-5.0-0.63","20211015","165","1562","","","","","","","","[247.3327,272.6843]","[272.6843,247.3327]","[""j"",""k""]","[""J"",""K""]","null","false","null","j","","272.6843","0","null","247.3327","","","","transfer","","12.25","272.6843","10.25","247.3327","","","","","247.3327","272.6843","0","10.25","12.25","0","attraction","binary","equal_chance_1_JND","right","left","both","1","equal","target",""
"","transfer_trial","categorize-lines","271","1118944","0.0-5.0-0.64","20211015","165","1712","","","","","","","","[263.5487,191.6791]","[191.6791,263.5487]","[""j"",""k""]","[""J"",""K""]","263.5487","false","null","j","","191.6791","0","null","263.5487","","","","transfer","","","","","","","","263.5487","11.5516","263.5487","191.6791","0","11.5516","5.0253","0","filler","binary","","","","","0.3016","right","NA",""
"","transfer_trial","categorize-lines","272","1122000","0.0-5.0-0.65","20211015","165","1986","","","","","","","","[247.3327,272.6843,300.6345]","[272.6843,300.6345,247.3327]","[""j"",""k"",""l""]","[""J"",""K"",""L""]","null","false","null","j","","272.6843","0","null","300.6345","247.3327","","","transfer","","12.25","272.6843","10.25","247.3327","14.25","300.6345","","","247.3327","272.6843","300.6345","10.25","12.25","14.25","attraction","trinary","equal_chance_1_JND","right","left","both","1","equal","target",""
"","transfer_trial","categorize-lines","273","1124426","0.0-5.0-0.66","20211015","165","1352","","","","","","","","[247.3327,300.6345,224.3381]","[247.3327,300.6345,224.3381]","[""j"",""k"",""l""]","[""J"",""K"",""L""]","247.3327","false","null","j","","247.3327","1","null","300.6345","224.3381","","","transfer","","10.25","247.3327","14.25","300.6345","8.25","224.3381","247.3327","10.25","247.3327","300.6345","224.3381","10.25","14.25","8.25","attraction","trinary","easy","left","right","target","1","left","target",""
"","transfer_trial","categorize-lines","274","1126816","0.0-5.0-0.67","20211015","165","1320","","","","","","","","[247.3327,272.6843]","[272.6843,247.3327]","[""j"",""k""]","[""J"",""K""]","null","false","null","j","","272.6843","0","null","247.3327","","","","transfer","","10.25","247.3327","12.25","272.6843","","","","","247.3327","272.6843","0","10.25","12.25","0","attraction","binary","equal_chance_1_JND","left","right","both","1","equal","competitor",""
"","transfer_trial","categorize-lines","275","1129152","0.0-5.0-0.68","20211015","165","1266","","","","","","","","[282.7171,237.1519]","[282.7171,237.1519]","[""j"",""k""]","[""J"",""K""]","282.7171","false","null","j","","282.7171","1","null","237.1519","","","","transfer","","","","","","","","282.7171","12.9906","282.7171","237.1519","0","12.9906","9.3885","0","filler","binary","","","","","1.7406","right","NA",""
"","transfer_trial","categorize-lines","276","1131696","0.0-5.0-0.69","20211015","165","1474","","","","","","","","[247.3327,272.6843]","[272.6843,247.3327]","[""j"",""k""]","[""J"",""K""]","null","false","null","j","","272.6843","0","null","247.3327","","","","transfer","","10.25","247.3327","12.25","272.6843","","","","","247.3327","272.6843","0","10.25","12.25","0","attraction","binary","equal_chance_1_JND","left","right","both","1","equal","competitor",""
"","transfer_trial","categorize-lines","277","1134040","0.0-5.0-0.70","20211015","165","1272","","","","","","","","[289.9466,270.9946,182.3259]","[270.9946,289.9466,182.3259]","[""j"",""k"",""l""]","[""J"",""K"",""L""]","289.9466","false","null","k","","289.9466","1","null","289.9466","182.3259","","","transfer","","","","","","","","289.9466","13.5081","289.9466","270.9946","182.3259","13.5081","12.1226","4","filler","trinary","","","","","2.2581","right","NA",""
