"success","screen_id","trial_type","trial_index","time_elapsed","internal_node_id","date","sub_n","rt","response","timeout","failed_images","failed_audio","failed_video","view_history","stim","line_lens","line_lens_order","choices","stim_names","corr_ans","give_fb","in_cat","key_choice","yn_choice","choice","correct","fb_in_cat","stim_1_in_order","stim_2_in_order","stim_3_in_order","line_length","cat_trial_type","jnds","T_psy","T_phys","C_psy","C_phys","D_psy","D_phys","corr_choice","correct_psy","stim_1","stim_2","stim_3","stim_1_psy","stim_2_psy","stim_3_psy","transfer_trial_type","trial_choice_set","difficulty_level","target_side","competitor_side","tc_correct","correct_dist_to_mean","side_correct","attr_choice","stimulus"
"true","enter-fullscreen-mode","fullscreen","0","3326","0.0-0.0","20211012","142","","","","","","","","","","","","","","","","","","","","","","","","","","","","","","","","","","","","","","","","","","","","","","","","","",""
"","enter-sub-number","survey-html-form","1","468228","0.0-1.0","20211012","142","464886","{""response"":""142""}","","","","","","","","","","","","","","","","","","","","","","","","","","","","","","","","","","","","","","","","","","","","","","","",""
"true","","preload","2","468262","0.0-2.0-0.0","20211012","142","","","false","[]","[]","[]","","","","","","","","","","","","","","","","","","","","","","","","","","","","","","","","","","","","","","","","","","","",""
"","instructions","instructions","3","593450","0.0-2.0-1.0","20211012","142","125186","","","","","","[{""page_index"":0,""viewing_time"":16234},{""page_index"":1,""viewing_time"":10314},{""page_index"":2,""viewing_time"":18526},{""page_index"":3,""viewing_time"":40288},{""page_index"":4,""viewing_time"":15254},{""page_index"":5,""viewing_time"":2856},{""page_index"":6,""viewing_time"":21712}]","","","","","","","","","","","","","","","","","","","","","","","","","","","","","","","","","","","","","","","","","","",""
"","demo-lines","draw-demo-lines","4","653466","0.0-2.0-2.0","20211012","142","","","","","","","","lines","","","","","","","","","","","","","","","","","","","","","","","","","","","","","","","","","","","","","","","","","",""
"","click-to-begin-the-experiment","instructions","5","657378","0.0-2.0-3.0","20211012","142","3908","","","","","","[{""page_index"":0,""viewing_time"":3908}]","","","","","","","","","","","","","","","","","","","","","","","","","","","","","","","","","","","","","","","","","","",""
"","learn_trial","categorize-lines","6","661174","0.0-3.0-0.0","20211012","142","1758","","","","","","","","[215.1197]","[215.1197]","[""u"",""i""]","[""""]","null","true","in","u","YES","","1","in","","","","215.1197","learning","7.39","","","","","","","","","","","","","","","","","","","","","","","",""
"","learn_trial","categorize-lines","7","664404","0.0-3.0-0.1","20211012","142","1198","","","","","","","","[306.8586]","[306.8586]","[""u"",""i""]","[""""]","null","true","in","u","YES","","1","in","","","","306.8586","learning","14.67","","","","","","","","","","","","","","","","","","","","","","","",""
"","learn_trial","categorize-lines","8","667650","0.0-3.0-0.2","20211012","142","1216","","","","","","","","[179.0641]","[179.0641]","[""u"",""i""]","[""""]","null","true","in","u","YES","","1","in","","","","179.0641","learning","3.63","","","","","","","","","","","","","","","","","","","","","","","",""
"","learn_trial","categorize-lines","9","673052","0.0-3.0-0.3","20211012","142","1366","","","","","","","","[309.2634]","[309.2634]","[""u"",""i""]","[""""]","null","true","out","u","YES","","0","out","","","","309.2634","learning","14.83","","","","","","","","","","","","","","","","","","","","","","","",""
"","learn_trial","categorize-lines","10","677378","0.0-3.0-0.4","20211012","142","2298","","","","","","","","[356.0948]","[356.0948]","[""u"",""i""]","[""""]","null","true","in","u","YES","","1","in","","","","356.0948","learning","17.72","","","","","","","","","","","","","","","","","","","","","","","",""
"","learn_trial","categorize-lines","11","680548","0.0-3.0-0.5","20211012","142","1140","","","","","","","","[440.9352]","[440.9352]","[""u"",""i""]","[""""]","null","true","out","i","NO","","1","out","","","","440.9352","learning","22.1","","","","","","","","","","","","","","","","","","","","","","","",""
"","learn_trial","categorize-lines","12","683410","0.0-3.0-0.6","20211012","142","834","","","","","","","","[259.5727]","[259.5727]","[""u"",""i""]","[""""]","null","true","in","u","YES","","1","in","","","","259.5727","learning","11.24","","","","","","","","","","","","","","","","","","","","","","","",""
"","learn_trial","categorize-lines","13","686280","0.0-3.0-0.7","20211012","142","836","","","","","","","","[231.4537]","[231.4537]","[""u"",""i""]","[""""]","null","true","in","u","YES","","1","in","","","","231.4537","learning","8.89","","","","","","","","","","","","","","","","","","","","","","","",""
"","learn_trial","categorize-lines","14","689108","0.0-3.0-0.8","20211012","142","798","","","","","","","","[219.1453]","[219.1453]","[""u"",""i""]","[""""]","null","true","in","u","YES","","1","in","","","","219.1453","learning","7.77","","","","","","","","","","","","","","","","","","","","","","","",""
"","learn_trial","categorize-lines","15","691722","0.0-3.0-0.9","20211012","142","584","","","","","","","","[189.3983]","[189.3983]","[""u"",""i""]","[""""]","null","true","in","u","YES","","1","in","","","","189.3983","learning","4.78","","","","","","","","","","","","","","","","","","","","","","","",""
"","learn_trial","categorize-lines","16","694524","0.0-3.0-0.10","20211012","142","770","","","","","","","","[282.8474]","[282.8474]","[""u"",""i""]","[""""]","null","true","out","i","NO","","1","out","","","","282.8474","learning","13","","","","","","","","","","","","","","","","","","","","","","","",""
"","learn_trial","categorize-lines","17","697490","0.0-3.0-0.11","20211012","142","938","","","","","","","","[275.2239]","[275.2239]","[""u"",""i""]","[""""]","null","true","in","u","YES","","1","in","","","","275.2239","learning","12.44","","","","","","","","","","","","","","","","","","","","","","","",""
"","learn_trial","categorize-lines","18","700098","0.0-3.0-0.12","20211012","142","580","","","","","","","","[228.6477]","[228.6477]","[""u"",""i""]","[""""]","null","true","in","u","YES","","1","in","","","","228.6477","learning","8.64","","","","","","","","","","","","","","","","","","","","","","","",""
"","learn_trial","categorize-lines","19","702634","0.0-3.0-0.13","20211012","142","508","","","","","","","","[219.6805]","[219.6805]","[""u"",""i""]","[""""]","null","true","in","u","YES","","1","in","","","","219.6805","learning","7.82","","","","","","","","","","","","","","","","","","","","","","","",""
"","learn_trial","categorize-lines","20","705354","0.0-3.0-0.14","20211012","142","690","","","","","","","","[196.3614]","[196.3614]","[""u"",""i""]","[""""]","null","true","in","u","YES","","1","in","","","","196.3614","learning","5.52","","","","","","","","","","","","","","","","","","","","","","","",""
"","learn_trial","categorize-lines","21","709746","0.0-3.0-0.15","20211012","142","362","","","","","","","","[172.2094]","[172.2094]","[""u"",""i""]","[""""]","null","true","out","u","YES","","0","out","","","","172.2094","learning","2.83","","","","","","","","","","","","","","","","","","","","","","","",""
"","learn_trial","categorize-lines","22","712338","0.0-3.0-0.16","20211012","142","562","","","","","","","","[185.4662]","[185.4662]","[""u"",""i""]","[""""]","null","true","out","i","NO","","1","out","","","","185.4662","learning","4.35","","","","","","","","","","","","","","","","","","","","","","","",""
"","learn_trial","categorize-lines","23","714898","0.0-3.0-0.17","20211012","142","528","","","","","","","","[260.715]","[260.715]","[""u"",""i""]","[""""]","null","true","in","u","YES","","1","in","","","","260.715","learning","11.33","","","","","","","","","","","","","","","","","","","","","","","",""
"","learn_trial","categorize-lines","24","719522","0.0-3.0-0.18","20211012","142","596","","","","","","","","[204.3767]","[204.3767]","[""u"",""i""]","[""""]","null","true","out","u","YES","","0","out","","","","204.3767","learning","6.34","","","","","","","","","","","","","","","","","","","","","","","",""
"","learn_trial","categorize-lines","25","724314","0.0-3.0-0.19","20211012","142","764","","","","","","","","[186.3733]","[186.3733]","[""u"",""i""]","[""""]","null","true","out","u","YES","","0","out","","","","186.3733","learning","4.45","","","","","","","","","","","","","","","","","","","","","","","",""
"","learn_trial","categorize-lines","26","727234","0.0-3.0-0.20","20211012","142","892","","","","","","","","[262.5019]","[262.5019]","[""u"",""i""]","[""""]","null","true","in","u","YES","","1","in","","","","262.5019","learning","11.47","","","","","","","","","","","","","","","","","","","","","","","",""
"","learn_trial","categorize-lines","27","730290","0.0-3.0-0.21","20211012","142","1026","","","","","","","","[433.4695]","[433.4695]","[""u"",""i""]","[""""]","null","true","out","i","NO","","1","out","","","","433.4695","learning","21.75","","","","","","","","","","","","","","","","","","","","","","","",""
"","learn_trial","categorize-lines","28","734954","0.0-3.0-0.22","20211012","142","634","","","","","","","","[244.931]","[244.931]","[""u"",""i""]","[""""]","null","true","out","u","YES","","0","out","","","","244.931","learning","10.05","","","","","","","","","","","","","","","","","","","","","","","",""
"","learn_trial","categorize-lines","29","739610","0.0-3.0-0.23","20211012","142","628","","","","","","","","[160.2908]","[160.2908]","[""u"",""i""]","[""""]","null","true","out","u","YES","","0","out","","","","160.2908","learning","1.36","","","","","","","","","","","","","","","","","","","","","","","",""
"","learn_trial","categorize-lines","30","742234","0.0-3.0-0.24","20211012","142","596","","","","","","","","[170.5372]","[170.5372]","[""u"",""i""]","[""""]","null","true","in","u","YES","","1","in","","","","170.5372","learning","2.63","","","","","","","","","","","","","","","","","","","","","","","",""
"","learn_trial","categorize-lines","31","747226","0.0-3.0-0.25","20211012","142","964","","","","","","","","[305.9616]","[305.9616]","[""u"",""i""]","[""""]","null","true","in","i","NO","","0","in","","","","305.9616","learning","14.61","","","","","","","","","","","","","","","","","","","","","","","",""
"","learn_trial","categorize-lines","32","749930","0.0-3.0-0.26","20211012","142","674","","","","","","","","[269.5099]","[269.5099]","[""u"",""i""]","[""""]","null","true","in","u","YES","","1","in","","","","269.5099","learning","12.01","","","","","","","","","","","","","","","","","","","","","","","",""
"","learn_trial","categorize-lines","33","752770","0.0-3.0-0.27","20211012","142","812","","","","","","","","[197.1294]","[197.1294]","[""u"",""i""]","[""""]","null","true","out","i","NO","","1","out","","","","197.1294","learning","5.6","","","","","","","","","","","","","","","","","","","","","","","",""
"","learn_trial","categorize-lines","34","756026","0.0-3.0-0.28","20211012","142","1228","","","","","","","","[150.8808]","[150.8808]","[""u"",""i""]","[""""]","null","true","out","i","NO","","1","out","","","","150.8808","learning","0.12","","","","","","","","","","","","","","","","","","","","","","","",""
"","learn_trial","categorize-lines","35","758642","0.0-3.0-0.29","20211012","142","588","","","","","","","","[308.8111]","[308.8111]","[""u"",""i""]","[""""]","null","true","in","u","YES","","1","in","","","","308.8111","learning","14.8","","","","","","","","","","","","","","","","","","","","","","","",""
"","learn_trial","categorize-lines","36","761354","0.0-3.0-0.30","20211012","142","682","","","","","","","","[258.8139]","[258.8139]","[""u"",""i""]","[""""]","null","true","in","u","YES","","1","in","","","","258.8139","learning","11.18","","","","","","","","","","","","","","","","","","","","","","","",""
"","learn_trial","categorize-lines","37","766978","0.0-3.0-0.31","20211012","142","1596","","","","","","","","[160.4473]","[160.4473]","[""u"",""i""]","[""""]","null","true","out","u","YES","","0","out","","","","160.4473","learning","1.38","","","","","","","","","","","","","","","","","","","","","","","",""
"","learn_trial","categorize-lines","38","771398","0.0-3.0-0.32","20211012","142","388","","","","","","","","[217.0172]","[217.0172]","[""u"",""i""]","[""""]","null","true","out","u","YES","","0","out","","","","217.0172","learning","7.57","","","","","","","","","","","","","","","","","","","","","","","",""
"","learn_trial","categorize-lines","39","774258","0.0-3.0-0.33","20211012","142","832","","","","","","","","[179.6767]","[179.6767]","[""u"",""i""]","[""""]","null","true","out","i","NO","","1","out","","","","179.6767","learning","3.7","","","","","","","","","","","","","","","","","","","","","","","",""
"","learn_trial","categorize-lines","40","777154","0.0-3.0-0.34","20211012","142","868","","","","","","","","[354.5346]","[354.5346]","[""u"",""i""]","[""""]","null","true","in","u","YES","","1","in","","","","354.5346","learning","17.63","","","","","","","","","","","","","","","","","","","","","","","",""
"","learn_trial","categorize-lines","41","779744","0.0-3.0-0.35","20211012","142","564","","","","","","","","[292.2463]","[292.2463]","[""u"",""i""]","[""""]","null","true","in","u","YES","","1","in","","","","292.2463","learning","13.67","","","","","","","","","","","","","","","","","","","","","","","",""
"","learn_trial","categorize-lines","42","782244","0.0-3.0-0.36","20211012","142","468","","","","","","","","[318.7615]","[318.7615]","[""u"",""i""]","[""""]","null","true","out","i","NO","","1","out","","","","318.7615","learning","15.45","","","","","","","","","","","","","","","","","","","","","","","",""
"","learn_trial","categorize-lines","43","786688","0.0-3.0-0.37","20211012","142","418","","","","","","","","[223.5732]","[223.5732]","[""u"",""i""]","[""""]","null","true","in","i","NO","","0","in","","","","223.5732","learning","8.18","","","","","","","","","","","","","","","","","","","","","","","",""
"","learn_trial","categorize-lines","44","789266","0.0-3.0-0.38","20211012","142","550","","","","","","","","[235.4401]","[235.4401]","[""u"",""i""]","[""""]","null","true","in","u","YES","","1","in","","","","235.4401","learning","9.24","","","","","","","","","","","","","","","","","","","","","","","",""
"","learn_trial","categorize-lines","45","791914","0.0-3.0-0.39","20211012","142","620","","","","","","","","[260.5878]","[260.5878]","[""u"",""i""]","[""""]","null","true","in","u","YES","","1","in","","","","260.5878","learning","11.32","","","","","","","","","","","","","","","","","","","","","","","",""
"","learn_trial","categorize-lines","46","794586","0.0-3.0-0.40","20211012","142","644","","","","","","","","[162.972]","[162.972]","[""u"",""i""]","[""""]","null","true","out","i","NO","","1","out","","","","162.972","learning","1.7","","","","","","","","","","","","","","","","","","","","","","","",""
"","learn_trial","categorize-lines","47","797794","0.0-3.0-0.41","20211012","142","1180","","","","","","","","[348.1918]","[348.1918]","[""u"",""i""]","[""""]","null","true","out","i","NO","","1","out","","","","348.1918","learning","17.26","","","","","","","","","","","","","","","","","","","","","","","",""
"","learn_trial","categorize-lines","48","802624","0.0-3.0-0.42","20211012","142","804","","","","","","","","[284.5082]","[284.5082]","[""u"",""i""]","[""""]","null","true","out","u","YES","","0","out","","","","284.5082","learning","13.12","","","","","","","","","","","","","","","","","","","","","","","",""
"","learn_trial","categorize-lines","49","805530","0.0-3.0-0.43","20211012","142","876","","","","","","","","[259.6994]","[259.6994]","[""u"",""i""]","[""""]","null","true","in","u","YES","","1","in","","","","259.6994","learning","11.25","","","","","","","","","","","","","","","","","","","","","","","",""
"","learn_trial","categorize-lines","50","808146","0.0-3.0-0.44","20211012","142","588","","","","","","","","[215.1197]","[215.1197]","[""u"",""i""]","[""""]","null","true","in","u","YES","","1","in","","","","215.1197","learning","7.39","","","","","","","","","","","","","","","","","","","","","","","",""
"","learn_trial","categorize-lines","51","811018","0.0-3.0-0.45","20211012","142","844","","","","","","","","[268.0673]","[268.0673]","[""u"",""i""]","[""""]","null","true","out","i","NO","","1","out","","","","268.0673","learning","11.9","","","","","","","","","","","","","","","","","","","","","","","",""
"","learn_trial","categorize-lines","52","813930","0.0-3.0-0.46","20211012","142","884","","","","","","","","[273.0837]","[273.0837]","[""u"",""i""]","[""""]","null","true","out","i","NO","","1","out","","","","273.0837","learning","12.28","","","","","","","","","","","","","","","","","","","","","","","",""
"","learn_trial","categorize-lines","53","816568","0.0-3.0-0.47","20211012","142","610","","","","","","","","[233.9515]","[233.9515]","[""u"",""i""]","[""""]","null","true","in","u","YES","","1","in","","","","233.9515","learning","9.11","","","","","","","","","","","","","","","","","","","","","","","",""
"","learn_trial","categorize-lines","54","821658","0.0-3.0-0.48","20211012","142","1060","","","","","","","","[286.8779]","[286.8779]","[""u"",""i""]","[""""]","null","true","in","i","NO","","0","in","","","","286.8779","learning","13.29","","","","","","","","","","","","","","","","","","","","","","","",""
"","learn_trial","categorize-lines","55","824128","0.0-3.0-0.49","20211012","142","440","","","","","","","","[242.9078]","[242.9078]","[""u"",""i""]","[""""]","null","true","in","u","YES","","1","in","","","","242.9078","learning","9.88","","","","","","","","","","","","","","","","","","","","","","","",""
"","learn_trial","categorize-lines","56","828566","0.0-3.0-0.50","20211012","142","410","","","","","","","","[196.841]","[196.841]","[""u"",""i""]","[""""]","null","true","out","u","YES","","0","out","","","","196.841","learning","5.57","","","","","","","","","","","","","","","","","","","","","","","",""
"","learn_trial","categorize-lines","57","833138","0.0-3.0-0.51","20211012","142","538","","","","","","","","[266.7626]","[266.7626]","[""u"",""i""]","[""""]","null","true","out","u","YES","","0","out","","","","266.7626","learning","11.8","","","","","","","","","","","","","","","","","","","","","","","",""
"","learn_trial","categorize-lines","58","836042","0.0-3.0-0.52","20211012","142","872","","","","","","","","[319.0728]","[319.0728]","[""u"",""i""]","[""""]","null","true","in","u","YES","","1","in","","","","319.0728","learning","15.47","","","","","","","","","","","","","","","","","","","","","","","",""
"","learn_trial","categorize-lines","59","838826","0.0-3.0-0.53","20211012","142","752","","","","","","","","[238.6785]","[238.6785]","[""u"",""i""]","[""""]","null","true","out","i","NO","","1","out","","","","238.6785","learning","9.52","","","","","","","","","","","","","","","","","","","","","","","",""
"","learn_trial","categorize-lines","60","841706","0.0-3.0-0.54","20211012","142","850","","","","","","","","[288.4217]","[288.4217]","[""u"",""i""]","[""""]","null","true","in","u","YES","","1","in","","","","288.4217","learning","13.4","","","","","","","","","","","","","","","","","","","","","","","",""
"","learn_trial","categorize-lines","61","847154","0.0-3.0-0.55","20211012","142","1416","","","","","","","","[302.2523]","[302.2523]","[""u"",""i""]","[""""]","null","true","out","u","YES","","0","out","","","","302.2523","learning","14.36","","","","","","","","","","","","","","","","","","","","","","","",""
"","learn_trial","categorize-lines","62","851770","0.0-3.0-0.56","20211012","142","586","","","","","","","","[328.3911]","[328.3911]","[""u"",""i""]","[""""]","null","true","out","u","YES","","0","out","","","","328.3911","learning","16.06","","","","","","","","","","","","","","","","","","","","","","","",""
"","learn_trial","categorize-lines","63","856546","0.0-3.0-0.57","20211012","142","748","","","","","","","","[170.787]","[170.787]","[""u"",""i""]","[""""]","null","true","out","u","YES","","0","out","","","","170.787","learning","2.66","","","","","","","","","","","","","","","","","","","","","","","",""
"","learn_trial","categorize-lines","64","859386","0.0-3.0-0.58","20211012","142","810","","","","","","","","[246.0089]","[246.0089]","[""u"",""i""]","[""""]","null","true","in","u","YES","","1","in","","","","246.0089","learning","10.14","","","","","","","","","","","","","","","","","","","","","","","",""
"","learn_trial","categorize-lines","65","862640","0.0-3.0-0.59","20211012","142","1226","","","","","","","","[300.928]","[300.928]","[""u"",""i""]","[""""]","null","true","out","i","NO","","1","out","","","","300.928","learning","14.27","","","","","","","","","","","","","","","","","","","","","","","",""
"","learn_trial","categorize-lines","66","868168","0.0-3.0-0.60","20211012","142","1500","","","","","","","","[234.2942]","[234.2942]","[""u"",""i""]","[""""]","null","true","in","i","NO","","0","in","","","","234.2942","learning","9.14","","","","","","","","","","","","","","","","","","","","","","","",""
"","learn_trial","categorize-lines","67","870796","0.0-3.0-0.61","20211012","142","596","","","","","","","","[259.5727]","[259.5727]","[""u"",""i""]","[""""]","null","true","in","u","YES","","1","in","","","","259.5727","learning","11.24","","","","","","","","","","","","","","","","","","","","","","","",""
"","learn_trial","categorize-lines","68","873328","0.0-3.0-0.62","20211012","142","502","","","","","","","","[241.019]","[241.019]","[""u"",""i""]","[""""]","null","true","in","u","YES","","1","in","","","","241.019","learning","9.72","","","","","","","","","","","","","","","","","","","","","","","",""
"","learn_trial","categorize-lines","69","875978","0.0-3.0-0.63","20211012","142","620","","","","","","","","[290.1153]","[290.1153]","[""u"",""i""]","[""""]","null","true","in","u","YES","","1","in","","","","290.1153","learning","13.52","","","","","","","","","","","","","","","","","","","","","","","",""
"","learn_trial","categorize-lines","70","880592","0.0-3.0-0.64","20211012","142","588","","","","","","","","[383.8815]","[383.8815]","[""u"",""i""]","[""""]","null","true","out","u","YES","","0","out","","","","383.8815","learning","19.26","","","","","","","","","","","","","","","","","","","","","","","",""
"","learn_trial","categorize-lines","71","885360","0.0-3.0-0.65","20211012","142","738","","","","","","","","[306.8586]","[306.8586]","[""u"",""i""]","[""""]","null","true","out","u","YES","","0","out","","","","306.8586","learning","14.67","","","","","","","","","","","","","","","","","","","","","","","",""
"","learn_trial","categorize-lines","72","888066","0.0-3.0-0.66","20211012","142","676","","","","","","","","[204.9759]","[204.9759]","[""u"",""i""]","[""""]","null","true","in","u","YES","","1","in","","","","204.9759","learning","6.4","","","","","","","","","","","","","","","","","","","","","","","",""
"","learn_trial","categorize-lines","73","891394","0.0-3.0-0.67","20211012","142","1300","","","","","","","","[160.7608]","[160.7608]","[""u"",""i""]","[""""]","null","true","out","i","NO","","1","out","","","","160.7608","learning","1.42","","","","","","","","","","","","","","","","","","","","","","","",""
"","learn_trial","categorize-lines","74","894280","0.0-3.0-0.68","20211012","142","858","","","","","","","","[402.0934]","[402.0934]","[""u"",""i""]","[""""]","null","true","out","i","NO","","1","out","","","","402.0934","learning","20.21","","","","","","","","","","","","","","","","","","","","","","","",""
"","learn_trial","categorize-lines","75","899536","0.0-3.0-0.69","20211012","142","1226","","","","","","","","[234.4085]","[234.4085]","[""u"",""i""]","[""""]","null","true","out","u","YES","","0","out","","","","234.4085","learning","9.15","","","","","","","","","","","","","","","","","","","","","","","",""
"","learn_trial","categorize-lines","76","902248","0.0-3.0-0.70","20211012","142","684","","","","","","","","[271.7546]","[271.7546]","[""u"",""i""]","[""""]","null","true","in","u","YES","","1","in","","","","271.7546","learning","12.18","","","","","","","","","","","","","","","","","","","","","","","",""
"","learn_trial","categorize-lines","77","907762","0.0-3.0-0.71","20211012","142","1484","","","","","","","","[242.9078]","[242.9078]","[""u"",""i""]","[""""]","null","true","in","i","NO","","0","in","","","","242.9078","learning","9.88","","","","","","","","","","","","","","","","","","","","","","","",""
"","learn_trial","categorize-lines","78","910882","0.0-3.0-0.72","20211012","142","1090","","","","","","","","[426.7543]","[426.7543]","[""u"",""i""]","[""""]","null","true","out","i","NO","","1","out","","","","426.7543","learning","21.43","","","","","","","","","","","","","","","","","","","","","","","",""
"","learn_trial","categorize-lines","79","917040","0.0-3.0-0.73","20211012","142","2126","","","","","","","","[226.3169]","[226.3169]","[""u"",""i""]","[""""]","null","true","out","u","YES","","0","out","","","","226.3169","learning","8.43","","","","","","","","","","","","","","","","","","","","","","","",""
"","learn_trial","categorize-lines","80","922058","0.0-3.0-0.74","20211012","142","986","","","","","","","","[301.663]","[301.663]","[""u"",""i""]","[""""]","null","true","in","i","NO","","0","in","","","","301.663","learning","14.32","","","","","","","","","","","","","","","","","","","","","","","",""
"","learn_trial","categorize-lines","81","926888","0.0-3.0-0.75","20211012","142","802","","","","","","","","[228.4247]","[228.4247]","[""u"",""i""]","[""""]","null","true","out","u","YES","","0","out","","","","228.4247","learning","8.62","","","","","","","","","","","","","","","","","","","","","","","",""
"","learn_trial","categorize-lines","82","932384","0.0-3.0-0.76","20211012","142","1470","","","","","","","","[380.8964]","[380.8964]","[""u"",""i""]","[""""]","null","true","out","u","YES","","0","out","","","","380.8964","learning","19.1","","","","","","","","","","","","","","","","","","","","","","","",""
"","learn_trial","categorize-lines","83","935696","0.0-3.0-0.77","20211012","142","1282","","","","","","","","[256.4258]","[256.4258]","[""u"",""i""]","[""""]","null","true","out","i","NO","","1","out","","","","256.4258","learning","10.99","","","","","","","","","","","","","","","","","","","","","","","",""
"","learn_trial","categorize-lines","84","938560","0.0-3.0-0.78","20211012","142","836","","","","","","","","[338.8071]","[338.8071]","[""u"",""i""]","[""""]","null","true","out","i","NO","","1","out","","","","338.8071","learning","16.7","","","","","","","","","","","","","","","","","","","","","","","",""
"","learn_trial","categorize-lines","85","941376","0.0-3.0-0.79","20211012","142","788","","","","","","","","[343.8027]","[343.8027]","[""u"",""i""]","[""""]","null","true","out","i","NO","","1","out","","","","343.8027","learning","17","","","","","","","","","","","","","","","","","","","","","","","",""
"","learn_trial","categorize-lines","86","944288","0.0-3.0-0.80","20211012","142","884","","","","","","","","[213.0308]","[213.0308]","[""u"",""i""]","[""""]","null","true","in","u","YES","","1","in","","","","213.0308","learning","7.19","","","","","","","","","","","","","","","","","","","","","","","",""
"","learn_trial","categorize-lines","87","947120","0.0-3.0-0.81","20211012","142","804","","","","","","","","[338.1466]","[338.1466]","[""u"",""i""]","[""""]","null","true","out","i","NO","","1","out","","","","338.1466","learning","16.66","","","","","","","","","","","","","","","","","","","","","","","",""
"","learn_trial","categorize-lines","88","951778","0.0-3.0-0.82","20211012","142","628","","","","","","","","[188.2927]","[188.2927]","[""u"",""i""]","[""""]","null","true","out","u","YES","","0","out","","","","188.2927","learning","4.66","","","","","","","","","","","","","","","","","","","","","","","",""
"","learn_trial","categorize-lines","89","954744","0.0-3.0-0.83","20211012","142","940","","","","","","","","[367.2103]","[367.2103]","[""u"",""i""]","[""""]","null","true","out","i","NO","","1","out","","","","367.2103","learning","18.35","","","","","","","","","","","","","","","","","","","","","","","",""
"","learn_trial","categorize-lines","90","957600","0.0-3.0-0.84","20211012","142","828","","","","","","","","[173.1362]","[173.1362]","[""u"",""i""]","[""""]","null","true","out","i","NO","","1","out","","","","173.1362","learning","2.94","","","","","","","","","","","","","","","","","","","","","","","",""
"","learn_trial","categorize-lines","91","963048","0.0-3.0-0.85","20211012","142","1418","","","","","","","","[196.2656]","[196.2656]","[""u"",""i""]","[""""]","null","true","in","i","NO","","0","in","","","","196.2656","learning","5.51","","","","","","","","","","","","","","","","","","","","","","","",""
"","learn_trial","categorize-lines","92","965944","0.0-3.0-0.86","20211012","142","866","","","","","","","","[237.6328]","[237.6328]","[""u"",""i""]","[""""]","null","true","in","u","YES","","1","in","","","","237.6328","learning","9.43","","","","","","","","","","","","","","","","","","","","","","","",""
"","learn_trial","categorize-lines","93","969312","0.0-3.0-0.87","20211012","142","1338","","","","","","","","[268.8532]","[268.8532]","[""u"",""i""]","[""""]","null","true","in","u","YES","","1","in","","","","268.8532","learning","11.96","","","","","","","","","","","","","","","","","","","","","","","",""
"","learn_trial","categorize-lines","94","971968","0.0-3.0-0.88","20211012","142","628","","","","","","","","[225.3253]","[225.3253]","[""u"",""i""]","[""""]","null","true","in","u","YES","","1","in","","","","225.3253","learning","8.34","","","","","","","","","","","","","","","","","","","","","","","",""
"","learn_trial","categorize-lines","95","976834","0.0-3.0-0.89","20211012","142","836","","","","","","","","[354.016]","[354.016]","[""u"",""i""]","[""""]","null","true","in","i","NO","","0","in","","","","354.016","learning","17.6","","","","","","","","","","","","","","","","","","","","","","","",""
"","learn_trial","categorize-lines","96","981952","0.0-3.0-0.90","20211012","142","1092","","","","","","","","[204.8759]","[204.8759]","[""u"",""i""]","[""""]","null","true","out","u","YES","","0","out","","","","204.8759","learning","6.39","","","","","","","","","","","","","","","","","","","","","","","",""
"","learn_trial","categorize-lines","97","984560","0.0-3.0-0.91","20211012","142","580","","","","","","","","[278.7375]","[278.7375]","[""u"",""i""]","[""""]","null","true","in","u","YES","","1","in","","","","278.7375","learning","12.7","","","","","","","","","","","","","","","","","","","","","","","",""
"","learn_trial","categorize-lines","98","989080","0.0-3.0-0.92","20211012","142","492","","","","","","","","[274.8213]","[274.8213]","[""u"",""i""]","[""""]","null","true","out","u","YES","","0","out","","","","274.8213","learning","12.41","","","","","","","","","","","","","","","","","","","","","","","",""
"","learn_trial","categorize-lines","99","992288","0.0-3.0-0.93","20211012","142","1180","","","","","","","","[243.7389]","[243.7389]","[""u"",""i""]","[""""]","null","true","in","u","YES","","1","in","","","","243.7389","learning","9.95","","","","","","","","","","","","","","","","","","","","","","","",""
"","learn_trial","categorize-lines","100","997304","0.0-3.0-0.94","20211012","142","988","","","","","","","","[264.3011]","[264.3011]","[""u"",""i""]","[""""]","null","true","in","i","NO","","0","in","","","","264.3011","learning","11.61","","","","","","","","","","","","","","","","","","","","","","","",""
"","learn_trial","categorize-lines","101","1000016","0.0-3.0-0.95","20211012","142","684","","","","","","","","[280.511]","[280.511]","[""u"",""i""]","[""""]","null","true","in","u","YES","","1","in","","","","280.511","learning","12.83","","","","","","","","","","","","","","","","","","","","","","","",""
"","learn_trial","categorize-lines","102","1002904","0.0-3.0-0.96","20211012","142","860","","","","","","","","[248.5424]","[248.5424]","[""u"",""i""]","[""""]","null","true","in","u","YES","","1","in","","","","248.5424","learning","10.35","","","","","","","","","","","","","","","","","","","","","","","",""
"","learn_trial","categorize-lines","103","1007848","0.0-3.0-0.97","20211012","142","918","","","","","","","","[217.0172]","[217.0172]","[""u"",""i""]","[""""]","null","true","out","u","YES","","0","out","","","","217.0172","learning","7.57","","","","","","","","","","","","","","","","","","","","","","","",""
"","learn_trial","categorize-lines","104","1013194","0.0-3.0-0.98","20211012","142","1318","","","","","","","","[157.5]","[157.5]","[""u"",""i""]","[""""]","null","true","out","u","YES","","0","out","","","","157.5","learning","1","","","","","","","","","","","","","","","","","","","","","","","",""
"","learn_trial","categorize-lines","105","1015920","0.0-3.0-0.99","20211012","142","698","","","","","","","","[272.5513]","[272.5513]","[""u"",""i""]","[""""]","null","true","out","i","NO","","1","out","","","","272.5513","learning","12.24","","","","","","","","","","","","","","","","","","","","","","","",""
"","learn_trial","categorize-lines","106","1020632","0.0-3.0-0.100","20211012","142","684","","","","","","","","[251.8382]","[251.8382]","[""u"",""i""]","[""""]","null","true","in","i","NO","","0","in","","","","251.8382","learning","10.62","","","","","","","","","","","","","","","","","","","","","","","",""
"","learn_trial","categorize-lines","107","1025728","0.0-3.0-0.101","20211012","142","1070","","","","","","","","[397.6065]","[397.6065]","[""u"",""i""]","[""""]","null","true","in","i","NO","","0","in","","","","397.6065","learning","19.98","","","","","","","","","","","","","","","","","","","","","","","",""
"","learn_trial","categorize-lines","108","1028936","0.0-3.0-0.102","20211012","142","1180","","","","","","","","[325.361]","[325.361]","[""u"",""i""]","[""""]","null","true","out","i","NO","","1","out","","","","325.361","learning","15.87","","","","","","","","","","","","","","","","","","","","","","","",""
"","learn_trial","categorize-lines","109","1032504","0.0-3.0-0.103","20211012","142","1540","","","","","","","","[324.5682]","[324.5682]","[""u"",""i""]","[""""]","null","true","in","u","YES","","1","in","","","","324.5682","learning","15.82","","","","","","","","","","","","","","","","","","","","","","","",""
"","learn_trial","categorize-lines","110","1037632","0.0-3.0-0.104","20211012","142","1100","","","","","","","","[346.6662]","[346.6662]","[""u"",""i""]","[""""]","null","true","in","i","NO","","0","in","","","","346.6662","learning","17.17","","","","","","","","","","","","","","","","","","","","","","","",""
"","learn_trial","categorize-lines","111","1042536","0.0-3.0-0.105","20211012","142","876","","","","","","","","[261.0969]","[261.0969]","[""u"",""i""]","[""""]","null","true","out","u","YES","","0","out","","","","261.0969","learning","11.36","","","","","","","","","","","","","","","","","","","","","","","",""
"","learn_trial","categorize-lines","112","1048856","0.0-3.0-0.106","20211012","142","2292","","","","","","","","[389.5417]","[389.5417]","[""u"",""i""]","[""""]","null","true","in","i","NO","","0","in","","","","389.5417","learning","19.56","","","","","","","","","","","","","","","","","","","","","","","",""
"","learn_trial","categorize-lines","113","1051800","0.0-3.0-0.107","20211012","142","916","","","","","","","","[315.0507]","[315.0507]","[""u"",""i""]","[""""]","null","true","in","u","YES","","1","in","","","","315.0507","learning","15.21","","","","","","","","","","","","","","","","","","","","","","","",""
"","learn_trial","categorize-lines","114","1055688","0.0-3.0-0.108","20211012","142","1860","","","","","","","","[157.3464]","[157.3464]","[""u"",""i""]","[""""]","null","true","out","i","NO","","1","out","","","","157.3464","learning","0.98","","","","","","","","","","","","","","","","","","","","","","","",""
"","learn_trial","categorize-lines","115","1060718","0.0-3.0-0.109","20211012","142","1004","","","","","","","","[258.5615]","[258.5615]","[""u"",""i""]","[""""]","null","true","in","i","NO","","0","in","","","","258.5615","learning","11.16","","","","","","","","","","","","","","","","","","","","","","","",""
"","learn_trial","categorize-lines","116","1066016","0.0-3.0-0.110","20211012","142","1268","","","","","","","","[215.6451]","[215.6451]","[""u"",""i""]","[""""]","null","true","out","u","YES","","0","out","","","","215.6451","learning","7.44","","","","","","","","","","","","","","","","","","","","","","","",""
"","learn_trial","categorize-lines","117","1071496","0.0-3.0-0.111","20211012","142","1450","","","","","","","","[255.801]","[255.801]","[""u"",""i""]","[""""]","null","true","out","u","YES","","0","out","","","","255.801","learning","10.94","","","","","","","","","","","","","","","","","","","","","","","",""
"","learn_trial","categorize-lines","118","1074392","0.0-3.0-0.112","20211012","142","868","","","","","","","","[214.2817]","[214.2817]","[""u"",""i""]","[""""]","null","true","out","i","NO","","1","out","","","","214.2817","learning","7.31","","","","","","","","","","","","","","","","","","","","","","","",""
"","learn_trial","categorize-lines","119","1077408","0.0-3.0-0.113","20211012","142","988","","","","","","","","[188.2927]","[188.2927]","[""u"",""i""]","[""""]","null","true","out","i","NO","","1","out","","","","188.2927","learning","4.66","","","","","","","","","","","","","","","","","","","","","","","",""
"","learn_trial","categorize-lines","120","1080776","0.0-3.0-0.114","20211012","142","1342","","","","","","","","[425.0919]","[425.0919]","[""u"",""i""]","[""""]","null","true","out","i","NO","","1","out","","","","425.0919","learning","21.35","","","","","","","","","","","","","","","","","","","","","","","",""
"","learn_trial","categorize-lines","121","1086776","0.0-3.0-0.115","20211012","142","1940","","","","","","","","[302.5474]","[302.5474]","[""u"",""i""]","[""""]","null","true","in","i","NO","","0","in","","","","302.5474","learning","14.38","","","","","","","","","","","","","","","","","","","","","","","",""
"","learn_trial","categorize-lines","122","1091808","0.0-3.0-0.116","20211012","142","1002","","","","","","","","[282.5715]","[282.5715]","[""u"",""i""]","[""""]","null","true","out","u","YES","","0","out","","","","282.5715","learning","12.98","","","","","","","","","","","","","","","","","","","","","","","",""
"","learn_trial","categorize-lines","123","1094574","0.0-3.0-0.117","20211012","142","740","","","","","","","","[219.1453]","[219.1453]","[""u"",""i""]","[""""]","null","true","in","u","YES","","1","in","","","","219.1453","learning","7.77","","","","","","","","","","","","","","","","","","","","","","","",""
"","learn_trial","categorize-lines","124","1097296","0.0-3.0-0.118","20211012","142","694","","","","","","","","[261.6069]","[261.6069]","[""u"",""i""]","[""""]","null","true","in","u","YES","","1","in","","","","261.6069","learning","11.4","","","","","","","","","","","","","","","","","","","","","","","",""
"","learn_trial","categorize-lines","125","1099992","0.0-3.0-0.119","20211012","142","668","","","","","","","","[351.4346]","[351.4346]","[""u"",""i""]","[""""]","null","true","in","u","YES","","1","in","","","","351.4346","learning","17.45","","","","","","","","","","","","","","","","","","","","","","","",""
"","learn_trial","categorize-lines","126","1103128","0.0-3.0-0.120","20211012","142","1110","","","","","","","","[292.6743]","[292.6743]","[""u"",""i""]","[""""]","null","true","out","i","NO","","1","out","","","","292.6743","learning","13.7","","","","","","","","","","","","","","","","","","","","","","","",""
"","learn_trial","categorize-lines","127","1108536","0.0-3.0-0.121","20211012","142","1380","","","","","","","","[269.773]","[269.773]","[""u"",""i""]","[""""]","null","true","in","i","NO","","0","in","","","","269.773","learning","12.03","","","","","","","","","","","","","","","","","","","","","","","",""
"","learn_trial","categorize-lines","128","1111222","0.0-3.0-0.122","20211012","142","660","","","","","","","","[212.3044]","[212.3044]","[""u"",""i""]","[""""]","null","true","in","u","YES","","1","in","","","","212.3044","learning","7.12","","","","","","","","","","","","","","","","","","","","","","","",""
"","learn_trial","categorize-lines","129","1113976","0.0-3.0-0.123","20211012","142","726","","","","","","","","[372.443]","[372.443]","[""u"",""i""]","[""""]","null","true","in","u","YES","","1","in","","","","372.443","learning","18.64","","","","","","","","","","","","","","","","","","","","","","","",""
"","learn_trial","categorize-lines","130","1118904","0.0-3.0-0.124","20211012","142","900","","","","","","","","[441.7966]","[441.7966]","[""u"",""i""]","[""""]","null","true","out","u","YES","","0","out","","","","441.7966","learning","22.14","","","","","","","","","","","","","","","","","","","","","","","",""
"","learn_trial","categorize-lines","131","1123464","0.0-3.0-0.125","20211012","142","534","","","","","","","","[335.8447]","[335.8447]","[""u"",""i""]","[""""]","null","true","out","u","YES","","0","out","","","","335.8447","learning","16.52","","","","","","","","","","","","","","","","","","","","","","","",""
"","learn_trial","categorize-lines","132","1126080","0.0-3.0-0.126","20211012","142","588","","","","","","","","[158.6569]","[158.6569]","[""u"",""i""]","[""""]","null","true","out","i","NO","","1","out","","","","158.6569","learning","1.15","","","","","","","","","","","","","","","","","","","","","","","",""
"","learn_trial","categorize-lines","133","1129512","0.0-3.0-0.127","20211012","142","1406","","","","","","","","[155.8185]","[155.8185]","[""u"",""i""]","[""""]","null","true","out","i","NO","","1","out","","","","155.8185","learning","0.78","","","","","","","","","","","","","","","","","","","","","","","",""
"","learn_trial","categorize-lines","134","1132128","0.0-3.0-0.128","20211012","142","586","","","","","","","","[214.9099]","[214.9099]","[""u"",""i""]","[""""]","null","true","out","i","NO","","1","out","","","","214.9099","learning","7.37","","","","","","","","","","","","","","","","","","","","","","","",""
"","learn_trial","categorize-lines","135","1134800","0.0-3.0-0.129","20211012","142","640","","","","","","","","[316.5916]","[316.5916]","[""u"",""i""]","[""""]","null","true","out","i","NO","","1","out","","","","316.5916","learning","15.31","","","","","","","","","","","","","","","","","","","","","","","",""
"","learn_trial","categorize-lines","136","1138126","0.0-3.0-0.130","20211012","142","1298","","","","","","","","[260.715]","[260.715]","[""u"",""i""]","[""""]","null","true","in","u","YES","","1","in","","","","260.715","learning","11.33","","","","","","","","","","","","","","","","","","","","","","","",""
"","learn_trial","categorize-lines","137","1140974","0.0-3.0-0.131","20211012","142","818","","","","","","","","[378.8576]","[378.8576]","[""u"",""i""]","[""""]","null","true","out","i","NO","","1","out","","","","378.8576","learning","18.99","","","","","","","","","","","","","","","","","","","","","","","",""
"","learn_trial","categorize-lines","138","1146096","0.0-3.0-0.132","20211012","142","1092","","","","","","","","[274.6873]","[274.6873]","[""u"",""i""]","[""""]","null","true","out","u","YES","","0","out","","","","274.6873","learning","12.4","","","","","","","","","","","","","","","","","","","","","","","",""
"","learn_trial","categorize-lines","139","1148998","0.0-3.0-0.133","20211012","142","874","","","","","","","","[303.4343]","[303.4343]","[""u"",""i""]","[""""]","null","true","in","u","YES","","1","in","","","","303.4343","learning","14.44","","","","","","","","","","","","","","","","","","","","","","","",""
"","learn_trial","categorize-lines","140","1152704","0.0-3.0-0.134","20211012","142","1674","","","","","","","","[199.354]","[199.354]","[""u"",""i""]","[""""]","null","true","out","i","NO","","1","out","","","","199.354","learning","5.83","","","","","","","","","","","","","","","","","","","","","","","",""
"","learn_trial","categorize-lines","141","1158078","0.0-3.0-0.135","20211012","142","1346","","","","","","","","[302.3998]","[302.3998]","[""u"",""i""]","[""""]","null","true","out","u","YES","","0","out","","","","302.3998","learning","14.37","","","","","","","","","","","","","","","","","","","","","","","",""
"","learn_trial","categorize-lines","142","1161126","0.0-3.0-0.136","20211012","142","1018","","","","","","","","[381.2683]","[381.2683]","[""u"",""i""]","[""""]","null","true","out","i","NO","","1","out","","","","381.2683","learning","19.12","","","","","","","","","","","","","","","","","","","","","","","",""
"","learn_trial","categorize-lines","143","1163678","0.0-3.0-0.137","20211012","142","522","","","","","","","","[315.3583]","[315.3583]","[""u"",""i""]","[""""]","null","true","out","i","NO","","1","out","","","","315.3583","learning","15.23","","","","","","","","","","","","","","","","","","","","","","","",""
"","learn_trial","categorize-lines","144","1168646","0.0-3.0-0.138","20211012","142","940","","","","","","","","[228.0906]","[228.0906]","[""u"",""i""]","[""""]","null","true","out","u","YES","","0","out","","","","228.0906","learning","8.59","","","","","","","","","","","","","","","","","","","","","","","",""
"","learn_trial","categorize-lines","145","1173696","0.0-3.0-0.139","20211012","142","1018","","","","","","","","[233.8373]","[233.8373]","[""u"",""i""]","[""""]","null","true","in","i","NO","","0","in","","","","233.8373","learning","9.1","","","","","","","","","","","","","","","","","","","","","","","",""
"","learn_trial","categorize-lines","146","1176776","0.0-3.0-0.140","20211012","142","1050","","","","","","","","[297.2797]","[297.2797]","[""u"",""i""]","[""""]","null","true","in","u","YES","","1","in","","","","297.2797","learning","14.02","","","","","","","","","","","","","","","","","","","","","","","",""
"","learn_trial","categorize-lines","147","1181422","0.0-3.0-0.141","20211012","142","618","","","","","","","","[223.5732]","[223.5732]","[""u"",""i""]","[""""]","null","true","in","i","NO","","0","in","","","","223.5732","learning","8.18","","","","","","","","","","","","","","","","","","","","","","","",""
"","learn_trial","categorize-lines","148","1183992","0.0-3.0-0.142","20211012","142","536","","","","","","","","[304.3239]","[304.3239]","[""u"",""i""]","[""""]","null","true","in","u","YES","","1","in","","","","304.3239","learning","14.5","","","","","","","","","","","","","","","","","","","","","","","",""
"","learn_trial","categorize-lines","149","1186352","0.0-3.0-0.143","20211012","142","330","","","","","","","","[235.555]","[235.555]","[""u"",""i""]","[""""]","null","true","in","u","YES","","1","in","","","","235.555","learning","9.25","","","","","","","","","","","","","","","","","","","","","","","",""
"","learn_trial","categorize-lines","150","1190840","0.0-3.0-0.144","20211012","142","458","","","","","","","","[278.0583]","[278.0583]","[""u"",""i""]","[""""]","null","true","in","i","NO","","0","in","","","","278.0583","learning","12.65","","","","","","","","","","","","","","","","","","","","","","","",""
"","learn_trial","categorize-lines","151","1193270","0.0-3.0-0.145","20211012","142","400","","","","","","","","[286.1789]","[286.1789]","[""u"",""i""]","[""""]","null","true","in","u","YES","","1","in","","","","286.1789","learning","13.24","","","","","","","","","","","","","","","","","","","","","","","",""
"","learn_trial","categorize-lines","152","1196654","0.0-3.0-0.146","20211012","142","1356","","","","","","","","[224.886]","[224.886]","[""u"",""i""]","[""""]","null","true","in","u","YES","","1","in","","","","224.886","learning","8.3","","","","","","","","","","","","","","","","","","","","","","","",""
"","learn_trial","categorize-lines","153","1201518","0.0-3.0-0.147","20211012","142","836","","","","","","","","[249.3927]","[249.3927]","[""u"",""i""]","[""""]","null","true","out","u","YES","","0","out","","","","249.3927","learning","10.42","","","","","","","","","","","","","","","","","","","","","","","",""
"","learn_trial","categorize-lines","154","1204246","0.0-3.0-0.148","20211012","142","700","","","","","","","","[289.5496]","[289.5496]","[""u"",""i""]","[""""]","null","true","in","u","YES","","1","in","","","","289.5496","learning","13.48","","","","","","","","","","","","","","","","","","","","","","","",""
"","learn_trial","categorize-lines","155","1209270","0.0-3.0-0.149","20211012","142","996","","","","","","","","[235.0957]","[235.0957]","[""u"",""i""]","[""""]","null","true","in","i","NO","","0","in","","","","235.0957","learning","9.21","","","","","","","","","","","","","","","","","","","","","","","",""
"","learn_trial","categorize-lines","156","1214022","0.0-3.0-0.150","20211012","142","724","","","","","","","","[232.019]","[232.019]","[""u"",""i""]","[""""]","null","true","in","i","NO","","0","in","","","","232.019","learning","8.94","","","","","","","","","","","","","","","","","","","","","","","",""
"","learn_trial","categorize-lines","157","1218896","0.0-3.0-0.151","20211012","142","846","","","","","","","","[183.2177]","[183.2177]","[""u"",""i""]","[""""]","null","true","out","u","YES","","0","out","","","","183.2177","learning","4.1","","","","","","","","","","","","","","","","","","","","","","","",""
"","learn_trial","categorize-lines","158","1221664","0.0-3.0-0.152","20211012","142","738","","","","","","","","[270.9602]","[270.9602]","[""u"",""i""]","[""""]","null","true","in","u","YES","","1","in","","","","270.9602","learning","12.12","","","","","","","","","","","","","","","","","","","","","","","",""
"","learn_trial","categorize-lines","159","1224678","0.0-3.0-0.153","20211012","142","986","","","","","","","","[197.4181]","[197.4181]","[""u"",""i""]","[""""]","null","true","in","u","YES","","1","in","","","","197.4181","learning","5.63","","","","","","","","","","","","","","","","","","","","","","","",""
"","learn_trial","categorize-lines","160","1229558","0.0-3.0-0.154","20211012","142","850","","","","","","","","[327.7509]","[327.7509]","[""u"",""i""]","[""""]","null","true","in","i","NO","","0","in","","","","327.7509","learning","16.02","","","","","","","","","","","","","","","","","","","","","","","",""
"","learn_trial","categorize-lines","161","1233010","0.0-3.0-0.155","20211012","142","1418","","","","","","","","[340.7966]","[340.7966]","[""u"",""i""]","[""""]","null","true","out","i","NO","","1","out","","","","340.7966","learning","16.82","","","","","","","","","","","","","","","","","","","","","","","",""
"","learn_trial","categorize-lines","162","1237694","0.0-3.0-0.156","20211012","142","658","","","","","","","","[257.4286]","[257.4286]","[""u"",""i""]","[""""]","null","true","out","u","YES","","0","out","","","","257.4286","learning","11.07","","","","","","","","","","","","","","","","","","","","","","","",""
"","learn_trial","categorize-lines","163","1241166","0.0-3.0-0.157","20211012","142","1444","","","","","","","","[177.9319]","[177.9319]","[""u"",""i""]","[""""]","null","true","out","i","NO","","1","out","","","","177.9319","learning","3.5","","","","","","","","","","","","","","","","","","","","","","","",""
"","learn_trial","categorize-lines","164","1245894","0.0-3.0-0.158","20211012","142","694","","","","","","","","[240.0801]","[240.0801]","[""u"",""i""]","[""""]","null","true","out","u","YES","","0","out","","","","240.0801","learning","9.64","","","","","","","","","","","","","","","","","","","","","","","",""
"","learn_trial","categorize-lines","165","1248678","0.0-3.0-0.159","20211012","142","754","","","","","","","","[243.0264]","[243.0264]","[""u"",""i""]","[""""]","null","true","out","i","NO","","1","out","","","","243.0264","learning","9.89","","","","","","","","","","","","","","","","","","","","","","","",""
"","learn_trial","categorize-lines","166","1253894","0.0-3.0-0.160","20211012","142","1188","","","","","","","","[226.0962]","[226.0962]","[""u"",""i""]","[""""]","null","true","in","i","NO","","0","in","","","","226.0962","learning","8.41","","","","","","","","","","","","","","","","","","","","","","","",""
"","learn_trial","categorize-lines","167","1256830","0.0-3.0-0.161","20211012","142","908","","","","","","","","[304.621]","[304.621]","[""u"",""i""]","[""""]","null","true","out","i","NO","","1","out","","","","304.621","learning","14.52","","","","","","","","","","","","","","","","","","","","","","","",""
"","learn_trial","categorize-lines","168","1261246","0.0-3.0-0.162","20211012","142","2388","","","","","","","","[294.3929]","[294.3929]","[""u"",""i""]","[""""]","null","true","in","u","YES","","1","in","","","","294.3929","learning","13.82","","","","","","","","","","","","","","","","","","","","","","","",""
"","learn_trial","categorize-lines","169","1266182","0.0-3.0-0.163","20211012","142","906","","","","","","","","[314.8971]","[314.8971]","[""u"",""i""]","[""""]","null","true","in","i","NO","","0","in","","","","314.8971","learning","15.2","","","","","","","","","","","","","","","","","","","","","","","",""
"","learn_trial","categorize-lines","170","1271126","0.0-3.0-0.164","20211012","142","914","","","","","","","","[189.1213]","[189.1213]","[""u"",""i""]","[""""]","null","true","out","u","YES","","0","out","","","","189.1213","learning","4.75","","","","","","","","","","","","","","","","","","","","","","","",""
"","learn_trial","categorize-lines","171","1274994","0.0-3.0-0.165","20211012","142","1836","","","","","","","","[431.9916]","[431.9916]","[""u"",""i""]","[""""]","null","true","out","i","NO","","1","out","","","","431.9916","learning","21.68","","","","","","","","","","","","","","","","","","","","","","","",""
"","learn_trial","categorize-lines","172","1278158","0.0-3.0-0.166","20211012","142","1136","","","","","","","","[395.4783]","[395.4783]","[""u"",""i""]","[""""]","null","true","out","i","NO","","1","out","","","","395.4783","learning","19.87","","","","","","","","","","","","","","","","","","","","","","","",""
"","learn_trial","categorize-lines","173","1281214","0.0-3.0-0.167","20211012","142","1028","","","","","","","","[169.8728]","[169.8728]","[""u"",""i""]","[""""]","null","true","out","i","NO","","1","out","","","","169.8728","learning","2.55","","","","","","","","","","","","","","","","","","","","","","","",""
"","learn_trial","categorize-lines","174","1287406","0.0-3.0-0.168","20211012","142","2164","","","","","","","","[242.5526]","[242.5526]","[""u"",""i""]","[""""]","null","true","in","i","NO","","0","in","","","","242.5526","learning","9.85","","","","","","","","","","","","","","","","","","","","","","","",""
"","learn_trial","categorize-lines","175","1292158","0.0-3.0-0.169","20211012","142","2722","","","","","","","","[319.8521]","[319.8521]","[""u"",""i""]","[""""]","null","true","in","u","YES","","1","in","","","","319.8521","learning","15.52","","","","","","","","","","","","","","","","","","","","","","","",""
"","learn_trial","categorize-lines","176","1295174","0.0-3.0-0.170","20211012","142","988","","","","","","","","[433.4695]","[433.4695]","[""u"",""i""]","[""""]","null","true","out","i","NO","","1","out","","","","433.4695","learning","21.75","","","","","","","","","","","","","","","","","","","","","","","",""
"","learn_trial","categorize-lines","177","1298598","0.0-3.0-0.171","20211012","142","1396","","","","","","","","[189.4907]","[189.4907]","[""u"",""i""]","[""""]","null","true","out","i","NO","","1","out","","","","189.4907","learning","4.79","","","","","","","","","","","","","","","","","","","","","","","",""
"","learn_trial","categorize-lines","178","1303350","0.0-3.0-0.172","20211012","142","724","","","","","","","","[235.3252]","[235.3252]","[""u"",""i""]","[""""]","null","true","out","u","YES","","0","out","","","","235.3252","learning","9.23","","","","","","","","","","","","","","","","","","","","","","","",""
"","learn_trial","categorize-lines","179","1306198","0.0-3.0-0.173","20211012","142","820","","","","","","","","[198.8682]","[198.8682]","[""u"",""i""]","[""""]","null","true","in","u","YES","","1","in","","","","198.8682","learning","5.78","","","","","","","","","","","","","","","","","","","","","","","",""
"","learn_trial","categorize-lines","180","1311574","0.0-3.0-0.174","20211012","142","1348","","","","","","","","[316.4372]","[316.4372]","[""u"",""i""]","[""""]","null","true","in","i","NO","","0","in","","","","316.4372","learning","15.3","","","","","","","","","","","","","","","","","","","","","","","",""
"","learn_trial","categorize-lines","181","1316934","0.0-3.0-0.175","20211012","142","1332","","","","","","","","[356.0948]","[356.0948]","[""u"",""i""]","[""""]","null","true","in","i","NO","","0","in","","","","356.0948","learning","17.72","","","","","","","","","","","","","","","","","","","","","","","",""
"","learn_trial","categorize-lines","182","1319478","0.0-3.0-0.176","20211012","142","516","","","","","","","","[287.8593]","[287.8593]","[""u"",""i""]","[""""]","null","true","in","u","YES","","1","in","","","","287.8593","learning","13.36","","","","","","","","","","","","","","","","","","","","","","","",""
"","learn_trial","categorize-lines","183","1322006","0.0-3.0-0.177","20211012","142","500","","","","","","","","[286.0393]","[286.0393]","[""u"",""i""]","[""""]","null","true","in","u","YES","","1","in","","","","286.0393","learning","13.23","","","","","","","","","","","","","","","","","","","","","","","",""
"","learn_trial","categorize-lines","184","1324444","0.0-3.0-0.178","20211012","142","412","","","","","","","","[205.4765]","[205.4765]","[""u"",""i""]","[""""]","null","true","in","u","YES","","1","in","","","","205.4765","learning","6.45","","","","","","","","","","","","","","","","","","","","","","","",""
"","learn_trial","categorize-lines","185","1327142","0.0-3.0-0.179","20211012","142","670","","","","","","","","[414.4426]","[414.4426]","[""u"",""i""]","[""""]","null","true","out","i","NO","","1","out","","","","414.4426","learning","20.83","","","","","","","","","","","","","","","","","","","","","","","",""
"","learn_trial","categorize-lines","186","1329830","0.0-3.0-0.180","20211012","142","660","","","","","","","","[352.1211]","[352.1211]","[""u"",""i""]","[""""]","null","true","out","i","NO","","1","out","","","","352.1211","learning","17.49","","","","","","","","","","","","","","","","","","","","","","","",""
"","learn_trial","categorize-lines","187","1332502","0.0-3.0-0.181","20211012","142","644","","","","","","","","[186.2824]","[186.2824]","[""u"",""i""]","[""""]","null","true","in","u","YES","","1","in","","","","186.2824","learning","4.44","","","","","","","","","","","","","","","","","","","","","","","",""
"","learn_trial","categorize-lines","188","1337806","0.0-3.0-0.182","20211012","142","1276","","","","","","","","[367.7482]","[367.7482]","[""u"",""i""]","[""""]","null","true","out","u","YES","","0","out","","","","367.7482","learning","18.38","","","","","","","","","","","","","","","","","","","","","","","",""
"","learn_trial","categorize-lines","189","1340430","0.0-3.0-0.183","20211012","142","596","","","","","","","","[206.4815]","[206.4815]","[""u"",""i""]","[""""]","null","true","out","i","NO","","1","out","","","","206.4815","learning","6.55","","","","","","","","","","","","","","","","","","","","","","","",""
"","learn_trial","categorize-lines","190","1343038","0.0-3.0-0.184","20211012","142","580","","","","","","","","[176.8932]","[176.8932]","[""u"",""i""]","[""""]","null","true","out","i","NO","","1","out","","","","176.8932","learning","3.38","","","","","","","","","","","","","","","","","","","","","","","",""
"","learn_trial","categorize-lines","191","1347662","0.0-3.0-0.185","20211012","142","596","","","","","","","","[242.6709]","[242.6709]","[""u"",""i""]","[""""]","null","true","in","i","NO","","0","in","","","","242.6709","learning","9.86","","","","","","","","","","","","","","","","","","","","","","","",""
"","learn_trial","categorize-lines","192","1350942","0.0-3.0-0.186","20211012","142","1252","","","","","","","","[281.4707]","[281.4707]","[""u"",""i""]","[""""]","null","true","in","u","YES","","1","in","","","","281.4707","learning","12.9","","","","","","","","","","","","","","","","","","","","","","","",""
"","learn_trial","categorize-lines","193","1355630","0.0-3.0-0.187","20211012","142","660","","","","","","","","[370.2688]","[370.2688]","[""u"",""i""]","[""""]","null","true","out","u","YES","","0","out","","","","370.2688","learning","18.52","","","","","","","","","","","","","","","","","","","","","","","",""
"","learn_trial","categorize-lines","194","1358294","0.0-3.0-0.188","20211012","142","636","","","","","","","","[254.3077]","[254.3077]","[""u"",""i""]","[""""]","null","true","in","u","YES","","1","in","","","","254.3077","learning","10.82","","","","","","","","","","","","","","","","","","","","","","","",""
"","learn_trial","categorize-lines","195","1362238","0.0-3.0-0.189","20211012","142","1918","","","","","","","","[427.3794]","[427.3794]","[""u"",""i""]","[""""]","null","true","out","i","NO","","1","out","","","","427.3794","learning","21.46","","","","","","","","","","","","","","","","","","","","","","","",""
"","learn_trial","categorize-lines","196","1367150","0.0-3.0-0.190","20211012","142","882","","","","","","","","[211.2711]","[211.2711]","[""u"",""i""]","[""""]","null","true","out","u","YES","","0","out","","","","211.2711","learning","7.02","","","","","","","","","","","","","","","","","","","","","","","",""
"","learn_trial","categorize-lines","197","1369854","0.0-3.0-0.191","20211012","142","676","","","","","","","","[351.2632]","[351.2632]","[""u"",""i""]","[""""]","null","true","out","i","NO","","1","out","","","","351.2632","learning","17.44","","","","","","","","","","","","","","","","","","","","","","","",""
"","learn_trial","categorize-lines","198","1372662","0.0-3.0-0.192","20211012","142","780","","","","","","","","[223.4641]","[223.4641]","[""u"",""i""]","[""""]","null","true","out","i","NO","","1","out","","","","223.4641","learning","8.17","","","","","","","","","","","","","","","","","","","","","","","",""
"","learn_trial","categorize-lines","199","1377542","0.0-3.0-0.193","20211012","142","850","","","","","","","","[241.7256]","[241.7256]","[""u"",""i""]","[""""]","null","true","in","i","NO","","0","in","","","","241.7256","learning","9.78","","","","","","","","","","","","","","","","","","","","","","","",""
"","learn_trial","categorize-lines","200","1380630","0.0-3.0-0.194","20211012","142","1060","","","","","","","","[414.0384]","[414.0384]","[""u"",""i""]","[""""]","null","true","out","i","NO","","1","out","","","","414.0384","learning","20.81","","","","","","","","","","","","","","","","","","","","","","","",""
"","learn_trial","categorize-lines","201","1383366","0.0-3.0-0.195","20211012","142","708","","","","","","","","[219.6805]","[219.6805]","[""u"",""i""]","[""""]","null","true","in","u","YES","","1","in","","","","219.6805","learning","7.82","","","","","","","","","","","","","","","","","","","","","","","",""
"","learn_trial","categorize-lines","202","1385782","0.0-3.0-0.196","20211012","142","388","","","","","","","","[245.4095]","[245.4095]","[""u"",""i""]","[""""]","null","true","in","u","YES","","1","in","","","","245.4095","learning","10.09","","","","","","","","","","","","","","","","","","","","","","","",""
"","learn_trial","categorize-lines","203","1389326","0.0-3.0-0.197","20211012","142","1516","","","","","","","","[153.0308]","[153.0308]","[""u"",""i""]","[""""]","null","true","out","i","NO","","1","out","","","","153.0308","learning","0.41","","","","","","","","","","","","","","","","","","","","","","","",""
"","learn_trial","categorize-lines","204","1394214","0.0-3.0-0.198","20211012","142","860","","","","","","","","[193.6971]","[193.6971]","[""u"",""i""]","[""""]","null","true","in","i","NO","","0","in","","","","193.6971","learning","5.24","","","","","","","","","","","","","","","","","","","","","","","",""
"","learn_trial","categorize-lines","205","1398990","0.0-3.0-0.199","20211012","142","744","","","","","","","","[391.0651]","[391.0651]","[""u"",""i""]","[""""]","null","true","out","u","YES","","0","out","","","","391.0651","learning","19.64","","","","","","","","","","","","","","","","","","","","","","","",""
"","transfer_instructions","instructions","206","1415628","0.0-4.0-0.0","20211012","142","16638","","","","","","[{""page_index"":0,""viewing_time"":2798},{""page_index"":1,""viewing_time"":13840}]","","","","","","","","","","","","","","","","","","","","","","","","","","","","","","","","","","","","","","","","","","",""
"","transfer_trial","categorize-lines","207","1425376","0.0-5.0-0.0","20211012","142","8670","","","","","","","","[180.2735,344.178,360.9929]","[180.2735,344.178,360.9929]","[""j"",""k"",""l""]","[""J"",""K"",""L""]","180.2735","false","null","l","","360.9929","0","null","344.178","360.9929","","","transfer","","","","","","","","180.2735","3.768","180.2735","344.178","360.9929","3.768","17.0224","18","filler","trinary","","","","","7.482","left","NA",""
"","transfer_trial","categorize-lines","208","1430896","0.0-5.0-0.1","20211012","142","4448","","","","","","","","[247.3327,272.6843]","[272.6843,247.3327]","[""j"",""k""]","[""J"",""K""]","null","false","null","k","","247.3327","0","null","247.3327","","","","transfer","","10.25","247.3327","12.25","272.6843","","","","","247.3327","272.6843","0","10.25","12.25","0","attraction","binary","equal_chance_1_JND","left","right","both","1","equal","target",""
"","transfer_trial","categorize-lines","209","1440846","0.0-5.0-0.2","20211012","142","8884","","","","","","","","[247.3327,272.6843,300.6345]","[272.6843,247.3327,300.6345]","[""j"",""k"",""l""]","[""J"",""K"",""L""]","null","false","null","j","","272.6843","0","null","247.3327","300.6345","","","transfer","","12.25","272.6843","10.25","247.3327","14.25","300.6345","","","247.3327","272.6843","300.6345","10.25","12.25","14.25","attraction","trinary","equal_chance_1_JND","right","left","both","1","equal","target",""
"","transfer_trial","categorize-lines","210","1445662","0.0-5.0-0.3","20211012","142","3740","","","","","","","","[272.6843,224.3381,203.4812]","[224.3381,203.4812,272.6843]","[""j"",""k"",""l""]","[""J"",""K"",""L""]","272.6843","false","null","l","","272.6843","1","null","203.4812","272.6843","","","transfer","","8.25","224.3381","12.25","272.6843","6.25","203.4812","272.6843","12.25","272.6843","224.3381","203.4812","12.25","8.25","6.25","attraction","trinary","easy","left","right","competitor","1","right","competitor",""
"","transfer_trial","categorize-lines","211","1450358","0.0-5.0-0.4","20211012","142","3624","","","","","","","","[295.8017,288.9036,327.4312]","[295.8017,288.9036,327.4312]","[""j"",""k"",""l""]","[""J"",""K"",""L""]","295.8017","false","null","j","","295.8017","1","null","288.9036","327.4312","","","transfer","","","","","","","","295.8017","13.9178","295.8017","288.9036","327.4312","13.9178","13.4342","16","filler","trinary","","","","","2.6678","right","NA",""
"","transfer_trial","categorize-lines","212","1452366","0.0-5.0-0.5","20211012","142","938","","","","","","","","[235.555,286.3185,315.6662]","[286.3185,235.555,315.6662]","[""j"",""k"",""l""]","[""J"",""K"",""L""]","null","false","null","k","","235.555","0","null","235.555","315.6662","","","transfer","","13.25","286.3185","9.25","235.555","15.25","315.6662","","","235.555","286.3185","315.6662","9.25","13.25","15.25","attraction","trinary","equal_chance_2_JND","right","left","both","2","equal","competitor",""
"","transfer_trial","categorize-lines","213","1455526","0.0-5.0-0.6","20211012","142","2090","","","","","","","","[386.139,312.1544,417.8944]","[417.8944,312.1544,386.139]","[""j"",""k"",""l""]","[""J"",""K"",""L""]","386.139","false","null","k","","312.1544","0","null","312.1544","386.139","","","transfer","","","","","","","","386.139","19.3802","386.139","312.1544","417.8944","19.3802","15.0207","21","filler","trinary","","","","","8.1302","right","NA",""
"","transfer_trial","categorize-lines","214","1459096","0.0-5.0-0.7","20211012","142","2494","","","","","","","","[272.6843,235.555,300.6345]","[300.6345,272.6843,235.555]","[""j"",""k"",""l""]","[""J"",""K"",""L""]","272.6843","false","null","j","","300.6345","0","null","272.6843","235.555","","","transfer","","12.25","272.6843","9.25","235.555","14.25","300.6345","272.6843","12.25","272.6843","235.555","300.6345","12.25","9.25","14.25","attraction","trinary","difficult","right","left","target","1","right","decoy",""
"","transfer_trial","categorize-lines","215","1461878","0.0-5.0-0.8","20211012","142","1712","","","","","","","","[247.3327,286.3185]","[247.3327,286.3185]","[""j"",""k""]","[""J"",""K""]","247.3327","false","null","j","","247.3327","1","null","286.3185","","","","transfer","","10.25","247.3327","13.25","286.3185","","","247.3327","10.25","247.3327","286.3185","0","10.25","13.25","0","attraction","binary","difficult","left","right","target","1","left","target",""
"","transfer_trial","categorize-lines","216","1465030","0.0-5.0-0.9","20211012","142","2082","","","","","","","","[230.8978,283.8988]","[230.8978,283.8988]","[""j"",""k""]","[""J"",""K""]","230.8978","false","null","k","","283.8988","0","null","283.8988","","","","transfer","","","","","","","","230.8978","8.8407","230.8978","283.8988","0","8.8407","13.0761","0","filler","binary","","","","","2.4093","left","NA",""
"","transfer_trial","categorize-lines","217","1470814","0.0-5.0-0.10","20211012","142","4712","","","","","","","","[256.5345,203.5786]","[203.5786,256.5345]","[""j"",""k""]","[""J"",""K""]","256.5345","false","null","j","","203.5786","0","null","256.5345","","","","transfer","","","","","","","","256.5345","10.9987","256.5345","203.5786","0","10.9987","6.2598","0","filler","binary","","","","","0.2513","left","NA",""
"","transfer_trial","categorize-lines","218","1475118","0.0-5.0-0.11","20211012","142","3232","","","","","","","","[272.6843,224.3381]","[224.3381,272.6843]","[""j"",""k""]","[""J"",""K""]","272.6843","false","null","k","","272.6843","1","null","272.6843","","","","transfer","","8.25","224.3381","12.25","272.6843","","","272.6843","12.25","272.6843","224.3381","0","12.25","8.25","0","attraction","binary","easy","left","right","competitor","1","right","competitor",""
"","transfer_trial","categorize-lines","219","1485454","0.0-5.0-0.12","20211012","142","9264","","","","","","","","[209.4107,272.2156,360.9929]","[360.9929,272.2156,209.4107]","[""j"",""k"",""l""]","[""J"",""K"",""L""]","209.4107","false","null","j","","360.9929","0","null","272.2156","209.4107","","","transfer","","","","","","","","209.4107","6.8387","209.4107","272.2156","360.9929","6.8387","12.2147","18","filler","trinary","","","","","4.4113","left","NA",""
"","transfer_trial","categorize-lines","220","1487694","0.0-5.0-0.13","20211012","142","1170","","","","","","","","[272.6843,235.555]","[235.555,272.6843]","[""j"",""k""]","[""J"",""K""]","272.6843","false","null","j","","235.555","0","null","272.6843","","","","transfer","","12.25","272.6843","9.25","235.555","","","272.6843","12.25","272.6843","235.555","0","12.25","9.25","0","attraction","binary","difficult","right","left","target","1","right","competitor",""
"","transfer_trial","categorize-lines","221","1490262","0.0-5.0-0.14","20211012","142","1496","","","","","","","","[247.3327,300.6345,331.4495]","[247.3327,331.4495,300.6345]","[""j"",""k"",""l""]","[""J"",""K"",""L""]","247.3327","false","null","k","","331.4495","0","null","331.4495","300.6345","","","transfer","","14.25","300.6345","10.25","247.3327","16.25","331.4495","247.3327","10.25","247.3327","300.6345","331.4495","10.25","14.25","16.25","attraction","trinary","easy","right","left","competitor","1","left","decoy",""
"","transfer_trial","categorize-lines","222","1492414","0.0-5.0-0.15","20211012","142","1078","","","","","","","","[247.3327,286.3185]","[247.3327,286.3185]","[""j"",""k""]","[""J"",""K""]","247.3327","false","null","j","","247.3327","1","null","286.3185","","","","transfer","","13.25","286.3185","10.25","247.3327","","","247.3327","10.25","247.3327","286.3185","0","10.25","13.25","0","attraction","binary","difficult","right","left","competitor","1","left","competitor",""
"","transfer_trial","categorize-lines","223","1496590","0.0-5.0-0.16","20211012","142","3104","","","","","","","","[272.6843,224.3381]","[272.6843,224.3381]","[""j"",""k""]","[""J"",""K""]","272.6843","false","null","k","","224.3381","0","null","224.3381","","","","transfer","","12.25","272.6843","8.25","224.3381","","","272.6843","12.25","272.6843","224.3381","0","12.25","8.25","0","attraction","binary","easy","right","left","target","1","right","competitor",""
"","transfer_trial","categorize-lines","224","1501894","0.0-5.0-0.17","20211012","142","4232","","","","","","","","[235.555,286.3185,315.6662]","[315.6662,286.3185,235.555]","[""j"",""k"",""l""]","[""J"",""K"",""L""]","null","false","null","j","","315.6662","0","null","286.3185","235.555","","","transfer","","13.25","286.3185","9.25","235.555","15.25","315.6662","","","235.555","286.3185","315.6662","9.25","13.25","15.25","attraction","trinary","equal_chance_2_JND","right","left","both","2","equal","decoy",""
"","transfer_trial","categorize-lines","225","1505974","0.0-5.0-0.18","20211012","142","3008","","","","","","","","[272.6843,235.555]","[272.6843,235.555]","[""j"",""k""]","[""J"",""K""]","272.6843","false","null","k","","235.555","0","null","235.555","","","","transfer","","12.25","272.6843","9.25","235.555","","","272.6843","12.25","272.6843","235.555","0","12.25","9.25","0","attraction","binary","difficult","right","left","target","1","right","competitor",""
"","transfer_trial","categorize-lines","226","1512430","0.0-5.0-0.19","20211012","142","5384","","","","","","","","[235.555,286.3185]","[286.3185,235.555]","[""j"",""k""]","[""J"",""K""]","null","false","null","k","","235.555","0","null","235.555","","","","transfer","","9.25","235.555","13.25","286.3185","","","","","235.555","286.3185","0","9.25","13.25","0","attraction","binary","equal_chance_2_JND","left","right","both","2","equal","target",""
"","transfer_trial","categorize-lines","227","1519102","0.0-5.0-0.20","20211012","142","5598","","","","","","","","[289.9466,270.9946,182.3259]","[182.3259,289.9466,270.9946]","[""j"",""k"",""l""]","[""J"",""K"",""L""]","289.9466","false","null","k","","289.9466","1","null","289.9466","270.9946","","","transfer","","","","","","","","289.9466","13.5081","289.9466","270.9946","182.3259","13.5081","12.1226","4","filler","trinary","","","","","2.2581","right","NA",""
"","transfer_trial","categorize-lines","228","1521814","0.0-5.0-0.21","20211012","142","1640","","","","","","","","[282.4293,184.8867,211.0651]","[184.8867,211.0651,282.4293]","[""j"",""k"",""l""]","[""J"",""K"",""L""]","282.4293","false","null","l","","282.4293","1","null","211.0651","282.4293","","","transfer","","","","","","","","282.4293","12.9697","282.4293","184.8867","211.0651","12.9697","4.2859","7","filler","trinary","","","","","1.7197","right","NA",""
"","transfer_trial","categorize-lines","229","1527166","0.0-5.0-0.22","20211012","142","4282","","","","","","","","[247.3327,272.6843]","[247.3327,272.6843]","[""j"",""k""]","[""J"",""K""]","null","false","null","j","","247.3327","0","null","272.6843","","","","transfer","","12.25","272.6843","10.25","247.3327","","","","","247.3327","272.6843","0","10.25","12.25","0","attraction","binary","equal_chance_1_JND","right","left","both","1","equal","competitor",""
"","transfer_trial","categorize-lines","230","1530438","0.0-5.0-0.23","20211012","142","2202","","","","","","","","[247.3327,286.3185]","[247.3327,286.3185]","[""j"",""k""]","[""J"",""K""]","247.3327","false","null","j","","247.3327","1","null","286.3185","","","","transfer","","13.25","286.3185","10.25","247.3327","","","247.3327","10.25","247.3327","286.3185","0","10.25","13.25","0","attraction","binary","difficult","right","left","competitor","1","left","competitor",""
"","transfer_trial","categorize-lines","231","1534174","0.0-5.0-0.24","20211012","142","2666","","","","","","","","[272.6843,224.3381]","[272.6843,224.3381]","[""j"",""k""]","[""J"",""K""]","272.6843","false","null","k","","224.3381","0","null","224.3381","","","","transfer","","8.25","224.3381","12.25","272.6843","","","272.6843","12.25","272.6843","224.3381","0","12.25","8.25","0","attraction","binary","easy","left","right","competitor","1","right","target",""
"","transfer_trial","categorize-lines","232","1536678","0.0-5.0-0.25","20211012","142","1434","","","","","","","","[272.6843,224.3381]","[224.3381,272.6843]","[""j"",""k""]","[""J"",""K""]","272.6843","false","null","k","","272.6843","1","null","272.6843","","","","transfer","","12.25","272.6843","8.25","224.3381","","","272.6843","12.25","272.6843","224.3381","0","12.25","8.25","0","attraction","binary","easy","right","left","target","1","right","target",""
"","transfer_trial","categorize-lines","233","1540590","0.0-5.0-0.26","20211012","142","2840","","","","","","","","[235.555,286.3185,213.6553]","[213.6553,286.3185,235.555]","[""j"",""k"",""l""]","[""J"",""K"",""L""]","null","false","null","l","","235.555","0","null","286.3185","235.555","","","transfer","","9.25","235.555","13.25","286.3185","7.25","213.6553","","","235.555","286.3185","213.6553","9.25","13.25","7.25","attraction","trinary","equal_chance_2_JND","left","right","both","2","equal","target",""
"","transfer_trial","categorize-lines","234","1543966","0.0-5.0-0.27","20211012","142","2304","","","","","","","","[304.3135,400.7464,165.375]","[165.375,304.3135,400.7464]","[""j"",""k"",""l""]","[""J"",""K"",""L""]","304.3135","false","null","j","","165.375","0","null","304.3135","400.7464","","","transfer","","","","","","","","304.3135","14.4993","304.3135","400.7464","165.375","14.4993","20.1412","2","filler","trinary","","","","","3.2493","right","NA",""
"","transfer_trial","categorize-lines","235","1549398","0.0-5.0-0.28","20211012","142","4362","","","","","","","","[272.6843,235.555]","[235.555,272.6843]","[""j"",""k""]","[""J"",""K""]","272.6843","false","null","k","","272.6843","1","null","272.6843","","","","transfer","","9.25","235.555","12.25","272.6843","","","272.6843","12.25","272.6843","235.555","0","12.25","9.25","0","attraction","binary","difficult","left","right","competitor","1","right","competitor",""
"","transfer_trial","categorize-lines","236","1561134","0.0-5.0-0.29","20211012","142","10664","","","","","","","","[272.6843,224.3381,203.4812]","[224.3381,203.4812,272.6843]","[""j"",""k"",""l""]","[""J"",""K"",""L""]","272.6843","false","null","k","","203.4812","0","null","203.4812","272.6843","","","transfer","","8.25","224.3381","12.25","272.6843","6.25","203.4812","272.6843","12.25","272.6843","224.3381","203.4812","12.25","8.25","6.25","attraction","trinary","easy","left","right","competitor","1","right","decoy",""
"","transfer_trial","categorize-lines","237","1565302","0.0-5.0-0.30","20211012","142","3096","","","","","","","","[247.3327,286.3185]","[247.3327,286.3185]","[""j"",""k""]","[""J"",""K""]","247.3327","false","null","j","","247.3327","1","null","286.3185","","","","transfer","","10.25","247.3327","13.25","286.3185","","","247.3327","10.25","247.3327","286.3185","0","10.25","13.25","0","attraction","binary","difficult","left","right","target","1","left","target",""
"","transfer_trial","categorize-lines","238","1567558","0.0-5.0-0.31","20211012","142","1186","","","","","","","","[272.6843,224.3381]","[272.6843,224.3381]","[""j"",""k""]","[""J"",""K""]","272.6843","false","null","k","","224.3381","0","null","224.3381","","","","transfer","","8.25","224.3381","12.25","272.6843","","","272.6843","12.25","272.6843","224.3381","0","12.25","8.25","0","attraction","binary","easy","left","right","competitor","1","right","target",""
"","transfer_trial","categorize-lines","239","1570406","0.0-5.0-0.32","20211012","142","1778","","","","","","","","[247.3327,286.3185,224.3381]","[286.3185,224.3381,247.3327]","[""j"",""k"",""l""]","[""J"",""K"",""L""]","247.3327","false","null","j","","286.3185","0","null","224.3381","247.3327","","","transfer","","10.25","247.3327","13.25","286.3185","8.25","224.3381","247.3327","10.25","247.3327","286.3185","224.3381","10.25","13.25","8.25","attraction","trinary","difficult","left","right","target","1","left","competitor",""
"","transfer_trial","categorize-lines","240","1573086","0.0-5.0-0.33","20211012","142","1610","","","","","","","","[274.234,201.1364]","[201.1364,274.234]","[""j"",""k""]","[""J"",""K""]","274.234","false","null","j","","201.1364","0","null","274.234","","","","transfer","","","","","","","","274.234","12.3661","274.234","201.1364","0","12.3661","6.0124","0","filler","binary","","","","","1.1161","right","NA",""
"","transfer_trial","categorize-lines","241","1575630","0.0-5.0-0.34","20211012","142","1474","","","","","","","","[262.3725,331.3835,157.5]","[157.5,262.3725,331.3835]","[""j"",""k"",""l""]","[""J"",""K"",""L""]","262.3725","false","null","j","","157.5","0","null","262.3725","331.3835","","","transfer","","","","","","","","262.3725","11.4599","262.3725","331.3835","157.5","11.4599","16.2459","1","filler","trinary","","","","","0.2099","right","NA",""
"","transfer_trial","categorize-lines","242","1578174","0.0-5.0-0.35","20211012","142","1474","","","","","","","","[247.3327,286.3185]","[286.3185,247.3327]","[""j"",""k""]","[""J"",""K""]","247.3327","false","null","j","","286.3185","0","null","247.3327","","","","transfer","","10.25","247.3327","13.25","286.3185","","","247.3327","10.25","247.3327","286.3185","0","10.25","13.25","0","attraction","binary","difficult","left","right","target","1","left","competitor",""
"","transfer_trial","categorize-lines","243","1581726","0.0-5.0-0.36","20211012","142","2482","","","","","","","","[272.6843,235.555,213.6553]","[213.6553,272.6843,235.555]","[""j"",""k"",""l""]","[""J"",""K"",""L""]","272.6843","false","null","k","","272.6843","1","null","272.6843","235.555","","","transfer","","9.25","235.555","12.25","272.6843","7.25","213.6553","272.6843","12.25","272.6843","235.555","213.6553","12.25","9.25","7.25","attraction","trinary","difficult","left","right","competitor","1","right","competitor",""
"","transfer_trial","categorize-lines","244","1586910","0.0-5.0-0.37","20211012","142","4112","","","","","","","","[272.6843,235.555]","[235.555,272.6843]","[""j"",""k""]","[""J"",""K""]","272.6843","false","null","j","","235.555","0","null","272.6843","","","","transfer","","12.25","272.6843","9.25","235.555","","","272.6843","12.25","272.6843","235.555","0","12.25","9.25","0","attraction","binary","difficult","right","left","target","1","right","competitor",""
"","transfer_trial","categorize-lines","245","1590206","0.0-5.0-0.38","20211012","142","2224","","","","","","","","[247.3327,286.3185,315.6662]","[286.3185,247.3327,315.6662]","[""j"",""k"",""l""]","[""J"",""K"",""L""]","247.3327","false","null","k","","247.3327","1","null","247.3327","315.6662","","","transfer","","13.25","286.3185","10.25","247.3327","15.25","315.6662","247.3327","10.25","247.3327","286.3185","315.6662","10.25","13.25","15.25","attraction","trinary","difficult","right","left","competitor","1","left","competitor",""
"","transfer_trial","categorize-lines","246","1597646","0.0-5.0-0.39","20211012","142","6370","","","","","","","","[328.3209,169.4252,256.5509]","[328.3209,256.5509,169.4252]","[""j"",""k"",""l""]","[""J"",""K"",""L""]","328.3209","false","null","l","","169.4252","0","null","256.5509","169.4252","","","transfer","","","","","","","","328.3209","16.0556","328.3209","169.4252","256.5509","16.0556","2.4959","11","filler","trinary","","","","","4.8056","right","NA",""
"","transfer_trial","categorize-lines","247","1600390","0.0-5.0-0.40","20211012","142","1674","","","","","","","","[247.3327,286.3185,224.3381]","[286.3185,224.3381,247.3327]","[""j"",""k"",""l""]","[""J"",""K"",""L""]","247.3327","false","null","l","","247.3327","1","null","224.3381","247.3327","","","transfer","","10.25","247.3327","13.25","286.3185","8.25","224.3381","247.3327","10.25","247.3327","286.3185","224.3381","10.25","13.25","8.25","attraction","trinary","difficult","left","right","target","1","left","target",""
"","transfer_trial","categorize-lines","248","1605902","0.0-5.0-0.41","20211012","142","4436","","","","","","","","[272.6843,224.3381]","[272.6843,224.3381]","[""j"",""k""]","[""J"",""K""]","272.6843","false","null","k","","224.3381","0","null","224.3381","","","","transfer","","12.25","272.6843","8.25","224.3381","","","272.6843","12.25","272.6843","224.3381","0","12.25","8.25","0","attraction","binary","easy","right","left","target","1","right","competitor",""
"","transfer_trial","categorize-lines","249","1608150","0.0-5.0-0.42","20211012","142","1176","","","","","","","","[227.6639,153.6208,379.0425]","[227.6639,153.6208,379.0425]","[""j"",""k"",""l""]","[""J"",""K"",""L""]","227.6639","false","null","j","","227.6639","1","null","153.6208","379.0425","","","transfer","","","","","","","","227.6639","8.5516","227.6639","153.6208","379.0425","8.5516","0.4889","19","filler","trinary","","","","","2.6984","left","NA",""
"","transfer_trial","categorize-lines","250","1611494","0.0-5.0-0.43","20211012","142","2274","","","","","","","","[247.3327,300.6345,224.3381]","[247.3327,224.3381,300.6345]","[""j"",""k"",""l""]","[""J"",""K"",""L""]","247.3327","false","null","k","","224.3381","0","null","224.3381","300.6345","","","transfer","","10.25","247.3327","14.25","300.6345","8.25","224.3381","247.3327","10.25","247.3327","300.6345","224.3381","10.25","14.25","8.25","attraction","trinary","easy","left","right","target","1","left","decoy",""
"","transfer_trial","categorize-lines","251","1613702","0.0-5.0-0.44","20211012","142","1138","","","","","","","","[247.3327,300.6345,331.4495]","[247.3327,331.4495,300.6345]","[""j"",""k"",""l""]","[""J"",""K"",""L""]","247.3327","false","null","k","","331.4495","0","null","331.4495","300.6345","","","transfer","","14.25","300.6345","10.25","247.3327","16.25","331.4495","247.3327","10.25","247.3327","300.6345","331.4495","10.25","14.25","16.25","attraction","trinary","easy","right","left","competitor","1","left","decoy",""
"","transfer_trial","categorize-lines","252","1617382","0.0-5.0-0.45","20211012","142","2610","","","","","","","","[247.3327,300.6345,224.3381]","[247.3327,224.3381,300.6345]","[""j"",""k"",""l""]","[""J"",""K"",""L""]","247.3327","false","null","k","","224.3381","0","null","224.3381","300.6345","","","transfer","","10.25","247.3327","14.25","300.6345","8.25","224.3381","247.3327","10.25","247.3327","300.6345","224.3381","10.25","14.25","8.25","attraction","trinary","easy","left","right","target","1","left","decoy",""
"","transfer_trial","categorize-lines","253","1620774","0.0-5.0-0.46","20211012","142","2324","","","","","","","","[247.3327,272.6843]","[247.3327,272.6843]","[""j"",""k""]","[""J"",""K""]","null","false","null","k","","272.6843","0","null","272.6843","","","","transfer","","12.25","272.6843","10.25","247.3327","","","","","247.3327","272.6843","0","10.25","12.25","0","attraction","binary","equal_chance_1_JND","right","left","both","1","equal","target",""
"","transfer_trial","categorize-lines","254","1624198","0.0-5.0-0.47","20211012","142","2354","","","","","","","","[272.6843,224.3381,300.6345]","[272.6843,224.3381,300.6345]","[""j"",""k"",""l""]","[""J"",""K"",""L""]","272.6843","false","null","j","","272.6843","1","null","224.3381","300.6345","","","transfer","","12.25","272.6843","8.25","224.3381","14.25","300.6345","272.6843","12.25","272.6843","224.3381","300.6345","12.25","8.25","14.25","attraction","trinary","easy","right","left","target","1","right","target",""
"","transfer_trial","categorize-lines","255","1631862","0.0-5.0-0.48","20211012","142","6594","","","","","","","","[247.3327,272.6843,224.3381]","[272.6843,247.3327,224.3381]","[""j"",""k"",""l""]","[""J"",""K"",""L""]","null","false","null","j","","272.6843","0","null","247.3327","224.3381","","","transfer","","10.25","247.3327","12.25","272.6843","8.25","224.3381","","","247.3327","272.6843","224.3381","10.25","12.25","8.25","attraction","trinary","equal_chance_1_JND","left","right","both","1","equal","competitor",""
"","transfer_trial","categorize-lines","256","1636718","0.0-5.0-0.49","20211012","142","3786","","","","","","","","[225.2208,219.0756]","[219.0756,225.2208]","[""j"",""k""]","[""J"",""K""]","225.2208","false","null","k","","225.2208","1","null","225.2208","","","","transfer","","","","","","","","225.2208","8.3305","225.2208","219.0756","0","8.3305","7.7635","0","filler","binary","","","","","2.9195","left","NA",""
"","transfer_trial","categorize-lines","257","1641566","0.0-5.0-0.50","20211012","142","3780","","","","","","","","[235.555,286.3185]","[286.3185,235.555]","[""j"",""k""]","[""J"",""K""]","null","false","null","k","","235.555","0","null","235.555","","","","transfer","","13.25","286.3185","9.25","235.555","","","","","235.555","286.3185","0","9.25","13.25","0","attraction","binary","equal_chance_2_JND","right","left","both","2","equal","competitor",""
"","transfer_trial","categorize-lines","258","1644142","0.0-5.0-0.51","20211012","142","1506","","","","","","","","[247.3327,286.3185,224.3381]","[286.3185,247.3327,224.3381]","[""j"",""k"",""l""]","[""J"",""K"",""L""]","247.3327","false","null","k","","247.3327","1","null","247.3327","224.3381","","","transfer","","10.25","247.3327","13.25","286.3185","8.25","224.3381","247.3327","10.25","247.3327","286.3185","224.3381","10.25","13.25","8.25","attraction","trinary","difficult","left","right","target","1","left","target",""
"","transfer_trial","categorize-lines","259","1647478","0.0-5.0-0.52","20211012","142","2266","","","","","","","","[247.3327,272.6843,300.6345]","[272.6843,300.6345,247.3327]","[""j"",""k"",""l""]","[""J"",""K"",""L""]","null","false","null","k","","300.6345","0","null","300.6345","247.3327","","","transfer","","12.25","272.6843","10.25","247.3327","14.25","300.6345","","","247.3327","272.6843","300.6345","10.25","12.25","14.25","attraction","trinary","equal_chance_1_JND","right","left","both","1","equal","decoy",""
"","transfer_trial","categorize-lines","260","1651102","0.0-5.0-0.53","20211012","142","2552","","","","","","","","[341.3932,233.7879]","[341.3932,233.7879]","[""j"",""k""]","[""J"",""K""]","341.3932","false","null","k","","233.7879","0","null","233.7879","","","","transfer","","","","","","","","341.3932","16.8558","341.3932","233.7879","0","16.8558","9.0957","0","filler","binary","","","","","5.6058","right","NA",""
"","transfer_trial","categorize-lines","261","1653638","0.0-5.0-0.54","20211012","142","1466","","","","","","","","[247.3327,300.6345]","[247.3327,300.6345]","[""j"",""k""]","[""J"",""K""]","247.3327","false","null","j","","247.3327","1","null","300.6345","","","","transfer","","10.25","247.3327","14.25","300.6345","","","247.3327","10.25","247.3327","300.6345","0","10.25","14.25","0","attraction","binary","easy","left","right","target","1","left","target",""
"","transfer_trial","categorize-lines","262","1658582","0.0-5.0-0.55","20211012","142","3874","","","","","","","","[235.555,286.3185]","[235.555,286.3185]","[""j"",""k""]","[""J"",""K""]","null","false","null","j","","235.555","0","null","286.3185","","","","transfer","","13.25","286.3185","9.25","235.555","","","","","235.555","286.3185","0","9.25","13.25","0","attraction","binary","equal_chance_2_JND","right","left","both","2","equal","competitor",""
"","transfer_trial","categorize-lines","263","1661174","0.0-5.0-0.56","20211012","142","1524","","","","","","","","[305.254,300.7485]","[305.254,300.7485]","[""j"",""k""]","[""J"",""K""]","305.254","false","null","k","","300.7485","0","null","300.7485","","","","transfer","","","","","","","","305.254","14.5625","305.254","300.7485","0","14.5625","14.2578","0","filler","binary","","","","","3.3125","right","NA",""
"","transfer_trial","categorize-lines","264","1663694","0.0-5.0-0.57","20211012","142","1450","","","","","","","","[209.6228,170.5024]","[209.6228,170.5024]","[""j"",""k""]","[""J"",""K""]","209.6228","false","null","j","","209.6228","1","null","170.5024","","","","transfer","","","","","","","","209.6228","6.8595","209.6228","170.5024","0","6.8595","2.6258","0","filler","binary","","","","","4.3905","left","NA",""
"","transfer_trial","categorize-lines","265","1666918","0.0-5.0-0.58","20211012","142","2154","","","","","","","","[272.6843,224.3381,203.4812]","[224.3381,203.4812,272.6843]","[""j"",""k"",""l""]","[""J"",""K"",""L""]","272.6843","false","null","k","","203.4812","0","null","203.4812","272.6843","","","transfer","","8.25","224.3381","12.25","272.6843","6.25","203.4812","272.6843","12.25","272.6843","224.3381","203.4812","12.25","8.25","6.25","attraction","trinary","easy","left","right","competitor","1","right","decoy",""
"","transfer_trial","categorize-lines","266","1668782","0.0-5.0-0.59","20211012","142","794","","","","","","","","[263.5487,191.6791]","[191.6791,263.5487]","[""j"",""k""]","[""J"",""K""]","263.5487","false","null","k","","263.5487","1","null","263.5487","","","","transfer","","","","","","","","263.5487","11.5516","263.5487","191.6791","0","11.5516","5.0253","0","filler","binary","","","","","0.3016","right","NA",""
"","transfer_trial","categorize-lines","267","1671124","0.0-5.0-0.60","20211012","142","1274","","","","","","","","[238.2482,245.7076]","[245.7076,238.2482]","[""j"",""k""]","[""J"",""K""]","238.2482","false","null","j","","245.7076","0","null","238.2482","","","","transfer","","","","","","","","238.2482","9.483","238.2482","245.7076","0","9.483","10.1149","0","filler","binary","","","","","1.767","left","NA",""
"","transfer_trial","categorize-lines","268","1676918","0.0-5.0-0.61","20211012","142","4722","","","","","","","","[239.0713,448.3953,269.3784]","[448.3953,269.3784,239.0713]","[""j"",""k"",""l""]","[""J"",""K"",""L""]","239.0713","false","null","l","","239.0713","1","null","269.3784","239.0713","","","transfer","","","","","","","","239.0713","9.5537","239.0713","448.3953","269.3784","9.5537","22.4439","12","filler","trinary","","","","","1.6963","left","NA",""
"","transfer_trial","categorize-lines","269","1679100","0.0-5.0-0.62","20211012","142","1114","","","","","","","","[235.555,286.3185]","[235.555,286.3185]","[""j"",""k""]","[""J"",""K""]","null","false","null","j","","235.555","0","null","286.3185","","","","transfer","","9.25","235.555","13.25","286.3185","","","","","235.555","286.3185","0","9.25","13.25","0","attraction","binary","equal_chance_2_JND","left","right","both","2","equal","target",""
"","transfer_trial","categorize-lines","270","1681836","0.0-5.0-0.63","20211012","142","1666","","","","","","","","[272.6843,235.555,300.6345]","[300.6345,272.6843,235.555]","[""j"",""k"",""l""]","[""J"",""K"",""L""]","272.6843","false","null","j","","300.6345","0","null","272.6843","235.555","","","transfer","","12.25","272.6843","9.25","235.555","14.25","300.6345","272.6843","12.25","272.6843","235.555","300.6345","12.25","9.25","14.25","attraction","trinary","difficult","right","left","target","1","right","decoy",""
"","transfer_trial","categorize-lines","271","1683940","0.0-5.0-0.64","20211012","142","1034","","","","","","","","[235.555,286.3185,315.6662]","[315.6662,286.3185,235.555]","[""j"",""k"",""l""]","[""J"",""K"",""L""]","null","false","null","k","","286.3185","0","null","286.3185","235.555","","","transfer","","13.25","286.3185","9.25","235.555","15.25","315.6662","","","235.555","286.3185","315.6662","9.25","13.25","15.25","attraction","trinary","equal_chance_2_JND","right","left","both","2","equal","target",""
"","transfer_trial","categorize-lines","272","1688388","0.0-5.0-0.65","20211012","142","3378","","","","","","","","[281.7339,200.4552,191.4422]","[281.7339,191.4422,200.4552]","[""j"",""k"",""l""]","[""J"",""K"",""L""]","281.7339","false","null","j","","281.7339","1","null","191.4422","200.4552","","","transfer","","","","","","","","281.7339","12.9192","281.7339","200.4552","191.4422","12.9192","5.9429","5","filler","trinary","","","","","1.6692","right","NA",""
"","transfer_trial","categorize-lines","273","1690756","0.0-5.0-0.66","20211012","142","1298","","","","","","","","[235.555,286.3185]","[235.555,286.3185]","[""j"",""k""]","[""J"",""K""]","null","false","null","k","","286.3185","0","null","286.3185","","","","transfer","","9.25","235.555","13.25","286.3185","","","","","235.555","286.3185","0","9.25","13.25","0","attraction","binary","equal_chance_2_JND","left","right","both","2","equal","competitor",""
"","transfer_trial","categorize-lines","274","1692624","0.0-5.0-0.67","20211012","142","796","","","","","","","","[247.3327,300.6345]","[300.6345,247.3327]","[""j"",""k""]","[""J"",""K""]","247.3327","false","null","j","","300.6345","0","null","247.3327","","","","transfer","","10.25","247.3327","14.25","300.6345","","","247.3327","10.25","247.3327","300.6345","0","10.25","14.25","0","attraction","binary","easy","left","right","target","1","left","competitor",""
"","transfer_trial","categorize-lines","275","1694476","0.0-5.0-0.68","20211012","142","784","","","","","","","","[247.3327,272.6843]","[247.3327,272.6843]","[""j"",""k""]","[""J"",""K""]","null","false","null","j","","247.3327","0","null","272.6843","","","","transfer","","12.25","272.6843","10.25","247.3327","","","","","247.3327","272.6843","0","10.25","12.25","0","attraction","binary","equal_chance_1_JND","right","left","both","1","equal","competitor",""
"","transfer_trial","categorize-lines","276","1696996","0.0-5.0-0.69","20211012","142","1452","","","","","","","","[282.7171,237.1519]","[237.1519,282.7171]","[""j"",""k""]","[""J"",""K""]","282.7171","false","null","k","","282.7171","1","null","282.7171","","","","transfer","","","","","","","","282.7171","12.9906","282.7171","237.1519","0","12.9906","9.3885","0","filler","binary","","","","","1.7406","right","NA",""
"","transfer_trial","categorize-lines","277","1701076","0.0-5.0-0.70","20211012","142","3008","","","","","","","","[272.6843,224.3381,300.6345]","[300.6345,272.6843,224.3381]","[""j"",""k"",""l""]","[""J"",""K"",""L""]","272.6843","false","null","k","","272.6843","1","null","272.6843","224.3381","","","transfer","","12.25","272.6843","8.25","224.3381","14.25","300.6345","272.6843","12.25","272.6843","224.3381","300.6345","12.25","8.25","14.25","attraction","trinary","easy","right","left","target","1","right","target",""
