"success","screen_id","trial_type","trial_index","time_elapsed","internal_node_id","date","sub_n","rt","response","timeout","failed_images","failed_audio","failed_video","view_history","stim","line_lens","line_lens_order","choices","stim_names","corr_ans","give_fb","in_cat","key_choice","yn_choice","choice","correct","fb_in_cat","stim_1_in_order","stim_2_in_order","stim_3_in_order","line_length","cat_trial_type","jnds","T_psy","T_phys","C_psy","C_phys","D_psy","D_phys","corr_choice","correct_psy","stim_1","stim_2","stim_3","stim_1_psy","stim_2_psy","stim_3_psy","transfer_trial_type","trial_choice_set","difficulty_level","target_side","competitor_side","tc_correct","correct_dist_to_mean","side_correct","attr_choice","stimulus"
"true","enter-fullscreen-mode","fullscreen","0","2436","0.0-0.0","20211013","148","","","","","","","","","","","","","","","","","","","","","","","","","","","","","","","","","","","","","","","","","","","","","","","","","",""
"","enter-sub-number","survey-html-form","1","652808","0.0-1.0","20211013","148","650358","{""response"":""148""}","","","","","","","","","","","","","","","","","","","","","","","","","","","","","","","","","","","","","","","","","","","","","","","",""
"true","","preload","2","652824","0.0-2.0-0.0","20211013","148","","","false","[]","[]","[]","","","","","","","","","","","","","","","","","","","","","","","","","","","","","","","","","","","","","","","","","","","",""
"","instructions","instructions","3","737860","0.0-2.0-1.0","20211013","148","85036","","","","","","[{""page_index"":0,""viewing_time"":11114},{""page_index"":1,""viewing_time"":10248},{""page_index"":2,""viewing_time"":12720},{""page_index"":3,""viewing_time"":25792},{""page_index"":4,""viewing_time"":12786},{""page_index"":5,""viewing_time"":2726},{""page_index"":6,""viewing_time"":9648}]","","","","","","","","","","","","","","","","","","","","","","","","","","","","","","","","","","","","","","","","","","",""
"","demo-lines","draw-demo-lines","4","797872","0.0-2.0-2.0","20211013","148","","","","","","","","lines","","","","","","","","","","","","","","","","","","","","","","","","","","","","","","","","","","","","","","","","","",""
"","click-to-begin-the-experiment","instructions","5","801482","0.0-2.0-3.0","20211013","148","3608","","","","","","[{""page_index"":0,""viewing_time"":3608}]","","","","","","","","","","","","","","","","","","","","","","","","","","","","","","","","","","","","","","","","","","",""
"","learn_trial","categorize-lines","6","806534","0.0-3.0-0.0","20211013","148","3014","","","","","","","","[302.5474]","[302.5474]","[""u"",""i""]","[""""]","null","true","in","u","YES","","1","in","","","","302.5474","learning","14.38","","","","","","","","","","","","","","","","","","","","","","","",""
"","learn_trial","categorize-lines","7","811590","0.0-3.0-0.1","20211013","148","1018","","","","","","","","[198.8682]","[198.8682]","[""u"",""i""]","[""""]","null","true","in","i","NO","","0","in","","","","198.8682","learning","5.78","","","","","","","","","","","","","","","","","","","","","","","",""
"","learn_trial","categorize-lines","8","817528","0.0-3.0-0.2","20211013","148","1898","","","","","","","","[173.1362]","[173.1362]","[""u"",""i""]","[""""]","null","true","out","u","YES","","0","out","","","","173.1362","learning","2.94","","","","","","","","","","","","","","","","","","","","","","","",""
"","learn_trial","categorize-lines","9","820508","0.0-3.0-0.3","20211013","148","940","","","","","","","","[356.0948]","[356.0948]","[""u"",""i""]","[""""]","null","true","in","u","YES","","1","in","","","","356.0948","learning","17.72","","","","","","","","","","","","","","","","","","","","","","","",""
"","learn_trial","categorize-lines","10","825628","0.0-3.0-0.4","20211013","148","1086","","","","","","","","[256.4258]","[256.4258]","[""u"",""i""]","[""""]","null","true","out","u","YES","","0","out","","","","256.4258","learning","10.99","","","","","","","","","","","","","","","","","","","","","","","",""
"","learn_trial","categorize-lines","11","830480","0.0-3.0-0.5","20211013","148","816","","","","","","","","[237.6328]","[237.6328]","[""u"",""i""]","[""""]","null","true","in","i","NO","","0","in","","","","237.6328","learning","9.43","","","","","","","","","","","","","","","","","","","","","","","",""
"","learn_trial","categorize-lines","12","833190","0.0-3.0-0.6","20211013","148","680","","","","","","","","[258.5615]","[258.5615]","[""u"",""i""]","[""""]","null","true","in","u","YES","","1","in","","","","258.5615","learning","11.16","","","","","","","","","","","","","","","","","","","","","","","",""
"","learn_trial","categorize-lines","13","835814","0.0-3.0-0.7","20211013","148","578","","","","","","","","[235.555]","[235.555]","[""u"",""i""]","[""""]","null","true","in","u","YES","","1","in","","","","235.555","learning","9.25","","","","","","","","","","","","","","","","","","","","","","","",""
"","learn_trial","categorize-lines","14","840824","0.0-3.0-0.8","20211013","148","982","","","","","","","","[319.0728]","[319.0728]","[""u"",""i""]","[""""]","null","true","in","i","NO","","0","in","","","","319.0728","learning","15.47","","","","","","","","","","","","","","","","","","","","","","","",""
"","learn_trial","categorize-lines","15","843806","0.0-3.0-0.9","20211013","148","948","","","","","","","","[258.8139]","[258.8139]","[""u"",""i""]","[""""]","null","true","in","u","YES","","1","in","","","","258.8139","learning","11.18","","","","","","","","","","","","","","","","","","","","","","","",""
"","learn_trial","categorize-lines","16","848634","0.0-3.0-0.10","20211013","148","788","","","","","","","","[328.3911]","[328.3911]","[""u"",""i""]","[""""]","null","true","out","u","YES","","0","out","","","","328.3911","learning","16.06","","","","","","","","","","","","","","","","","","","","","","","",""
"","learn_trial","categorize-lines","17","851620","0.0-3.0-0.11","20211013","148","946","","","","","","","","[150.8808]","[150.8808]","[""u"",""i""]","[""""]","null","true","out","i","NO","","1","out","","","","150.8808","learning","0.12","","","","","","","","","","","","","","","","","","","","","","","",""
"","learn_trial","categorize-lines","18","856506","0.0-3.0-0.12","20211013","148","852","","","","","","","","[302.2523]","[302.2523]","[""u"",""i""]","[""""]","null","true","out","u","YES","","0","out","","","","302.2523","learning","14.36","","","","","","","","","","","","","","","","","","","","","","","",""
"","learn_trial","categorize-lines","19","859358","0.0-3.0-0.13","20211013","148","814","","","","","","","","[243.7389]","[243.7389]","[""u"",""i""]","[""""]","null","true","in","u","YES","","1","in","","","","243.7389","learning","9.95","","","","","","","","","","","","","","","","","","","","","","","",""
"","learn_trial","categorize-lines","20","862408","0.0-3.0-0.14","20211013","148","1016","","","","","","","","[262.5019]","[262.5019]","[""u"",""i""]","[""""]","null","true","in","u","YES","","1","in","","","","262.5019","learning","11.47","","","","","","","","","","","","","","","","","","","","","","","",""
"","learn_trial","categorize-lines","21","867150","0.0-3.0-0.15","20211013","148","706","","","","","","","","[294.3929]","[294.3929]","[""u"",""i""]","[""""]","null","true","in","i","NO","","0","in","","","","294.3929","learning","13.82","","","","","","","","","","","","","","","","","","","","","","","",""
"","learn_trial","categorize-lines","22","871792","0.0-3.0-0.16","20211013","148","608","","","","","","","","[346.6662]","[346.6662]","[""u"",""i""]","[""""]","null","true","in","i","NO","","0","in","","","","346.6662","learning","17.17","","","","","","","","","","","","","","","","","","","","","","","",""
"","learn_trial","categorize-lines","23","874788","0.0-3.0-0.17","20211013","148","958","","","","","","","","[189.3983]","[189.3983]","[""u"",""i""]","[""""]","null","true","in","u","YES","","1","in","","","","189.3983","learning","4.78","","","","","","","","","","","","","","","","","","","","","","","",""
"","learn_trial","categorize-lines","24","877544","0.0-3.0-0.18","20211013","148","720","","","","","","","","[224.886]","[224.886]","[""u"",""i""]","[""""]","null","true","in","u","YES","","1","in","","","","224.886","learning","8.3","","","","","","","","","","","","","","","","","","","","","","","",""
"","learn_trial","categorize-lines","25","880430","0.0-3.0-0.19","20211013","148","852","","","","","","","","[426.7543]","[426.7543]","[""u"",""i""]","[""""]","null","true","out","i","NO","","1","out","","","","426.7543","learning","21.43","","","","","","","","","","","","","","","","","","","","","","","",""
"","learn_trial","categorize-lines","26","883198","0.0-3.0-0.20","20211013","148","736","","","","","","","","[391.0651]","[391.0651]","[""u"",""i""]","[""""]","null","true","out","i","NO","","1","out","","","","391.0651","learning","19.64","","","","","","","","","","","","","","","","","","","","","","","",""
"","learn_trial","categorize-lines","27","885756","0.0-3.0-0.21","20211013","148","524","","","","","","","","[306.8586]","[306.8586]","[""u"",""i""]","[""""]","null","true","in","u","YES","","1","in","","","","306.8586","learning","14.67","","","","","","","","","","","","","","","","","","","","","","","",""
"","learn_trial","categorize-lines","28","890718","0.0-3.0-0.22","20211013","148","930","","","","","","","","[211.2711]","[211.2711]","[""u"",""i""]","[""""]","null","true","out","u","YES","","0","out","","","","211.2711","learning","7.02","","","","","","","","","","","","","","","","","","","","","","","",""
"","learn_trial","categorize-lines","29","893380","0.0-3.0-0.23","20211013","148","630","","","","","","","","[257.4286]","[257.4286]","[""u"",""i""]","[""""]","null","true","out","i","NO","","1","out","","","","257.4286","learning","11.07","","","","","","","","","","","","","","","","","","","","","","","",""
"","learn_trial","categorize-lines","30","898336","0.0-3.0-0.24","20211013","148","922","","","","","","","","[292.6743]","[292.6743]","[""u"",""i""]","[""""]","null","true","out","u","YES","","0","out","","","","292.6743","learning","13.7","","","","","","","","","","","","","","","","","","","","","","","",""
"","learn_trial","categorize-lines","31","901354","0.0-3.0-0.25","20211013","148","976","","","","","","","","[441.7966]","[441.7966]","[""u"",""i""]","[""""]","null","true","out","i","NO","","1","out","","","","441.7966","learning","22.14","","","","","","","","","","","","","","","","","","","","","","","",""
"","learn_trial","categorize-lines","32","904474","0.0-3.0-0.26","20211013","148","1094","","","","","","","","[214.9099]","[214.9099]","[""u"",""i""]","[""""]","null","true","out","i","NO","","1","out","","","","214.9099","learning","7.37","","","","","","","","","","","","","","","","","","","","","","","",""
"","learn_trial","categorize-lines","33","907560","0.0-3.0-0.27","20211013","148","1052","","","","","","","","[271.7546]","[271.7546]","[""u"",""i""]","[""""]","null","true","in","u","YES","","1","in","","","","271.7546","learning","12.18","","","","","","","","","","","","","","","","","","","","","","","",""
"","learn_trial","categorize-lines","34","910356","0.0-3.0-0.28","20211013","148","760","","","","","","","","[185.4662]","[185.4662]","[""u"",""i""]","[""""]","null","true","out","i","NO","","1","out","","","","185.4662","learning","4.35","","","","","","","","","","","","","","","","","","","","","","","",""
"","learn_trial","categorize-lines","35","913434","0.0-3.0-0.29","20211013","148","1040","","","","","","","","[305.9616]","[305.9616]","[""u"",""i""]","[""""]","null","true","in","u","YES","","1","in","","","","305.9616","learning","14.61","","","","","","","","","","","","","","","","","","","","","","","",""
"","learn_trial","categorize-lines","36","918382","0.0-3.0-0.30","20211013","148","908","","","","","","","","[306.8586]","[306.8586]","[""u"",""i""]","[""""]","null","true","out","u","YES","","0","out","","","","306.8586","learning","14.67","","","","","","","","","","","","","","","","","","","","","","","",""
"","learn_trial","categorize-lines","37","921188","0.0-3.0-0.31","20211013","148","774","","","","","","","","[251.8382]","[251.8382]","[""u"",""i""]","[""""]","null","true","in","u","YES","","1","in","","","","251.8382","learning","10.62","","","","","","","","","","","","","","","","","","","","","","","",""
"","learn_trial","categorize-lines","38","925776","0.0-3.0-0.32","20211013","148","548","","","","","","","","[343.8027]","[343.8027]","[""u"",""i""]","[""""]","null","true","out","u","YES","","0","out","","","","343.8027","learning","17","","","","","","","","","","","","","","","","","","","","","","","",""
"","learn_trial","categorize-lines","39","930886","0.0-3.0-0.33","20211013","148","1076","","","","","","","","[351.4346]","[351.4346]","[""u"",""i""]","[""""]","null","true","in","i","NO","","0","in","","","","351.4346","learning","17.45","","","","","","","","","","","","","","","","","","","","","","","",""
"","learn_trial","categorize-lines","40","933822","0.0-3.0-0.34","20211013","148","904","","","","","","","","[219.1453]","[219.1453]","[""u"",""i""]","[""""]","null","true","in","u","YES","","1","in","","","","219.1453","learning","7.77","","","","","","","","","","","","","","","","","","","","","","","",""
"","learn_trial","categorize-lines","41","936614","0.0-3.0-0.35","20211013","148","752","","","","","","","","[196.2656]","[196.2656]","[""u"",""i""]","[""""]","null","true","in","u","YES","","1","in","","","","196.2656","learning","5.51","","","","","","","","","","","","","","","","","","","","","","","",""
"","learn_trial","categorize-lines","42","941360","0.0-3.0-0.36","20211013","148","710","","","","","","","","[176.8932]","[176.8932]","[""u"",""i""]","[""""]","null","true","out","u","YES","","0","out","","","","176.8932","learning","3.38","","","","","","","","","","","","","","","","","","","","","","","",""
"","learn_trial","categorize-lines","43","946092","0.0-3.0-0.37","20211013","148","698","","","","","","","","[204.9759]","[204.9759]","[""u"",""i""]","[""""]","null","true","in","i","NO","","0","in","","","","204.9759","learning","6.4","","","","","","","","","","","","","","","","","","","","","","","",""
"","learn_trial","categorize-lines","44","948806","0.0-3.0-0.38","20211013","148","674","","","","","","","","[260.5878]","[260.5878]","[""u"",""i""]","[""""]","null","true","in","u","YES","","1","in","","","","260.5878","learning","11.32","","","","","","","","","","","","","","","","","","","","","","","",""
"","learn_trial","categorize-lines","45","953574","0.0-3.0-0.39","20211013","148","736","","","","","","","","[304.621]","[304.621]","[""u"",""i""]","[""""]","null","true","out","u","YES","","0","out","","","","304.621","learning","14.52","","","","","","","","","","","","","","","","","","","","","","","",""
"","learn_trial","categorize-lines","46","956474","0.0-3.0-0.40","20211013","148","860","","","","","","","","[189.4907]","[189.4907]","[""u"",""i""]","[""""]","null","true","out","i","NO","","1","out","","","","189.4907","learning","4.79","","","","","","","","","","","","","","","","","","","","","","","",""
"","learn_trial","categorize-lines","47","961288","0.0-3.0-0.41","20211013","148","780","","","","","","","","[240.0801]","[240.0801]","[""u"",""i""]","[""""]","null","true","out","u","YES","","0","out","","","","240.0801","learning","9.64","","","","","","","","","","","","","","","","","","","","","","","",""
"","learn_trial","categorize-lines","48","964222","0.0-3.0-0.42","20211013","148","902","","","","","","","","[196.841]","[196.841]","[""u"",""i""]","[""""]","null","true","out","i","NO","","1","out","","","","196.841","learning","5.57","","","","","","","","","","","","","","","","","","","","","","","",""
"","learn_trial","categorize-lines","49","969622","0.0-3.0-0.43","20211013","148","1362","","","","","","","","[335.8447]","[335.8447]","[""u"",""i""]","[""""]","null","true","out","u","YES","","0","out","","","","335.8447","learning","16.52","","","","","","","","","","","","","","","","","","","","","","","",""
"","learn_trial","categorize-lines","50","972482","0.0-3.0-0.44","20211013","148","814","","","","","","","","[225.3253]","[225.3253]","[""u"",""i""]","[""""]","null","true","in","u","YES","","1","in","","","","225.3253","learning","8.34","","","","","","","","","","","","","","","","","","","","","","","",""
"","learn_trial","categorize-lines","51","975790","0.0-3.0-0.45","20211013","148","1266","","","","","","","","[381.2683]","[381.2683]","[""u"",""i""]","[""""]","null","true","out","i","NO","","1","out","","","","381.2683","learning","19.12","","","","","","","","","","","","","","","","","","","","","","","",""
"","learn_trial","categorize-lines","52","978662","0.0-3.0-0.46","20211013","148","838","","","","","","","","[259.5727]","[259.5727]","[""u"",""i""]","[""""]","null","true","in","u","YES","","1","in","","","","259.5727","learning","11.24","","","","","","","","","","","","","","","","","","","","","","","",""
"","learn_trial","categorize-lines","53","981666","0.0-3.0-0.47","20211013","148","962","","","","","","","","[268.8532]","[268.8532]","[""u"",""i""]","[""""]","null","true","in","u","YES","","1","in","","","","268.8532","learning","11.96","","","","","","","","","","","","","","","","","","","","","","","",""
"","learn_trial","categorize-lines","54","987058","0.0-3.0-0.48","20211013","148","1354","","","","","","","","[259.5727]","[259.5727]","[""u"",""i""]","[""""]","null","true","in","i","NO","","0","in","","","","259.5727","learning","11.24","","","","","","","","","","","","","","","","","","","","","","","",""
"","learn_trial","categorize-lines","55","989722","0.0-3.0-0.49","20211013","148","626","","","","","","","","[431.9916]","[431.9916]","[""u"",""i""]","[""""]","null","true","out","i","NO","","1","out","","","","431.9916","learning","21.68","","","","","","","","","","","","","","","","","","","","","","","",""
"","learn_trial","categorize-lines","56","992574","0.0-3.0-0.50","20211013","148","816","","","","","","","","[226.0962]","[226.0962]","[""u"",""i""]","[""""]","null","true","in","u","YES","","1","in","","","","226.0962","learning","8.41","","","","","","","","","","","","","","","","","","","","","","","",""
"","learn_trial","categorize-lines","57","995722","0.0-3.0-0.51","20211013","148","1106","","","","","","","","[286.0393]","[286.0393]","[""u"",""i""]","[""""]","null","true","in","u","YES","","1","in","","","","286.0393","learning","13.23","","","","","","","","","","","","","","","","","","","","","","","",""
"","learn_trial","categorize-lines","58","998584","0.0-3.0-0.52","20211013","148","824","","","","","","","","[425.0919]","[425.0919]","[""u"",""i""]","[""""]","null","true","out","i","NO","","1","out","","","","425.0919","learning","21.35","","","","","","","","","","","","","","","","","","","","","","","",""
"","learn_trial","categorize-lines","59","1001404","0.0-3.0-0.53","20211013","148","786","","","","","","","","[160.7608]","[160.7608]","[""u"",""i""]","[""""]","null","true","out","i","NO","","1","out","","","","160.7608","learning","1.42","","","","","","","","","","","","","","","","","","","","","","","",""
"","learn_trial","categorize-lines","60","1004974","0.0-3.0-0.54","20211013","148","1538","","","","","","","","[414.0384]","[414.0384]","[""u"",""i""]","[""""]","null","true","out","i","NO","","1","out","","","","414.0384","learning","20.81","","","","","","","","","","","","","","","","","","","","","","","",""
"","learn_trial","categorize-lines","61","1007608","0.0-3.0-0.55","20211013","148","590","","","","","","","","[196.3614]","[196.3614]","[""u"",""i""]","[""""]","null","true","in","u","YES","","1","in","","","","196.3614","learning","5.52","","","","","","","","","","","","","","","","","","","","","","","",""
"","learn_trial","categorize-lines","62","1010162","0.0-3.0-0.56","20211013","148","520","","","","","","","","[440.9352]","[440.9352]","[""u"",""i""]","[""""]","null","true","out","i","NO","","1","out","","","","440.9352","learning","22.1","","","","","","","","","","","","","","","","","","","","","","","",""
"","learn_trial","categorize-lines","63","1015008","0.0-3.0-0.57","20211013","148","818","","","","","","","","[395.4783]","[395.4783]","[""u"",""i""]","[""""]","null","true","out","u","YES","","0","out","","","","395.4783","learning","19.87","","","","","","","","","","","","","","","","","","","","","","","",""
"","learn_trial","categorize-lines","64","1019910","0.0-3.0-0.58","20211013","148","866","","","","","","","","[169.8728]","[169.8728]","[""u"",""i""]","[""""]","null","true","out","u","YES","","0","out","","","","169.8728","learning","2.55","","","","","","","","","","","","","","","","","","","","","","","",""
"","learn_trial","categorize-lines","65","1024542","0.0-3.0-0.59","20211013","148","596","","","","","","","","[282.5715]","[282.5715]","[""u"",""i""]","[""""]","null","true","out","u","YES","","0","out","","","","282.5715","learning","12.98","","","","","","","","","","","","","","","","","","","","","","","",""
"","learn_trial","categorize-lines","66","1029128","0.0-3.0-0.60","20211013","148","548","","","","","","","","[244.931]","[244.931]","[""u"",""i""]","[""""]","null","true","out","u","YES","","0","out","","","","244.931","learning","10.05","","","","","","","","","","","","","","","","","","","","","","","",""
"","learn_trial","categorize-lines","67","1031562","0.0-3.0-0.61","20211013","148","400","","","","","","","","[186.2824]","[186.2824]","[""u"",""i""]","[""""]","null","true","in","u","YES","","1","in","","","","186.2824","learning","4.44","","","","","","","","","","","","","","","","","","","","","","","",""
"","learn_trial","categorize-lines","68","1036112","0.0-3.0-0.62","20211013","148","520","","","","","","","","[179.6767]","[179.6767]","[""u"",""i""]","[""""]","null","true","out","u","YES","","0","out","","","","179.6767","learning","3.7","","","","","","","","","","","","","","","","","","","","","","","",""
"","learn_trial","categorize-lines","69","1040558","0.0-3.0-0.63","20211013","148","418","","","","","","","","[219.1453]","[219.1453]","[""u"",""i""]","[""""]","null","true","in","i","NO","","0","in","","","","219.1453","learning","7.77","","","","","","","","","","","","","","","","","","","","","","","",""
"","learn_trial","categorize-lines","70","1042932","0.0-3.0-0.64","20211013","148","344","","","","","","","","[215.6451]","[215.6451]","[""u"",""i""]","[""""]","null","true","out","i","NO","","1","out","","","","215.6451","learning","7.44","","","","","","","","","","","","","","","","","","","","","","","",""
"","learn_trial","categorize-lines","71","1045394","0.0-3.0-0.65","20211013","148","430","","","","","","","","[157.5]","[157.5]","[""u"",""i""]","[""""]","null","true","out","i","NO","","1","out","","","","157.5","learning","1","","","","","","","","","","","","","","","","","","","","","","","",""
"","learn_trial","categorize-lines","72","1048236","0.0-3.0-0.66","20211013","148","810","","","","","","","","[242.5526]","[242.5526]","[""u"",""i""]","[""""]","null","true","in","u","YES","","1","in","","","","242.5526","learning","9.85","","","","","","","","","","","","","","","","","","","","","","","",""
"","learn_trial","categorize-lines","73","1052878","0.0-3.0-0.67","20211013","148","604","","","","","","","","[255.801]","[255.801]","[""u"",""i""]","[""""]","null","true","out","u","YES","","0","out","","","","255.801","learning","10.94","","","","","","","","","","","","","","","","","","","","","","","",""
"","learn_trial","categorize-lines","74","1057200","0.0-3.0-0.68","20211013","148","284","","","","","","","","[219.6805]","[219.6805]","[""u"",""i""]","[""""]","null","true","in","i","NO","","0","in","","","","219.6805","learning","7.82","","","","","","","","","","","","","","","","","","","","","","","",""
"","learn_trial","categorize-lines","75","1060060","0.0-3.0-0.69","20211013","148","826","","","","","","","","[266.7626]","[266.7626]","[""u"",""i""]","[""""]","null","true","out","i","NO","","1","out","","","","266.7626","learning","11.8","","","","","","","","","","","","","","","","","","","","","","","",""
"","learn_trial","categorize-lines","76","1065100","0.0-3.0-0.70","20211013","148","1004","","","","","","","","[223.5732]","[223.5732]","[""u"",""i""]","[""""]","null","true","in","i","NO","","0","in","","","","223.5732","learning","8.18","","","","","","","","","","","","","","","","","","","","","","","",""
"","learn_trial","categorize-lines","77","1068242","0.0-3.0-0.71","20211013","148","1108","","","","","","","","[260.715]","[260.715]","[""u"",""i""]","[""""]","null","true","in","u","YES","","1","in","","","","260.715","learning","11.33","","","","","","","","","","","","","","","","","","","","","","","",""
"","learn_trial","categorize-lines","78","1074516","0.0-3.0-0.72","20211013","148","2244","","","","","","","","[264.3011]","[264.3011]","[""u"",""i""]","[""""]","null","true","in","i","NO","","0","in","","","","264.3011","learning","11.61","","","","","","","","","","","","","","","","","","","","","","","",""
"","learn_trial","categorize-lines","79","1078970","0.0-3.0-0.73","20211013","148","420","","","","","","","","[197.1294]","[197.1294]","[""u"",""i""]","[""""]","null","true","out","u","YES","","0","out","","","","197.1294","learning","5.6","","","","","","","","","","","","","","","","","","","","","","","",""
"","learn_trial","categorize-lines","80","1083502","0.0-3.0-0.74","20211013","148","498","","","","","","","","[301.663]","[301.663]","[""u"",""i""]","[""""]","null","true","in","i","NO","","0","in","","","","301.663","learning","14.32","","","","","","","","","","","","","","","","","","","","","","","",""
"","learn_trial","categorize-lines","81","1087266","0.0-3.0-0.75","20211013","148","1720","","","","","","","","[233.9515]","[233.9515]","[""u"",""i""]","[""""]","null","true","in","u","YES","","1","in","","","","233.9515","learning","9.11","","","","","","","","","","","","","","","","","","","","","","","",""
"","learn_trial","categorize-lines","82","1092160","0.0-3.0-0.76","20211013","148","852","","","","","","","","[170.5372]","[170.5372]","[""u"",""i""]","[""""]","null","true","in","i","NO","","0","in","","","","170.5372","learning","2.63","","","","","","","","","","","","","","","","","","","","","","","",""
"","learn_trial","categorize-lines","83","1094964","0.0-3.0-0.77","20211013","148","772","","","","","","","","[170.787]","[170.787]","[""u"",""i""]","[""""]","null","true","out","i","NO","","1","out","","","","170.787","learning","2.66","","","","","","","","","","","","","","","","","","","","","","","",""
"","learn_trial","categorize-lines","84","1097838","0.0-3.0-0.78","20211013","148","840","","","","","","","","[205.4765]","[205.4765]","[""u"",""i""]","[""""]","null","true","in","u","YES","","1","in","","","","205.4765","learning","6.45","","","","","","","","","","","","","","","","","","","","","","","",""
"","learn_trial","categorize-lines","85","1100558","0.0-3.0-0.79","20211013","148","684","","","","","","","","[231.4537]","[231.4537]","[""u"",""i""]","[""""]","null","true","in","u","YES","","1","in","","","","231.4537","learning","8.89","","","","","","","","","","","","","","","","","","","","","","","",""
"","learn_trial","categorize-lines","86","1105656","0.0-3.0-0.80","20211013","148","1060","","","","","","","","[219.6805]","[219.6805]","[""u"",""i""]","[""""]","null","true","in","i","NO","","0","in","","","","219.6805","learning","7.82","","","","","","","","","","","","","","","","","","","","","","","",""
"","learn_trial","categorize-lines","87","1108568","0.0-3.0-0.81","20211013","148","874","","","","","","","","[286.8779]","[286.8779]","[""u"",""i""]","[""""]","null","true","in","u","YES","","1","in","","","","286.8779","learning","13.29","","","","","","","","","","","","","","","","","","","","","","","",""
"","learn_trial","categorize-lines","88","1113476","0.0-3.0-0.82","20211013","148","876","","","","","","","","[249.3927]","[249.3927]","[""u"",""i""]","[""""]","null","true","out","u","YES","","0","out","","","","249.3927","learning","10.42","","","","","","","","","","","","","","","","","","","","","","","",""
"","learn_trial","categorize-lines","89","1116448","0.0-3.0-0.83","20211013","148","932","","","","","","","","[351.2632]","[351.2632]","[""u"",""i""]","[""""]","null","true","out","i","NO","","1","out","","","","351.2632","learning","17.44","","","","","","","","","","","","","","","","","","","","","","","",""
"","learn_trial","categorize-lines","90","1119150","0.0-3.0-0.84","20211013","148","668","","","","","","","","[215.1197]","[215.1197]","[""u"",""i""]","[""""]","null","true","in","u","YES","","1","in","","","","215.1197","learning","7.39","","","","","","","","","","","","","","","","","","","","","","","",""
"","learn_trial","categorize-lines","91","1121856","0.0-3.0-0.85","20211013","148","668","","","","","","","","[319.8521]","[319.8521]","[""u"",""i""]","[""""]","null","true","in","u","YES","","1","in","","","","319.8521","learning","15.52","","","","","","","","","","","","","","","","","","","","","","","",""
"","learn_trial","categorize-lines","92","1124550","0.0-3.0-0.86","20211013","148","654","","","","","","","","[367.2103]","[367.2103]","[""u"",""i""]","[""""]","null","true","out","i","NO","","1","out","","","","367.2103","learning","18.35","","","","","","","","","","","","","","","","","","","","","","","",""
"","learn_trial","categorize-lines","93","1127496","0.0-3.0-0.87","20211013","148","906","","","","","","","","[338.8071]","[338.8071]","[""u"",""i""]","[""""]","null","true","out","i","NO","","1","out","","","","338.8071","learning","16.7","","","","","","","","","","","","","","","","","","","","","","","",""
"","learn_trial","categorize-lines","94","1131362","0.0-3.0-0.88","20211013","148","1826","","","","","","","","[235.0957]","[235.0957]","[""u"",""i""]","[""""]","null","true","in","u","YES","","1","in","","","","235.0957","learning","9.21","","","","","","","","","","","","","","","","","","","","","","","",""
"","learn_trial","categorize-lines","95","1134782","0.0-3.0-0.89","20211013","148","1388","","","","","","","","[275.2239]","[275.2239]","[""u"",""i""]","[""""]","null","true","in","u","YES","","1","in","","","","275.2239","learning","12.44","","","","","","","","","","","","","","","","","","","","","","","",""
"","learn_trial","categorize-lines","96","1139924","0.0-3.0-0.90","20211013","148","1118","","","","","","","","[246.0089]","[246.0089]","[""u"",""i""]","[""""]","null","true","in","i","NO","","0","in","","","","246.0089","learning","10.14","","","","","","","","","","","","","","","","","","","","","","","",""
"","learn_trial","categorize-lines","97","1144624","0.0-3.0-0.91","20211013","148","670","","","","","","","","[179.0641]","[179.0641]","[""u"",""i""]","[""""]","null","true","in","i","NO","","0","in","","","","179.0641","learning","3.63","","","","","","","","","","","","","","","","","","","","","","","",""
"","learn_trial","categorize-lines","98","1147172","0.0-3.0-0.92","20211013","148","514","","","","","","","","[372.443]","[372.443]","[""u"",""i""]","[""""]","null","true","in","u","YES","","1","in","","","","372.443","learning","18.64","","","","","","","","","","","","","","","","","","","","","","","",""
"","learn_trial","categorize-lines","99","1152150","0.0-3.0-0.93","20211013","148","946","","","","","","","","[290.1153]","[290.1153]","[""u"",""i""]","[""""]","null","true","in","i","NO","","0","in","","","","290.1153","learning","13.52","","","","","","","","","","","","","","","","","","","","","","","",""
"","learn_trial","categorize-lines","100","1154620","0.0-3.0-0.94","20211013","148","438","","","","","","","","[269.773]","[269.773]","[""u"",""i""]","[""""]","null","true","in","u","YES","","1","in","","","","269.773","learning","12.03","","","","","","","","","","","","","","","","","","","","","","","",""
"","learn_trial","categorize-lines","101","1157448","0.0-3.0-0.95","20211013","148","792","","","","","","","","[188.2927]","[188.2927]","[""u"",""i""]","[""""]","null","true","out","i","NO","","1","out","","","","188.2927","learning","4.66","","","","","","","","","","","","","","","","","","","","","","","",""
"","learn_trial","categorize-lines","102","1160184","0.0-3.0-0.96","20211013","148","696","","","","","","","","[233.8373]","[233.8373]","[""u"",""i""]","[""""]","null","true","in","u","YES","","1","in","","","","233.8373","learning","9.1","","","","","","","","","","","","","","","","","","","","","","","",""
"","learn_trial","categorize-lines","103","1164720","0.0-3.0-0.97","20211013","148","500","","","","","","","","[282.8474]","[282.8474]","[""u"",""i""]","[""""]","null","true","out","u","YES","","0","out","","","","282.8474","learning","13","","","","","","","","","","","","","","","","","","","","","","","",""
"","learn_trial","categorize-lines","104","1169340","0.0-3.0-0.98","20211013","148","584","","","","","","","","[269.5099]","[269.5099]","[""u"",""i""]","[""""]","null","true","in","i","NO","","0","in","","","","269.5099","learning","12.01","","","","","","","","","","","","","","","","","","","","","","","",""
"","learn_trial","categorize-lines","105","1172040","0.0-3.0-0.99","20211013","148","658","","","","","","","","[241.7256]","[241.7256]","[""u"",""i""]","[""""]","null","true","in","u","YES","","1","in","","","","241.7256","learning","9.78","","","","","","","","","","","","","","","","","","","","","","","",""
"","learn_trial","categorize-lines","106","1177118","0.0-3.0-0.100","20211013","148","1036","","","","","","","","[280.511]","[280.511]","[""u"",""i""]","[""""]","null","true","in","i","NO","","0","in","","","","280.511","learning","12.83","","","","","","","","","","","","","","","","","","","","","","","",""
"","learn_trial","categorize-lines","107","1179796","0.0-3.0-0.101","20211013","148","646","","","","","","","","[248.5424]","[248.5424]","[""u"",""i""]","[""""]","null","true","in","u","YES","","1","in","","","","248.5424","learning","10.35","","","","","","","","","","","","","","","","","","","","","","","",""
"","learn_trial","categorize-lines","108","1182656","0.0-3.0-0.102","20211013","148","824","","","","","","","","[183.2177]","[183.2177]","[""u"",""i""]","[""""]","null","true","out","i","NO","","1","out","","","","183.2177","learning","4.1","","","","","","","","","","","","","","","","","","","","","","","",""
"","learn_trial","categorize-lines","109","1185816","0.0-3.0-0.103","20211013","148","1122","","","","","","","","[314.8971]","[314.8971]","[""u"",""i""]","[""""]","null","true","in","u","YES","","1","in","","","","314.8971","learning","15.2","","","","","","","","","","","","","","","","","","","","","","","",""
"","learn_trial","categorize-lines","110","1188970","0.0-3.0-0.104","20211013","148","1114","","","","","","","","[177.9319]","[177.9319]","[""u"",""i""]","[""""]","null","true","out","i","NO","","1","out","","","","177.9319","learning","3.5","","","","","","","","","","","","","","","","","","","","","","","",""
"","learn_trial","categorize-lines","111","1191956","0.0-3.0-0.105","20211013","148","950","","","","","","","","[223.5732]","[223.5732]","[""u"",""i""]","[""""]","null","true","in","u","YES","","1","in","","","","223.5732","learning","8.18","","","","","","","","","","","","","","","","","","","","","","","",""
"","learn_trial","categorize-lines","112","1194998","0.0-3.0-0.106","20211013","148","1004","","","","","","","","[433.4695]","[433.4695]","[""u"",""i""]","[""""]","null","true","out","i","NO","","1","out","","","","433.4695","learning","21.75","","","","","","","","","","","","","","","","","","","","","","","",""
"","learn_trial","categorize-lines","113","1199666","0.0-3.0-0.107","20211013","148","622","","","","","","","","[268.0673]","[268.0673]","[""u"",""i""]","[""""]","null","true","out","u","YES","","0","out","","","","268.0673","learning","11.9","","","","","","","","","","","","","","","","","","","","","","","",""
"","learn_trial","categorize-lines","114","1204506","0.0-3.0-0.108","20211013","148","802","","","","","","","","[278.0583]","[278.0583]","[""u"",""i""]","[""""]","null","true","in","i","NO","","0","in","","","","278.0583","learning","12.65","","","","","","","","","","","","","","","","","","","","","","","",""
"","learn_trial","categorize-lines","115","1209114","0.0-3.0-0.109","20211013","148","574","","","","","","","","[204.3767]","[204.3767]","[""u"",""i""]","[""""]","null","true","out","u","YES","","0","out","","","","204.3767","learning","6.34","","","","","","","","","","","","","","","","","","","","","","","",""
"","learn_trial","categorize-lines","116","1211980","0.0-3.0-0.110","20211013","148","834","","","","","","","","[378.8576]","[378.8576]","[""u"",""i""]","[""""]","null","true","out","i","NO","","1","out","","","","378.8576","learning","18.99","","","","","","","","","","","","","","","","","","","","","","","",""
"","learn_trial","categorize-lines","117","1216884","0.0-3.0-0.111","20211013","148","866","","","","","","","","[272.5513]","[272.5513]","[""u"",""i""]","[""""]","null","true","out","u","YES","","0","out","","","","272.5513","learning","12.24","","","","","","","","","","","","","","","","","","","","","","","",""
"","learn_trial","categorize-lines","118","1221472","0.0-3.0-0.112","20211013","148","554","","","","","","","","[193.6971]","[193.6971]","[""u"",""i""]","[""""]","null","true","in","i","NO","","0","in","","","","193.6971","learning","5.24","","","","","","","","","","","","","","","","","","","","","","","",""
"","learn_trial","categorize-lines","119","1224302","0.0-3.0-0.113","20211013","148","796","","","","","","","","[292.2463]","[292.2463]","[""u"",""i""]","[""""]","null","true","in","u","YES","","1","in","","","","292.2463","learning","13.67","","","","","","","","","","","","","","","","","","","","","","","",""
"","learn_trial","categorize-lines","120","1227668","0.0-3.0-0.114","20211013","148","1334","","","","","","","","[188.2927]","[188.2927]","[""u"",""i""]","[""""]","null","true","out","i","NO","","1","out","","","","188.2927","learning","4.66","","","","","","","","","","","","","","","","","","","","","","","",""
"","learn_trial","categorize-lines","121","1232286","0.0-3.0-0.115","20211013","148","580","","","","","","","","[197.4181]","[197.4181]","[""u"",""i""]","[""""]","null","true","in","i","NO","","0","in","","","","197.4181","learning","5.63","","","","","","","","","","","","","","","","","","","","","","","",""
"","learn_trial","categorize-lines","122","1236686","0.0-3.0-0.116","20211013","148","366","","","","","","","","[189.1213]","[189.1213]","[""u"",""i""]","[""""]","null","true","out","u","YES","","0","out","","","","189.1213","learning","4.75","","","","","","","","","","","","","","","","","","","","","","","",""
"","learn_trial","categorize-lines","123","1239078","0.0-3.0-0.117","20211013","148","358","","","","","","","","[217.0172]","[217.0172]","[""u"",""i""]","[""""]","null","true","out","i","NO","","1","out","","","","217.0172","learning","7.57","","","","","","","","","","","","","","","","","","","","","","","",""
"","learn_trial","categorize-lines","124","1243108","0.0-3.0-0.118","20211013","148","1992","","","","","","","","[303.4343]","[303.4343]","[""u"",""i""]","[""""]","null","true","in","u","YES","","1","in","","","","303.4343","learning","14.44","","","","","","","","","","","","","","","","","","","","","","","",""
"","learn_trial","categorize-lines","125","1245886","0.0-3.0-0.119","20211013","148","746","","","","","","","","[259.6994]","[259.6994]","[""u"",""i""]","[""""]","null","true","in","u","YES","","1","in","","","","259.6994","learning","11.25","","","","","","","","","","","","","","","","","","","","","","","",""
"","learn_trial","categorize-lines","126","1248862","0.0-3.0-0.120","20211013","148","942","","","","","","","","[309.2634]","[309.2634]","[""u"",""i""]","[""""]","null","true","out","i","NO","","1","out","","","","309.2634","learning","14.83","","","","","","","","","","","","","","","","","","","","","","","",""
"","learn_trial","categorize-lines","127","1252592","0.0-3.0-0.121","20211013","148","1690","","","","","","","","[318.7615]","[318.7615]","[""u"",""i""]","[""""]","null","true","out","i","NO","","1","out","","","","318.7615","learning","15.45","","","","","","","","","","","","","","","","","","","","","","","",""
"","learn_trial","categorize-lines","128","1255672","0.0-3.0-0.122","20211013","148","1040","","","","","","","","[340.7966]","[340.7966]","[""u"",""i""]","[""""]","null","true","out","i","NO","","1","out","","","","340.7966","learning","16.82","","","","","","","","","","","","","","","","","","","","","","","",""
"","learn_trial","categorize-lines","129","1260102","0.0-3.0-0.123","20211013","148","396","","","","","","","","[289.5496]","[289.5496]","[""u"",""i""]","[""""]","null","true","in","i","NO","","0","in","","","","289.5496","learning","13.48","","","","","","","","","","","","","","","","","","","","","","","",""
"","learn_trial","categorize-lines","130","1264678","0.0-3.0-0.124","20211013","148","536","","","","","","","","[427.3794]","[427.3794]","[""u"",""i""]","[""""]","null","true","out","u","YES","","0","out","","","","427.3794","learning","21.46","","","","","","","","","","","","","","","","","","","","","","","",""
"","learn_trial","categorize-lines","131","1267608","0.0-3.0-0.125","20211013","148","896","","","","","","","","[160.4473]","[160.4473]","[""u"",""i""]","[""""]","null","true","out","i","NO","","1","out","","","","160.4473","learning","1.38","","","","","","","","","","","","","","","","","","","","","","","",""
"","learn_trial","categorize-lines","132","1273168","0.0-3.0-0.126","20211013","148","1522","","","","","","","","[367.7482]","[367.7482]","[""u"",""i""]","[""""]","null","true","out","u","YES","","0","out","","","","367.7482","learning","18.38","","","","","","","","","","","","","","","","","","","","","","","",""
"","learn_trial","categorize-lines","133","1277940","0.0-3.0-0.127","20211013","148","2738","","","","","","","","[238.6785]","[238.6785]","[""u"",""i""]","[""""]","null","true","out","i","NO","","1","out","","","","238.6785","learning","9.52","","","","","","","","","","","","","","","","","","","","","","","",""
"","learn_trial","categorize-lines","134","1282550","0.0-3.0-0.128","20211013","148","580","","","","","","","","[232.019]","[232.019]","[""u"",""i""]","[""""]","null","true","in","i","NO","","0","in","","","","232.019","learning","8.94","","","","","","","","","","","","","","","","","","","","","","","",""
"","learn_trial","categorize-lines","135","1284900","0.0-3.0-0.129","20211013","148","314","","","","","","","","[287.8593]","[287.8593]","[""u"",""i""]","[""""]","null","true","in","u","YES","","1","in","","","","287.8593","learning","13.36","","","","","","","","","","","","","","","","","","","","","","","",""
"","learn_trial","categorize-lines","136","1289254","0.0-3.0-0.130","20211013","148","314","","","","","","","","[223.4641]","[223.4641]","[""u"",""i""]","[""""]","null","true","out","u","YES","","0","out","","","","223.4641","learning","8.17","","","","","","","","","","","","","","","","","","","","","","","",""
"","learn_trial","categorize-lines","137","1294260","0.0-3.0-0.131","20211013","148","970","","","","","","","","[325.361]","[325.361]","[""u"",""i""]","[""""]","null","true","out","u","YES","","0","out","","","","325.361","learning","15.87","","","","","","","","","","","","","","","","","","","","","","","",""
"","learn_trial","categorize-lines","138","1299134","0.0-3.0-0.132","20211013","148","840","","","","","","","","[316.4372]","[316.4372]","[""u"",""i""]","[""""]","null","true","in","i","NO","","0","in","","","","316.4372","learning","15.3","","","","","","","","","","","","","","","","","","","","","","","",""
"","learn_trial","categorize-lines","139","1304048","0.0-3.0-0.133","20211013","148","878","","","","","","","","[261.0969]","[261.0969]","[""u"",""i""]","[""""]","null","true","out","u","YES","","0","out","","","","261.0969","learning","11.36","","","","","","","","","","","","","","","","","","","","","","","",""
"","learn_trial","categorize-lines","140","1308818","0.0-3.0-0.134","20211013","148","732","","","","","","","","[308.8111]","[308.8111]","[""u"",""i""]","[""""]","null","true","in","i","NO","","0","in","","","","308.8111","learning","14.8","","","","","","","","","","","","","","","","","","","","","","","",""
"","learn_trial","categorize-lines","141","1311408","0.0-3.0-0.135","20211013","148","552","","","","","","","","[315.0507]","[315.0507]","[""u"",""i""]","[""""]","null","true","in","u","YES","","1","in","","","","315.0507","learning","15.21","","","","","","","","","","","","","","","","","","","","","","","",""
"","learn_trial","categorize-lines","142","1314116","0.0-3.0-0.136","20211013","148","670","","","","","","","","[160.2908]","[160.2908]","[""u"",""i""]","[""""]","null","true","out","i","NO","","1","out","","","","160.2908","learning","1.36","","","","","","","","","","","","","","","","","","","","","","","",""
"","learn_trial","categorize-lines","143","1319292","0.0-3.0-0.137","20211013","148","1142","","","","","","","","[316.5916]","[316.5916]","[""u"",""i""]","[""""]","null","true","out","u","YES","","0","out","","","","316.5916","learning","15.31","","","","","","","","","","","","","","","","","","","","","","","",""
"","learn_trial","categorize-lines","144","1323866","0.0-3.0-0.138","20211013","148","538","","","","","","","","[228.6477]","[228.6477]","[""u"",""i""]","[""""]","null","true","in","i","NO","","0","in","","","","228.6477","learning","8.64","","","","","","","","","","","","","","","","","","","","","","","",""
"","learn_trial","categorize-lines","145","1328566","0.0-3.0-0.139","20211013","148","660","","","","","","","","[300.928]","[300.928]","[""u"",""i""]","[""""]","null","true","out","u","YES","","0","out","","","","300.928","learning","14.27","","","","","","","","","","","","","","","","","","","","","","","",""
"","learn_trial","categorize-lines","146","1333406","0.0-3.0-0.140","20211013","148","810","","","","","","","","[402.0934]","[402.0934]","[""u"",""i""]","[""""]","null","true","out","u","YES","","0","out","","","","402.0934","learning","20.21","","","","","","","","","","","","","","","","","","","","","","","",""
"","learn_trial","categorize-lines","147","1338228","0.0-3.0-0.141","20211013","148","790","","","","","","","","[297.2797]","[297.2797]","[""u"",""i""]","[""""]","null","true","in","i","NO","","0","in","","","","297.2797","learning","14.02","","","","","","","","","","","","","","","","","","","","","","","",""
"","learn_trial","categorize-lines","148","1341066","0.0-3.0-0.142","20211013","148","798","","","","","","","","[155.8185]","[155.8185]","[""u"",""i""]","[""""]","null","true","out","i","NO","","1","out","","","","155.8185","learning","0.78","","","","","","","","","","","","","","","","","","","","","","","",""
"","learn_trial","categorize-lines","149","1346884","0.0-3.0-0.143","20211013","148","1784","","","","","","","","[284.5082]","[284.5082]","[""u"",""i""]","[""""]","null","true","out","u","YES","","0","out","","","","284.5082","learning","13.12","","","","","","","","","","","","","","","","","","","","","","","",""
"","learn_trial","categorize-lines","150","1349920","0.0-3.0-0.144","20211013","148","1002","","","","","","","","[215.1197]","[215.1197]","[""u"",""i""]","[""""]","null","true","in","u","YES","","1","in","","","","215.1197","learning","7.39","","","","","","","","","","","","","","","","","","","","","","","",""
"","learn_trial","categorize-lines","151","1352646","0.0-3.0-0.145","20211013","148","688","","","","","","","","[199.354]","[199.354]","[""u"",""i""]","[""""]","null","true","out","i","NO","","1","out","","","","199.354","learning","5.83","","","","","","","","","","","","","","","","","","","","","","","",""
"","learn_trial","categorize-lines","152","1357246","0.0-3.0-0.146","20211013","148","564","","","","","","","","[235.3252]","[235.3252]","[""u"",""i""]","[""""]","null","true","out","u","YES","","0","out","","","","235.3252","learning","9.23","","","","","","","","","","","","","","","","","","","","","","","",""
"","learn_trial","categorize-lines","153","1360072","0.0-3.0-0.147","20211013","148","792","","","","","","","","[433.4695]","[433.4695]","[""u"",""i""]","[""""]","null","true","out","i","NO","","1","out","","","","433.4695","learning","21.75","","","","","","","","","","","","","","","","","","","","","","","",""
"","learn_trial","categorize-lines","154","1363054","0.0-3.0-0.148","20211013","148","948","","","","","","","","[354.5346]","[354.5346]","[""u"",""i""]","[""""]","null","true","in","u","YES","","1","in","","","","354.5346","learning","17.63","","","","","","","","","","","","","","","","","","","","","","","",""
"","learn_trial","categorize-lines","155","1366950","0.0-3.0-0.149","20211013","148","1864","","","","","","","","[383.8815]","[383.8815]","[""u"",""i""]","[""""]","null","true","out","i","NO","","1","out","","","","383.8815","learning","19.26","","","","","","","","","","","","","","","","","","","","","","","",""
"","learn_trial","categorize-lines","156","1371804","0.0-3.0-0.150","20211013","148","824","","","","","","","","[397.6065]","[397.6065]","[""u"",""i""]","[""""]","null","true","in","i","NO","","0","in","","","","397.6065","learning","19.98","","","","","","","","","","","","","","","","","","","","","","","",""
"","learn_trial","categorize-lines","157","1375406","0.0-3.0-0.151","20211013","148","1562","","","","","","","","[260.715]","[260.715]","[""u"",""i""]","[""""]","null","true","in","u","YES","","1","in","","","","260.715","learning","11.33","","","","","","","","","","","","","","","","","","","","","","","",""
"","learn_trial","categorize-lines","158","1378210","0.0-3.0-0.152","20211013","148","770","","","","","","","","[245.4095]","[245.4095]","[""u"",""i""]","[""""]","null","true","in","u","YES","","1","in","","","","245.4095","learning","10.09","","","","","","","","","","","","","","","","","","","","","","","",""
"","learn_trial","categorize-lines","159","1383184","0.0-3.0-0.153","20211013","148","938","","","","","","","","[352.1211]","[352.1211]","[""u"",""i""]","[""""]","null","true","out","u","YES","","0","out","","","","352.1211","learning","17.49","","","","","","","","","","","","","","","","","","","","","","","",""
"","learn_trial","categorize-lines","160","1385890","0.0-3.0-0.154","20211013","148","666","","","","","","","","[206.4815]","[206.4815]","[""u"",""i""]","[""""]","null","true","out","i","NO","","1","out","","","","206.4815","learning","6.55","","","","","","","","","","","","","","","","","","","","","","","",""
"","learn_trial","categorize-lines","161","1388742","0.0-3.0-0.155","20211013","148","814","","","","","","","","[242.9078]","[242.9078]","[""u"",""i""]","[""""]","null","true","in","u","YES","","1","in","","","","242.9078","learning","9.88","","","","","","","","","","","","","","","","","","","","","","","",""
"","learn_trial","categorize-lines","162","1393598","0.0-3.0-0.156","20211013","148","820","","","","","","","","[327.7509]","[327.7509]","[""u"",""i""]","[""""]","null","true","in","i","NO","","0","in","","","","327.7509","learning","16.02","","","","","","","","","","","","","","","","","","","","","","","",""
"","learn_trial","categorize-lines","163","1396156","0.0-3.0-0.157","20211013","148","522","","","","","","","","[235.4401]","[235.4401]","[""u"",""i""]","[""""]","null","true","in","u","YES","","1","in","","","","235.4401","learning","9.24","","","","","","","","","","","","","","","","","","","","","","","",""
"","learn_trial","categorize-lines","164","1400878","0.0-3.0-0.158","20211013","148","690","","","","","","","","[274.8213]","[274.8213]","[""u"",""i""]","[""""]","null","true","out","u","YES","","0","out","","","","274.8213","learning","12.41","","","","","","","","","","","","","","","","","","","","","","","",""
"","learn_trial","categorize-lines","165","1403262","0.0-3.0-0.159","20211013","148","344","","","","","","","","[217.0172]","[217.0172]","[""u"",""i""]","[""""]","null","true","out","i","NO","","1","out","","","","217.0172","learning","7.57","","","","","","","","","","","","","","","","","","","","","","","",""
"","learn_trial","categorize-lines","166","1408666","0.0-3.0-0.160","20211013","148","1368","","","","","","","","[348.1918]","[348.1918]","[""u"",""i""]","[""""]","null","true","out","u","YES","","0","out","","","","348.1918","learning","17.26","","","","","","","","","","","","","","","","","","","","","","","",""
"","learn_trial","categorize-lines","167","1411614","0.0-3.0-0.161","20211013","148","910","","","","","","","","[158.6569]","[158.6569]","[""u"",""i""]","[""""]","null","true","out","i","NO","","1","out","","","","158.6569","learning","1.15","","","","","","","","","","","","","","","","","","","","","","","",""
"","learn_trial","categorize-lines","168","1414520","0.0-3.0-0.162","20211013","148","868","","","","","","","","[324.5682]","[324.5682]","[""u"",""i""]","[""""]","null","true","in","u","YES","","1","in","","","","324.5682","learning","15.82","","","","","","","","","","","","","","","","","","","","","","","",""
"","learn_trial","categorize-lines","169","1417408","0.0-3.0-0.163","20211013","148","848","","","","","","","","[228.4247]","[228.4247]","[""u"",""i""]","[""""]","null","true","out","i","NO","","1","out","","","","228.4247","learning","8.62","","","","","","","","","","","","","","","","","","","","","","","",""
"","learn_trial","categorize-lines","170","1420152","0.0-3.0-0.164","20211013","148","710","","","","","","","","[153.0308]","[153.0308]","[""u"",""i""]","[""""]","null","true","out","i","NO","","1","out","","","","153.0308","learning","0.41","","","","","","","","","","","","","","","","","","","","","","","",""
"","learn_trial","categorize-lines","171","1422892","0.0-3.0-0.165","20211013","148","710","","","","","","","","[226.3169]","[226.3169]","[""u"",""i""]","[""""]","null","true","out","i","NO","","1","out","","","","226.3169","learning","8.43","","","","","","","","","","","","","","","","","","","","","","","",""
"","learn_trial","categorize-lines","172","1427774","0.0-3.0-0.166","20211013","148","844","","","","","","","","[242.6709]","[242.6709]","[""u"",""i""]","[""""]","null","true","in","i","NO","","0","in","","","","242.6709","learning","9.86","","","","","","","","","","","","","","","","","","","","","","","",""
"","learn_trial","categorize-lines","173","1430272","0.0-3.0-0.167","20211013","148","468","","","","","","","","[254.3077]","[254.3077]","[""u"",""i""]","[""""]","null","true","in","u","YES","","1","in","","","","254.3077","learning","10.82","","","","","","","","","","","","","","","","","","","","","","","",""
"","learn_trial","categorize-lines","174","1432954","0.0-3.0-0.168","20211013","148","656","","","","","","","","[234.4085]","[234.4085]","[""u"",""i""]","[""""]","null","true","out","i","NO","","1","out","","","","234.4085","learning","9.15","","","","","","","","","","","","","","","","","","","","","","","",""
"","learn_trial","categorize-lines","175","1435694","0.0-3.0-0.169","20211013","148","704","","","","","","","","[414.4426]","[414.4426]","[""u"",""i""]","[""""]","null","true","out","i","NO","","1","out","","","","414.4426","learning","20.83","","","","","","","","","","","","","","","","","","","","","","","",""
"","learn_trial","categorize-lines","176","1440246","0.0-3.0-0.170","20211013","148","520","","","","","","","","[270.9602]","[270.9602]","[""u"",""i""]","[""""]","null","true","in","i","NO","","0","in","","","","270.9602","learning","12.12","","","","","","","","","","","","","","","","","","","","","","","",""
"","learn_trial","categorize-lines","177","1442838","0.0-3.0-0.171","20211013","148","554","","","","","","","","[186.3733]","[186.3733]","[""u"",""i""]","[""""]","null","true","out","i","NO","","1","out","","","","186.3733","learning","4.45","","","","","","","","","","","","","","","","","","","","","","","",""
"","learn_trial","categorize-lines","178","1445644","0.0-3.0-0.172","20211013","148","780","","","","","","","","[274.6873]","[274.6873]","[""u"",""i""]","[""""]","null","true","out","i","NO","","1","out","","","","274.6873","learning","12.4","","","","","","","","","","","","","","","","","","","","","","","",""
"","learn_trial","categorize-lines","179","1448082","0.0-3.0-0.173","20211013","148","406","","","","","","","","[162.972]","[162.972]","[""u"",""i""]","[""""]","null","true","out","i","NO","","1","out","","","","162.972","learning","1.7","","","","","","","","","","","","","","","","","","","","","","","",""
"","learn_trial","categorize-lines","180","1450776","0.0-3.0-0.174","20211013","148","656","","","","","","","","[315.3583]","[315.3583]","[""u"",""i""]","[""""]","null","true","out","i","NO","","1","out","","","","315.3583","learning","15.23","","","","","","","","","","","","","","","","","","","","","","","",""
"","learn_trial","categorize-lines","181","1453324","0.0-3.0-0.175","20211013","148","516","","","","","","","","[338.1466]","[338.1466]","[""u"",""i""]","[""""]","null","true","out","i","NO","","1","out","","","","338.1466","learning","16.66","","","","","","","","","","","","","","","","","","","","","","","",""
"","learn_trial","categorize-lines","182","1457966","0.0-3.0-0.176","20211013","148","608","","","","","","","","[234.2942]","[234.2942]","[""u"",""i""]","[""""]","null","true","in","i","NO","","0","in","","","","234.2942","learning","9.14","","","","","","","","","","","","","","","","","","","","","","","",""
"","learn_trial","categorize-lines","183","1462344","0.0-3.0-0.177","20211013","148","338","","","","","","","","[286.1789]","[286.1789]","[""u"",""i""]","[""""]","null","true","in","i","NO","","0","in","","","","286.1789","learning","13.24","","","","","","","","","","","","","","","","","","","","","","","",""
"","learn_trial","categorize-lines","184","1466548","0.0-3.0-0.178","20211013","148","166","","","","","","","","[370.2688]","[370.2688]","[""u"",""i""]","[""""]","null","true","out","u","YES","","0","out","","","","370.2688","learning","18.52","","","","","","","","","","","","","","","","","","","","","","","",""
"","learn_trial","categorize-lines","185","1470970","0.0-3.0-0.179","20211013","148","378","","","","","","","","[389.5417]","[389.5417]","[""u"",""i""]","[""""]","null","true","in","i","NO","","0","in","","","","389.5417","learning","19.56","","","","","","","","","","","","","","","","","","","","","","","",""
"","learn_trial","categorize-lines","186","1473622","0.0-3.0-0.180","20211013","148","622","","","","","","","","[288.4217]","[288.4217]","[""u"",""i""]","[""""]","null","true","in","u","YES","","1","in","","","","288.4217","learning","13.4","","","","","","","","","","","","","","","","","","","","","","","",""
"","learn_trial","categorize-lines","187","1480182","0.0-3.0-0.181","20211013","148","2524","","","","","","","","[243.0264]","[243.0264]","[""u"",""i""]","[""""]","null","true","out","u","YES","","0","out","","","","243.0264","learning","9.89","","","","","","","","","","","","","","","","","","","","","","","",""
"","learn_trial","categorize-lines","188","1487166","0.0-3.0-0.182","20211013","148","2944","","","","","","","","[302.3998]","[302.3998]","[""u"",""i""]","[""""]","null","true","out","u","YES","","0","out","","","","302.3998","learning","14.37","","","","","","","","","","","","","","","","","","","","","","","",""
"","learn_trial","categorize-lines","189","1492170","0.0-3.0-0.183","20211013","148","2966","","","","","","","","[242.9078]","[242.9078]","[""u"",""i""]","[""""]","null","true","in","u","YES","","1","in","","","","242.9078","learning","9.88","","","","","","","","","","","","","","","","","","","","","","","",""
"","learn_trial","categorize-lines","190","1495126","0.0-3.0-0.184","20211013","148","924","","","","","","","","[304.3239]","[304.3239]","[""u"",""i""]","[""""]","null","true","in","u","YES","","1","in","","","","304.3239","learning","14.5","","","","","","","","","","","","","","","","","","","","","","","",""
"","learn_trial","categorize-lines","191","1500740","0.0-3.0-0.185","20211013","148","1578","","","","","","","","[172.2094]","[172.2094]","[""u"",""i""]","[""""]","null","true","out","u","YES","","0","out","","","","172.2094","learning","2.83","","","","","","","","","","","","","","","","","","","","","","","",""
"","learn_trial","categorize-lines","192","1503368","0.0-3.0-0.186","20211013","148","588","","","","","","","","[261.6069]","[261.6069]","[""u"",""i""]","[""""]","null","true","in","u","YES","","1","in","","","","261.6069","learning","11.4","","","","","","","","","","","","","","","","","","","","","","","",""
"","learn_trial","categorize-lines","193","1508806","0.0-3.0-0.187","20211013","148","1402","","","","","","","","[204.8759]","[204.8759]","[""u"",""i""]","[""""]","null","true","out","u","YES","","0","out","","","","204.8759","learning","6.39","","","","","","","","","","","","","","","","","","","","","","","",""
"","learn_trial","categorize-lines","194","1513550","0.0-3.0-0.188","20211013","148","708","","","","","","","","[281.4707]","[281.4707]","[""u"",""i""]","[""""]","null","true","in","i","NO","","0","in","","","","281.4707","learning","12.9","","","","","","","","","","","","","","","","","","","","","","","",""
"","learn_trial","categorize-lines","195","1518042","0.0-3.0-0.189","20211013","148","458","","","","","","","","[273.0837]","[273.0837]","[""u"",""i""]","[""""]","null","true","out","u","YES","","0","out","","","","273.0837","learning","12.28","","","","","","","","","","","","","","","","","","","","","","","",""
"","learn_trial","categorize-lines","196","1524326","0.0-3.0-0.190","20211013","148","4248","","","","","","","","[356.0948]","[356.0948]","[""u"",""i""]","[""""]","null","true","in","u","YES","","1","in","","","","356.0948","learning","17.72","","","","","","","","","","","","","","","","","","","","","","","",""
"","learn_trial","categorize-lines","197","1527434","0.0-3.0-0.191","20211013","148","1070","","","","","","","","[241.019]","[241.019]","[""u"",""i""]","[""""]","null","true","in","u","YES","","1","in","","","","241.019","learning","9.72","","","","","","","","","","","","","","","","","","","","","","","",""
"","learn_trial","categorize-lines","198","1532146","0.0-3.0-0.192","20211013","148","672","","","","","","","","[354.016]","[354.016]","[""u"",""i""]","[""""]","null","true","in","i","NO","","0","in","","","","354.016","learning","17.6","","","","","","","","","","","","","","","","","","","","","","","",""
"","learn_trial","categorize-lines","199","1534740","0.0-3.0-0.193","20211013","148","566","","","","","","","","[212.3044]","[212.3044]","[""u"",""i""]","[""""]","null","true","in","u","YES","","1","in","","","","212.3044","learning","7.12","","","","","","","","","","","","","","","","","","","","","","","",""
"","learn_trial","categorize-lines","200","1538886","0.0-3.0-0.194","20211013","148","2110","","","","","","","","[157.3464]","[157.3464]","[""u"",""i""]","[""""]","null","true","out","i","NO","","1","out","","","","157.3464","learning","0.98","","","","","","","","","","","","","","","","","","","","","","","",""
"","learn_trial","categorize-lines","201","1542358","0.0-3.0-0.195","20211013","148","1436","","","","","","","","[213.0308]","[213.0308]","[""u"",""i""]","[""""]","null","true","in","u","YES","","1","in","","","","213.0308","learning","7.19","","","","","","","","","","","","","","","","","","","","","","","",""
"","learn_trial","categorize-lines","202","1546654","0.0-3.0-0.196","20211013","148","2256","","","","","","","","[380.8964]","[380.8964]","[""u"",""i""]","[""""]","null","true","out","i","NO","","1","out","","","","380.8964","learning","19.1","","","","","","","","","","","","","","","","","","","","","","","",""
"","learn_trial","categorize-lines","203","1550526","0.0-3.0-0.197","20211013","148","1836","","","","","","","","[228.0906]","[228.0906]","[""u"",""i""]","[""""]","null","true","out","i","NO","","1","out","","","","228.0906","learning","8.59","","","","","","","","","","","","","","","","","","","","","","","",""
"","learn_trial","categorize-lines","204","1556082","0.0-3.0-0.198","20211013","148","1526","","","","","","","","[278.7375]","[278.7375]","[""u"",""i""]","[""""]","null","true","in","i","NO","","0","in","","","","278.7375","learning","12.7","","","","","","","","","","","","","","","","","","","","","","","",""
"","learn_trial","categorize-lines","205","1560434","0.0-3.0-0.199","20211013","148","314","","","","","","","","[214.2817]","[214.2817]","[""u"",""i""]","[""""]","null","true","out","u","YES","","0","out","","","","214.2817","learning","7.31","","","","","","","","","","","","","","","","","","","","","","","",""
"","transfer_instructions","instructions","206","1588964","0.0-4.0-0.0","20211013","148","28530","","","","","","[{""page_index"":0,""viewing_time"":16656},{""page_index"":1,""viewing_time"":11874}]","","","","","","","","","","","","","","","","","","","","","","","","","","","","","","","","","","","","","","","","","","",""
"","transfer_trial","categorize-lines","207","1597790","0.0-5.0-0.0","20211013","148","7752","","","","","","","","[235.555,286.3185,213.6553]","[213.6553,235.555,286.3185]","[""j"",""k"",""l""]","[""J"",""K"",""L""]","null","false","null","l","","286.3185","0","null","235.555","286.3185","","","transfer","","9.25","235.555","13.25","286.3185","7.25","213.6553","","","235.555","286.3185","213.6553","9.25","13.25","7.25","attraction","trinary","equal_chance_2_JND","left","right","both","2","equal","competitor",""
"","transfer_trial","categorize-lines","208","1601822","0.0-5.0-0.1","20211013","148","2958","","","","","","","","[272.6843,224.3381,203.4812]","[224.3381,272.6843,203.4812]","[""j"",""k"",""l""]","[""J"",""K"",""L""]","272.6843","false","null","k","","272.6843","1","null","272.6843","203.4812","","","transfer","","8.25","224.3381","12.25","272.6843","6.25","203.4812","272.6843","12.25","272.6843","224.3381","203.4812","12.25","8.25","6.25","attraction","trinary","easy","left","right","competitor","1","right","competitor",""
"","transfer_trial","categorize-lines","209","1604534","0.0-5.0-0.2","20211013","148","1636","","","","","","","","[272.6843,235.555,300.6345]","[300.6345,235.555,272.6843]","[""j"",""k"",""l""]","[""J"",""K"",""L""]","272.6843","false","null","k","","235.555","0","null","235.555","272.6843","","","transfer","","12.25","272.6843","9.25","235.555","14.25","300.6345","272.6843","12.25","272.6843","235.555","300.6345","12.25","9.25","14.25","attraction","trinary","difficult","right","left","target","1","right","competitor",""
"","transfer_trial","categorize-lines","210","1607606","0.0-5.0-0.3","20211013","148","1994","","","","","","","","[247.3327,286.3185,315.6662]","[315.6662,247.3327,286.3185]","[""j"",""k"",""l""]","[""J"",""K"",""L""]","247.3327","false","null","k","","247.3327","1","null","247.3327","286.3185","","","transfer","","13.25","286.3185","10.25","247.3327","15.25","315.6662","247.3327","10.25","247.3327","286.3185","315.6662","10.25","13.25","15.25","attraction","trinary","difficult","right","left","competitor","1","left","competitor",""
"","transfer_trial","categorize-lines","211","1610942","0.0-5.0-0.4","20211013","148","2260","","","","","","","","[235.555,286.3185]","[235.555,286.3185]","[""j"",""k""]","[""J"",""K""]","null","false","null","j","","235.555","0","null","286.3185","","","","transfer","","13.25","286.3185","9.25","235.555","","","","","235.555","286.3185","0","9.25","13.25","0","attraction","binary","equal_chance_2_JND","right","left","both","2","equal","competitor",""
"","transfer_trial","categorize-lines","212","1613198","0.0-5.0-0.5","20211013","148","1182","","","","","","","","[209.4107,272.2156,360.9929]","[272.2156,209.4107,360.9929]","[""j"",""k"",""l""]","[""J"",""K"",""L""]","209.4107","false","null","k","","209.4107","1","null","209.4107","360.9929","","","transfer","","","","","","","","209.4107","6.8387","209.4107","272.2156","360.9929","6.8387","12.2147","18","filler","trinary","","","","","4.4113","left","NA",""
"","transfer_trial","categorize-lines","213","1617350","0.0-5.0-0.6","20211013","148","3078","","","","","","","","[256.5345,203.5786]","[256.5345,203.5786]","[""j"",""k""]","[""J"",""K""]","256.5345","false","null","k","","203.5786","0","null","203.5786","","","","transfer","","","","","","","","256.5345","10.9987","256.5345","203.5786","0","10.9987","6.2598","0","filler","binary","","","","","0.2513","left","NA",""
"","transfer_trial","categorize-lines","214","1620614","0.0-5.0-0.7","20211013","148","2184","","","","","","","","[272.6843,224.3381]","[272.6843,224.3381]","[""j"",""k""]","[""J"",""K""]","272.6843","false","null","j","","272.6843","1","null","224.3381","","","","transfer","","12.25","272.6843","8.25","224.3381","","","272.6843","12.25","272.6843","224.3381","0","12.25","8.25","0","attraction","binary","easy","right","left","target","1","right","target",""
"","transfer_trial","categorize-lines","215","1623318","0.0-5.0-0.8","20211013","148","1622","","","","","","","","[305.254,300.7485]","[300.7485,305.254]","[""j"",""k""]","[""J"",""K""]","305.254","false","null","k","","305.254","1","null","305.254","","","","transfer","","","","","","","","305.254","14.5625","305.254","300.7485","0","14.5625","14.2578","0","filler","binary","","","","","3.3125","right","NA",""
"","transfer_trial","categorize-lines","216","1625694","0.0-5.0-0.9","20211013","148","1308","","","","","","","","[328.3209,169.4252,256.5509]","[256.5509,169.4252,328.3209]","[""j"",""k"",""l""]","[""J"",""K"",""L""]","328.3209","false","null","l","","328.3209","1","null","169.4252","328.3209","","","transfer","","","","","","","","328.3209","16.0556","328.3209","169.4252","256.5509","16.0556","2.4959","11","filler","trinary","","","","","4.8056","right","NA",""
"","transfer_trial","categorize-lines","217","1627716","0.0-5.0-0.10","20211013","148","948","","","","","","","","[295.8017,288.9036,327.4312]","[295.8017,288.9036,327.4312]","[""j"",""k"",""l""]","[""J"",""K"",""L""]","295.8017","false","null","k","","288.9036","0","null","288.9036","327.4312","","","transfer","","","","","","","","295.8017","13.9178","295.8017","288.9036","327.4312","13.9178","13.4342","16","filler","trinary","","","","","2.6678","right","NA",""
"","transfer_trial","categorize-lines","218","1629350","0.0-5.0-0.11","20211013","148","562","","","","","","","","[247.3327,272.6843,300.6345]","[247.3327,300.6345,272.6843]","[""j"",""k"",""l""]","[""J"",""K"",""L""]","null","false","null","k","","300.6345","0","null","300.6345","272.6843","","","transfer","","12.25","272.6843","10.25","247.3327","14.25","300.6345","","","247.3327","272.6843","300.6345","10.25","12.25","14.25","attraction","trinary","equal_chance_1_JND","right","left","both","1","equal","decoy",""
"","transfer_trial","categorize-lines","219","1633030","0.0-5.0-0.12","20211013","148","2606","","","","","","","","[341.3932,233.7879]","[341.3932,233.7879]","[""j"",""k""]","[""J"",""K""]","341.3932","false","null","k","","233.7879","0","null","233.7879","","","","transfer","","","","","","","","341.3932","16.8558","341.3932","233.7879","0","16.8558","9.0957","0","filler","binary","","","","","5.6058","right","NA",""
"","transfer_trial","categorize-lines","220","1636582","0.0-5.0-0.13","20211013","148","2474","","","","","","","","[230.8978,283.8988]","[230.8978,283.8988]","[""j"",""k""]","[""J"",""K""]","230.8978","false","null","j","","230.8978","1","null","283.8988","","","","transfer","","","","","","","","230.8978","8.8407","230.8978","283.8988","0","8.8407","13.0761","0","filler","binary","","","","","2.4093","left","NA",""
"","transfer_trial","categorize-lines","221","1638862","0.0-5.0-0.14","20211013","148","1206","","","","","","","","[235.555,286.3185]","[286.3185,235.555]","[""j"",""k""]","[""J"",""K""]","null","false","null","j","","286.3185","0","null","235.555","","","","transfer","","9.25","235.555","13.25","286.3185","","","","","235.555","286.3185","0","9.25","13.25","0","attraction","binary","equal_chance_2_JND","left","right","both","2","equal","competitor",""
"","transfer_trial","categorize-lines","222","1641342","0.0-5.0-0.15","20211013","148","1402","","","","","","","","[247.3327,286.3185,224.3381]","[286.3185,247.3327,224.3381]","[""j"",""k"",""l""]","[""J"",""K"",""L""]","247.3327","false","null","l","","224.3381","0","null","247.3327","224.3381","","","transfer","","10.25","247.3327","13.25","286.3185","8.25","224.3381","247.3327","10.25","247.3327","286.3185","224.3381","10.25","13.25","8.25","attraction","trinary","difficult","left","right","target","1","left","decoy",""
"","transfer_trial","categorize-lines","223","1644318","0.0-5.0-0.16","20211013","148","1902","","","","","","","","[272.6843,224.3381,300.6345]","[224.3381,272.6843,300.6345]","[""j"",""k"",""l""]","[""J"",""K"",""L""]","272.6843","false","null","j","","224.3381","0","null","272.6843","300.6345","","","transfer","","12.25","272.6843","8.25","224.3381","14.25","300.6345","272.6843","12.25","272.6843","224.3381","300.6345","12.25","8.25","14.25","attraction","trinary","easy","right","left","target","1","right","competitor",""
"","transfer_trial","categorize-lines","224","1646366","0.0-5.0-0.17","20211013","148","972","","","","","","","","[180.2735,344.178,360.9929]","[180.2735,344.178,360.9929]","[""j"",""k"",""l""]","[""J"",""K"",""L""]","180.2735","false","null","j","","180.2735","1","null","344.178","360.9929","","","transfer","","","","","","","","180.2735","3.768","180.2735","344.178","360.9929","3.768","17.0224","18","filler","trinary","","","","","7.482","left","NA",""
"","transfer_trial","categorize-lines","225","1648326","0.0-5.0-0.18","20211013","148","880","","","","","","","","[225.2208,219.0756]","[219.0756,225.2208]","[""j"",""k""]","[""J"",""K""]","225.2208","false","null","k","","225.2208","1","null","225.2208","","","","transfer","","","","","","","","225.2208","8.3305","225.2208","219.0756","0","8.3305","7.7635","0","filler","binary","","","","","2.9195","left","NA",""
"","transfer_trial","categorize-lines","226","1650182","0.0-5.0-0.19","20211013","148","778","","","","","","","","[247.3327,272.6843,224.3381]","[224.3381,272.6843,247.3327]","[""j"",""k"",""l""]","[""J"",""K"",""L""]","null","false","null","k","","272.6843","0","null","272.6843","247.3327","","","transfer","","10.25","247.3327","12.25","272.6843","8.25","224.3381","","","247.3327","272.6843","224.3381","10.25","12.25","8.25","attraction","trinary","equal_chance_1_JND","left","right","both","1","equal","competitor",""
"","transfer_trial","categorize-lines","227","1652782","0.0-5.0-0.20","20211013","148","1524","","","","","","","","[263.5487,191.6791]","[263.5487,191.6791]","[""j"",""k""]","[""J"",""K""]","263.5487","false","null","k","","191.6791","0","null","191.6791","","","","transfer","","","","","","","","263.5487","11.5516","263.5487","191.6791","0","11.5516","5.0253","0","filler","binary","","","","","0.3016","right","NA",""
"","transfer_trial","categorize-lines","228","1654348","0.0-5.0-0.21","20211013","148","492","","","","","","","","[247.3327,300.6345,331.4495]","[331.4495,300.6345,247.3327]","[""j"",""k"",""l""]","[""J"",""K"",""L""]","247.3327","false","null","k","","300.6345","0","null","300.6345","247.3327","","","transfer","","14.25","300.6345","10.25","247.3327","16.25","331.4495","247.3327","10.25","247.3327","300.6345","331.4495","10.25","14.25","16.25","attraction","trinary","easy","right","left","competitor","1","left","target",""
"","transfer_trial","categorize-lines","229","1656614","0.0-5.0-0.22","20211013","148","1194","","","","","","","","[247.3327,300.6345]","[247.3327,300.6345]","[""j"",""k""]","[""J"",""K""]","247.3327","false","null","j","","247.3327","1","null","300.6345","","","","transfer","","14.25","300.6345","10.25","247.3327","","","247.3327","10.25","247.3327","300.6345","0","10.25","14.25","0","attraction","binary","easy","right","left","competitor","1","left","competitor",""
"","transfer_trial","categorize-lines","230","1658926","0.0-5.0-0.23","20211013","148","1234","","","","","","","","[272.6843,235.555,300.6345]","[300.6345,235.555,272.6843]","[""j"",""k"",""l""]","[""J"",""K"",""L""]","272.6843","false","null","j","","300.6345","0","null","235.555","272.6843","","","transfer","","12.25","272.6843","9.25","235.555","14.25","300.6345","272.6843","12.25","272.6843","235.555","300.6345","12.25","9.25","14.25","attraction","trinary","difficult","right","left","target","1","right","decoy",""
"","transfer_trial","categorize-lines","231","1661134","0.0-5.0-0.24","20211013","148","1124","","","","","","","","[235.555,286.3185,213.6553]","[286.3185,235.555,213.6553]","[""j"",""k"",""l""]","[""J"",""K"",""L""]","null","false","null","k","","235.555","0","null","235.555","213.6553","","","transfer","","9.25","235.555","13.25","286.3185","7.25","213.6553","","","235.555","286.3185","213.6553","9.25","13.25","7.25","attraction","trinary","equal_chance_2_JND","left","right","both","2","equal","target",""
"","transfer_trial","categorize-lines","232","1663142","0.0-5.0-0.25","20211013","148","930","","","","","","","","[282.7171,237.1519]","[237.1519,282.7171]","[""j"",""k""]","[""J"",""K""]","282.7171","false","null","k","","282.7171","1","null","282.7171","","","","transfer","","","","","","","","282.7171","12.9906","282.7171","237.1519","0","12.9906","9.3885","0","filler","binary","","","","","1.7406","right","NA",""
"","transfer_trial","categorize-lines","233","1665566","0.0-5.0-0.26","20211013","148","1344","","","","","","","","[247.3327,272.6843]","[272.6843,247.3327]","[""j"",""k""]","[""J"",""K""]","null","false","null","j","","272.6843","0","null","247.3327","","","","transfer","","10.25","247.3327","12.25","272.6843","","","","","247.3327","272.6843","0","10.25","12.25","0","attraction","binary","equal_chance_1_JND","left","right","both","1","equal","competitor",""
"","transfer_trial","categorize-lines","234","1667502","0.0-5.0-0.27","20211013","148","862","","","","","","","","[272.6843,224.3381]","[272.6843,224.3381]","[""j"",""k""]","[""J"",""K""]","272.6843","false","null","k","","224.3381","0","null","224.3381","","","","transfer","","8.25","224.3381","12.25","272.6843","","","272.6843","12.25","272.6843","224.3381","0","12.25","8.25","0","attraction","binary","easy","left","right","competitor","1","right","target",""
"","transfer_trial","categorize-lines","235","1669254","0.0-5.0-0.28","20211013","148","678","","","","","","","","[272.6843,224.3381,203.4812]","[272.6843,203.4812,224.3381]","[""j"",""k"",""l""]","[""J"",""K"",""L""]","272.6843","false","null","k","","203.4812","0","null","203.4812","224.3381","","","transfer","","8.25","224.3381","12.25","272.6843","6.25","203.4812","272.6843","12.25","272.6843","224.3381","203.4812","12.25","8.25","6.25","attraction","trinary","easy","left","right","competitor","1","right","decoy",""
"","transfer_trial","categorize-lines","236","1671166","0.0-5.0-0.29","20211013","148","832","","","","","","","","[235.555,286.3185]","[286.3185,235.555]","[""j"",""k""]","[""J"",""K""]","null","false","null","j","","286.3185","0","null","235.555","","","","transfer","","9.25","235.555","13.25","286.3185","","","","","235.555","286.3185","0","9.25","13.25","0","attraction","binary","equal_chance_2_JND","left","right","both","2","equal","competitor",""
"","transfer_trial","categorize-lines","237","1672814","0.0-5.0-0.30","20211013","148","566","","","","","","","","[272.6843,235.555,213.6553]","[235.555,272.6843,213.6553]","[""j"",""k"",""l""]","[""J"",""K"",""L""]","272.6843","false","null","k","","272.6843","1","null","272.6843","213.6553","","","transfer","","9.25","235.555","12.25","272.6843","7.25","213.6553","272.6843","12.25","272.6843","235.555","213.6553","12.25","9.25","7.25","attraction","trinary","difficult","left","right","competitor","1","right","competitor",""
"","transfer_trial","categorize-lines","238","1674894","0.0-5.0-0.31","20211013","148","1002","","","","","","","","[272.6843,224.3381,300.6345]","[300.6345,272.6843,224.3381]","[""j"",""k"",""l""]","[""J"",""K"",""L""]","272.6843","false","null","j","","300.6345","0","null","272.6843","224.3381","","","transfer","","12.25","272.6843","8.25","224.3381","14.25","300.6345","272.6843","12.25","272.6843","224.3381","300.6345","12.25","8.25","14.25","attraction","trinary","easy","right","left","target","1","right","decoy",""
"","transfer_trial","categorize-lines","239","1676702","0.0-5.0-0.32","20211013","148","738","","","","","","","","[247.3327,272.6843,224.3381]","[224.3381,272.6843,247.3327]","[""j"",""k"",""l""]","[""J"",""K"",""L""]","null","false","null","j","","224.3381","0","null","272.6843","247.3327","","","transfer","","10.25","247.3327","12.25","272.6843","8.25","224.3381","","","247.3327","272.6843","224.3381","10.25","12.25","8.25","attraction","trinary","equal_chance_1_JND","left","right","both","1","equal","decoy",""
"","transfer_trial","categorize-lines","240","1678958","0.0-5.0-0.33","20211013","148","1178","","","","","","","","[272.6843,224.3381,203.4812]","[272.6843,224.3381,203.4812]","[""j"",""k"",""l""]","[""J"",""K"",""L""]","272.6843","false","null","k","","224.3381","0","null","224.3381","203.4812","","","transfer","","8.25","224.3381","12.25","272.6843","6.25","203.4812","272.6843","12.25","272.6843","224.3381","203.4812","12.25","8.25","6.25","attraction","trinary","easy","left","right","competitor","1","right","target",""
"","transfer_trial","categorize-lines","241","1680606","0.0-5.0-0.34","20211013","148","570","","","","","","","","[272.6843,224.3381]","[272.6843,224.3381]","[""j"",""k""]","[""J"",""K""]","272.6843","false","null","k","","224.3381","0","null","224.3381","","","","transfer","","12.25","272.6843","8.25","224.3381","","","272.6843","12.25","272.6843","224.3381","0","12.25","8.25","0","attraction","binary","easy","right","left","target","1","right","competitor",""
"","transfer_trial","categorize-lines","242","1682382","0.0-5.0-0.35","20211013","148","698","","","","","","","","[247.3327,300.6345,224.3381]","[247.3327,224.3381,300.6345]","[""j"",""k"",""l""]","[""J"",""K"",""L""]","247.3327","false","null","k","","224.3381","0","null","224.3381","300.6345","","","transfer","","10.25","247.3327","14.25","300.6345","8.25","224.3381","247.3327","10.25","247.3327","300.6345","224.3381","10.25","14.25","8.25","attraction","trinary","easy","left","right","target","1","left","decoy",""
"","transfer_trial","categorize-lines","243","1685870","0.0-5.0-0.36","20211013","148","2410","","","","","","","","[272.6843,235.555]","[272.6843,235.555]","[""j"",""k""]","[""J"",""K""]","272.6843","false","null","k","","235.555","0","null","235.555","","","","transfer","","12.25","272.6843","9.25","235.555","","","272.6843","12.25","272.6843","235.555","0","12.25","9.25","0","attraction","binary","difficult","right","left","target","1","right","competitor",""
"","transfer_trial","categorize-lines","244","1687782","0.0-5.0-0.37","20211013","148","844","","","","","","","","[272.6843,224.3381,300.6345]","[272.6843,224.3381,300.6345]","[""j"",""k"",""l""]","[""J"",""K"",""L""]","272.6843","false","null","j","","272.6843","1","null","224.3381","300.6345","","","transfer","","12.25","272.6843","8.25","224.3381","14.25","300.6345","272.6843","12.25","272.6843","224.3381","300.6345","12.25","8.25","14.25","attraction","trinary","easy","right","left","target","1","right","target",""
"","transfer_trial","categorize-lines","245","1693630","0.0-5.0-0.38","20211013","148","4772","","","","","","","","[386.139,312.1544,417.8944]","[386.139,417.8944,312.1544]","[""j"",""k"",""l""]","[""J"",""K"",""L""]","386.139","false","null","k","","417.8944","0","null","417.8944","312.1544","","","transfer","","","","","","","","386.139","19.3802","386.139","312.1544","417.8944","19.3802","15.0207","21","filler","trinary","","","","","8.1302","right","NA",""
"","transfer_trial","categorize-lines","246","1695590","0.0-5.0-0.39","20211013","148","884","","","","","","","","[247.3327,286.3185,224.3381]","[286.3185,247.3327,224.3381]","[""j"",""k"",""l""]","[""J"",""K"",""L""]","247.3327","false","null","k","","247.3327","1","null","247.3327","224.3381","","","transfer","","10.25","247.3327","13.25","286.3185","8.25","224.3381","247.3327","10.25","247.3327","286.3185","224.3381","10.25","13.25","8.25","attraction","trinary","difficult","left","right","target","1","left","target",""
"","transfer_trial","categorize-lines","247","1697574","0.0-5.0-0.40","20211013","148","906","","","","","","","","[247.3327,300.6345,224.3381]","[247.3327,300.6345,224.3381]","[""j"",""k"",""l""]","[""J"",""K"",""L""]","247.3327","false","null","l","","224.3381","0","null","300.6345","224.3381","","","transfer","","10.25","247.3327","14.25","300.6345","8.25","224.3381","247.3327","10.25","247.3327","300.6345","224.3381","10.25","14.25","8.25","attraction","trinary","easy","left","right","target","1","left","decoy",""
"","transfer_trial","categorize-lines","248","1699502","0.0-5.0-0.41","20211013","148","858","","","","","","","","[289.9466,270.9946,182.3259]","[182.3259,289.9466,270.9946]","[""j"",""k"",""l""]","[""J"",""K"",""L""]","289.9466","false","null","k","","289.9466","1","null","289.9466","270.9946","","","transfer","","","","","","","","289.9466","13.5081","289.9466","270.9946","182.3259","13.5081","12.1226","4","filler","trinary","","","","","2.2581","right","NA",""
"","transfer_trial","categorize-lines","249","1701158","0.0-5.0-0.42","20211013","148","582","","","","","","","","[274.234,201.1364]","[274.234,201.1364]","[""j"",""k""]","[""J"",""K""]","274.234","false","null","k","","201.1364","0","null","201.1364","","","","transfer","","","","","","","","274.234","12.3661","274.234","201.1364","0","12.3661","6.0124","0","filler","binary","","","","","1.1161","right","NA",""
"","transfer_trial","categorize-lines","250","1703166","0.0-5.0-0.43","20211013","148","932","","","","","","","","[247.3327,300.6345]","[247.3327,300.6345]","[""j"",""k""]","[""J"",""K""]","247.3327","false","null","j","","247.3327","1","null","300.6345","","","","transfer","","14.25","300.6345","10.25","247.3327","","","247.3327","10.25","247.3327","300.6345","0","10.25","14.25","0","attraction","binary","easy","right","left","competitor","1","left","competitor",""
"","transfer_trial","categorize-lines","251","1705054","0.0-5.0-0.44","20211013","148","810","","","","","","","","[247.3327,286.3185]","[247.3327,286.3185]","[""j"",""k""]","[""J"",""K""]","247.3327","false","null","j","","247.3327","1","null","286.3185","","","","transfer","","13.25","286.3185","10.25","247.3327","","","247.3327","10.25","247.3327","286.3185","0","10.25","13.25","0","attraction","binary","difficult","right","left","competitor","1","left","competitor",""
"","transfer_trial","categorize-lines","252","1706822","0.0-5.0-0.45","20211013","148","696","","","","","","","","[167.4275,266.5615]","[266.5615,167.4275]","[""j"",""k""]","[""J"",""K""]","167.4275","false","null","k","","167.4275","1","null","167.4275","","","","transfer","","","","","","","","167.4275","2.2528","167.4275","266.5615","0","2.2528","11.7845","0","filler","binary","","","","","8.9972","left","NA",""
"","transfer_trial","categorize-lines","253","1708718","0.0-5.0-0.46","20211013","148","824","","","","","","","","[282.4293,184.8867,211.0651]","[184.8867,282.4293,211.0651]","[""j"",""k"",""l""]","[""J"",""K"",""L""]","282.4293","false","null","j","","184.8867","0","null","282.4293","211.0651","","","transfer","","","","","","","","282.4293","12.9697","282.4293","184.8867","211.0651","12.9697","4.2859","7","filler","trinary","","","","","1.7197","right","NA",""
"","transfer_trial","categorize-lines","254","1710886","0.0-5.0-0.47","20211013","148","1096","","","","","","","","[304.3135,400.7464,165.375]","[165.375,304.3135,400.7464]","[""j"",""k"",""l""]","[""J"",""K"",""L""]","304.3135","false","null","j","","165.375","0","null","304.3135","400.7464","","","transfer","","","","","","","","304.3135","14.4993","304.3135","400.7464","165.375","14.4993","20.1412","2","filler","trinary","","","","","3.2493","right","NA",""
"","transfer_trial","categorize-lines","255","1712742","0.0-5.0-0.48","20211013","148","784","","","","","","","","[272.6843,235.555,300.6345]","[272.6843,300.6345,235.555]","[""j"",""k"",""l""]","[""J"",""K"",""L""]","272.6843","false","null","k","","300.6345","0","null","300.6345","235.555","","","transfer","","12.25","272.6843","9.25","235.555","14.25","300.6345","272.6843","12.25","272.6843","235.555","300.6345","12.25","9.25","14.25","attraction","trinary","difficult","right","left","target","1","right","decoy",""
"","transfer_trial","categorize-lines","256","1714358","0.0-5.0-0.49","20211013","148","542","","","","","","","","[272.6843,235.555,213.6553]","[272.6843,213.6553,235.555]","[""j"",""k"",""l""]","[""J"",""K"",""L""]","272.6843","false","null","l","","235.555","0","null","213.6553","235.555","","","transfer","","9.25","235.555","12.25","272.6843","7.25","213.6553","272.6843","12.25","272.6843","235.555","213.6553","12.25","9.25","7.25","attraction","trinary","difficult","left","right","competitor","1","right","target",""
"","transfer_trial","categorize-lines","257","1716534","0.0-5.0-0.50","20211013","148","1104","","","","","","","","[235.555,286.3185,315.6662]","[286.3185,315.6662,235.555]","[""j"",""k"",""l""]","[""J"",""K"",""L""]","null","false","null","k","","315.6662","0","null","315.6662","235.555","","","transfer","","13.25","286.3185","9.25","235.555","15.25","315.6662","","","235.555","286.3185","315.6662","9.25","13.25","15.25","attraction","trinary","equal_chance_2_JND","right","left","both","2","equal","decoy",""
"","transfer_trial","categorize-lines","258","1718998","0.0-5.0-0.51","20211013","148","1390","","","","","","","","[247.3327,300.6345]","[300.6345,247.3327]","[""j"",""k""]","[""J"",""K""]","247.3327","false","null","j","","300.6345","0","null","247.3327","","","","transfer","","10.25","247.3327","14.25","300.6345","","","247.3327","10.25","247.3327","300.6345","0","10.25","14.25","0","attraction","binary","easy","left","right","target","1","left","competitor",""
"","transfer_trial","categorize-lines","259","1721358","0.0-5.0-0.52","20211013","148","1286","","","","","","","","[281.7339,200.4552,191.4422]","[281.7339,191.4422,200.4552]","[""j"",""k"",""l""]","[""J"",""K"",""L""]","281.7339","false","null","k","","191.4422","0","null","191.4422","200.4552","","","transfer","","","","","","","","281.7339","12.9192","281.7339","200.4552","191.4422","12.9192","5.9429","5","filler","trinary","","","","","1.6692","right","NA",""
"","transfer_trial","categorize-lines","260","1723198","0.0-5.0-0.53","20211013","148","764","","","","","","","","[272.6843,224.3381]","[224.3381,272.6843]","[""j"",""k""]","[""J"",""K""]","272.6843","false","null","k","","272.6843","1","null","272.6843","","","","transfer","","12.25","272.6843","8.25","224.3381","","","272.6843","12.25","272.6843","224.3381","0","12.25","8.25","0","attraction","binary","easy","right","left","target","1","right","target",""
"","transfer_trial","categorize-lines","261","1725238","0.0-5.0-0.54","20211013","148","958","","","","","","","","[235.555,286.3185]","[286.3185,235.555]","[""j"",""k""]","[""J"",""K""]","null","false","null","j","","286.3185","0","null","235.555","","","","transfer","","13.25","286.3185","9.25","235.555","","","","","235.555","286.3185","0","9.25","13.25","0","attraction","binary","equal_chance_2_JND","right","left","both","2","equal","target",""
"","transfer_trial","categorize-lines","262","1728278","0.0-5.0-0.55","20211013","148","1960","","","","","","","","[247.3327,286.3185]","[247.3327,286.3185]","[""j"",""k""]","[""J"",""K""]","247.3327","false","null","k","","286.3185","0","null","286.3185","","","","transfer","","10.25","247.3327","13.25","286.3185","","","247.3327","10.25","247.3327","286.3185","0","10.25","13.25","0","attraction","binary","difficult","left","right","target","1","left","competitor",""
"","transfer_trial","categorize-lines","263","1730622","0.0-5.0-0.56","20211013","148","1266","","","","","","","","[227.6639,153.6208,379.0425]","[379.0425,227.6639,153.6208]","[""j"",""k"",""l""]","[""J"",""K"",""L""]","227.6639","false","null","j","","379.0425","0","null","227.6639","153.6208","","","transfer","","","","","","","","227.6639","8.5516","227.6639","153.6208","379.0425","8.5516","0.4889","19","filler","trinary","","","","","2.6984","left","NA",""
"","transfer_trial","categorize-lines","264","1733574","0.0-5.0-0.57","20211013","148","1878","","","","","","","","[247.3327,286.3185,315.6662]","[315.6662,286.3185,247.3327]","[""j"",""k"",""l""]","[""J"",""K"",""L""]","247.3327","false","null","k","","286.3185","0","null","286.3185","247.3327","","","transfer","","13.25","286.3185","10.25","247.3327","15.25","315.6662","247.3327","10.25","247.3327","286.3185","315.6662","10.25","13.25","15.25","attraction","trinary","difficult","right","left","competitor","1","left","target",""
"","transfer_trial","categorize-lines","265","1735408","0.0-5.0-0.58","20211013","148","756","","","","","","","","[272.6843,235.555]","[235.555,272.6843]","[""j"",""k""]","[""J"",""K""]","272.6843","false","null","k","","272.6843","1","null","272.6843","","","","transfer","","9.25","235.555","12.25","272.6843","","","272.6843","12.25","272.6843","235.555","0","12.25","9.25","0","attraction","binary","difficult","left","right","competitor","1","right","competitor",""
"","transfer_trial","categorize-lines","266","1737582","0.0-5.0-0.59","20211013","148","1102","","","","","","","","[238.2482,245.7076]","[245.7076,238.2482]","[""j"",""k""]","[""J"",""K""]","238.2482","false","null","k","","238.2482","1","null","238.2482","","","","transfer","","","","","","","","238.2482","9.483","238.2482","245.7076","0","9.483","10.1149","0","filler","binary","","","","","1.767","left","NA",""
"","transfer_trial","categorize-lines","267","1740278","0.0-5.0-0.60","20211013","148","1624","","","","","","","","[247.3327,286.3185]","[286.3185,247.3327]","[""j"",""k""]","[""J"",""K""]","247.3327","false","null","j","","286.3185","0","null","247.3327","","","","transfer","","10.25","247.3327","13.25","286.3185","","","247.3327","10.25","247.3327","286.3185","0","10.25","13.25","0","attraction","binary","difficult","left","right","target","1","left","competitor",""
"","transfer_trial","categorize-lines","268","1742590","0.0-5.0-0.61","20211013","148","1234","","","","","","","","[247.3327,300.6345]","[300.6345,247.3327]","[""j"",""k""]","[""J"",""K""]","247.3327","false","null","j","","300.6345","0","null","247.3327","","","","transfer","","10.25","247.3327","14.25","300.6345","","","247.3327","10.25","247.3327","300.6345","0","10.25","14.25","0","attraction","binary","easy","left","right","target","1","left","competitor",""
"","transfer_trial","categorize-lines","269","1744656","0.0-5.0-0.62","20211013","148","984","","","","","","","","[289.2816,392.1136]","[392.1136,289.2816]","[""j"",""k""]","[""J"",""K""]","289.2816","false","null","j","","392.1136","0","null","289.2816","","","","transfer","","","","","","","","289.2816","13.461","289.2816","392.1136","0","13.461","19.6949","0","filler","binary","","","","","2.211","right","NA",""
"","transfer_trial","categorize-lines","270","1746412","0.0-5.0-0.63","20211013","148","686","","","","","","","","[247.3327,272.6843,300.6345]","[272.6843,300.6345,247.3327]","[""j"",""k"",""l""]","[""J"",""K"",""L""]","null","false","null","l","","247.3327","0","null","300.6345","247.3327","","","transfer","","12.25","272.6843","10.25","247.3327","14.25","300.6345","","","247.3327","272.6843","300.6345","10.25","12.25","14.25","attraction","trinary","equal_chance_1_JND","right","left","both","1","equal","competitor",""
"","transfer_trial","categorize-lines","271","1748022","0.0-5.0-0.64","20211013","148","534","","","","","","","","[247.3327,286.3185,224.3381]","[224.3381,247.3327,286.3185]","[""j"",""k"",""l""]","[""J"",""K"",""L""]","247.3327","false","null","l","","286.3185","0","null","247.3327","286.3185","","","transfer","","10.25","247.3327","13.25","286.3185","8.25","224.3381","247.3327","10.25","247.3327","286.3185","224.3381","10.25","13.25","8.25","attraction","trinary","difficult","left","right","target","1","left","competitor",""
"","transfer_trial","categorize-lines","272","1750278","0.0-5.0-0.65","20211013","148","1174","","","","","","","","[247.3327,286.3185]","[247.3327,286.3185]","[""j"",""k""]","[""J"",""K""]","247.3327","false","null","k","","286.3185","0","null","286.3185","","","","transfer","","13.25","286.3185","10.25","247.3327","","","247.3327","10.25","247.3327","286.3185","0","10.25","13.25","0","attraction","binary","difficult","right","left","competitor","1","left","target",""
"","transfer_trial","categorize-lines","273","1752814","0.0-5.0-0.66","20211013","148","1458","","","","","","","","[247.3327,300.6345,331.4495]","[331.4495,300.6345,247.3327]","[""j"",""k"",""l""]","[""J"",""K"",""L""]","247.3327","false","null","k","","300.6345","0","null","300.6345","247.3327","","","transfer","","14.25","300.6345","10.25","247.3327","16.25","331.4495","247.3327","10.25","247.3327","300.6345","331.4495","10.25","14.25","16.25","attraction","trinary","easy","right","left","competitor","1","left","target",""
"","transfer_trial","categorize-lines","274","1754414","0.0-5.0-0.67","20211013","148","522","","","","","","","","[235.555,286.3185]","[235.555,286.3185]","[""j"",""k""]","[""J"",""K""]","null","false","null","j","","235.555","0","null","286.3185","","","","transfer","","13.25","286.3185","9.25","235.555","","","","","235.555","286.3185","0","9.25","13.25","0","attraction","binary","equal_chance_2_JND","right","left","both","2","equal","competitor",""
"","transfer_trial","categorize-lines","275","1756094","0.0-5.0-0.68","20211013","148","612","","","","","","","","[272.6843,235.555,213.6553]","[235.555,213.6553,272.6843]","[""j"",""k"",""l""]","[""J"",""K"",""L""]","272.6843","false","null","k","","213.6553","0","null","213.6553","272.6843","","","transfer","","9.25","235.555","12.25","272.6843","7.25","213.6553","272.6843","12.25","272.6843","235.555","213.6553","12.25","9.25","7.25","attraction","trinary","difficult","left","right","competitor","1","right","decoy",""
"","transfer_trial","categorize-lines","276","1758734","0.0-5.0-0.69","20211013","148","1562","","","","","","","","[247.3327,300.6345]","[247.3327,300.6345]","[""j"",""k""]","[""J"",""K""]","247.3327","false","null","k","","300.6345","0","null","300.6345","","","","transfer","","10.25","247.3327","14.25","300.6345","","","247.3327","10.25","247.3327","300.6345","0","10.25","14.25","0","attraction","binary","easy","left","right","target","1","left","competitor",""
