"success","screen_id","trial_type","trial_index","time_elapsed","internal_node_id","date","sub_n","rt","response","timeout","failed_images","failed_audio","failed_video","view_history","stim","line_lens","line_lens_order","choices","stim_names","corr_ans","give_fb","in_cat","key_choice","yn_choice","choice","correct","fb_in_cat","stim_1_in_order","stim_2_in_order","stim_3_in_order","line_length","cat_trial_type","jnds","T_psy","T_phys","C_psy","C_phys","D_psy","D_phys","corr_choice","correct_psy","stim_1","stim_2","stim_3","stim_1_psy","stim_2_psy","stim_3_psy","transfer_trial_type","trial_choice_set","difficulty_level","target_side","competitor_side","tc_correct","correct_dist_to_mean","side_correct","attr_choice","stimulus"
"true","enter-fullscreen-mode","fullscreen","0","2220","0.0-0.0","20211006","118","","","","","","","","","","","","","","","","","","","","","","","","","","","","","","","","","","","","","","","","","","","","","","","","","",""
"","enter-sub-number","survey-html-form","1","598076","0.0-1.0","20211006","118","595842","{""response"":""118""}","","","","","","","","","","","","","","","","","","","","","","","","","","","","","","","","","","","","","","","","","","","","","","","",""
"true","","preload","2","598092","0.0-2.0-0.0","20211006","118","","","false","[]","[]","[]","","","","","","","","","","","","","","","","","","","","","","","","","","","","","","","","","","","","","","","","","","","",""
"","instructions","instructions","3","716030","0.0-2.0-1.0","20211006","118","117936","","","","","","[{""page_index"":0,""viewing_time"":8094},{""page_index"":1,""viewing_time"":24976},{""page_index"":2,""viewing_time"":15200},{""page_index"":3,""viewing_time"":38762},{""page_index"":4,""viewing_time"":14406},{""page_index"":5,""viewing_time"":2200},{""page_index"":6,""viewing_time"":14298}]","","","","","","","","","","","","","","","","","","","","","","","","","","","","","","","","","","","","","","","","","","",""
"","demo-lines","draw-demo-lines","4","776042","0.0-2.0-2.0","20211006","118","","","","","","","","lines","","","","","","","","","","","","","","","","","","","","","","","","","","","","","","","","","","","","","","","","","",""
"","click-to-begin-the-experiment","instructions","5","779108","0.0-2.0-3.0","20211006","118","3064","","","","","","[{""page_index"":0,""viewing_time"":3064}]","","","","","","","","","","","","","","","","","","","","","","","","","","","","","","","","","","","","","","","","","","",""
"","learn_trial","categorize-lines","6","784210","0.0-3.0-0.0","20211006","118","3062","","","","","","","","[219.1453]","[219.1453]","[""u"",""i""]","[""""]","null","true","in","u","YES","","1","in","","","","219.1453","learning","7.77","","","","","","","","","","","","","","","","","","","","","","","",""
"","learn_trial","categorize-lines","7","788006","0.0-3.0-0.1","20211006","118","1756","","","","","","","","[309.2634]","[309.2634]","[""u"",""i""]","[""""]","null","true","out","i","NO","","1","out","","","","309.2634","learning","14.83","","","","","","","","","","","","","","","","","","","","","","","",""
"","learn_trial","categorize-lines","8","794066","0.0-3.0-0.2","20211006","118","2018","","","","","","","","[256.4258]","[256.4258]","[""u"",""i""]","[""""]","null","true","out","u","YES","","0","out","","","","256.4258","learning","10.99","","","","","","","","","","","","","","","","","","","","","","","",""
"","learn_trial","categorize-lines","9","799954","0.0-3.0-0.3","20211006","118","1846","","","","","","","","[335.8447]","[335.8447]","[""u"",""i""]","[""""]","null","true","out","u","YES","","0","out","","","","335.8447","learning","16.52","","","","","","","","","","","","","","","","","","","","","","","",""
"","learn_trial","categorize-lines","10","805308","0.0-3.0-0.4","20211006","118","1314","","","","","","","","[197.1294]","[197.1294]","[""u"",""i""]","[""""]","null","true","out","u","YES","","0","out","","","","197.1294","learning","5.6","","","","","","","","","","","","","","","","","","","","","","","",""
"","learn_trial","categorize-lines","11","810712","0.0-3.0-0.5","20211006","118","1368","","","","","","","","[395.4783]","[395.4783]","[""u"",""i""]","[""""]","null","true","out","u","YES","","0","out","","","","395.4783","learning","19.87","","","","","","","","","","","","","","","","","","","","","","","",""
"","learn_trial","categorize-lines","12","814232","0.0-3.0-0.6","20211006","118","1486","","","","","","","","[215.6451]","[215.6451]","[""u"",""i""]","[""""]","null","true","out","i","NO","","1","out","","","","215.6451","learning","7.44","","","","","","","","","","","","","","","","","","","","","","","",""
"","learn_trial","categorize-lines","13","819342","0.0-3.0-0.7","20211006","118","1072","","","","","","","","[234.4085]","[234.4085]","[""u"",""i""]","[""""]","null","true","out","u","YES","","0","out","","","","234.4085","learning","9.15","","","","","","","","","","","","","","","","","","","","","","","",""
"","learn_trial","categorize-lines","14","825636","0.0-3.0-0.8","20211006","118","2256","","","","","","","","[354.5346]","[354.5346]","[""u"",""i""]","[""""]","null","true","in","i","NO","","0","in","","","","354.5346","learning","17.63","","","","","","","","","","","","","","","","","","","","","","","",""
"","learn_trial","categorize-lines","15","831070","0.0-3.0-0.9","20211006","118","3400","","","","","","","","[206.4815]","[206.4815]","[""u"",""i""]","[""""]","null","true","out","i","NO","","1","out","","","","206.4815","learning","6.55","","","","","","","","","","","","","","","","","","","","","","","",""
"","learn_trial","categorize-lines","16","833824","0.0-3.0-0.10","20211006","118","716","","","","","","","","[270.9602]","[270.9602]","[""u"",""i""]","[""""]","null","true","in","u","YES","","1","in","","","","270.9602","learning","12.12","","","","","","","","","","","","","","","","","","","","","","","",""
"","learn_trial","categorize-lines","17","837072","0.0-3.0-0.11","20211006","118","1212","","","","","","","","[153.0308]","[153.0308]","[""u"",""i""]","[""""]","null","true","out","i","NO","","1","out","","","","153.0308","learning","0.41","","","","","","","","","","","","","","","","","","","","","","","",""
"","learn_trial","categorize-lines","18","842858","0.0-3.0-0.12","20211006","118","1744","","","","","","","","[414.4426]","[414.4426]","[""u"",""i""]","[""""]","null","true","out","u","YES","","0","out","","","","414.4426","learning","20.83","","","","","","","","","","","","","","","","","","","","","","","",""
"","learn_trial","categorize-lines","19","845808","0.0-3.0-0.13","20211006","118","912","","","","","","","","[243.7389]","[243.7389]","[""u"",""i""]","[""""]","null","true","in","u","YES","","1","in","","","","243.7389","learning","9.95","","","","","","","","","","","","","","","","","","","","","","","",""
"","learn_trial","categorize-lines","20","849978","0.0-3.0-0.14","20211006","118","2136","","","","","","","","[306.8586]","[306.8586]","[""u"",""i""]","[""""]","null","true","out","i","NO","","1","out","","","","306.8586","learning","14.67","","","","","","","","","","","","","","","","","","","","","","","",""
"","learn_trial","categorize-lines","21","853838","0.0-3.0-0.15","20211006","118","1826","","","","","","","","[242.6709]","[242.6709]","[""u"",""i""]","[""""]","null","true","in","u","YES","","1","in","","","","242.6709","learning","9.86","","","","","","","","","","","","","","","","","","","","","","","",""
"","learn_trial","categorize-lines","22","858318","0.0-3.0-0.16","20211006","118","2446","","","","","","","","[351.2632]","[351.2632]","[""u"",""i""]","[""""]","null","true","out","i","NO","","1","out","","","","351.2632","learning","17.44","","","","","","","","","","","","","","","","","","","","","","","",""
"","learn_trial","categorize-lines","23","861634","0.0-3.0-0.17","20211006","118","1276","","","","","","","","[269.5099]","[269.5099]","[""u"",""i""]","[""""]","null","true","in","u","YES","","1","in","","","","269.5099","learning","12.01","","","","","","","","","","","","","","","","","","","","","","","",""
"","learn_trial","categorize-lines","24","867990","0.0-3.0-0.18","20211006","118","2318","","","","","","","","[185.4662]","[185.4662]","[""u"",""i""]","[""""]","null","true","out","u","YES","","0","out","","","","185.4662","learning","4.35","","","","","","","","","","","","","","","","","","","","","","","",""
"","learn_trial","categorize-lines","25","871648","0.0-3.0-0.19","20211006","118","1620","","","","","","","","[169.8728]","[169.8728]","[""u"",""i""]","[""""]","null","true","out","i","NO","","1","out","","","","169.8728","learning","2.55","","","","","","","","","","","","","","","","","","","","","","","",""
"","learn_trial","categorize-lines","26","877522","0.0-3.0-0.20","20211006","118","1832","","","","","","","","[292.6743]","[292.6743]","[""u"",""i""]","[""""]","null","true","out","u","YES","","0","out","","","","292.6743","learning","13.7","","","","","","","","","","","","","","","","","","","","","","","",""
"","learn_trial","categorize-lines","27","880792","0.0-3.0-0.21","20211006","118","1232","","","","","","","","[245.4095]","[245.4095]","[""u"",""i""]","[""""]","null","true","in","u","YES","","1","in","","","","245.4095","learning","10.09","","","","","","","","","","","","","","","","","","","","","","","",""
"","learn_trial","categorize-lines","28","886816","0.0-3.0-0.22","20211006","118","1988","","","","","","","","[240.0801]","[240.0801]","[""u"",""i""]","[""""]","null","true","out","u","YES","","0","out","","","","240.0801","learning","9.64","","","","","","","","","","","","","","","","","","","","","","","",""
"","learn_trial","categorize-lines","29","889864","0.0-3.0-0.23","20211006","118","1016","","","","","","","","[193.6971]","[193.6971]","[""u"",""i""]","[""""]","null","true","in","u","YES","","1","in","","","","193.6971","learning","5.24","","","","","","","","","","","","","","","","","","","","","","","",""
"","learn_trial","categorize-lines","30","892662","0.0-3.0-0.24","20211006","118","762","","","","","","","","[440.9352]","[440.9352]","[""u"",""i""]","[""""]","null","true","out","i","NO","","1","out","","","","440.9352","learning","22.1","","","","","","","","","","","","","","","","","","","","","","","",""
"","learn_trial","categorize-lines","31","895866","0.0-3.0-0.25","20211006","118","1164","","","","","","","","[234.2942]","[234.2942]","[""u"",""i""]","[""""]","null","true","in","u","YES","","1","in","","","","234.2942","learning","9.14","","","","","","","","","","","","","","","","","","","","","","","",""
"","learn_trial","categorize-lines","32","898718","0.0-3.0-0.26","20211006","118","822","","","","","","","","[214.9099]","[214.9099]","[""u"",""i""]","[""""]","null","true","out","i","NO","","1","out","","","","214.9099","learning","7.37","","","","","","","","","","","","","","","","","","","","","","","",""
"","learn_trial","categorize-lines","33","904250","0.0-3.0-0.27","20211006","118","1496","","","","","","","","[233.8373]","[233.8373]","[""u"",""i""]","[""""]","null","true","in","i","NO","","0","in","","","","233.8373","learning","9.1","","","","","","","","","","","","","","","","","","","","","","","",""
"","learn_trial","categorize-lines","34","910270","0.0-3.0-0.28","20211006","118","1986","","","","","","","","[170.5372]","[170.5372]","[""u"",""i""]","[""""]","null","true","in","i","NO","","0","in","","","","170.5372","learning","2.63","","","","","","","","","","","","","","","","","","","","","","","",""
"","learn_trial","categorize-lines","35","915254","0.0-3.0-0.29","20211006","118","948","","","","","","","","[274.6873]","[274.6873]","[""u"",""i""]","[""""]","null","true","out","u","YES","","0","out","","","","274.6873","learning","12.4","","","","","","","","","","","","","","","","","","","","","","","",""
"","learn_trial","categorize-lines","36","918146","0.0-3.0-0.30","20211006","118","856","","","","","","","","[183.2177]","[183.2177]","[""u"",""i""]","[""""]","null","true","out","i","NO","","1","out","","","","183.2177","learning","4.1","","","","","","","","","","","","","","","","","","","","","","","",""
"","learn_trial","categorize-lines","37","923222","0.0-3.0-0.31","20211006","118","1042","","","","","","","","[315.3583]","[315.3583]","[""u"",""i""]","[""""]","null","true","out","u","YES","","0","out","","","","315.3583","learning","15.23","","","","","","","","","","","","","","","","","","","","","","","",""
"","learn_trial","categorize-lines","38","928122","0.0-3.0-0.32","20211006","118","860","","","","","","","","[268.0673]","[268.0673]","[""u"",""i""]","[""""]","null","true","out","u","YES","","0","out","","","","268.0673","learning","11.9","","","","","","","","","","","","","","","","","","","","","","","",""
"","learn_trial","categorize-lines","39","932670","0.0-3.0-0.33","20211006","118","2512","","","","","","","","[204.9759]","[204.9759]","[""u"",""i""]","[""""]","null","true","in","u","YES","","1","in","","","","204.9759","learning","6.4","","","","","","","","","","","","","","","","","","","","","","","",""
"","learn_trial","categorize-lines","40","937480","0.0-3.0-0.34","20211006","118","2772","","","","","","","","[275.2239]","[275.2239]","[""u"",""i""]","[""""]","null","true","in","u","YES","","1","in","","","","275.2239","learning","12.44","","","","","","","","","","","","","","","","","","","","","","","",""
"","learn_trial","categorize-lines","41","942458","0.0-3.0-0.35","20211006","118","924","","","","","","","","[258.8139]","[258.8139]","[""u"",""i""]","[""""]","null","true","in","i","NO","","0","in","","","","258.8139","learning","11.18","","","","","","","","","","","","","","","","","","","","","","","",""
"","learn_trial","categorize-lines","42","946010","0.0-3.0-0.36","20211006","118","1516","","","","","","","","[157.5]","[157.5]","[""u"",""i""]","[""""]","null","true","out","i","NO","","1","out","","","","157.5","learning","1","","","","","","","","","","","","","","","","","","","","","","","",""
"","learn_trial","categorize-lines","43","949422","0.0-3.0-0.37","20211006","118","1376","","","","","","","","[328.3911]","[328.3911]","[""u"",""i""]","[""""]","null","true","out","i","NO","","1","out","","","","328.3911","learning","16.06","","","","","","","","","","","","","","","","","","","","","","","",""
"","learn_trial","categorize-lines","44","952148","0.0-3.0-0.38","20211006","118","702","","","","","","","","[232.019]","[232.019]","[""u"",""i""]","[""""]","null","true","in","u","YES","","1","in","","","","232.019","learning","8.94","","","","","","","","","","","","","","","","","","","","","","","",""
"","learn_trial","categorize-lines","45","956960","0.0-3.0-0.39","20211006","118","776","","","","","","","","[262.5019]","[262.5019]","[""u"",""i""]","[""""]","null","true","in","i","NO","","0","in","","","","262.5019","learning","11.47","","","","","","","","","","","","","","","","","","","","","","","",""
"","learn_trial","categorize-lines","46","963046","0.0-3.0-0.40","20211006","118","2050","","","","","","","","[280.511]","[280.511]","[""u"",""i""]","[""""]","null","true","in","i","NO","","0","in","","","","280.511","learning","12.83","","","","","","","","","","","","","","","","","","","","","","","",""
"","learn_trial","categorize-lines","47","965686","0.0-3.0-0.41","20211006","118","608","","","","","","","","[242.9078]","[242.9078]","[""u"",""i""]","[""""]","null","true","in","u","YES","","1","in","","","","242.9078","learning","9.88","","","","","","","","","","","","","","","","","","","","","","","",""
"","learn_trial","categorize-lines","48","968408","0.0-3.0-0.42","20211006","118","688","","","","","","","","[316.5916]","[316.5916]","[""u"",""i""]","[""""]","null","true","out","i","NO","","1","out","","","","316.5916","learning","15.31","","","","","","","","","","","","","","","","","","","","","","","",""
"","learn_trial","categorize-lines","49","973424","0.0-3.0-0.43","20211006","118","982","","","","","","","","[303.4343]","[303.4343]","[""u"",""i""]","[""""]","null","true","in","i","NO","","0","in","","","","303.4343","learning","14.44","","","","","","","","","","","","","","","","","","","","","","","",""
"","learn_trial","categorize-lines","50","976478","0.0-3.0-0.44","20211006","118","1022","","","","","","","","[304.621]","[304.621]","[""u"",""i""]","[""""]","null","true","out","i","NO","","1","out","","","","304.621","learning","14.52","","","","","","","","","","","","","","","","","","","","","","","",""
"","learn_trial","categorize-lines","51","981726","0.0-3.0-0.45","20211006","118","1210","","","","","","","","[160.4473]","[160.4473]","[""u"",""i""]","[""""]","null","true","out","u","YES","","0","out","","","","160.4473","learning","1.38","","","","","","","","","","","","","","","","","","","","","","","",""
"","learn_trial","categorize-lines","52","986766","0.0-3.0-0.46","20211006","118","1004","","","","","","","","[282.8474]","[282.8474]","[""u"",""i""]","[""""]","null","true","out","u","YES","","0","out","","","","282.8474","learning","13","","","","","","","","","","","","","","","","","","","","","","","",""
"","learn_trial","categorize-lines","53","989704","0.0-3.0-0.47","20211006","118","904","","","","","","","","[212.3044]","[212.3044]","[""u"",""i""]","[""""]","null","true","in","u","YES","","1","in","","","","212.3044","learning","7.12","","","","","","","","","","","","","","","","","","","","","","","",""
"","learn_trial","categorize-lines","54","995190","0.0-3.0-0.48","20211006","118","1454","","","","","","","","[297.2797]","[297.2797]","[""u"",""i""]","[""""]","null","true","in","i","NO","","0","in","","","","297.2797","learning","14.02","","","","","","","","","","","","","","","","","","","","","","","",""
"","learn_trial","categorize-lines","55","997968","0.0-3.0-0.49","20211006","118","740","","","","","","","","[367.7482]","[367.7482]","[""u"",""i""]","[""""]","null","true","out","i","NO","","1","out","","","","367.7482","learning","18.38","","","","","","","","","","","","","","","","","","","","","","","",""
"","learn_trial","categorize-lines","56","1002696","0.0-3.0-0.50","20211006","118","694","","","","","","","","[282.5715]","[282.5715]","[""u"",""i""]","[""""]","null","true","out","u","YES","","0","out","","","","282.5715","learning","12.98","","","","","","","","","","","","","","","","","","","","","","","",""
"","learn_trial","categorize-lines","57","1007506","0.0-3.0-0.51","20211006","118","772","","","","","","","","[372.443]","[372.443]","[""u"",""i""]","[""""]","null","true","in","i","NO","","0","in","","","","372.443","learning","18.64","","","","","","","","","","","","","","","","","","","","","","","",""
"","learn_trial","categorize-lines","58","1012980","0.0-3.0-0.52","20211006","118","1436","","","","","","","","[211.2711]","[211.2711]","[""u"",""i""]","[""""]","null","true","out","u","YES","","0","out","","","","211.2711","learning","7.02","","","","","","","","","","","","","","","","","","","","","","","",""
"","learn_trial","categorize-lines","59","1018004","0.0-3.0-0.53","20211006","118","996","","","","","","","","[261.0969]","[261.0969]","[""u"",""i""]","[""""]","null","true","out","u","YES","","0","out","","","","261.0969","learning","11.36","","","","","","","","","","","","","","","","","","","","","","","",""
"","learn_trial","categorize-lines","60","1020896","0.0-3.0-0.54","20211006","118","858","","","","","","","","[286.0393]","[286.0393]","[""u"",""i""]","[""""]","null","true","in","u","YES","","1","in","","","","286.0393","learning","13.23","","","","","","","","","","","","","","","","","","","","","","","",""
"","learn_trial","categorize-lines","61","1024854","0.0-3.0-0.55","20211006","118","1922","","","","","","","","[251.8382]","[251.8382]","[""u"",""i""]","[""""]","null","true","in","u","YES","","1","in","","","","251.8382","learning","10.62","","","","","","","","","","","","","","","","","","","","","","","",""
"","learn_trial","categorize-lines","62","1028136","0.0-3.0-0.56","20211006","118","1246","","","","","","","","[272.5513]","[272.5513]","[""u"",""i""]","[""""]","null","true","out","i","NO","","1","out","","","","272.5513","learning","12.24","","","","","","","","","","","","","","","","","","","","","","","",""
"","learn_trial","categorize-lines","63","1032888","0.0-3.0-0.57","20211006","118","2712","","","","","","","","[179.6767]","[179.6767]","[""u"",""i""]","[""""]","null","true","out","i","NO","","1","out","","","","179.6767","learning","3.7","","","","","","","","","","","","","","","","","","","","","","","",""
"","learn_trial","categorize-lines","64","1036358","0.0-3.0-0.58","20211006","118","1434","","","","","","","","[425.0919]","[425.0919]","[""u"",""i""]","[""""]","null","true","out","i","NO","","1","out","","","","425.0919","learning","21.35","","","","","","","","","","","","","","","","","","","","","","","",""
"","learn_trial","categorize-lines","65","1041048","0.0-3.0-0.59","20211006","118","2656","","","","","","","","[314.8971]","[314.8971]","[""u"",""i""]","[""""]","null","true","in","u","YES","","1","in","","","","314.8971","learning","15.2","","","","","","","","","","","","","","","","","","","","","","","",""
"","learn_trial","categorize-lines","66","1046866","0.0-3.0-0.60","20211006","118","1774","","","","","","","","[391.0651]","[391.0651]","[""u"",""i""]","[""""]","null","true","out","u","YES","","0","out","","","","391.0651","learning","19.64","","","","","","","","","","","","","","","","","","","","","","","",""
"","learn_trial","categorize-lines","67","1051518","0.0-3.0-0.61","20211006","118","618","","","","","","","","[274.8213]","[274.8213]","[""u"",""i""]","[""""]","null","true","out","u","YES","","0","out","","","","274.8213","learning","12.41","","","","","","","","","","","","","","","","","","","","","","","",""
"","learn_trial","categorize-lines","68","1056842","0.0-3.0-0.62","20211006","118","1282","","","","","","","","[170.787]","[170.787]","[""u"",""i""]","[""""]","null","true","out","u","YES","","0","out","","","","170.787","learning","2.66","","","","","","","","","","","","","","","","","","","","","","","",""
"","learn_trial","categorize-lines","69","1059906","0.0-3.0-0.63","20211006","118","1026","","","","","","","","[228.6477]","[228.6477]","[""u"",""i""]","[""""]","null","true","in","u","YES","","1","in","","","","228.6477","learning","8.64","","","","","","","","","","","","","","","","","","","","","","","",""
"","learn_trial","categorize-lines","70","1063934","0.0-3.0-0.64","20211006","118","1996","","","","","","","","[259.5727]","[259.5727]","[""u"",""i""]","[""""]","null","true","in","u","YES","","1","in","","","","259.5727","learning","11.24","","","","","","","","","","","","","","","","","","","","","","","",""
"","learn_trial","categorize-lines","71","1067192","0.0-3.0-0.65","20211006","118","1218","","","","","","","","[204.8759]","[204.8759]","[""u"",""i""]","[""""]","null","true","out","i","NO","","1","out","","","","204.8759","learning","6.39","","","","","","","","","","","","","","","","","","","","","","","",""
"","learn_trial","categorize-lines","72","1070882","0.0-3.0-0.66","20211006","118","1646","","","","","","","","[235.555]","[235.555]","[""u"",""i""]","[""""]","null","true","in","u","YES","","1","in","","","","235.555","learning","9.25","","","","","","","","","","","","","","","","","","","","","","","",""
"","learn_trial","categorize-lines","73","1074216","0.0-3.0-0.67","20211006","118","1296","","","","","","","","[242.5526]","[242.5526]","[""u"",""i""]","[""""]","null","true","in","u","YES","","1","in","","","","242.5526","learning","9.85","","","","","","","","","","","","","","","","","","","","","","","",""
"","learn_trial","categorize-lines","74","1077304","0.0-3.0-0.68","20211006","118","1052","","","","","","","","[242.9078]","[242.9078]","[""u"",""i""]","[""""]","null","true","in","u","YES","","1","in","","","","242.9078","learning","9.88","","","","","","","","","","","","","","","","","","","","","","","",""
"","learn_trial","categorize-lines","75","1082322","0.0-3.0-0.69","20211006","118","980","","","","","","","","[254.3077]","[254.3077]","[""u"",""i""]","[""""]","null","true","in","i","NO","","0","in","","","","254.3077","learning","10.82","","","","","","","","","","","","","","","","","","","","","","","",""
"","learn_trial","categorize-lines","76","1085666","0.0-3.0-0.70","20211006","118","1306","","","","","","","","[241.019]","[241.019]","[""u"",""i""]","[""""]","null","true","in","u","YES","","1","in","","","","241.019","learning","9.72","","","","","","","","","","","","","","","","","","","","","","","",""
"","learn_trial","categorize-lines","77","1088590","0.0-3.0-0.71","20211006","118","894","","","","","","","","[173.1362]","[173.1362]","[""u"",""i""]","[""""]","null","true","out","i","NO","","1","out","","","","173.1362","learning","2.94","","","","","","","","","","","","","","","","","","","","","","","",""
"","learn_trial","categorize-lines","78","1091662","0.0-3.0-0.72","20211006","118","1040","","","","","","","","[155.8185]","[155.8185]","[""u"",""i""]","[""""]","null","true","out","i","NO","","1","out","","","","155.8185","learning","0.78","","","","","","","","","","","","","","","","","","","","","","","",""
"","learn_trial","categorize-lines","79","1094698","0.0-3.0-0.73","20211006","118","998","","","","","","","","[235.0957]","[235.0957]","[""u"",""i""]","[""""]","null","true","in","u","YES","","1","in","","","","235.0957","learning","9.21","","","","","","","","","","","","","","","","","","","","","","","",""
"","learn_trial","categorize-lines","80","1098200","0.0-3.0-0.74","20211006","118","1466","","","","","","","","[352.1211]","[352.1211]","[""u"",""i""]","[""""]","null","true","out","i","NO","","1","out","","","","352.1211","learning","17.49","","","","","","","","","","","","","","","","","","","","","","","",""
"","learn_trial","categorize-lines","81","1101620","0.0-3.0-0.75","20211006","118","1386","","","","","","","","[219.6805]","[219.6805]","[""u"",""i""]","[""""]","null","true","in","u","YES","","1","in","","","","219.6805","learning","7.82","","","","","","","","","","","","","","","","","","","","","","","",""
"","learn_trial","categorize-lines","82","1106728","0.0-3.0-0.76","20211006","118","1072","","","","","","","","[219.6805]","[219.6805]","[""u"",""i""]","[""""]","null","true","in","i","NO","","0","in","","","","219.6805","learning","7.82","","","","","","","","","","","","","","","","","","","","","","","",""
"","learn_trial","categorize-lines","83","1109216","0.0-3.0-0.77","20211006","118","448","","","","","","","","[264.3011]","[264.3011]","[""u"",""i""]","[""""]","null","true","in","u","YES","","1","in","","","","264.3011","learning","11.61","","","","","","","","","","","","","","","","","","","","","","","",""
"","learn_trial","categorize-lines","84","1112160","0.0-3.0-0.78","20211006","118","914","","","","","","","","[260.5878]","[260.5878]","[""u"",""i""]","[""""]","null","true","in","u","YES","","1","in","","","","260.5878","learning","11.32","","","","","","","","","","","","","","","","","","","","","","","",""
"","learn_trial","categorize-lines","85","1115584","0.0-3.0-0.79","20211006","118","1388","","","","","","","","[255.801]","[255.801]","[""u"",""i""]","[""""]","null","true","out","i","NO","","1","out","","","","255.801","learning","10.94","","","","","","","","","","","","","","","","","","","","","","","",""
"","learn_trial","categorize-lines","86","1119846","0.0-3.0-0.80","20211006","118","2228","","","","","","","","[305.9616]","[305.9616]","[""u"",""i""]","[""""]","null","true","in","u","YES","","1","in","","","","305.9616","learning","14.61","","","","","","","","","","","","","","","","","","","","","","","",""
"","learn_trial","categorize-lines","87","1125560","0.0-3.0-0.81","20211006","118","1680","","","","","","","","[213.0308]","[213.0308]","[""u"",""i""]","[""""]","null","true","in","i","NO","","0","in","","","","213.0308","learning","7.19","","","","","","","","","","","","","","","","","","","","","","","",""
"","learn_trial","categorize-lines","88","1128478","0.0-3.0-0.82","20211006","118","882","","","","","","","","[414.0384]","[414.0384]","[""u"",""i""]","[""""]","null","true","out","i","NO","","1","out","","","","414.0384","learning","20.81","","","","","","","","","","","","","","","","","","","","","","","",""
"","learn_trial","categorize-lines","89","1132162","0.0-3.0-0.83","20211006","118","1646","","","","","","","","[380.8964]","[380.8964]","[""u"",""i""]","[""""]","null","true","out","i","NO","","1","out","","","","380.8964","learning","19.1","","","","","","","","","","","","","","","","","","","","","","","",""
"","learn_trial","categorize-lines","90","1135534","0.0-3.0-0.84","20211006","118","1332","","","","","","","","[228.4247]","[228.4247]","[""u"",""i""]","[""""]","null","true","out","i","NO","","1","out","","","","228.4247","learning","8.62","","","","","","","","","","","","","","","","","","","","","","","",""
"","learn_trial","categorize-lines","91","1138674","0.0-3.0-0.85","20211006","118","1102","","","","","","","","[223.5732]","[223.5732]","[""u"",""i""]","[""""]","null","true","in","u","YES","","1","in","","","","223.5732","learning","8.18","","","","","","","","","","","","","","","","","","","","","","","",""
"","learn_trial","categorize-lines","92","1141752","0.0-3.0-0.86","20211006","118","1042","","","","","","","","[260.715]","[260.715]","[""u"",""i""]","[""""]","null","true","in","u","YES","","1","in","","","","260.715","learning","11.33","","","","","","","","","","","","","","","","","","","","","","","",""
"","learn_trial","categorize-lines","93","1147722","0.0-3.0-0.87","20211006","118","1930","","","","","","","","[402.0934]","[402.0934]","[""u"",""i""]","[""""]","null","true","out","u","YES","","0","out","","","","402.0934","learning","20.21","","","","","","","","","","","","","","","","","","","","","","","",""
"","learn_trial","categorize-lines","94","1150654","0.0-3.0-0.88","20211006","118","898","","","","","","","","[205.4765]","[205.4765]","[""u"",""i""]","[""""]","null","true","in","u","YES","","1","in","","","","205.4765","learning","6.45","","","","","","","","","","","","","","","","","","","","","","","",""
"","learn_trial","categorize-lines","95","1153416","0.0-3.0-0.89","20211006","118","730","","","","","","","","[343.8027]","[343.8027]","[""u"",""i""]","[""""]","null","true","out","i","NO","","1","out","","","","343.8027","learning","17","","","","","","","","","","","","","","","","","","","","","","","",""
"","learn_trial","categorize-lines","96","1157314","0.0-3.0-0.90","20211006","118","1860","","","","","","","","[235.4401]","[235.4401]","[""u"",""i""]","[""""]","null","true","in","u","YES","","1","in","","","","235.4401","learning","9.24","","","","","","","","","","","","","","","","","","","","","","","",""
"","learn_trial","categorize-lines","97","1163150","0.0-3.0-0.91","20211006","118","1802","","","","","","","","[286.1789]","[286.1789]","[""u"",""i""]","[""""]","null","true","in","i","NO","","0","in","","","","286.1789","learning","13.24","","","","","","","","","","","","","","","","","","","","","","","",""
"","learn_trial","categorize-lines","98","1166974","0.0-3.0-0.92","20211006","118","1794","","","","","","","","[176.8932]","[176.8932]","[""u"",""i""]","[""""]","null","true","out","i","NO","","1","out","","","","176.8932","learning","3.38","","","","","","","","","","","","","","","","","","","","","","","",""
"","learn_trial","categorize-lines","99","1170254","0.0-3.0-0.93","20211006","118","1248","","","","","","","","[196.2656]","[196.2656]","[""u"",""i""]","[""""]","null","true","in","u","YES","","1","in","","","","196.2656","learning","5.51","","","","","","","","","","","","","","","","","","","","","","","",""
"","learn_trial","categorize-lines","100","1173046","0.0-3.0-0.94","20211006","118","760","","","","","","","","[241.7256]","[241.7256]","[""u"",""i""]","[""""]","null","true","in","u","YES","","1","in","","","","241.7256","learning","9.78","","","","","","","","","","","","","","","","","","","","","","","",""
"","learn_trial","categorize-lines","101","1176688","0.0-3.0-0.95","20211006","118","1604","","","","","","","","[327.7509]","[327.7509]","[""u"",""i""]","[""""]","null","true","in","u","YES","","1","in","","","","327.7509","learning","16.02","","","","","","","","","","","","","","","","","","","","","","","",""
"","learn_trial","categorize-lines","102","1179432","0.0-3.0-0.96","20211006","118","718","","","","","","","","[281.4707]","[281.4707]","[""u"",""i""]","[""""]","null","true","in","u","YES","","1","in","","","","281.4707","learning","12.9","","","","","","","","","","","","","","","","","","","","","","","",""
"","learn_trial","categorize-lines","103","1182978","0.0-3.0-0.97","20211006","118","1510","","","","","","","","[248.5424]","[248.5424]","[""u"",""i""]","[""""]","null","true","in","u","YES","","1","in","","","","248.5424","learning","10.35","","","","","","","","","","","","","","","","","","","","","","","",""
"","learn_trial","categorize-lines","104","1187776","0.0-3.0-0.98","20211006","118","764","","","","","","","","[172.2094]","[172.2094]","[""u"",""i""]","[""""]","null","true","out","u","YES","","0","out","","","","172.2094","learning","2.83","","","","","","","","","","","","","","","","","","","","","","","",""
"","learn_trial","categorize-lines","105","1192954","0.0-3.0-0.99","20211006","118","1136","","","","","","","","[294.3929]","[294.3929]","[""u"",""i""]","[""""]","null","true","in","i","NO","","0","in","","","","294.3929","learning","13.82","","","","","","","","","","","","","","","","","","","","","","","",""
"","learn_trial","categorize-lines","106","1195778","0.0-3.0-0.100","20211006","118","786","","","","","","","","[237.6328]","[237.6328]","[""u"",""i""]","[""""]","null","true","in","u","YES","","1","in","","","","237.6328","learning","9.43","","","","","","","","","","","","","","","","","","","","","","","",""
"","learn_trial","categorize-lines","107","1198858","0.0-3.0-0.101","20211006","118","1038","","","","","","","","[287.8593]","[287.8593]","[""u"",""i""]","[""""]","null","true","in","u","YES","","1","in","","","","287.8593","learning","13.36","","","","","","","","","","","","","","","","","","","","","","","",""
"","learn_trial","categorize-lines","108","1201706","0.0-3.0-0.102","20211006","118","806","","","","","","","","[319.0728]","[319.0728]","[""u"",""i""]","[""""]","null","true","in","u","YES","","1","in","","","","319.0728","learning","15.47","","","","","","","","","","","","","","","","","","","","","","","",""
"","learn_trial","categorize-lines","109","1206538","0.0-3.0-0.103","20211006","118","792","","","","","","","","[223.4641]","[223.4641]","[""u"",""i""]","[""""]","null","true","out","u","YES","","0","out","","","","223.4641","learning","8.17","","","","","","","","","","","","","","","","","","","","","","","",""
"","learn_trial","categorize-lines","110","1209726","0.0-3.0-0.104","20211006","118","1158","","","","","","","","[356.0948]","[356.0948]","[""u"",""i""]","[""""]","null","true","in","u","YES","","1","in","","","","356.0948","learning","17.72","","","","","","","","","","","","","","","","","","","","","","","",""
"","learn_trial","categorize-lines","111","1212288","0.0-3.0-0.105","20211006","118","528","","","","","","","","[308.8111]","[308.8111]","[""u"",""i""]","[""""]","null","true","in","u","YES","","1","in","","","","308.8111","learning","14.8","","","","","","","","","","","","","","","","","","","","","","","",""
"","learn_trial","categorize-lines","112","1216406","0.0-3.0-0.106","20211006","118","2080","","","","","","","","[289.5496]","[289.5496]","[""u"",""i""]","[""""]","null","true","in","u","YES","","1","in","","","","289.5496","learning","13.48","","","","","","","","","","","","","","","","","","","","","","","",""
"","learn_trial","categorize-lines","113","1221474","0.0-3.0-0.107","20211006","118","1024","","","","","","","","[389.5417]","[389.5417]","[""u"",""i""]","[""""]","null","true","in","i","NO","","0","in","","","","389.5417","learning","19.56","","","","","","","","","","","","","","","","","","","","","","","",""
"","learn_trial","categorize-lines","114","1224136","0.0-3.0-0.108","20211006","118","624","","","","","","","","[278.7375]","[278.7375]","[""u"",""i""]","[""""]","null","true","in","u","YES","","1","in","","","","278.7375","learning","12.7","","","","","","","","","","","","","","","","","","","","","","","",""
"","learn_trial","categorize-lines","115","1229170","0.0-3.0-0.109","20211006","118","3000","","","","","","","","[261.6069]","[261.6069]","[""u"",""i""]","[""""]","null","true","in","u","YES","","1","in","","","","261.6069","learning","11.4","","","","","","","","","","","","","","","","","","","","","","","",""
"","learn_trial","categorize-lines","116","1232032","0.0-3.0-0.110","20211006","118","824","","","","","","","","[304.3239]","[304.3239]","[""u"",""i""]","[""""]","null","true","in","u","YES","","1","in","","","","304.3239","learning","14.5","","","","","","","","","","","","","","","","","","","","","","","",""
"","learn_trial","categorize-lines","117","1234696","0.0-3.0-0.111","20211006","118","624","","","","","","","","[268.8532]","[268.8532]","[""u"",""i""]","[""""]","null","true","in","u","YES","","1","in","","","","268.8532","learning","11.96","","","","","","","","","","","","","","","","","","","","","","","",""
"","learn_trial","categorize-lines","118","1237578","0.0-3.0-0.112","20211006","118","844","","","","","","","","[157.3464]","[157.3464]","[""u"",""i""]","[""""]","null","true","out","i","NO","","1","out","","","","157.3464","learning","0.98","","","","","","","","","","","","","","","","","","","","","","","",""
"","learn_trial","categorize-lines","119","1240592","0.0-3.0-0.113","20211006","118","976","","","","","","","","[179.0641]","[179.0641]","[""u"",""i""]","[""""]","null","true","in","u","YES","","1","in","","","","179.0641","learning","3.63","","","","","","","","","","","","","","","","","","","","","","","",""
"","learn_trial","categorize-lines","120","1246654","0.0-3.0-0.114","20211006","118","2026","","","","","","","","[189.1213]","[189.1213]","[""u"",""i""]","[""""]","null","true","out","u","YES","","0","out","","","","189.1213","learning","4.75","","","","","","","","","","","","","","","","","","","","","","","",""
"","learn_trial","categorize-lines","121","1251430","0.0-3.0-0.115","20211006","118","748","","","","","","","","[188.2927]","[188.2927]","[""u"",""i""]","[""""]","null","true","out","u","YES","","0","out","","","","188.2927","learning","4.66","","","","","","","","","","","","","","","","","","","","","","","",""
"","learn_trial","categorize-lines","122","1254544","0.0-3.0-0.116","20211006","118","1076","","","","","","","","[346.6662]","[346.6662]","[""u"",""i""]","[""""]","null","true","in","u","YES","","1","in","","","","346.6662","learning","17.17","","","","","","","","","","","","","","","","","","","","","","","",""
"","learn_trial","categorize-lines","123","1257166","0.0-3.0-0.117","20211006","118","588","","","","","","","","[158.6569]","[158.6569]","[""u"",""i""]","[""""]","null","true","out","i","NO","","1","out","","","","158.6569","learning","1.15","","","","","","","","","","","","","","","","","","","","","","","",""
"","learn_trial","categorize-lines","124","1259798","0.0-3.0-0.118","20211006","118","604","","","","","","","","[356.0948]","[356.0948]","[""u"",""i""]","[""""]","null","true","in","u","YES","","1","in","","","","356.0948","learning","17.72","","","","","","","","","","","","","","","","","","","","","","","",""
"","learn_trial","categorize-lines","125","1266422","0.0-3.0-0.119","20211006","118","2592","","","","","","","","[197.4181]","[197.4181]","[""u"",""i""]","[""""]","null","true","in","i","NO","","0","in","","","","197.4181","learning","5.63","","","","","","","","","","","","","","","","","","","","","","","",""
"","learn_trial","categorize-lines","126","1269248","0.0-3.0-0.120","20211006","118","796","","","","","","","","[381.2683]","[381.2683]","[""u"",""i""]","[""""]","null","true","out","i","NO","","1","out","","","","381.2683","learning","19.12","","","","","","","","","","","","","","","","","","","","","","","",""
"","learn_trial","categorize-lines","127","1271942","0.0-3.0-0.121","20211006","118","660","","","","","","","","[278.0583]","[278.0583]","[""u"",""i""]","[""""]","null","true","in","u","YES","","1","in","","","","278.0583","learning","12.65","","","","","","","","","","","","","","","","","","","","","","","",""
"","learn_trial","categorize-lines","128","1277354","0.0-3.0-0.122","20211006","118","1374","","","","","","","","[217.0172]","[217.0172]","[""u"",""i""]","[""""]","null","true","out","u","YES","","0","out","","","","217.0172","learning","7.57","","","","","","","","","","","","","","","","","","","","","","","",""
"","learn_trial","categorize-lines","129","1282024","0.0-3.0-0.123","20211006","118","636","","","","","","","","[196.3614]","[196.3614]","[""u"",""i""]","[""""]","null","true","in","i","NO","","0","in","","","","196.3614","learning","5.52","","","","","","","","","","","","","","","","","","","","","","","",""
"","learn_trial","categorize-lines","130","1284910","0.0-3.0-0.124","20211006","118","852","","","","","","","","[160.7608]","[160.7608]","[""u"",""i""]","[""""]","null","true","out","i","NO","","1","out","","","","160.7608","learning","1.42","","","","","","","","","","","","","","","","","","","","","","","",""
"","learn_trial","categorize-lines","131","1287536","0.0-3.0-0.125","20211006","118","596","","","","","","","","[215.1197]","[215.1197]","[""u"",""i""]","[""""]","null","true","in","u","YES","","1","in","","","","215.1197","learning","7.39","","","","","","","","","","","","","","","","","","","","","","","",""
"","learn_trial","categorize-lines","132","1290120","0.0-3.0-0.126","20211006","118","550","","","","","","","","[286.8779]","[286.8779]","[""u"",""i""]","[""""]","null","true","in","u","YES","","1","in","","","","286.8779","learning","13.29","","","","","","","","","","","","","","","","","","","","","","","",""
"","learn_trial","categorize-lines","133","1292616","0.0-3.0-0.127","20211006","118","460","","","","","","","","[246.0089]","[246.0089]","[""u"",""i""]","[""""]","null","true","in","u","YES","","1","in","","","","246.0089","learning","10.14","","","","","","","","","","","","","","","","","","","","","","","",""
"","learn_trial","categorize-lines","134","1297174","0.0-3.0-0.128","20211006","118","524","","","","","","","","[302.3998]","[302.3998]","[""u"",""i""]","[""""]","null","true","out","u","YES","","0","out","","","","302.3998","learning","14.37","","","","","","","","","","","","","","","","","","","","","","","",""
"","learn_trial","categorize-lines","135","1299830","0.0-3.0-0.129","20211006","118","616","","","","","","","","[271.7546]","[271.7546]","[""u"",""i""]","[""""]","null","true","in","u","YES","","1","in","","","","271.7546","learning","12.18","","","","","","","","","","","","","","","","","","","","","","","",""
"","learn_trial","categorize-lines","136","1304504","0.0-3.0-0.130","20211006","118","638","","","","","","","","[226.3169]","[226.3169]","[""u"",""i""]","[""""]","null","true","out","u","YES","","0","out","","","","226.3169","learning","8.43","","","","","","","","","","","","","","","","","","","","","","","",""
"","learn_trial","categorize-lines","137","1307106","0.0-3.0-0.131","20211006","118","570","","","","","","","","[269.773]","[269.773]","[""u"",""i""]","[""""]","null","true","in","u","YES","","1","in","","","","269.773","learning","12.03","","","","","","","","","","","","","","","","","","","","","","","",""
"","learn_trial","categorize-lines","138","1313680","0.0-3.0-0.132","20211006","118","2538","","","","","","","","[383.8815]","[383.8815]","[""u"",""i""]","[""""]","null","true","out","u","YES","","0","out","","","","383.8815","learning","19.26","","","","","","","","","","","","","","","","","","","","","","","",""
"","learn_trial","categorize-lines","139","1316130","0.0-3.0-0.133","20211006","118","420","","","","","","","","[224.886]","[224.886]","[""u"",""i""]","[""""]","null","true","in","u","YES","","1","in","","","","224.886","learning","8.3","","","","","","","","","","","","","","","","","","","","","","","",""
"","learn_trial","categorize-lines","140","1320840","0.0-3.0-0.134","20211006","118","676","","","","","","","","[300.928]","[300.928]","[""u"",""i""]","[""""]","null","true","out","u","YES","","0","out","","","","300.928","learning","14.27","","","","","","","","","","","","","","","","","","","","","","","",""
"","learn_trial","categorize-lines","141","1325760","0.0-3.0-0.135","20211006","118","884","","","","","","","","[214.2817]","[214.2817]","[""u"",""i""]","[""""]","null","true","out","u","YES","","0","out","","","","214.2817","learning","7.31","","","","","","","","","","","","","","","","","","","","","","","",""
"","learn_trial","categorize-lines","142","1328566","0.0-3.0-0.136","20211006","118","772","","","","","","","","[431.9916]","[431.9916]","[""u"",""i""]","[""""]","null","true","out","i","NO","","1","out","","","","431.9916","learning","21.68","","","","","","","","","","","","","","","","","","","","","","","",""
"","learn_trial","categorize-lines","143","1331534","0.0-3.0-0.137","20211006","118","932","","","","","","","","[177.9319]","[177.9319]","[""u"",""i""]","[""""]","null","true","out","i","NO","","1","out","","","","177.9319","learning","3.5","","","","","","","","","","","","","","","","","","","","","","","",""
"","learn_trial","categorize-lines","144","1339462","0.0-3.0-0.138","20211006","118","5892","","","","","","","","[315.0507]","[315.0507]","[""u"",""i""]","[""""]","null","true","in","u","YES","","1","in","","","","315.0507","learning","15.21","","","","","","","","","","","","","","","","","","","","","","","",""
"","learn_trial","categorize-lines","145","1346616","0.0-3.0-0.139","20211006","118","3114","","","","","","","","[302.2523]","[302.2523]","[""u"",""i""]","[""""]","null","true","out","u","YES","","0","out","","","","302.2523","learning","14.36","","","","","","","","","","","","","","","","","","","","","","","",""
"","learn_trial","categorize-lines","146","1352602","0.0-3.0-0.140","20211006","118","1952","","","","","","","","[370.2688]","[370.2688]","[""u"",""i""]","[""""]","null","true","out","u","YES","","0","out","","","","370.2688","learning","18.52","","","","","","","","","","","","","","","","","","","","","","","",""
"","learn_trial","categorize-lines","147","1355278","0.0-3.0-0.141","20211006","118","644","","","","","","","","[217.0172]","[217.0172]","[""u"",""i""]","[""""]","null","true","out","i","NO","","1","out","","","","217.0172","learning","7.57","","","","","","","","","","","","","","","","","","","","","","","",""
"","learn_trial","categorize-lines","148","1362804","0.0-3.0-0.142","20211006","118","3488","","","","","","","","[433.4695]","[433.4695]","[""u"",""i""]","[""""]","null","true","out","u","YES","","0","out","","","","433.4695","learning","21.75","","","","","","","","","","","","","","","","","","","","","","","",""
"","learn_trial","categorize-lines","149","1366714","0.0-3.0-0.143","20211006","118","1866","","","","","","","","[426.7543]","[426.7543]","[""u"",""i""]","[""""]","null","true","out","i","NO","","1","out","","","","426.7543","learning","21.43","","","","","","","","","","","","","","","","","","","","","","","",""
"","learn_trial","categorize-lines","150","1369962","0.0-3.0-0.144","20211006","118","1210","","","","","","","","[378.8576]","[378.8576]","[""u"",""i""]","[""""]","null","true","out","i","NO","","1","out","","","","378.8576","learning","18.99","","","","","","","","","","","","","","","","","","","","","","","",""
"","learn_trial","categorize-lines","151","1375240","0.0-3.0-0.145","20211006","118","1240","","","","","","","","[189.3983]","[189.3983]","[""u"",""i""]","[""""]","null","true","in","i","NO","","0","in","","","","189.3983","learning","4.78","","","","","","","","","","","","","","","","","","","","","","","",""
"","learn_trial","categorize-lines","152","1380322","0.0-3.0-0.146","20211006","118","1050","","","","","","","","[302.5474]","[302.5474]","[""u"",""i""]","[""""]","null","true","in","i","NO","","0","in","","","","302.5474","learning","14.38","","","","","","","","","","","","","","","","","","","","","","","",""
"","learn_trial","categorize-lines","153","1383016","0.0-3.0-0.147","20211006","118","652","","","","","","","","[292.2463]","[292.2463]","[""u"",""i""]","[""""]","null","true","in","u","YES","","1","in","","","","292.2463","learning","13.67","","","","","","","","","","","","","","","","","","","","","","","",""
"","learn_trial","categorize-lines","154","1387492","0.0-3.0-0.148","20211006","118","438","","","","","","","","[238.6785]","[238.6785]","[""u"",""i""]","[""""]","null","true","out","u","YES","","0","out","","","","238.6785","learning","9.52","","","","","","","","","","","","","","","","","","","","","","","",""
"","learn_trial","categorize-lines","155","1390318","0.0-3.0-0.149","20211006","118","792","","","","","","","","[150.8808]","[150.8808]","[""u"",""i""]","[""""]","null","true","out","i","NO","","1","out","","","","150.8808","learning","0.12","","","","","","","","","","","","","","","","","","","","","","","",""
"","learn_trial","categorize-lines","156","1395206","0.0-3.0-0.150","20211006","118","852","","","","","","","","[204.3767]","[204.3767]","[""u"",""i""]","[""""]","null","true","out","u","YES","","0","out","","","","204.3767","learning","6.34","","","","","","","","","","","","","","","","","","","","","","","",""
"","learn_trial","categorize-lines","157","1398718","0.0-3.0-0.151","20211006","118","1480","","","","","","","","[259.5727]","[259.5727]","[""u"",""i""]","[""""]","null","true","in","u","YES","","1","in","","","","259.5727","learning","11.24","","","","","","","","","","","","","","","","","","","","","","","",""
"","learn_trial","categorize-lines","158","1403472","0.0-3.0-0.152","20211006","118","718","","","","","","","","[338.8071]","[338.8071]","[""u"",""i""]","[""""]","null","true","out","u","YES","","0","out","","","","338.8071","learning","16.7","","","","","","","","","","","","","","","","","","","","","","","",""
"","learn_trial","categorize-lines","159","1406238","0.0-3.0-0.153","20211006","118","734","","","","","","","","[319.8521]","[319.8521]","[""u"",""i""]","[""""]","null","true","in","u","YES","","1","in","","","","319.8521","learning","15.52","","","","","","","","","","","","","","","","","","","","","","","",""
"","learn_trial","categorize-lines","160","1412206","0.0-3.0-0.154","20211006","118","3928","","","","","","","","[441.7966]","[441.7966]","[""u"",""i""]","[""""]","null","true","out","i","NO","","1","out","","","","441.7966","learning","22.14","","","","","","","","","","","","","","","","","","","","","","","",""
"","learn_trial","categorize-lines","161","1415206","0.0-3.0-0.155","20211006","118","964","","","","","","","","[199.354]","[199.354]","[""u"",""i""]","[""""]","null","true","out","i","NO","","1","out","","","","199.354","learning","5.83","","","","","","","","","","","","","","","","","","","","","","","",""
"","learn_trial","categorize-lines","162","1420264","0.0-3.0-0.156","20211006","118","1024","","","","","","","","[284.5082]","[284.5082]","[""u"",""i""]","[""""]","null","true","out","u","YES","","0","out","","","","284.5082","learning","13.12","","","","","","","","","","","","","","","","","","","","","","","",""
"","learn_trial","categorize-lines","163","1425778","0.0-3.0-0.157","20211006","118","1472","","","","","","","","[235.3252]","[235.3252]","[""u"",""i""]","[""""]","null","true","out","u","YES","","0","out","","","","235.3252","learning","9.23","","","","","","","","","","","","","","","","","","","","","","","",""
"","learn_trial","categorize-lines","164","1429934","0.0-3.0-0.158","20211006","118","2120","","","","","","","","[186.2824]","[186.2824]","[""u"",""i""]","[""""]","null","true","in","u","YES","","1","in","","","","186.2824","learning","4.44","","","","","","","","","","","","","","","","","","","","","","","",""
"","learn_trial","categorize-lines","165","1432850","0.0-3.0-0.159","20211006","118","876","","","","","","","","[198.8682]","[198.8682]","[""u"",""i""]","[""""]","null","true","in","u","YES","","1","in","","","","198.8682","learning","5.78","","","","","","","","","","","","","","","","","","","","","","","",""
"","learn_trial","categorize-lines","166","1437636","0.0-3.0-0.160","20211006","118","756","","","","","","","","[189.4907]","[189.4907]","[""u"",""i""]","[""""]","null","true","out","u","YES","","0","out","","","","189.4907","learning","4.79","","","","","","","","","","","","","","","","","","","","","","","",""
"","learn_trial","categorize-lines","167","1440728","0.0-3.0-0.161","20211006","118","1054","","","","","","","","[258.5615]","[258.5615]","[""u"",""i""]","[""""]","null","true","in","u","YES","","1","in","","","","258.5615","learning","11.16","","","","","","","","","","","","","","","","","","","","","","","",""
"","learn_trial","categorize-lines","168","1445500","0.0-3.0-0.162","20211006","118","728","","","","","","","","[228.0906]","[228.0906]","[""u"",""i""]","[""""]","null","true","out","u","YES","","0","out","","","","228.0906","learning","8.59","","","","","","","","","","","","","","","","","","","","","","","",""
"","learn_trial","categorize-lines","169","1451414","0.0-3.0-0.163","20211006","118","1880","","","","","","","","[186.3733]","[186.3733]","[""u"",""i""]","[""""]","null","true","out","u","YES","","0","out","","","","186.3733","learning","4.45","","","","","","","","","","","","","","","","","","","","","","","",""
"","learn_trial","categorize-lines","170","1457090","0.0-3.0-0.164","20211006","118","3636","","","","","","","","[427.3794]","[427.3794]","[""u"",""i""]","[""""]","null","true","out","i","NO","","1","out","","","","427.3794","learning","21.46","","","","","","","","","","","","","","","","","","","","","","","",""
"","learn_trial","categorize-lines","171","1463934","0.0-3.0-0.165","20211006","118","2812","","","","","","","","[244.931]","[244.931]","[""u"",""i""]","[""""]","null","true","out","u","YES","","0","out","","","","244.931","learning","10.05","","","","","","","","","","","","","","","","","","","","","","","",""
"","learn_trial","categorize-lines","172","1469334","0.0-3.0-0.166","20211006","118","1366","","","","","","","","[325.361]","[325.361]","[""u"",""i""]","[""""]","null","true","out","u","YES","","0","out","","","","325.361","learning","15.87","","","","","","","","","","","","","","","","","","","","","","","",""
"","learn_trial","categorize-lines","173","1472226","0.0-3.0-0.167","20211006","118","854","","","","","","","","[233.9515]","[233.9515]","[""u"",""i""]","[""""]","null","true","in","u","YES","","1","in","","","","233.9515","learning","9.11","","","","","","","","","","","","","","","","","","","","","","","",""
"","learn_trial","categorize-lines","174","1475528","0.0-3.0-0.168","20211006","118","1268","","","","","","","","[351.4346]","[351.4346]","[""u"",""i""]","[""""]","null","true","in","u","YES","","1","in","","","","351.4346","learning","17.45","","","","","","","","","","","","","","","","","","","","","","","",""
"","learn_trial","categorize-lines","175","1481240","0.0-3.0-0.169","20211006","118","1676","","","","","","","","[354.016]","[354.016]","[""u"",""i""]","[""""]","null","true","in","i","NO","","0","in","","","","354.016","learning","17.6","","","","","","","","","","","","","","","","","","","","","","","",""
"","learn_trial","categorize-lines","176","1483910","0.0-3.0-0.170","20211006","118","636","","","","","","","","[290.1153]","[290.1153]","[""u"",""i""]","[""""]","null","true","in","u","YES","","1","in","","","","290.1153","learning","13.52","","","","","","","","","","","","","","","","","","","","","","","",""
"","learn_trial","categorize-lines","177","1488814","0.0-3.0-0.171","20211006","118","874","","","","","","","","[338.1466]","[338.1466]","[""u"",""i""]","[""""]","null","true","out","u","YES","","0","out","","","","338.1466","learning","16.66","","","","","","","","","","","","","","","","","","","","","","","",""
"","learn_trial","categorize-lines","178","1494192","0.0-3.0-0.172","20211006","118","1346","","","","","","","","[243.0264]","[243.0264]","[""u"",""i""]","[""""]","null","true","out","u","YES","","0","out","","","","243.0264","learning","9.89","","","","","","","","","","","","","","","","","","","","","","","",""
"","learn_trial","categorize-lines","179","1500446","0.0-3.0-0.173","20211006","118","2214","","","","","","","","[196.841]","[196.841]","[""u"",""i""]","[""""]","null","true","out","u","YES","","0","out","","","","196.841","learning","5.57","","","","","","","","","","","","","","","","","","","","","","","",""
"","learn_trial","categorize-lines","180","1503040","0.0-3.0-0.174","20211006","118","558","","","","","","","","[301.663]","[301.663]","[""u"",""i""]","[""""]","null","true","in","u","YES","","1","in","","","","301.663","learning","14.32","","","","","","","","","","","","","","","","","","","","","","","",""
"","learn_trial","categorize-lines","181","1506318","0.0-3.0-0.175","20211006","118","1238","","","","","","","","[273.0837]","[273.0837]","[""u"",""i""]","[""""]","null","true","out","i","NO","","1","out","","","","273.0837","learning","12.28","","","","","","","","","","","","","","","","","","","","","","","",""
"","learn_trial","categorize-lines","182","1511466","0.0-3.0-0.176","20211006","118","3112","","","","","","","","[288.4217]","[288.4217]","[""u"",""i""]","[""""]","null","true","in","u","YES","","1","in","","","","288.4217","learning","13.4","","","","","","","","","","","","","","","","","","","","","","","",""
"","learn_trial","categorize-lines","183","1514666","0.0-3.0-0.177","20211006","118","1162","","","","","","","","[226.0962]","[226.0962]","[""u"",""i""]","[""""]","null","true","in","u","YES","","1","in","","","","226.0962","learning","8.41","","","","","","","","","","","","","","","","","","","","","","","",""
"","learn_trial","categorize-lines","184","1518034","0.0-3.0-0.178","20211006","118","1330","","","","","","","","[231.4537]","[231.4537]","[""u"",""i""]","[""""]","null","true","in","u","YES","","1","in","","","","231.4537","learning","8.89","","","","","","","","","","","","","","","","","","","","","","","",""
"","learn_trial","categorize-lines","185","1522818","0.0-3.0-0.179","20211006","118","746","","","","","","","","[318.7615]","[318.7615]","[""u"",""i""]","[""""]","null","true","out","u","YES","","0","out","","","","318.7615","learning","15.45","","","","","","","","","","","","","","","","","","","","","","","",""
"","learn_trial","categorize-lines","186","1526556","0.0-3.0-0.180","20211006","118","1698","","","","","","","","[348.1918]","[348.1918]","[""u"",""i""]","[""""]","null","true","out","i","NO","","1","out","","","","348.1918","learning","17.26","","","","","","","","","","","","","","","","","","","","","","","",""
"","learn_trial","categorize-lines","187","1529078","0.0-3.0-0.181","20211006","118","492","","","","","","","","[162.972]","[162.972]","[""u"",""i""]","[""""]","null","true","out","i","NO","","1","out","","","","162.972","learning","1.7","","","","","","","","","","","","","","","","","","","","","","","",""
"","learn_trial","categorize-lines","188","1532314","0.0-3.0-0.182","20211006","118","1202","","","","","","","","[219.1453]","[219.1453]","[""u"",""i""]","[""""]","null","true","in","u","YES","","1","in","","","","219.1453","learning","7.77","","","","","","","","","","","","","","","","","","","","","","","",""
"","learn_trial","categorize-lines","189","1535074","0.0-3.0-0.183","20211006","118","724","","","","","","","","[188.2927]","[188.2927]","[""u"",""i""]","[""""]","null","true","out","i","NO","","1","out","","","","188.2927","learning","4.66","","","","","","","","","","","","","","","","","","","","","","","",""
"","learn_trial","categorize-lines","190","1540122","0.0-3.0-0.184","20211006","118","1012","","","","","","","","[367.2103]","[367.2103]","[""u"",""i""]","[""""]","null","true","out","u","YES","","0","out","","","","367.2103","learning","18.35","","","","","","","","","","","","","","","","","","","","","","","",""
"","learn_trial","categorize-lines","191","1544168","0.0-3.0-0.185","20211006","118","2014","","","","","","","","[433.4695]","[433.4695]","[""u"",""i""]","[""""]","null","true","out","i","NO","","1","out","","","","433.4695","learning","21.75","","","","","","","","","","","","","","","","","","","","","","","",""
"","learn_trial","categorize-lines","192","1546848","0.0-3.0-0.186","20211006","118","648","","","","","","","","[260.715]","[260.715]","[""u"",""i""]","[""""]","null","true","in","u","YES","","1","in","","","","260.715","learning","11.33","","","","","","","","","","","","","","","","","","","","","","","",""
"","learn_trial","categorize-lines","193","1551738","0.0-3.0-0.187","20211006","118","2856","","","","","","","","[306.8586]","[306.8586]","[""u"",""i""]","[""""]","null","true","in","u","YES","","1","in","","","","306.8586","learning","14.67","","","","","","","","","","","","","","","","","","","","","","","",""
"","learn_trial","categorize-lines","194","1555234","0.0-3.0-0.188","20211006","118","1460","","","","","","","","[223.5732]","[223.5732]","[""u"",""i""]","[""""]","null","true","in","u","YES","","1","in","","","","223.5732","learning","8.18","","","","","","","","","","","","","","","","","","","","","","","",""
"","learn_trial","categorize-lines","195","1559364","0.0-3.0-0.189","20211006","118","2090","","","","","","","","[324.5682]","[324.5682]","[""u"",""i""]","[""""]","null","true","in","u","YES","","1","in","","","","324.5682","learning","15.82","","","","","","","","","","","","","","","","","","","","","","","",""
"","learn_trial","categorize-lines","196","1564470","0.0-3.0-0.190","20211006","118","1070","","","","","","","","[316.4372]","[316.4372]","[""u"",""i""]","[""""]","null","true","in","i","NO","","0","in","","","","316.4372","learning","15.3","","","","","","","","","","","","","","","","","","","","","","","",""
"","learn_trial","categorize-lines","197","1567298","0.0-3.0-0.191","20211006","118","792","","","","","","","","[225.3253]","[225.3253]","[""u"",""i""]","[""""]","null","true","in","u","YES","","1","in","","","","225.3253","learning","8.34","","","","","","","","","","","","","","","","","","","","","","","",""
"","learn_trial","categorize-lines","198","1570296","0.0-3.0-0.192","20211006","118","962","","","","","","","","[259.6994]","[259.6994]","[""u"",""i""]","[""""]","null","true","in","u","YES","","1","in","","","","259.6994","learning","11.25","","","","","","","","","","","","","","","","","","","","","","","",""
"","learn_trial","categorize-lines","199","1573560","0.0-3.0-0.193","20211006","118","1228","","","","","","","","[249.3927]","[249.3927]","[""u"",""i""]","[""""]","null","true","out","i","NO","","1","out","","","","249.3927","learning","10.42","","","","","","","","","","","","","","","","","","","","","","","",""
"","learn_trial","categorize-lines","200","1576696","0.0-3.0-0.194","20211006","118","1092","","","","","","","","[397.6065]","[397.6065]","[""u"",""i""]","[""""]","null","true","in","u","YES","","1","in","","","","397.6065","learning","19.98","","","","","","","","","","","","","","","","","","","","","","","",""
"","learn_trial","categorize-lines","201","1581630","0.0-3.0-0.195","20211006","118","900","","","","","","","","[257.4286]","[257.4286]","[""u"",""i""]","[""""]","null","true","out","u","YES","","0","out","","","","257.4286","learning","11.07","","","","","","","","","","","","","","","","","","","","","","","",""
"","learn_trial","categorize-lines","202","1586304","0.0-3.0-0.196","20211006","118","632","","","","","","","","[266.7626]","[266.7626]","[""u"",""i""]","[""""]","null","true","out","u","YES","","0","out","","","","266.7626","learning","11.8","","","","","","","","","","","","","","","","","","","","","","","",""
"","learn_trial","categorize-lines","203","1589418","0.0-3.0-0.197","20211006","118","1076","","","","","","","","[160.2908]","[160.2908]","[""u"",""i""]","[""""]","null","true","out","i","NO","","1","out","","","","160.2908","learning","1.36","","","","","","","","","","","","","","","","","","","","","","","",""
"","learn_trial","categorize-lines","204","1592130","0.0-3.0-0.198","20211006","118","672","","","","","","","","[215.1197]","[215.1197]","[""u"",""i""]","[""""]","null","true","in","u","YES","","1","in","","","","215.1197","learning","7.39","","","","","","","","","","","","","","","","","","","","","","","",""
"","learn_trial","categorize-lines","205","1597088","0.0-3.0-0.199","20211006","118","920","","","","","","","","[340.7966]","[340.7966]","[""u"",""i""]","[""""]","null","true","out","u","YES","","0","out","","","","340.7966","learning","16.82","","","","","","","","","","","","","","","","","","","","","","","",""
"","transfer_instructions","instructions","206","1613150","0.0-4.0-0.0","20211006","118","16062","","","","","","[{""page_index"":0,""viewing_time"":3652},{""page_index"":1,""viewing_time"":12408}]","","","","","","","","","","","","","","","","","","","","","","","","","","","","","","","","","","","","","","","","","","",""
"","transfer_trial","categorize-lines","207","1621592","0.0-5.0-0.0","20211006","118","7370","","","","","","","","[235.555,286.3185,213.6553]","[213.6553,286.3185,235.555]","[""j"",""k"",""l""]","[""J"",""K"",""L""]","null","false","null","k","","286.3185","0","null","286.3185","235.555","","","transfer","","9.25","235.555","13.25","286.3185","7.25","213.6553","","","235.555","286.3185","213.6553","9.25","13.25","7.25","attraction","trinary","equal_chance_2_JND","left","right","both","2","equal","competitor",""
"","transfer_trial","categorize-lines","208","1626912","0.0-5.0-0.1","20211006","118","4236","","","","","","","","[230.8978,283.8988]","[283.8988,230.8978]","[""j"",""k""]","[""J"",""K""]","230.8978","false","null","k","","230.8978","1","null","230.8978","","","","transfer","","","","","","","","230.8978","8.8407","230.8978","283.8988","0","8.8407","13.0761","0","filler","binary","","","","","2.4093","left","NA",""
"","transfer_trial","categorize-lines","209","1630400","0.0-5.0-0.2","20211006","118","2414","","","","","","","","[289.2816,392.1136]","[289.2816,392.1136]","[""j"",""k""]","[""J"",""K""]","289.2816","false","null","j","","289.2816","1","null","392.1136","","","","transfer","","","","","","","","289.2816","13.461","289.2816","392.1136","0","13.461","19.6949","0","filler","binary","","","","","2.211","right","NA",""
"","transfer_trial","categorize-lines","210","1637950","0.0-5.0-0.3","20211006","118","6474","","","","","","","","[235.555,286.3185,315.6662]","[286.3185,315.6662,235.555]","[""j"",""k"",""l""]","[""J"",""K"",""L""]","null","false","null","k","","315.6662","0","null","315.6662","235.555","","","transfer","","13.25","286.3185","9.25","235.555","15.25","315.6662","","","235.555","286.3185","315.6662","9.25","13.25","15.25","attraction","trinary","equal_chance_2_JND","right","left","both","2","equal","decoy",""
"","transfer_trial","categorize-lines","211","1645104","0.0-5.0-0.4","20211006","118","6082","","","","","","","","[272.6843,235.555,213.6553]","[272.6843,213.6553,235.555]","[""j"",""k"",""l""]","[""J"",""K"",""L""]","272.6843","false","null","l","","235.555","0","null","213.6553","235.555","","","transfer","","9.25","235.555","12.25","272.6843","7.25","213.6553","272.6843","12.25","272.6843","235.555","213.6553","12.25","9.25","7.25","attraction","trinary","difficult","left","right","competitor","1","right","target",""
"","transfer_trial","categorize-lines","212","1653816","0.0-5.0-0.5","20211006","118","7638","","","","","","","","[386.139,312.1544,417.8944]","[417.8944,386.139,312.1544]","[""j"",""k"",""l""]","[""J"",""K"",""L""]","386.139","false","null","k","","386.139","1","null","386.139","312.1544","","","transfer","","","","","","","","386.139","19.3802","386.139","312.1544","417.8944","19.3802","15.0207","21","filler","trinary","","","","","8.1302","right","NA",""
"","transfer_trial","categorize-lines","213","1663008","0.0-5.0-0.6","20211006","118","8114","","","","","","","","[263.5487,191.6791]","[191.6791,263.5487]","[""j"",""k""]","[""J"",""K""]","263.5487","false","null","j","","191.6791","0","null","263.5487","","","","transfer","","","","","","","","263.5487","11.5516","263.5487","191.6791","0","11.5516","5.0253","0","filler","binary","","","","","0.3016","right","NA",""
"","transfer_trial","categorize-lines","214","1666080","0.0-5.0-0.7","20211006","118","1994","","","","","","","","[328.3209,169.4252,256.5509]","[169.4252,256.5509,328.3209]","[""j"",""k"",""l""]","[""J"",""K"",""L""]","328.3209","false","null","l","","328.3209","1","null","256.5509","328.3209","","","transfer","","","","","","","","328.3209","16.0556","328.3209","169.4252","256.5509","16.0556","2.4959","11","filler","trinary","","","","","4.8056","right","NA",""
"","transfer_trial","categorize-lines","215","1671696","0.0-5.0-0.8","20211006","118","4538","","","","","","","","[281.7339,200.4552,191.4422]","[281.7339,191.4422,200.4552]","[""j"",""k"",""l""]","[""J"",""K"",""L""]","281.7339","false","null","k","","191.4422","0","null","191.4422","200.4552","","","transfer","","","","","","","","281.7339","12.9192","281.7339","200.4552","191.4422","12.9192","5.9429","5","filler","trinary","","","","","1.6692","right","NA",""
"","transfer_trial","categorize-lines","216","1678152","0.0-5.0-0.9","20211006","118","5384","","","","","","","","[238.2482,245.7076]","[245.7076,238.2482]","[""j"",""k""]","[""J"",""K""]","238.2482","false","null","j","","245.7076","0","null","238.2482","","","","transfer","","","","","","","","238.2482","9.483","238.2482","245.7076","0","9.483","10.1149","0","filler","binary","","","","","1.767","left","NA",""
"","transfer_trial","categorize-lines","217","1683520","0.0-5.0-0.10","20211006","118","4288","","","","","","","","[247.3327,272.6843,224.3381]","[272.6843,247.3327,224.3381]","[""j"",""k"",""l""]","[""J"",""K"",""L""]","null","false","null","j","","272.6843","0","null","247.3327","224.3381","","","transfer","","10.25","247.3327","12.25","272.6843","8.25","224.3381","","","247.3327","272.6843","224.3381","10.25","12.25","8.25","attraction","trinary","equal_chance_1_JND","left","right","both","1","equal","competitor",""
"","transfer_trial","categorize-lines","218","1687064","0.0-5.0-0.11","20211006","118","2464","","","","","","","","[247.3327,286.3185]","[247.3327,286.3185]","[""j"",""k""]","[""J"",""K""]","247.3327","false","null","j","","247.3327","1","null","286.3185","","","","transfer","","13.25","286.3185","10.25","247.3327","","","247.3327","10.25","247.3327","286.3185","0","10.25","13.25","0","attraction","binary","difficult","right","left","competitor","1","left","competitor",""
"","transfer_trial","categorize-lines","219","1693192","0.0-5.0-0.12","20211006","118","5056","","","","","","","","[209.6228,170.5024]","[170.5024,209.6228]","[""j"",""k""]","[""J"",""K""]","209.6228","false","null","j","","170.5024","0","null","209.6228","","","","transfer","","","","","","","","209.6228","6.8595","209.6228","170.5024","0","6.8595","2.6258","0","filler","binary","","","","","4.3905","left","NA",""
"","transfer_trial","categorize-lines","220","1698968","0.0-5.0-0.13","20211006","118","4690","","","","","","","","[247.3327,286.3185,224.3381]","[224.3381,247.3327,286.3185]","[""j"",""k"",""l""]","[""J"",""K"",""L""]","247.3327","false","null","l","","286.3185","0","null","247.3327","286.3185","","","transfer","","10.25","247.3327","13.25","286.3185","8.25","224.3381","247.3327","10.25","247.3327","286.3185","224.3381","10.25","13.25","8.25","attraction","trinary","difficult","left","right","target","1","left","competitor",""
"","transfer_trial","categorize-lines","221","1703208","0.0-5.0-0.14","20211006","118","3160","","","","","","","","[235.555,286.3185,315.6662]","[235.555,286.3185,315.6662]","[""j"",""k"",""l""]","[""J"",""K"",""L""]","null","false","null","k","","286.3185","0","null","286.3185","315.6662","","","transfer","","13.25","286.3185","9.25","235.555","15.25","315.6662","","","235.555","286.3185","315.6662","9.25","13.25","15.25","attraction","trinary","equal_chance_2_JND","right","left","both","2","equal","target",""
"","transfer_trial","categorize-lines","222","1708592","0.0-5.0-0.15","20211006","118","4306","","","","","","","","[272.6843,224.3381,203.4812]","[224.3381,203.4812,272.6843]","[""j"",""k"",""l""]","[""J"",""K"",""L""]","272.6843","false","null","k","","203.4812","0","null","203.4812","272.6843","","","transfer","","8.25","224.3381","12.25","272.6843","6.25","203.4812","272.6843","12.25","272.6843","224.3381","203.4812","12.25","8.25","6.25","attraction","trinary","easy","left","right","competitor","1","right","decoy",""
"","transfer_trial","categorize-lines","223","1712632","0.0-5.0-0.16","20211006","118","2966","","","","","","","","[272.6843,235.555]","[235.555,272.6843]","[""j"",""k""]","[""J"",""K""]","272.6843","false","null","k","","272.6843","1","null","272.6843","","","","transfer","","12.25","272.6843","9.25","235.555","","","272.6843","12.25","272.6843","235.555","0","12.25","9.25","0","attraction","binary","difficult","right","left","target","1","right","target",""
"","transfer_trial","categorize-lines","224","1715688","0.0-5.0-0.17","20211006","118","1976","","","","","","","","[256.5345,203.5786]","[256.5345,203.5786]","[""j"",""k""]","[""J"",""K""]","256.5345","false","null","j","","256.5345","1","null","203.5786","","","","transfer","","","","","","","","256.5345","10.9987","256.5345","203.5786","0","10.9987","6.2598","0","filler","binary","","","","","0.2513","left","NA",""
"","transfer_trial","categorize-lines","225","1718968","0.0-5.0-0.18","20211006","118","2206","","","","","","","","[247.3327,286.3185]","[247.3327,286.3185]","[""j"",""k""]","[""J"",""K""]","247.3327","false","null","k","","286.3185","0","null","286.3185","","","","transfer","","10.25","247.3327","13.25","286.3185","","","247.3327","10.25","247.3327","286.3185","0","10.25","13.25","0","attraction","binary","difficult","left","right","target","1","left","competitor",""
"","transfer_trial","categorize-lines","226","1723224","0.0-5.0-0.19","20211006","118","3182","","","","","","","","[235.555,286.3185]","[235.555,286.3185]","[""j"",""k""]","[""J"",""K""]","null","false","null","k","","286.3185","0","null","286.3185","","","","transfer","","13.25","286.3185","9.25","235.555","","","","","235.555","286.3185","0","9.25","13.25","0","attraction","binary","equal_chance_2_JND","right","left","both","2","equal","target",""
"","transfer_trial","categorize-lines","227","1729576","0.0-5.0-0.20","20211006","118","5276","","","","","","","","[272.6843,235.555]","[272.6843,235.555]","[""j"",""k""]","[""J"",""K""]","272.6843","false","null","k","","235.555","0","null","235.555","","","","transfer","","12.25","272.6843","9.25","235.555","","","272.6843","12.25","272.6843","235.555","0","12.25","9.25","0","attraction","binary","difficult","right","left","target","1","right","competitor",""
"","transfer_trial","categorize-lines","228","1733680","0.0-5.0-0.21","20211006","118","3030","","","","","","","","[227.6639,153.6208,379.0425]","[153.6208,379.0425,227.6639]","[""j"",""k"",""l""]","[""J"",""K"",""L""]","227.6639","false","null","j","","153.6208","0","null","379.0425","227.6639","","","transfer","","","","","","","","227.6639","8.5516","227.6639","153.6208","379.0425","8.5516","0.4889","19","filler","trinary","","","","","2.6984","left","NA",""
"","transfer_trial","categorize-lines","229","1740672","0.0-5.0-0.22","20211006","118","5908","","","","","","","","[272.6843,224.3381,300.6345]","[224.3381,272.6843,300.6345]","[""j"",""k"",""l""]","[""J"",""K"",""L""]","272.6843","false","null","k","","272.6843","1","null","272.6843","300.6345","","","transfer","","12.25","272.6843","8.25","224.3381","14.25","300.6345","272.6843","12.25","272.6843","224.3381","300.6345","12.25","8.25","14.25","attraction","trinary","easy","right","left","target","1","right","target",""
"","transfer_trial","categorize-lines","230","1745528","0.0-5.0-0.23","20211006","118","3780","","","","","","","","[247.3327,300.6345]","[247.3327,300.6345]","[""j"",""k""]","[""J"",""K""]","247.3327","false","null","j","","247.3327","1","null","300.6345","","","","transfer","","14.25","300.6345","10.25","247.3327","","","247.3327","10.25","247.3327","300.6345","0","10.25","14.25","0","attraction","binary","easy","right","left","competitor","1","left","competitor",""
"","transfer_trial","categorize-lines","231","1749032","0.0-5.0-0.24","20211006","118","2430","","","","","","","","[305.254,300.7485]","[305.254,300.7485]","[""j"",""k""]","[""J"",""K""]","305.254","false","null","k","","300.7485","0","null","300.7485","","","","transfer","","","","","","","","305.254","14.5625","305.254","300.7485","0","14.5625","14.2578","0","filler","binary","","","","","3.3125","right","NA",""
"","transfer_trial","categorize-lines","232","1757618","0.0-5.0-0.25","20211006","118","7508","","","","","","","","[247.3327,300.6345,224.3381]","[300.6345,224.3381,247.3327]","[""j"",""k"",""l""]","[""J"",""K"",""L""]","247.3327","false","null","k","","224.3381","0","null","224.3381","247.3327","","","transfer","","10.25","247.3327","14.25","300.6345","8.25","224.3381","247.3327","10.25","247.3327","300.6345","224.3381","10.25","14.25","8.25","attraction","trinary","easy","left","right","target","1","left","decoy",""
"","transfer_trial","categorize-lines","233","1762642","0.0-5.0-0.26","20211006","118","3948","","","","","","","","[247.3327,286.3185]","[286.3185,247.3327]","[""j"",""k""]","[""J"",""K""]","247.3327","false","null","k","","247.3327","1","null","247.3327","","","","transfer","","10.25","247.3327","13.25","286.3185","","","247.3327","10.25","247.3327","286.3185","0","10.25","13.25","0","attraction","binary","difficult","left","right","target","1","left","target",""
"","transfer_trial","categorize-lines","234","1767384","0.0-5.0-0.27","20211006","118","3660","","","","","","","","[272.6843,224.3381,203.4812]","[272.6843,203.4812,224.3381]","[""j"",""k"",""l""]","[""J"",""K"",""L""]","272.6843","false","null","l","","224.3381","0","null","203.4812","224.3381","","","transfer","","8.25","224.3381","12.25","272.6843","6.25","203.4812","272.6843","12.25","272.6843","224.3381","203.4812","12.25","8.25","6.25","attraction","trinary","easy","left","right","competitor","1","right","target",""
"","transfer_trial","categorize-lines","235","1771736","0.0-5.0-0.28","20211006","118","3270","","","","","","","","[247.3327,286.3185]","[286.3185,247.3327]","[""j"",""k""]","[""J"",""K""]","247.3327","false","null","k","","247.3327","1","null","247.3327","","","","transfer","","10.25","247.3327","13.25","286.3185","","","247.3327","10.25","247.3327","286.3185","0","10.25","13.25","0","attraction","binary","difficult","left","right","target","1","left","target",""
"","transfer_trial","categorize-lines","236","1775920","0.0-5.0-0.29","20211006","118","3112","","","","","","","","[247.3327,286.3185]","[247.3327,286.3185]","[""j"",""k""]","[""J"",""K""]","247.3327","false","null","j","","247.3327","1","null","286.3185","","","","transfer","","13.25","286.3185","10.25","247.3327","","","247.3327","10.25","247.3327","286.3185","0","10.25","13.25","0","attraction","binary","difficult","right","left","competitor","1","left","competitor",""
"","transfer_trial","categorize-lines","237","1778456","0.0-5.0-0.30","20211006","118","1460","","","","","","","","[235.555,286.3185]","[235.555,286.3185]","[""j"",""k""]","[""J"",""K""]","null","false","null","k","","286.3185","0","null","286.3185","","","","transfer","","13.25","286.3185","9.25","235.555","","","","","235.555","286.3185","0","9.25","13.25","0","attraction","binary","equal_chance_2_JND","right","left","both","2","equal","target",""
"","transfer_trial","categorize-lines","238","1781136","0.0-5.0-0.31","20211006","118","1606","","","","","","","","[282.7171,237.1519]","[282.7171,237.1519]","[""j"",""k""]","[""J"",""K""]","282.7171","false","null","j","","282.7171","1","null","237.1519","","","","transfer","","","","","","","","282.7171","12.9906","282.7171","237.1519","0","12.9906","9.3885","0","filler","binary","","","","","1.7406","right","NA",""
"","transfer_trial","categorize-lines","239","1785472","0.0-5.0-0.32","20211006","118","3260","","","","","","","","[239.0713,448.3953,269.3784]","[269.3784,448.3953,239.0713]","[""j"",""k"",""l""]","[""J"",""K"",""L""]","239.0713","false","null","l","","239.0713","1","null","448.3953","239.0713","","","transfer","","","","","","","","239.0713","9.5537","239.0713","448.3953","269.3784","9.5537","22.4439","12","filler","trinary","","","","","1.6963","left","NA",""
"","transfer_trial","categorize-lines","240","1788864","0.0-5.0-0.33","20211006","118","2316","","","","","","","","[247.3327,286.3185,315.6662]","[247.3327,315.6662,286.3185]","[""j"",""k"",""l""]","[""J"",""K"",""L""]","247.3327","false","null","l","","286.3185","0","null","315.6662","286.3185","","","transfer","","13.25","286.3185","10.25","247.3327","15.25","315.6662","247.3327","10.25","247.3327","286.3185","315.6662","10.25","13.25","15.25","attraction","trinary","difficult","right","left","competitor","1","left","target",""
"","transfer_trial","categorize-lines","241","1794960","0.0-5.0-0.34","20211006","118","5018","","","","","","","","[272.6843,224.3381]","[224.3381,272.6843]","[""j"",""k""]","[""J"",""K""]","272.6843","false","null","k","","272.6843","1","null","272.6843","","","","transfer","","12.25","272.6843","8.25","224.3381","","","272.6843","12.25","272.6843","224.3381","0","12.25","8.25","0","attraction","binary","easy","right","left","target","1","right","target",""
"","transfer_trial","categorize-lines","242","1798346","0.0-5.0-0.35","20211006","118","2310","","","","","","","","[247.3327,272.6843]","[247.3327,272.6843]","[""j"",""k""]","[""J"",""K""]","null","false","null","k","","272.6843","0","null","272.6843","","","","transfer","","10.25","247.3327","12.25","272.6843","","","","","247.3327","272.6843","0","10.25","12.25","0","attraction","binary","equal_chance_1_JND","left","right","both","1","equal","competitor",""
"","transfer_trial","categorize-lines","243","1800632","0.0-5.0-0.36","20211006","118","1208","","","","","","","","[247.3327,272.6843]","[247.3327,272.6843]","[""j"",""k""]","[""J"",""K""]","null","false","null","k","","272.6843","0","null","272.6843","","","","transfer","","12.25","272.6843","10.25","247.3327","","","","","247.3327","272.6843","0","10.25","12.25","0","attraction","binary","equal_chance_1_JND","right","left","both","1","equal","target",""
"","transfer_trial","categorize-lines","244","1806584","0.0-5.0-0.37","20211006","118","4876","","","","","","","","[304.3135,400.7464,165.375]","[165.375,400.7464,304.3135]","[""j"",""k"",""l""]","[""J"",""K"",""L""]","304.3135","false","null","k","","400.7464","0","null","400.7464","304.3135","","","transfer","","","","","","","","304.3135","14.4993","304.3135","400.7464","165.375","14.4993","20.1412","2","filler","trinary","","","","","3.2493","right","NA",""
"","transfer_trial","categorize-lines","245","1812048","0.0-5.0-0.38","20211006","118","4390","","","","","","","","[272.6843,235.555]","[235.555,272.6843]","[""j"",""k""]","[""J"",""K""]","272.6843","false","null","k","","272.6843","1","null","272.6843","","","","transfer","","9.25","235.555","12.25","272.6843","","","272.6843","12.25","272.6843","235.555","0","12.25","9.25","0","attraction","binary","difficult","left","right","competitor","1","right","competitor",""
"","transfer_trial","categorize-lines","246","1815728","0.0-5.0-0.39","20211006","118","2606","","","","","","","","[247.3327,272.6843,224.3381]","[247.3327,224.3381,272.6843]","[""j"",""k"",""l""]","[""J"",""K"",""L""]","null","false","null","l","","272.6843","0","null","224.3381","272.6843","","","transfer","","10.25","247.3327","12.25","272.6843","8.25","224.3381","","","247.3327","272.6843","224.3381","10.25","12.25","8.25","attraction","trinary","equal_chance_1_JND","left","right","both","1","equal","competitor",""
"","transfer_trial","categorize-lines","247","1818704","0.0-5.0-0.40","20211006","118","1896","","","","","","","","[247.3327,272.6843]","[247.3327,272.6843]","[""j"",""k""]","[""J"",""K""]","null","false","null","j","","247.3327","0","null","272.6843","","","","transfer","","12.25","272.6843","10.25","247.3327","","","","","247.3327","272.6843","0","10.25","12.25","0","attraction","binary","equal_chance_1_JND","right","left","both","1","equal","competitor",""
"","transfer_trial","categorize-lines","248","1824368","0.0-5.0-0.41","20211006","118","4582","","","","","","","","[247.3327,300.6345]","[247.3327,300.6345]","[""j"",""k""]","[""J"",""K""]","247.3327","false","null","k","","300.6345","0","null","300.6345","","","","transfer","","14.25","300.6345","10.25","247.3327","","","247.3327","10.25","247.3327","300.6345","0","10.25","14.25","0","attraction","binary","easy","right","left","competitor","1","left","target",""
"","transfer_trial","categorize-lines","249","1827816","0.0-5.0-0.42","20211006","118","2370","","","","","","","","[247.3327,272.6843]","[247.3327,272.6843]","[""j"",""k""]","[""J"",""K""]","null","false","null","j","","247.3327","0","null","272.6843","","","","transfer","","10.25","247.3327","12.25","272.6843","","","","","247.3327","272.6843","0","10.25","12.25","0","attraction","binary","equal_chance_1_JND","left","right","both","1","equal","target",""
"","transfer_trial","categorize-lines","250","1832688","0.0-5.0-0.43","20211006","118","3798","","","","","","","","[247.3327,286.3185]","[286.3185,247.3327]","[""j"",""k""]","[""J"",""K""]","247.3327","false","null","j","","286.3185","0","null","247.3327","","","","transfer","","13.25","286.3185","10.25","247.3327","","","247.3327","10.25","247.3327","286.3185","0","10.25","13.25","0","attraction","binary","difficult","right","left","competitor","1","left","target",""
"","transfer_trial","categorize-lines","251","1839272","0.0-5.0-0.44","20211006","118","5508","","","","","","","","[247.3327,300.6345,224.3381]","[300.6345,224.3381,247.3327]","[""j"",""k"",""l""]","[""J"",""K"",""L""]","247.3327","false","null","k","","224.3381","0","null","224.3381","247.3327","","","transfer","","10.25","247.3327","14.25","300.6345","8.25","224.3381","247.3327","10.25","247.3327","300.6345","224.3381","10.25","14.25","8.25","attraction","trinary","easy","left","right","target","1","left","decoy",""
"","transfer_trial","categorize-lines","252","1848000","0.0-5.0-0.45","20211006","118","7648","","","","","","","","[272.6843,224.3381]","[272.6843,224.3381]","[""j"",""k""]","[""J"",""K""]","272.6843","false","null","j","","272.6843","1","null","224.3381","","","","transfer","","8.25","224.3381","12.25","272.6843","","","272.6843","12.25","272.6843","224.3381","0","12.25","8.25","0","attraction","binary","easy","left","right","competitor","1","right","competitor",""
"","transfer_trial","categorize-lines","253","1854638","0.0-5.0-0.46","20211006","118","5564","","","","","","","","[209.4107,272.2156,360.9929]","[272.2156,360.9929,209.4107]","[""j"",""k"",""l""]","[""J"",""K"",""L""]","209.4107","false","null","k","","360.9929","0","null","360.9929","209.4107","","","transfer","","","","","","","","209.4107","6.8387","209.4107","272.2156","360.9929","6.8387","12.2147","18","filler","trinary","","","","","4.4113","left","NA",""
"","transfer_trial","categorize-lines","254","1857016","0.0-5.0-0.47","20211006","118","1300","","","","","","","","[272.6843,224.3381]","[272.6843,224.3381]","[""j"",""k""]","[""J"",""K""]","272.6843","false","null","k","","224.3381","0","null","224.3381","","","","transfer","","12.25","272.6843","8.25","224.3381","","","272.6843","12.25","272.6843","224.3381","0","12.25","8.25","0","attraction","binary","easy","right","left","target","1","right","competitor",""
"","transfer_trial","categorize-lines","255","1862160","0.0-5.0-0.48","20211006","118","4068","","","","","","","","[247.3327,286.3185,224.3381]","[286.3185,247.3327,224.3381]","[""j"",""k"",""l""]","[""J"",""K"",""L""]","247.3327","false","null","l","","224.3381","0","null","247.3327","224.3381","","","transfer","","10.25","247.3327","13.25","286.3185","8.25","224.3381","247.3327","10.25","247.3327","286.3185","224.3381","10.25","13.25","8.25","attraction","trinary","difficult","left","right","target","1","left","decoy",""
"","transfer_trial","categorize-lines","256","1870360","0.0-5.0-0.49","20211006","118","7132","","","","","","","","[247.3327,300.6345,331.4495]","[300.6345,247.3327,331.4495]","[""j"",""k"",""l""]","[""J"",""K"",""L""]","247.3327","false","null","k","","247.3327","1","null","247.3327","331.4495","","","transfer","","14.25","300.6345","10.25","247.3327","16.25","331.4495","247.3327","10.25","247.3327","300.6345","331.4495","10.25","14.25","16.25","attraction","trinary","easy","right","left","competitor","1","left","competitor",""
"","transfer_trial","categorize-lines","257","1873576","0.0-5.0-0.50","20211006","118","2136","","","","","","","","[272.6843,235.555]","[235.555,272.6843]","[""j"",""k""]","[""J"",""K""]","272.6843","false","null","k","","272.6843","1","null","272.6843","","","","transfer","","12.25","272.6843","9.25","235.555","","","272.6843","12.25","272.6843","235.555","0","12.25","9.25","0","attraction","binary","difficult","right","left","target","1","right","target",""
"","transfer_trial","categorize-lines","258","1879870","0.0-5.0-0.51","20211006","118","5218","","","","","","","","[247.3327,300.6345]","[247.3327,300.6345]","[""j"",""k""]","[""J"",""K""]","247.3327","false","null","k","","300.6345","0","null","300.6345","","","","transfer","","10.25","247.3327","14.25","300.6345","","","247.3327","10.25","247.3327","300.6345","0","10.25","14.25","0","attraction","binary","easy","left","right","target","1","left","competitor",""
"","transfer_trial","categorize-lines","259","1882176","0.0-5.0-0.52","20211006","118","1228","","","","","","","","[167.4275,266.5615]","[167.4275,266.5615]","[""j"",""k""]","[""J"",""K""]","167.4275","false","null","k","","266.5615","0","null","266.5615","","","","transfer","","","","","","","","167.4275","2.2528","167.4275","266.5615","0","2.2528","11.7845","0","filler","binary","","","","","8.9972","left","NA",""
"","transfer_trial","categorize-lines","260","1885688","0.0-5.0-0.53","20211006","118","2440","","","","","","","","[272.6843,224.3381]","[224.3381,272.6843]","[""j"",""k""]","[""J"",""K""]","272.6843","false","null","k","","272.6843","1","null","272.6843","","","","transfer","","8.25","224.3381","12.25","272.6843","","","272.6843","12.25","272.6843","224.3381","0","12.25","8.25","0","attraction","binary","easy","left","right","competitor","1","right","competitor",""
"","transfer_trial","categorize-lines","261","1888712","0.0-5.0-0.54","20211006","118","1944","","","","","","","","[247.3327,272.6843,224.3381]","[247.3327,224.3381,272.6843]","[""j"",""k"",""l""]","[""J"",""K"",""L""]","null","false","null","j","","247.3327","0","null","224.3381","272.6843","","","transfer","","10.25","247.3327","12.25","272.6843","8.25","224.3381","","","247.3327","272.6843","224.3381","10.25","12.25","8.25","attraction","trinary","equal_chance_1_JND","left","right","both","1","equal","target",""
"","transfer_trial","categorize-lines","262","1890880","0.0-5.0-0.55","20211006","118","1094","","","","","","","","[272.6843,224.3381]","[224.3381,272.6843]","[""j"",""k""]","[""J"",""K""]","272.6843","false","null","k","","272.6843","1","null","272.6843","","","","transfer","","12.25","272.6843","8.25","224.3381","","","272.6843","12.25","272.6843","224.3381","0","12.25","8.25","0","attraction","binary","easy","right","left","target","1","right","target",""
"","transfer_trial","categorize-lines","263","1896072","0.0-5.0-0.56","20211006","118","4116","","","","","","","","[272.6843,224.3381,203.4812]","[224.3381,272.6843,203.4812]","[""j"",""k"",""l""]","[""J"",""K"",""L""]","272.6843","false","null","k","","272.6843","1","null","272.6843","203.4812","","","transfer","","8.25","224.3381","12.25","272.6843","6.25","203.4812","272.6843","12.25","272.6843","224.3381","203.4812","12.25","8.25","6.25","attraction","trinary","easy","left","right","competitor","1","right","competitor",""
"","transfer_trial","categorize-lines","264","1899776","0.0-5.0-0.57","20211006","118","2630","","","","","","","","[247.3327,272.6843]","[247.3327,272.6843]","[""j"",""k""]","[""J"",""K""]","null","false","null","j","","247.3327","0","null","272.6843","","","","transfer","","10.25","247.3327","12.25","272.6843","","","","","247.3327","272.6843","0","10.25","12.25","0","attraction","binary","equal_chance_1_JND","left","right","both","1","equal","target",""
"","transfer_trial","categorize-lines","265","1904616","0.0-5.0-0.58","20211006","118","3764","","","","","","","","[247.3327,272.6843,300.6345]","[247.3327,300.6345,272.6843]","[""j"",""k"",""l""]","[""J"",""K"",""L""]","null","false","null","k","","300.6345","0","null","300.6345","272.6843","","","transfer","","12.25","272.6843","10.25","247.3327","14.25","300.6345","","","247.3327","272.6843","300.6345","10.25","12.25","14.25","attraction","trinary","equal_chance_1_JND","right","left","both","1","equal","decoy",""
"","transfer_trial","categorize-lines","266","1909208","0.0-5.0-0.59","20211006","118","3514","","","","","","","","[235.555,286.3185,213.6553]","[286.3185,235.555,213.6553]","[""j"",""k"",""l""]","[""J"",""K"",""L""]","null","false","null","j","","286.3185","0","null","235.555","213.6553","","","transfer","","9.25","235.555","13.25","286.3185","7.25","213.6553","","","235.555","286.3185","213.6553","9.25","13.25","7.25","attraction","trinary","equal_chance_2_JND","left","right","both","2","equal","competitor",""
"","transfer_trial","categorize-lines","267","1911944","0.0-5.0-0.60","20211006","118","1656","","","","","","","","[247.3327,286.3185,224.3381]","[247.3327,224.3381,286.3185]","[""j"",""k"",""l""]","[""J"",""K"",""L""]","247.3327","false","null","j","","247.3327","1","null","224.3381","286.3185","","","transfer","","10.25","247.3327","13.25","286.3185","8.25","224.3381","247.3327","10.25","247.3327","286.3185","224.3381","10.25","13.25","8.25","attraction","trinary","difficult","left","right","target","1","left","target",""
"","transfer_trial","categorize-lines","268","1916728","0.0-5.0-0.61","20211006","118","3712","","","","","","","","[272.6843,235.555]","[272.6843,235.555]","[""j"",""k""]","[""J"",""K""]","272.6843","false","null","j","","272.6843","1","null","235.555","","","","transfer","","9.25","235.555","12.25","272.6843","","","272.6843","12.25","272.6843","235.555","0","12.25","9.25","0","attraction","binary","difficult","left","right","competitor","1","right","competitor",""
"","transfer_trial","categorize-lines","269","1920720","0.0-5.0-0.62","20211006","118","2914","","","","","","","","[247.3327,300.6345]","[300.6345,247.3327]","[""j"",""k""]","[""J"",""K""]","247.3327","false","null","j","","300.6345","0","null","247.3327","","","","transfer","","14.25","300.6345","10.25","247.3327","","","247.3327","10.25","247.3327","300.6345","0","10.25","14.25","0","attraction","binary","easy","right","left","competitor","1","left","target",""
"","transfer_trial","categorize-lines","270","1928664","0.0-5.0-0.63","20211006","118","6870","","","","","","","","[272.6843,224.3381,300.6345]","[224.3381,272.6843,300.6345]","[""j"",""k"",""l""]","[""J"",""K"",""L""]","272.6843","false","null","l","","300.6345","0","null","272.6843","300.6345","","","transfer","","12.25","272.6843","8.25","224.3381","14.25","300.6345","272.6843","12.25","272.6843","224.3381","300.6345","12.25","8.25","14.25","attraction","trinary","easy","right","left","target","1","right","decoy",""
"","transfer_trial","categorize-lines","271","1932128","0.0-5.0-0.64","20211006","118","2390","","","","","","","","[274.234,201.1364]","[201.1364,274.234]","[""j"",""k""]","[""J"",""K""]","274.234","false","null","j","","201.1364","0","null","274.234","","","","transfer","","","","","","","","274.234","12.3661","274.234","201.1364","0","12.3661","6.0124","0","filler","binary","","","","","1.1161","right","NA",""
"","transfer_trial","categorize-lines","272","1935400","0.0-5.0-0.65","20211006","118","2196","","","","","","","","[247.3327,286.3185,315.6662]","[247.3327,315.6662,286.3185]","[""j"",""k"",""l""]","[""J"",""K"",""L""]","247.3327","false","null","k","","315.6662","0","null","315.6662","286.3185","","","transfer","","13.25","286.3185","10.25","247.3327","15.25","315.6662","247.3327","10.25","247.3327","286.3185","315.6662","10.25","13.25","15.25","attraction","trinary","difficult","right","left","competitor","1","left","decoy",""
"","transfer_trial","categorize-lines","273","1940928","0.0-5.0-0.66","20211006","118","4448","","","","","","","","[295.8017,288.9036,327.4312]","[288.9036,295.8017,327.4312]","[""j"",""k"",""l""]","[""J"",""K"",""L""]","295.8017","false","null","k","","295.8017","1","null","295.8017","327.4312","","","transfer","","","","","","","","295.8017","13.9178","295.8017","288.9036","327.4312","13.9178","13.4342","16","filler","trinary","","","","","2.6678","right","NA",""
"","transfer_trial","categorize-lines","274","1944720","0.0-5.0-0.67","20211006","118","2716","","","","","","","","[272.6843,235.555]","[235.555,272.6843]","[""j"",""k""]","[""J"",""K""]","272.6843","false","null","k","","272.6843","1","null","272.6843","","","","transfer","","9.25","235.555","12.25","272.6843","","","272.6843","12.25","272.6843","235.555","0","12.25","9.25","0","attraction","binary","difficult","left","right","competitor","1","right","competitor",""
"","transfer_trial","categorize-lines","275","1952904","0.0-5.0-0.68","20211006","118","7108","","","","","","","","[262.3725,331.3835,157.5]","[331.3835,262.3725,157.5]","[""j"",""k"",""l""]","[""J"",""K"",""L""]","262.3725","false","null","j","","331.3835","0","null","262.3725","157.5","","","transfer","","","","","","","","262.3725","11.4599","262.3725","331.3835","157.5","11.4599","16.2459","1","filler","trinary","","","","","0.2099","right","NA",""
"","transfer_trial","categorize-lines","276","1957104","0.0-5.0-0.69","20211006","118","3124","","","","","","","","[247.3327,272.6843]","[247.3327,272.6843]","[""j"",""k""]","[""J"",""K""]","null","false","null","j","","247.3327","0","null","272.6843","","","","transfer","","12.25","272.6843","10.25","247.3327","","","","","247.3327","272.6843","0","10.25","12.25","0","attraction","binary","equal_chance_1_JND","right","left","both","1","equal","competitor",""
"","transfer_trial","categorize-lines","277","1963016","0.0-5.0-0.70","20211006","118","4836","","","","","","","","[289.9466,270.9946,182.3259]","[270.9946,182.3259,289.9466]","[""j"",""k"",""l""]","[""J"",""K"",""L""]","289.9466","false","null","k","","182.3259","0","null","182.3259","289.9466","","","transfer","","","","","","","","289.9466","13.5081","289.9466","270.9946","182.3259","13.5081","12.1226","4","filler","trinary","","","","","2.2581","right","NA",""
