"success","screen_id","trial_type","trial_index","time_elapsed","internal_node_id","date","sub_n","rt","response","timeout","failed_images","failed_audio","failed_video","view_history","stim","line_lens","line_lens_order","choices","stim_names","corr_ans","give_fb","in_cat","key_choice","yn_choice","choice","correct","fb_in_cat","stim_1_in_order","stim_2_in_order","stim_3_in_order","line_length","cat_trial_type","jnds","T_psy","T_phys","C_psy","C_phys","D_psy","D_phys","corr_choice","correct_psy","stim_1","stim_2","stim_3","stim_1_psy","stim_2_psy","stim_3_psy","transfer_trial_type","trial_choice_set","difficulty_level","target_side","competitor_side","tc_correct","correct_dist_to_mean","side_correct","attr_choice","stimulus"
"true","enter-fullscreen-mode","fullscreen","0","4286","0.0-0.0","20211004","111","","","","","","","","","","","","","","","","","","","","","","","","","","","","","","","","","","","","","","","","","","","","","","","","","",""
"","enter-sub-number","survey-html-form","1","6782","0.0-1.0","20211004","111","2484","{""response"":""111""}","","","","","","","","","","","","","","","","","","","","","","","","","","","","","","","","","","","","","","","","","","","","","","","",""
"true","","preload","2","6802","0.0-2.0-0.0","20211004","111","","","false","[]","[]","[]","","","","","","","","","","","","","","","","","","","","","","","","","","","","","","","","","","","","","","","","","","","",""
"","instructions","instructions","3","179014","0.0-2.0-1.0","20211004","111","172208","","","","","","[{""page_index"":0,""viewing_time"":10034},{""page_index"":1,""viewing_time"":29182},{""page_index"":2,""viewing_time"":30056},{""page_index"":3,""viewing_time"":66536},{""page_index"":4,""viewing_time"":12088},{""page_index"":5,""viewing_time"":3254},{""page_index"":6,""viewing_time"":21058}]","","","","","","","","","","","","","","","","","","","","","","","","","","","","","","","","","","","","","","","","","","",""
"","demo-lines","draw-demo-lines","4","239030","0.0-2.0-2.0","20211004","111","","","","","","","","lines","","","","","","","","","","","","","","","","","","","","","","","","","","","","","","","","","","","","","","","","","",""
"","click-to-begin-the-experiment","instructions","5","242372","0.0-2.0-3.0","20211004","111","3338","","","","","","[{""page_index"":0,""viewing_time"":3338}]","","","","","","","","","","","","","","","","","","","","","","","","","","","","","","","","","","","","","","","","","","",""
"","learn_trial","categorize-lines","6","249936","0.0-3.0-0.0","20211004","111","5526","","","","","","","","[241.019]","[241.019]","[""u"",""i""]","[""""]","null","true","in","u","YES","","1","in","","","","241.019","learning","9.72","","","","","","","","","","","","","","","","","","","","","","","",""
"","learn_trial","categorize-lines","7","254758","0.0-3.0-0.1","20211004","111","792","","","","","","","","[367.7482]","[367.7482]","[""u"",""i""]","[""""]","null","true","out","u","YES","","0","out","","","","367.7482","learning","18.38","","","","","","","","","","","","","","","","","","","","","","","",""
"","learn_trial","categorize-lines","8","258964","0.0-3.0-0.2","20211004","111","2176","","","","","","","","[199.354]","[199.354]","[""u"",""i""]","[""""]","null","true","out","i","NO","","1","out","","","","199.354","learning","5.83","","","","","","","","","","","","","","","","","","","","","","","",""
"","learn_trial","categorize-lines","9","262124","0.0-3.0-0.3","20211004","111","1128","","","","","","","","[234.2942]","[234.2942]","[""u"",""i""]","[""""]","null","true","in","u","YES","","1","in","","","","234.2942","learning","9.14","","","","","","","","","","","","","","","","","","","","","","","",""
"","learn_trial","categorize-lines","10","267172","0.0-3.0-0.4","20211004","111","1018","","","","","","","","[243.0264]","[243.0264]","[""u"",""i""]","[""""]","null","true","out","u","YES","","0","out","","","","243.0264","learning","9.89","","","","","","","","","","","","","","","","","","","","","","","",""
"","learn_trial","categorize-lines","11","270390","0.0-3.0-0.5","20211004","111","1188","","","","","","","","[260.715]","[260.715]","[""u"",""i""]","[""""]","null","true","in","u","YES","","1","in","","","","260.715","learning","11.33","","","","","","","","","","","","","","","","","","","","","","","",""
"","learn_trial","categorize-lines","12","275620","0.0-3.0-0.6","20211004","111","1202","","","","","","","","[327.7509]","[327.7509]","[""u"",""i""]","[""""]","null","true","in","i","NO","","0","in","","","","327.7509","learning","16.02","","","","","","","","","","","","","","","","","","","","","","","",""
"","learn_trial","categorize-lines","13","279270","0.0-3.0-0.7","20211004","111","1620","","","","","","","","[235.3252]","[235.3252]","[""u"",""i""]","[""""]","null","true","out","i","NO","","1","out","","","","235.3252","learning","9.23","","","","","","","","","","","","","","","","","","","","","","","",""
"","learn_trial","categorize-lines","14","284766","0.0-3.0-0.8","20211004","111","3466","","","","","","","","[188.2927]","[188.2927]","[""u"",""i""]","[""""]","null","true","out","i","NO","","1","out","","","","188.2927","learning","4.66","","","","","","","","","","","","","","","","","","","","","","","",""
"","learn_trial","categorize-lines","15","290850","0.0-3.0-0.9","20211004","111","2048","","","","","","","","[301.663]","[301.663]","[""u"",""i""]","[""""]","null","true","in","i","NO","","0","in","","","","301.663","learning","14.32","","","","","","","","","","","","","","","","","","","","","","","",""
"","learn_trial","categorize-lines","16","295302","0.0-3.0-0.10","20211004","111","2420","","","","","","","","[157.3464]","[157.3464]","[""u"",""i""]","[""""]","null","true","out","i","NO","","1","out","","","","157.3464","learning","0.98","","","","","","","","","","","","","","","","","","","","","","","",""
"","learn_trial","categorize-lines","17","298028","0.0-3.0-0.11","20211004","111","696","","","","","","","","[262.5019]","[262.5019]","[""u"",""i""]","[""""]","null","true","in","u","YES","","1","in","","","","262.5019","learning","11.47","","","","","","","","","","","","","","","","","","","","","","","",""
"","learn_trial","categorize-lines","18","302364","0.0-3.0-0.12","20211004","111","2308","","","","","","","","[242.5526]","[242.5526]","[""u"",""i""]","[""""]","null","true","in","u","YES","","1","in","","","","242.5526","learning","9.85","","","","","","","","","","","","","","","","","","","","","","","",""
"","learn_trial","categorize-lines","19","308060","0.0-3.0-0.13","20211004","111","1668","","","","","","","","[288.4217]","[288.4217]","[""u"",""i""]","[""""]","null","true","in","i","NO","","0","in","","","","288.4217","learning","13.4","","","","","","","","","","","","","","","","","","","","","","","",""
"","learn_trial","categorize-lines","20","312540","0.0-3.0-0.14","20211004","111","2452","","","","","","","","[258.8139]","[258.8139]","[""u"",""i""]","[""""]","null","true","in","u","YES","","1","in","","","","258.8139","learning","11.18","","","","","","","","","","","","","","","","","","","","","","","",""
"","learn_trial","categorize-lines","21","317844","0.0-3.0-0.15","20211004","111","1268","","","","","","","","[294.3929]","[294.3929]","[""u"",""i""]","[""""]","null","true","in","i","NO","","0","in","","","","294.3929","learning","13.82","","","","","","","","","","","","","","","","","","","","","","","",""
"","learn_trial","categorize-lines","22","321300","0.0-3.0-0.16","20211004","111","1428","","","","","","","","[425.0919]","[425.0919]","[""u"",""i""]","[""""]","null","true","out","i","NO","","1","out","","","","425.0919","learning","21.35","","","","","","","","","","","","","","","","","","","","","","","",""
"","learn_trial","categorize-lines","23","326204","0.0-3.0-0.17","20211004","111","876","","","","","","","","[234.4085]","[234.4085]","[""u"",""i""]","[""""]","null","true","out","u","YES","","0","out","","","","234.4085","learning","9.15","","","","","","","","","","","","","","","","","","","","","","","",""
"","learn_trial","categorize-lines","24","328948","0.0-3.0-0.18","20211004","111","714","","","","","","","","[219.1453]","[219.1453]","[""u"",""i""]","[""""]","null","true","in","u","YES","","1","in","","","","219.1453","learning","7.77","","","","","","","","","","","","","","","","","","","","","","","",""
"","learn_trial","categorize-lines","25","332012","0.0-3.0-0.19","20211004","111","1034","","","","","","","","[183.2177]","[183.2177]","[""u"",""i""]","[""""]","null","true","out","i","NO","","1","out","","","","183.2177","learning","4.1","","","","","","","","","","","","","","","","","","","","","","","",""
"","learn_trial","categorize-lines","26","335092","0.0-3.0-0.20","20211004","111","1052","","","","","","","","[157.5]","[157.5]","[""u"",""i""]","[""""]","null","true","out","i","NO","","1","out","","","","157.5","learning","1","","","","","","","","","","","","","","","","","","","","","","","",""
"","learn_trial","categorize-lines","27","339508","0.0-3.0-0.21","20211004","111","388","","","","","","","","[206.4815]","[206.4815]","[""u"",""i""]","[""""]","null","true","out","u","YES","","0","out","","","","206.4815","learning","6.55","","","","","","","","","","","","","","","","","","","","","","","",""
"","learn_trial","categorize-lines","28","343516","0.0-3.0-0.22","20211004","111","1982","","","","","","","","[305.9616]","[305.9616]","[""u"",""i""]","[""""]","null","true","in","u","YES","","1","in","","","","305.9616","learning","14.61","","","","","","","","","","","","","","","","","","","","","","","",""
"","learn_trial","categorize-lines","29","350204","0.0-3.0-0.23","20211004","111","2660","","","","","","","","[264.3011]","[264.3011]","[""u"",""i""]","[""""]","null","true","in","i","NO","","0","in","","","","264.3011","learning","11.61","","","","","","","","","","","","","","","","","","","","","","","",""
"","learn_trial","categorize-lines","30","354308","0.0-3.0-0.24","20211004","111","2074","","","","","","","","[226.3169]","[226.3169]","[""u"",""i""]","[""""]","null","true","out","i","NO","","1","out","","","","226.3169","learning","8.43","","","","","","","","","","","","","","","","","","","","","","","",""
"","learn_trial","categorize-lines","31","359276","0.0-3.0-0.25","20211004","111","940","","","","","","","","[245.4095]","[245.4095]","[""u"",""i""]","[""""]","null","true","in","i","NO","","0","in","","","","245.4095","learning","10.09","","","","","","","","","","","","","","","","","","","","","","","",""
"","learn_trial","categorize-lines","32","362364","0.0-3.0-0.26","20211004","111","1062","","","","","","","","[232.019]","[232.019]","[""u"",""i""]","[""""]","null","true","in","u","YES","","1","in","","","","232.019","learning","8.94","","","","","","","","","","","","","","","","","","","","","","","",""
"","learn_trial","categorize-lines","33","365708","0.0-3.0-0.27","20211004","111","1316","","","","","","","","[238.6785]","[238.6785]","[""u"",""i""]","[""""]","null","true","out","i","NO","","1","out","","","","238.6785","learning","9.52","","","","","","","","","","","","","","","","","","","","","","","",""
"","learn_trial","categorize-lines","34","372068","0.0-3.0-0.28","20211004","111","2330","","","","","","","","[292.6743]","[292.6743]","[""u"",""i""]","[""""]","null","true","out","u","YES","","0","out","","","","292.6743","learning","13.7","","","","","","","","","","","","","","","","","","","","","","","",""
"","learn_trial","categorize-lines","35","375412","0.0-3.0-0.29","20211004","111","1316","","","","","","","","[223.4641]","[223.4641]","[""u"",""i""]","[""""]","null","true","out","i","NO","","1","out","","","","223.4641","learning","8.17","","","","","","","","","","","","","","","","","","","","","","","",""
"","learn_trial","categorize-lines","36","384866","0.0-3.0-0.30","20211004","111","5428","","","","","","","","[259.5727]","[259.5727]","[""u"",""i""]","[""""]","null","true","in","i","NO","","0","in","","","","259.5727","learning","11.24","","","","","","","","","","","","","","","","","","","","","","","",""
"","learn_trial","categorize-lines","37","392092","0.0-3.0-0.31","20211004","111","3194","","","","","","","","[233.8373]","[233.8373]","[""u"",""i""]","[""""]","null","true","in","i","NO","","0","in","","","","233.8373","learning","9.1","","","","","","","","","","","","","","","","","","","","","","","",""
"","learn_trial","categorize-lines","38","394900","0.0-3.0-0.32","20211004","111","778","","","","","","","","[237.6328]","[237.6328]","[""u"",""i""]","[""""]","null","true","in","u","YES","","1","in","","","","237.6328","learning","9.43","","","","","","","","","","","","","","","","","","","","","","","",""
"","learn_trial","categorize-lines","39","397788","0.0-3.0-0.33","20211004","111","860","","","","","","","","[158.6569]","[158.6569]","[""u"",""i""]","[""""]","null","true","out","i","NO","","1","out","","","","158.6569","learning","1.15","","","","","","","","","","","","","","","","","","","","","","","",""
"","learn_trial","categorize-lines","40","400276","0.0-3.0-0.34","20211004","111","460","","","","","","","","[286.8779]","[286.8779]","[""u"",""i""]","[""""]","null","true","in","u","YES","","1","in","","","","286.8779","learning","13.29","","","","","","","","","","","","","","","","","","","","","","","",""
"","learn_trial","categorize-lines","41","403060","0.0-3.0-0.35","20211004","111","752","","","","","","","","[315.3583]","[315.3583]","[""u"",""i""]","[""""]","null","true","out","i","NO","","1","out","","","","315.3583","learning","15.23","","","","","","","","","","","","","","","","","","","","","","","",""
"","learn_trial","categorize-lines","42","408684","0.0-3.0-0.36","20211004","111","1596","","","","","","","","[257.4286]","[257.4286]","[""u"",""i""]","[""""]","null","true","out","u","YES","","0","out","","","","257.4286","learning","11.07","","","","","","","","","","","","","","","","","","","","","","","",""
"","learn_trial","categorize-lines","43","413932","0.0-3.0-0.37","20211004","111","1220","","","","","","","","[315.0507]","[315.0507]","[""u"",""i""]","[""""]","null","true","in","i","NO","","0","in","","","","315.0507","learning","15.21","","","","","","","","","","","","","","","","","","","","","","","",""
"","learn_trial","categorize-lines","44","421262","0.0-3.0-0.38","20211004","111","3302","","","","","","","","[219.6805]","[219.6805]","[""u"",""i""]","[""""]","null","true","in","i","NO","","0","in","","","","219.6805","learning","7.82","","","","","","","","","","","","","","","","","","","","","","","",""
"","learn_trial","categorize-lines","45","424308","0.0-3.0-0.39","20211004","111","1018","","","","","","","","[286.1789]","[286.1789]","[""u"",""i""]","[""""]","null","true","in","u","YES","","1","in","","","","286.1789","learning","13.24","","","","","","","","","","","","","","","","","","","","","","","",""
"","learn_trial","categorize-lines","46","429596","0.0-3.0-0.40","20211004","111","1260","","","","","","","","[196.2656]","[196.2656]","[""u"",""i""]","[""""]","null","true","in","i","NO","","0","in","","","","196.2656","learning","5.51","","","","","","","","","","","","","","","","","","","","","","","",""
"","learn_trial","categorize-lines","47","434802","0.0-3.0-0.41","20211004","111","1180","","","","","","","","[244.931]","[244.931]","[""u"",""i""]","[""""]","null","true","out","u","YES","","0","out","","","","244.931","learning","10.05","","","","","","","","","","","","","","","","","","","","","","","",""
"","learn_trial","categorize-lines","48","438042","0.0-3.0-0.42","20211004","111","1212","","","","","","","","[275.2239]","[275.2239]","[""u"",""i""]","[""""]","null","true","in","u","YES","","1","in","","","","275.2239","learning","12.44","","","","","","","","","","","","","","","","","","","","","","","",""
"","learn_trial","categorize-lines","49","456124","0.0-3.0-0.43","20211004","111","16054","","","","","","","","[219.1453]","[219.1453]","[""u"",""i""]","[""""]","null","true","in","u","YES","","1","in","","","","219.1453","learning","7.77","","","","","","","","","","","","","","","","","","","","","","","",""
"","learn_trial","categorize-lines","50","459042","0.0-3.0-0.44","20211004","111","892","","","","","","","","[431.9916]","[431.9916]","[""u"",""i""]","[""""]","null","true","out","i","NO","","1","out","","","","431.9916","learning","21.68","","","","","","","","","","","","","","","","","","","","","","","",""
"","learn_trial","categorize-lines","51","462236","0.0-3.0-0.45","20211004","111","1164","","","","","","","","[246.0089]","[246.0089]","[""u"",""i""]","[""""]","null","true","in","u","YES","","1","in","","","","246.0089","learning","10.14","","","","","","","","","","","","","","","","","","","","","","","",""
"","learn_trial","categorize-lines","52","468050","0.0-3.0-0.46","20211004","111","1788","","","","","","","","[328.3911]","[328.3911]","[""u"",""i""]","[""""]","null","true","out","u","YES","","0","out","","","","328.3911","learning","16.06","","","","","","","","","","","","","","","","","","","","","","","",""
"","learn_trial","categorize-lines","53","473762","0.0-3.0-0.47","20211004","111","1684","","","","","","","","[316.5916]","[316.5916]","[""u"",""i""]","[""""]","null","true","out","u","YES","","0","out","","","","316.5916","learning","15.31","","","","","","","","","","","","","","","","","","","","","","","",""
"","learn_trial","categorize-lines","54","478716","0.0-3.0-0.48","20211004","111","922","","","","","","","","[225.3253]","[225.3253]","[""u"",""i""]","[""""]","null","true","in","i","NO","","0","in","","","","225.3253","learning","8.34","","","","","","","","","","","","","","","","","","","","","","","",""
"","learn_trial","categorize-lines","55","481556","0.0-3.0-0.49","20211004","111","812","","","","","","","","[235.4401]","[235.4401]","[""u"",""i""]","[""""]","null","true","in","u","YES","","1","in","","","","235.4401","learning","9.24","","","","","","","","","","","","","","","","","","","","","","","",""
"","learn_trial","categorize-lines","56","484586","0.0-3.0-0.50","20211004","111","1002","","","","","","","","[352.1211]","[352.1211]","[""u"",""i""]","[""""]","null","true","out","i","NO","","1","out","","","","352.1211","learning","17.49","","","","","","","","","","","","","","","","","","","","","","","",""
"","learn_trial","categorize-lines","57","491570","0.0-3.0-0.51","20211004","111","2956","","","","","","","","[242.9078]","[242.9078]","[""u"",""i""]","[""""]","null","true","in","i","NO","","0","in","","","","242.9078","learning","9.88","","","","","","","","","","","","","","","","","","","","","","","",""
"","learn_trial","categorize-lines","58","496538","0.0-3.0-0.52","20211004","111","936","","","","","","","","[217.0172]","[217.0172]","[""u"",""i""]","[""""]","null","true","out","u","YES","","0","out","","","","217.0172","learning","7.57","","","","","","","","","","","","","","","","","","","","","","","",""
"","learn_trial","categorize-lines","59","499380","0.0-3.0-0.53","20211004","111","810","","","","","","","","[155.8185]","[155.8185]","[""u"",""i""]","[""""]","null","true","out","i","NO","","1","out","","","","155.8185","learning","0.78","","","","","","","","","","","","","","","","","","","","","","","",""
"","learn_trial","categorize-lines","60","503346","0.0-3.0-0.54","20211004","111","1938","","","","","","","","[289.5496]","[289.5496]","[""u"",""i""]","[""""]","null","true","in","u","YES","","1","in","","","","289.5496","learning","13.48","","","","","","","","","","","","","","","","","","","","","","","",""
"","learn_trial","categorize-lines","61","506210","0.0-3.0-0.55","20211004","111","834","","","","","","","","[433.4695]","[433.4695]","[""u"",""i""]","[""""]","null","true","out","i","NO","","1","out","","","","433.4695","learning","21.75","","","","","","","","","","","","","","","","","","","","","","","",""
"","learn_trial","categorize-lines","62","511066","0.0-3.0-0.56","20211004","111","828","","","","","","","","[354.016]","[354.016]","[""u"",""i""]","[""""]","null","true","in","i","NO","","0","in","","","","354.016","learning","17.6","","","","","","","","","","","","","","","","","","","","","","","",""
"","learn_trial","categorize-lines","63","516658","0.0-3.0-0.57","20211004","111","1564","","","","","","","","[241.7256]","[241.7256]","[""u"",""i""]","[""""]","null","true","in","i","NO","","0","in","","","","241.7256","learning","9.78","","","","","","","","","","","","","","","","","","","","","","","",""
"","learn_trial","categorize-lines","64","519562","0.0-3.0-0.58","20211004","111","874","","","","","","","","[270.9602]","[270.9602]","[""u"",""i""]","[""""]","null","true","in","u","YES","","1","in","","","","270.9602","learning","12.12","","","","","","","","","","","","","","","","","","","","","","","",""
"","learn_trial","categorize-lines","65","524412","0.0-3.0-0.59","20211004","111","2820","","","","","","","","[160.2908]","[160.2908]","[""u"",""i""]","[""""]","null","true","out","i","NO","","1","out","","","","160.2908","learning","1.36","","","","","","","","","","","","","","","","","","","","","","","",""
"","learn_trial","categorize-lines","66","532506","0.0-3.0-0.60","20211004","111","4066","","","","","","","","[318.7615]","[318.7615]","[""u"",""i""]","[""""]","null","true","out","u","YES","","0","out","","","","318.7615","learning","15.45","","","","","","","","","","","","","","","","","","","","","","","",""
"","learn_trial","categorize-lines","67","535274","0.0-3.0-0.61","20211004","111","740","","","","","","","","[172.2094]","[172.2094]","[""u"",""i""]","[""""]","null","true","out","i","NO","","1","out","","","","172.2094","learning","2.83","","","","","","","","","","","","","","","","","","","","","","","",""
"","learn_trial","categorize-lines","68","538274","0.0-3.0-0.62","20211004","111","972","","","","","","","","[235.555]","[235.555]","[""u"",""i""]","[""""]","null","true","in","u","YES","","1","in","","","","235.555","learning","9.25","","","","","","","","","","","","","","","","","","","","","","","",""
"","learn_trial","categorize-lines","69","546658","0.0-3.0-0.63","20211004","111","4356","","","","","","","","[269.5099]","[269.5099]","[""u"",""i""]","[""""]","null","true","in","i","NO","","0","in","","","","269.5099","learning","12.01","","","","","","","","","","","","","","","","","","","","","","","",""
"","learn_trial","categorize-lines","70","549914","0.0-3.0-0.64","20211004","111","1228","","","","","","","","[259.5727]","[259.5727]","[""u"",""i""]","[""""]","null","true","in","u","YES","","1","in","","","","259.5727","learning","11.24","","","","","","","","","","","","","","","","","","","","","","","",""
"","learn_trial","categorize-lines","71","563212","0.0-3.0-0.65","20211004","111","9268","","","","","","","","[343.8027]","[343.8027]","[""u"",""i""]","[""""]","null","true","out","u","YES","","0","out","","","","343.8027","learning","17","","","","","","","","","","","","","","","","","","","","","","","",""
"","learn_trial","categorize-lines","72","566588","0.0-3.0-0.66","20211004","111","1342","","","","","","","","[348.1918]","[348.1918]","[""u"",""i""]","[""""]","null","true","out","i","NO","","1","out","","","","348.1918","learning","17.26","","","","","","","","","","","","","","","","","","","","","","","",""
"","learn_trial","categorize-lines","73","569930","0.0-3.0-0.67","20211004","111","1314","","","","","","","","[214.9099]","[214.9099]","[""u"",""i""]","[""""]","null","true","out","i","NO","","1","out","","","","214.9099","learning","7.37","","","","","","","","","","","","","","","","","","","","","","","",""
"","learn_trial","categorize-lines","74","572626","0.0-3.0-0.68","20211004","111","666","","","","","","","","[211.2711]","[211.2711]","[""u"",""i""]","[""""]","null","true","out","i","NO","","1","out","","","","211.2711","learning","7.02","","","","","","","","","","","","","","","","","","","","","","","",""
"","learn_trial","categorize-lines","75","577434","0.0-3.0-0.69","20211004","111","778","","","","","","","","[284.5082]","[284.5082]","[""u"",""i""]","[""""]","null","true","out","u","YES","","0","out","","","","284.5082","learning","13.12","","","","","","","","","","","","","","","","","","","","","","","",""
"","learn_trial","categorize-lines","76","582106","0.0-3.0-0.70","20211004","111","642","","","","","","","","[197.4181]","[197.4181]","[""u"",""i""]","[""""]","null","true","in","i","NO","","0","in","","","","197.4181","learning","5.63","","","","","","","","","","","","","","","","","","","","","","","",""
"","learn_trial","categorize-lines","77","585162","0.0-3.0-0.71","20211004","111","1026","","","","","","","","[302.5474]","[302.5474]","[""u"",""i""]","[""""]","null","true","in","u","YES","","1","in","","","","302.5474","learning","14.38","","","","","","","","","","","","","","","","","","","","","","","",""
"","learn_trial","categorize-lines","78","588162","0.0-3.0-0.72","20211004","111","972","","","","","","","","[433.4695]","[433.4695]","[""u"",""i""]","[""""]","null","true","out","i","NO","","1","out","","","","433.4695","learning","21.75","","","","","","","","","","","","","","","","","","","","","","","",""
"","learn_trial","categorize-lines","79","591034","0.0-3.0-0.73","20211004","111","844","","","","","","","","[186.3733]","[186.3733]","[""u"",""i""]","[""""]","null","true","out","i","NO","","1","out","","","","186.3733","learning","4.45","","","","","","","","","","","","","","","","","","","","","","","",""
"","learn_trial","categorize-lines","80","593954","0.0-3.0-0.74","20211004","111","892","","","","","","","","[426.7543]","[426.7543]","[""u"",""i""]","[""""]","null","true","out","i","NO","","1","out","","","","426.7543","learning","21.43","","","","","","","","","","","","","","","","","","","","","","","",""
"","learn_trial","categorize-lines","81","597116","0.0-3.0-0.75","20211004","111","1130","","","","","","","","[224.886]","[224.886]","[""u"",""i""]","[""""]","null","true","in","u","YES","","1","in","","","","224.886","learning","8.3","","","","","","","","","","","","","","","","","","","","","","","",""
"","learn_trial","categorize-lines","82","601210","0.0-3.0-0.76","20211004","111","2062","","","","","","","","[351.2632]","[351.2632]","[""u"",""i""]","[""""]","null","true","out","i","NO","","1","out","","","","351.2632","learning","17.44","","","","","","","","","","","","","","","","","","","","","","","",""
"","learn_trial","categorize-lines","83","604050","0.0-3.0-0.77","20211004","111","810","","","","","","","","[173.1362]","[173.1362]","[""u"",""i""]","[""""]","null","true","out","i","NO","","1","out","","","","173.1362","learning","2.94","","","","","","","","","","","","","","","","","","","","","","","",""
"","learn_trial","categorize-lines","84","606810","0.0-3.0-0.78","20211004","111","730","","","","","","","","[383.8815]","[383.8815]","[""u"",""i""]","[""""]","null","true","out","i","NO","","1","out","","","","383.8815","learning","19.26","","","","","","","","","","","","","","","","","","","","","","","",""
"","learn_trial","categorize-lines","85","611226","0.0-3.0-0.79","20211004","111","2386","","","","","","","","[212.3044]","[212.3044]","[""u"",""i""]","[""""]","null","true","in","u","YES","","1","in","","","","212.3044","learning","7.12","","","","","","","","","","","","","","","","","","","","","","","",""
"","learn_trial","categorize-lines","86","614218","0.0-3.0-0.80","20211004","111","964","","","","","","","","[278.7375]","[278.7375]","[""u"",""i""]","[""""]","null","true","in","u","YES","","1","in","","","","278.7375","learning","12.7","","","","","","","","","","","","","","","","","","","","","","","",""
"","learn_trial","categorize-lines","87","617194","0.0-3.0-0.81","20211004","111","948","","","","","","","","[169.8728]","[169.8728]","[""u"",""i""]","[""""]","null","true","out","i","NO","","1","out","","","","169.8728","learning","2.55","","","","","","","","","","","","","","","","","","","","","","","",""
"","learn_trial","categorize-lines","88","622370","0.0-3.0-0.82","20211004","111","1148","","","","","","","","[306.8586]","[306.8586]","[""u"",""i""]","[""""]","null","true","in","i","NO","","0","in","","","","306.8586","learning","14.67","","","","","","","","","","","","","","","","","","","","","","","",""
"","learn_trial","categorize-lines","89","625434","0.0-3.0-0.83","20211004","111","1036","","","","","","","","[335.8447]","[335.8447]","[""u"",""i""]","[""""]","null","true","out","i","NO","","1","out","","","","335.8447","learning","16.52","","","","","","","","","","","","","","","","","","","","","","","",""
"","learn_trial","categorize-lines","90","628866","0.0-3.0-0.84","20211004","111","1404","","","","","","","","[324.5682]","[324.5682]","[""u"",""i""]","[""""]","null","true","in","u","YES","","1","in","","","","324.5682","learning","15.82","","","","","","","","","","","","","","","","","","","","","","","",""
"","learn_trial","categorize-lines","91","631566","0.0-3.0-0.85","20211004","111","668","","","","","","","","[427.3794]","[427.3794]","[""u"",""i""]","[""""]","null","true","out","i","NO","","1","out","","","","427.3794","learning","21.46","","","","","","","","","","","","","","","","","","","","","","","",""
"","learn_trial","categorize-lines","92","634322","0.0-3.0-0.86","20211004","111","726","","","","","","","","[441.7966]","[441.7966]","[""u"",""i""]","[""""]","null","true","out","i","NO","","1","out","","","","441.7966","learning","22.14","","","","","","","","","","","","","","","","","","","","","","","",""
"","learn_trial","categorize-lines","93","637386","0.0-3.0-0.87","20211004","111","1036","","","","","","","","[197.1294]","[197.1294]","[""u"",""i""]","[""""]","null","true","out","i","NO","","1","out","","","","197.1294","learning","5.6","","","","","","","","","","","","","","","","","","","","","","","",""
"","learn_trial","categorize-lines","94","642026","0.0-3.0-0.88","20211004","111","612","","","","","","","","[189.3983]","[189.3983]","[""u"",""i""]","[""""]","null","true","in","i","NO","","0","in","","","","189.3983","learning","4.78","","","","","","","","","","","","","","","","","","","","","","","",""
"","learn_trial","categorize-lines","95","644842","0.0-3.0-0.89","20211004","111","786","","","","","","","","[309.2634]","[309.2634]","[""u"",""i""]","[""""]","null","true","out","i","NO","","1","out","","","","309.2634","learning","14.83","","","","","","","","","","","","","","","","","","","","","","","",""
"","learn_trial","categorize-lines","96","647706","0.0-3.0-0.90","20211004","111","836","","","","","","","","[302.2523]","[302.2523]","[""u"",""i""]","[""""]","null","true","out","i","NO","","1","out","","","","302.2523","learning","14.36","","","","","","","","","","","","","","","","","","","","","","","",""
"","learn_trial","categorize-lines","97","652562","0.0-3.0-0.91","20211004","111","826","","","","","","","","[268.8532]","[268.8532]","[""u"",""i""]","[""""]","null","true","in","i","NO","","0","in","","","","268.8532","learning","11.96","","","","","","","","","","","","","","","","","","","","","","","",""
"","learn_trial","categorize-lines","98","657258","0.0-3.0-0.92","20211004","111","670","","","","","","","","[248.5424]","[248.5424]","[""u"",""i""]","[""""]","null","true","in","i","NO","","0","in","","","","248.5424","learning","10.35","","","","","","","","","","","","","","","","","","","","","","","",""
"","learn_trial","categorize-lines","99","660426","0.0-3.0-0.93","20211004","111","1140","","","","","","","","[242.9078]","[242.9078]","[""u"",""i""]","[""""]","null","true","in","u","YES","","1","in","","","","242.9078","learning","9.88","","","","","","","","","","","","","","","","","","","","","","","",""
"","learn_trial","categorize-lines","100","665490","0.0-3.0-0.94","20211004","111","1036","","","","","","","","[354.5346]","[354.5346]","[""u"",""i""]","[""""]","null","true","in","i","NO","","0","in","","","","354.5346","learning","17.63","","","","","","","","","","","","","","","","","","","","","","","",""
"","learn_trial","categorize-lines","101","670514","0.0-3.0-0.95","20211004","111","996","","","","","","","","[300.928]","[300.928]","[""u"",""i""]","[""""]","null","true","out","u","YES","","0","out","","","","300.928","learning","14.27","","","","","","","","","","","","","","","","","","","","","","","",""
"","learn_trial","categorize-lines","102","673354","0.0-3.0-0.96","20211004","111","812","","","","","","","","[440.9352]","[440.9352]","[""u"",""i""]","[""""]","null","true","out","i","NO","","1","out","","","","440.9352","learning","22.1","","","","","","","","","","","","","","","","","","","","","","","",""
"","learn_trial","categorize-lines","103","679586","0.0-3.0-0.97","20211004","111","2204","","","","","","","","[282.5715]","[282.5715]","[""u"",""i""]","[""""]","null","true","out","u","YES","","0","out","","","","282.5715","learning","12.98","","","","","","","","","","","","","","","","","","","","","","","",""
"","learn_trial","categorize-lines","104","682298","0.0-3.0-0.98","20211004","111","682","","","","","","","","[290.1153]","[290.1153]","[""u"",""i""]","[""""]","null","true","in","u","YES","","1","in","","","","290.1153","learning","13.52","","","","","","","","","","","","","","","","","","","","","","","",""
"","learn_trial","categorize-lines","105","685322","0.0-3.0-0.99","20211004","111","994","","","","","","","","[170.787]","[170.787]","[""u"",""i""]","[""""]","null","true","out","i","NO","","1","out","","","","170.787","learning","2.66","","","","","","","","","","","","","","","","","","","","","","","",""
"","learn_trial","categorize-lines","106","688562","0.0-3.0-0.100","20211004","111","1210","","","","","","","","[254.3077]","[254.3077]","[""u"",""i""]","[""""]","null","true","in","u","YES","","1","in","","","","254.3077","learning","10.82","","","","","","","","","","","","","","","","","","","","","","","",""
"","learn_trial","categorize-lines","107","691874","0.0-3.0-0.101","20211004","111","1284","","","","","","","","[185.4662]","[185.4662]","[""u"",""i""]","[""""]","null","true","out","i","NO","","1","out","","","","185.4662","learning","4.35","","","","","","","","","","","","","","","","","","","","","","","",""
"","learn_trial","categorize-lines","108","698138","0.0-3.0-0.102","20211004","111","2232","","","","","","","","[231.4537]","[231.4537]","[""u"",""i""]","[""""]","null","true","in","i","NO","","0","in","","","","231.4537","learning","8.89","","","","","","","","","","","","","","","","","","","","","","","",""
"","learn_trial","categorize-lines","109","700802","0.0-3.0-0.103","20211004","111","634","","","","","","","","[179.6767]","[179.6767]","[""u"",""i""]","[""""]","null","true","out","i","NO","","1","out","","","","179.6767","learning","3.7","","","","","","","","","","","","","","","","","","","","","","","",""
"","learn_trial","categorize-lines","110","705570","0.0-3.0-0.104","20211004","111","738","","","","","","","","[397.6065]","[397.6065]","[""u"",""i""]","[""""]","null","true","in","i","NO","","0","in","","","","397.6065","learning","19.98","","","","","","","","","","","","","","","","","","","","","","","",""
"","learn_trial","categorize-lines","111","709048","0.0-3.0-0.105","20211004","111","1452","","","","","","","","[260.715]","[260.715]","[""u"",""i""]","[""""]","null","true","in","u","YES","","1","in","","","","260.715","learning","11.33","","","","","","","","","","","","","","","","","","","","","","","",""
"","learn_trial","categorize-lines","112","715090","0.0-3.0-0.106","20211004","111","2012","","","","","","","","[338.1466]","[338.1466]","[""u"",""i""]","[""""]","null","true","out","u","YES","","0","out","","","","338.1466","learning","16.66","","","","","","","","","","","","","","","","","","","","","","","",""
"","learn_trial","categorize-lines","113","717890","0.0-3.0-0.107","20211004","111","770","","","","","","","","[402.0934]","[402.0934]","[""u"",""i""]","[""""]","null","true","out","i","NO","","1","out","","","","402.0934","learning","20.21","","","","","","","","","","","","","","","","","","","","","","","",""
"","learn_trial","categorize-lines","114","722682","0.0-3.0-0.108","20211004","111","764","","","","","","","","[271.7546]","[271.7546]","[""u"",""i""]","[""""]","null","true","in","i","NO","","0","in","","","","271.7546","learning","12.18","","","","","","","","","","","","","","","","","","","","","","","",""
"","learn_trial","categorize-lines","115","731298","0.0-3.0-0.109","20211004","111","4588","","","","","","","","[215.1197]","[215.1197]","[""u"",""i""]","[""""]","null","true","in","i","NO","","0","in","","","","215.1197","learning","7.39","","","","","","","","","","","","","","","","","","","","","","","",""
"","learn_trial","categorize-lines","116","736690","0.0-3.0-0.110","20211004","111","3362","","","","","","","","[389.5417]","[389.5417]","[""u"",""i""]","[""""]","null","true","in","u","YES","","1","in","","","","389.5417","learning","19.56","","","","","","","","","","","","","","","","","","","","","","","",""
"","learn_trial","categorize-lines","117","739452","0.0-3.0-0.111","20211004","111","732","","","","","","","","[292.2463]","[292.2463]","[""u"",""i""]","[""""]","null","true","in","u","YES","","1","in","","","","292.2463","learning","13.67","","","","","","","","","","","","","","","","","","","","","","","",""
"","learn_trial","categorize-lines","118","742746","0.0-3.0-0.112","20211004","111","1262","","","","","","","","[378.8576]","[378.8576]","[""u"",""i""]","[""""]","null","true","out","i","NO","","1","out","","","","378.8576","learning","18.99","","","","","","","","","","","","","","","","","","","","","","","",""
"","learn_trial","categorize-lines","119","745578","0.0-3.0-0.113","20211004","111","802","","","","","","","","[266.7626]","[266.7626]","[""u"",""i""]","[""""]","null","true","out","i","NO","","1","out","","","","266.7626","learning","11.8","","","","","","","","","","","","","","","","","","","","","","","",""
"","learn_trial","categorize-lines","120","750522","0.0-3.0-0.114","20211004","111","914","","","","","","","","[196.3614]","[196.3614]","[""u"",""i""]","[""""]","null","true","in","i","NO","","0","in","","","","196.3614","learning","5.52","","","","","","","","","","","","","","","","","","","","","","","",""
"","learn_trial","categorize-lines","121","755426","0.0-3.0-0.115","20211004","111","876","","","","","","","","[179.0641]","[179.0641]","[""u"",""i""]","[""""]","null","true","in","i","NO","","0","in","","","","179.0641","learning","3.63","","","","","","","","","","","","","","","","","","","","","","","",""
"","learn_trial","categorize-lines","122","757794","0.0-3.0-0.116","20211004","111","340","","","","","","","","[243.7389]","[243.7389]","[""u"",""i""]","[""""]","null","true","in","u","YES","","1","in","","","","243.7389","learning","9.95","","","","","","","","","","","","","","","","","","","","","","","",""
"","learn_trial","categorize-lines","123","763338","0.0-3.0-0.117","20211004","111","1516","","","","","","","","[319.0728]","[319.0728]","[""u"",""i""]","[""""]","null","true","in","i","NO","","0","in","","","","319.0728","learning","15.47","","","","","","","","","","","","","","","","","","","","","","","",""
"","learn_trial","categorize-lines","124","766010","0.0-3.0-0.118","20211004","111","646","","","","","","","","[176.8932]","[176.8932]","[""u"",""i""]","[""""]","null","true","out","i","NO","","1","out","","","","176.8932","learning","3.38","","","","","","","","","","","","","","","","","","","","","","","",""
"","learn_trial","categorize-lines","125","771952","0.0-3.0-0.119","20211004","111","1916","","","","","","","","[189.4907]","[189.4907]","[""u"",""i""]","[""""]","null","true","out","u","YES","","0","out","","","","189.4907","learning","4.79","","","","","","","","","","","","","","","","","","","","","","","",""
"","learn_trial","categorize-lines","126","777008","0.0-3.0-0.120","20211004","111","1030","","","","","","","","[356.0948]","[356.0948]","[""u"",""i""]","[""""]","null","true","in","i","NO","","0","in","","","","356.0948","learning","17.72","","","","","","","","","","","","","","","","","","","","","","","",""
"","learn_trial","categorize-lines","127","785082","0.0-3.0-0.121","20211004","111","4046","","","","","","","","[204.9759]","[204.9759]","[""u"",""i""]","[""""]","null","true","in","i","NO","","0","in","","","","204.9759","learning","6.4","","","","","","","","","","","","","","","","","","","","","","","",""
"","learn_trial","categorize-lines","128","793416","0.0-3.0-0.122","20211004","111","4310","","","","","","","","[186.2824]","[186.2824]","[""u"",""i""]","[""""]","null","true","in","i","NO","","0","in","","","","186.2824","learning","4.44","","","","","","","","","","","","","","","","","","","","","","","",""
"","learn_trial","categorize-lines","129","798706","0.0-3.0-0.123","20211004","111","1262","","","","","","","","[160.7608]","[160.7608]","[""u"",""i""]","[""""]","null","true","out","u","YES","","0","out","","","","160.7608","learning","1.42","","","","","","","","","","","","","","","","","","","","","","","",""
"","learn_trial","categorize-lines","130","801480","0.0-3.0-0.124","20211004","111","746","","","","","","","","[281.4707]","[281.4707]","[""u"",""i""]","[""""]","null","true","in","u","YES","","1","in","","","","281.4707","learning","12.9","","","","","","","","","","","","","","","","","","","","","","","",""
"","learn_trial","categorize-lines","131","806176","0.0-3.0-0.125","20211004","111","666","","","","","","","","[214.2817]","[214.2817]","[""u"",""i""]","[""""]","null","true","out","u","YES","","0","out","","","","214.2817","learning","7.31","","","","","","","","","","","","","","","","","","","","","","","",""
"","learn_trial","categorize-lines","132","810816","0.0-3.0-0.126","20211004","111","610","","","","","","","","[304.621]","[304.621]","[""u"",""i""]","[""""]","null","true","out","u","YES","","0","out","","","","304.621","learning","14.52","","","","","","","","","","","","","","","","","","","","","","","",""
"","learn_trial","categorize-lines","133","814382","0.0-3.0-0.127","20211004","111","1530","","","","","","","","[316.4372]","[316.4372]","[""u"",""i""]","[""""]","null","true","in","u","YES","","1","in","","","","316.4372","learning","15.3","","","","","","","","","","","","","","","","","","","","","","","",""
"","learn_trial","categorize-lines","134","817440","0.0-3.0-0.128","20211004","111","1028","","","","","","","","[414.0384]","[414.0384]","[""u"",""i""]","[""""]","null","true","out","i","NO","","1","out","","","","414.0384","learning","20.81","","","","","","","","","","","","","","","","","","","","","","","",""
"","learn_trial","categorize-lines","135","824232","0.0-3.0-0.129","20211004","111","2766","","","","","","","","[274.6873]","[274.6873]","[""u"",""i""]","[""""]","null","true","out","u","YES","","0","out","","","","274.6873","learning","12.4","","","","","","","","","","","","","","","","","","","","","","","",""
"","learn_trial","categorize-lines","136","828976","0.0-3.0-0.130","20211004","111","718","","","","","","","","[256.4258]","[256.4258]","[""u"",""i""]","[""""]","null","true","out","u","YES","","0","out","","","","256.4258","learning","10.99","","","","","","","","","","","","","","","","","","","","","","","",""
"","learn_trial","categorize-lines","137","845184","0.0-3.0-0.131","20211004","111","14178","","","","","","","","[303.4343]","[303.4343]","[""u"",""i""]","[""""]","null","true","in","u","YES","","1","in","","","","303.4343","learning","14.44","","","","","","","","","","","","","","","","","","","","","","","",""
"","learn_trial","categorize-lines","138","848312","0.0-3.0-0.132","20211004","111","1098","","","","","","","","[217.0172]","[217.0172]","[""u"",""i""]","[""""]","null","true","out","i","NO","","1","out","","","","217.0172","learning","7.57","","","","","","","","","","","","","","","","","","","","","","","",""
"","learn_trial","categorize-lines","139","851624","0.0-3.0-0.133","20211004","111","1284","","","","","","","","[233.9515]","[233.9515]","[""u"",""i""]","[""""]","null","true","in","u","YES","","1","in","","","","233.9515","learning","9.11","","","","","","","","","","","","","","","","","","","","","","","",""
"","learn_trial","categorize-lines","140","856536","0.0-3.0-0.134","20211004","111","884","","","","","","","","[193.6971]","[193.6971]","[""u"",""i""]","[""""]","null","true","in","i","NO","","0","in","","","","193.6971","learning","5.24","","","","","","","","","","","","","","","","","","","","","","","",""
"","learn_trial","categorize-lines","141","861568","0.0-3.0-0.135","20211004","111","1002","","","","","","","","[325.361]","[325.361]","[""u"",""i""]","[""""]","null","true","out","u","YES","","0","out","","","","325.361","learning","15.87","","","","","","","","","","","","","","","","","","","","","","","",""
"","learn_trial","categorize-lines","142","866648","0.0-3.0-0.136","20211004","111","1050","","","","","","","","[351.4346]","[351.4346]","[""u"",""i""]","[""""]","null","true","in","i","NO","","0","in","","","","351.4346","learning","17.45","","","","","","","","","","","","","","","","","","","","","","","",""
"","learn_trial","categorize-lines","143","869464","0.0-3.0-0.137","20211004","111","786","","","","","","","","[278.0583]","[278.0583]","[""u"",""i""]","[""""]","null","true","in","u","YES","","1","in","","","","278.0583","learning","12.65","","","","","","","","","","","","","","","","","","","","","","","",""
"","learn_trial","categorize-lines","144","874120","0.0-3.0-0.138","20211004","111","626","","","","","","","","[282.8474]","[282.8474]","[""u"",""i""]","[""""]","null","true","out","u","YES","","0","out","","","","282.8474","learning","13","","","","","","","","","","","","","","","","","","","","","","","",""
"","learn_trial","categorize-lines","145","878954","0.0-3.0-0.139","20211004","111","800","","","","","","","","[304.3239]","[304.3239]","[""u"",""i""]","[""""]","null","true","in","i","NO","","0","in","","","","304.3239","learning","14.5","","","","","","","","","","","","","","","","","","","","","","","",""
"","learn_trial","categorize-lines","146","883840","0.0-3.0-0.140","20211004","111","856","","","","","","","","[153.0308]","[153.0308]","[""u"",""i""]","[""""]","null","true","out","u","YES","","0","out","","","","153.0308","learning","0.41","","","","","","","","","","","","","","","","","","","","","","","",""
"","learn_trial","categorize-lines","147","887904","0.0-3.0-0.141","20211004","111","2032","","","","","","","","[215.6451]","[215.6451]","[""u"",""i""]","[""""]","null","true","out","i","NO","","1","out","","","","215.6451","learning","7.44","","","","","","","","","","","","","","","","","","","","","","","",""
"","learn_trial","categorize-lines","148","890368","0.0-3.0-0.142","20211004","111","434","","","","","","","","[297.2797]","[297.2797]","[""u"",""i""]","[""""]","null","true","in","u","YES","","1","in","","","","297.2797","learning","14.02","","","","","","","","","","","","","","","","","","","","","","","",""
"","learn_trial","categorize-lines","149","895162","0.0-3.0-0.143","20211004","111","762","","","","","","","","[414.4426]","[414.4426]","[""u"",""i""]","[""""]","null","true","out","u","YES","","0","out","","","","414.4426","learning","20.83","","","","","","","","","","","","","","","","","","","","","","","",""
"","learn_trial","categorize-lines","150","900792","0.0-3.0-0.144","20211004","111","1600","","","","","","","","[380.8964]","[380.8964]","[""u"",""i""]","[""""]","null","true","out","u","YES","","0","out","","","","380.8964","learning","19.1","","","","","","","","","","","","","","","","","","","","","","","",""
"","learn_trial","categorize-lines","151","903560","0.0-3.0-0.145","20211004","111","740","","","","","","","","[150.8808]","[150.8808]","[""u"",""i""]","[""""]","null","true","out","i","NO","","1","out","","","","150.8808","learning","0.12","","","","","","","","","","","","","","","","","","","","","","","",""
"","learn_trial","categorize-lines","152","923024","0.0-3.0-0.146","20211004","111","15434","","","","","","","","[226.0962]","[226.0962]","[""u"",""i""]","[""""]","null","true","in","i","NO","","0","in","","","","226.0962","learning","8.41","","","","","","","","","","","","","","","","","","","","","","","",""
"","learn_trial","categorize-lines","153","928688","0.0-3.0-0.147","20211004","111","1636","","","","","","","","[228.4247]","[228.4247]","[""u"",""i""]","[""""]","null","true","out","u","YES","","0","out","","","","228.4247","learning","8.62","","","","","","","","","","","","","","","","","","","","","","","",""
"","learn_trial","categorize-lines","154","935578","0.0-3.0-0.148","20211004","111","2860","","","","","","","","[274.8213]","[274.8213]","[""u"",""i""]","[""""]","null","true","out","u","YES","","0","out","","","","274.8213","learning","12.41","","","","","","","","","","","","","","","","","","","","","","","",""
"","learn_trial","categorize-lines","155","940378","0.0-3.0-0.149","20211004","111","766","","","","","","","","[306.8586]","[306.8586]","[""u"",""i""]","[""""]","null","true","out","u","YES","","0","out","","","","306.8586","learning","14.67","","","","","","","","","","","","","","","","","","","","","","","",""
"","learn_trial","categorize-lines","156","943760","0.0-3.0-0.150","20211004","111","1352","","","","","","","","[162.972]","[162.972]","[""u"",""i""]","[""""]","null","true","out","i","NO","","1","out","","","","162.972","learning","1.7","","","","","","","","","","","","","","","","","","","","","","","",""
"","learn_trial","categorize-lines","157","947792","0.0-3.0-0.151","20211004","111","2002","","","","","","","","[280.511]","[280.511]","[""u"",""i""]","[""""]","null","true","in","u","YES","","1","in","","","","280.511","learning","12.83","","","","","","","","","","","","","","","","","","","","","","","",""
"","learn_trial","categorize-lines","158","952568","0.0-3.0-0.152","20211004","111","748","","","","","","","","[272.5513]","[272.5513]","[""u"",""i""]","[""""]","null","true","out","u","YES","","0","out","","","","272.5513","learning","12.24","","","","","","","","","","","","","","","","","","","","","","","",""
"","learn_trial","categorize-lines","159","954952","0.0-3.0-0.153","20211004","111","356","","","","","","","","[367.2103]","[367.2103]","[""u"",""i""]","[""""]","null","true","out","i","NO","","1","out","","","","367.2103","learning","18.35","","","","","","","","","","","","","","","","","","","","","","","",""
"","learn_trial","categorize-lines","160","959240","0.0-3.0-0.154","20211004","111","260","","","","","","","","[381.2683]","[381.2683]","[""u"",""i""]","[""""]","null","true","out","u","YES","","0","out","","","","381.2683","learning","19.12","","","","","","","","","","","","","","","","","","","","","","","",""
"","learn_trial","categorize-lines","161","963064","0.0-3.0-0.155","20211004","111","1798","","","","","","","","[287.8593]","[287.8593]","[""u"",""i""]","[""""]","null","true","in","u","YES","","1","in","","","","287.8593","learning","13.36","","","","","","","","","","","","","","","","","","","","","","","",""
"","learn_trial","categorize-lines","162","970112","0.0-3.0-0.156","20211004","111","3020","","","","","","","","[395.4783]","[395.4783]","[""u"",""i""]","[""""]","null","true","out","u","YES","","0","out","","","","395.4783","learning","19.87","","","","","","","","","","","","","","","","","","","","","","","",""
"","learn_trial","categorize-lines","163","974528","0.0-3.0-0.157","20211004","111","388","","","","","","","","[268.0673]","[268.0673]","[""u"",""i""]","[""""]","null","true","out","u","YES","","0","out","","","","268.0673","learning","11.9","","","","","","","","","","","","","","","","","","","","","","","",""
"","learn_trial","categorize-lines","164","977448","0.0-3.0-0.158","20211004","111","892","","","","","","","","[177.9319]","[177.9319]","[""u"",""i""]","[""""]","null","true","out","i","NO","","1","out","","","","177.9319","learning","3.5","","","","","","","","","","","","","","","","","","","","","","","",""
"","learn_trial","categorize-lines","165","982024","0.0-3.0-0.159","20211004","111","548","","","","","","","","[223.5732]","[223.5732]","[""u"",""i""]","[""""]","null","true","in","i","NO","","0","in","","","","223.5732","learning","8.18","","","","","","","","","","","","","","","","","","","","","","","",""
"","learn_trial","categorize-lines","166","985064","0.0-3.0-0.160","20211004","111","1012","","","","","","","","[260.5878]","[260.5878]","[""u"",""i""]","[""""]","null","true","in","u","YES","","1","in","","","","260.5878","learning","11.32","","","","","","","","","","","","","","","","","","","","","","","",""
"","learn_trial","categorize-lines","167","987864","0.0-3.0-0.161","20211004","111","772","","","","","","","","[242.6709]","[242.6709]","[""u"",""i""]","[""""]","null","true","in","u","YES","","1","in","","","","242.6709","learning","9.86","","","","","","","","","","","","","","","","","","","","","","","",""
"","learn_trial","categorize-lines","168","992584","0.0-3.0-0.162","20211004","111","692","","","","","","","","[228.0906]","[228.0906]","[""u"",""i""]","[""""]","null","true","out","u","YES","","0","out","","","","228.0906","learning","8.59","","","","","","","","","","","","","","","","","","","","","","","",""
"","learn_trial","categorize-lines","169","995198","0.0-3.0-0.163","20211004","111","588","","","","","","","","[258.5615]","[258.5615]","[""u"",""i""]","[""""]","null","true","in","u","YES","","1","in","","","","258.5615","learning","11.16","","","","","","","","","","","","","","","","","","","","","","","",""
"","learn_trial","categorize-lines","170","1000392","0.0-3.0-0.164","20211004","111","1164","","","","","","","","[273.0837]","[273.0837]","[""u"",""i""]","[""""]","null","true","out","u","YES","","0","out","","","","273.0837","learning","12.28","","","","","","","","","","","","","","","","","","","","","","","",""
"","learn_trial","categorize-lines","171","1003384","0.0-3.0-0.165","20211004","111","958","","","","","","","","[204.8759]","[204.8759]","[""u"",""i""]","[""""]","null","true","out","i","NO","","1","out","","","","204.8759","learning","6.39","","","","","","","","","","","","","","","","","","","","","","","",""
"","learn_trial","categorize-lines","172","1007320","0.0-3.0-0.166","20211004","111","1908","","","","","","","","[356.0948]","[356.0948]","[""u"",""i""]","[""""]","null","true","in","u","YES","","1","in","","","","356.0948","learning","17.72","","","","","","","","","","","","","","","","","","","","","","","",""
"","learn_trial","categorize-lines","173","1011686","0.0-3.0-0.167","20211004","111","2342","","","","","","","","[189.1213]","[189.1213]","[""u"",""i""]","[""""]","null","true","out","i","NO","","1","out","","","","189.1213","learning","4.75","","","","","","","","","","","","","","","","","","","","","","","",""
"","learn_trial","categorize-lines","174","1016848","0.0-3.0-0.168","20211004","111","1132","","","","","","","","[338.8071]","[338.8071]","[""u"",""i""]","[""""]","null","true","out","u","YES","","0","out","","","","338.8071","learning","16.7","","","","","","","","","","","","","","","","","","","","","","","",""
"","learn_trial","categorize-lines","175","1021672","0.0-3.0-0.169","20211004","111","796","","","","","","","","[251.8382]","[251.8382]","[""u"",""i""]","[""""]","null","true","in","i","NO","","0","in","","","","251.8382","learning","10.62","","","","","","","","","","","","","","","","","","","","","","","",""
"","learn_trial","categorize-lines","176","1024520","0.0-3.0-0.170","20211004","111","820","","","","","","","","[188.2927]","[188.2927]","[""u"",""i""]","[""""]","null","true","out","i","NO","","1","out","","","","188.2927","learning","4.66","","","","","","","","","","","","","","","","","","","","","","","",""
"","learn_trial","categorize-lines","177","1030432","0.0-3.0-0.171","20211004","111","1884","","","","","","","","[370.2688]","[370.2688]","[""u"",""i""]","[""""]","null","true","out","u","YES","","0","out","","","","370.2688","learning","18.52","","","","","","","","","","","","","","","","","","","","","","","",""
"","learn_trial","categorize-lines","178","1035160","0.0-3.0-0.172","20211004","111","700","","","","","","","","[223.5732]","[223.5732]","[""u"",""i""]","[""""]","null","true","in","i","NO","","0","in","","","","223.5732","learning","8.18","","","","","","","","","","","","","","","","","","","","","","","",""
"","learn_trial","categorize-lines","179","1039920","0.0-3.0-0.173","20211004","111","730","","","","","","","","[261.0969]","[261.0969]","[""u"",""i""]","[""""]","null","true","out","u","YES","","0","out","","","","261.0969","learning","11.36","","","","","","","","","","","","","","","","","","","","","","","",""
"","learn_trial","categorize-lines","180","1044808","0.0-3.0-0.174","20211004","111","860","","","","","","","","[219.6805]","[219.6805]","[""u"",""i""]","[""""]","null","true","in","i","NO","","0","in","","","","219.6805","learning","7.82","","","","","","","","","","","","","","","","","","","","","","","",""
"","learn_trial","categorize-lines","181","1050944","0.0-3.0-0.175","20211004","111","2108","","","","","","","","[228.6477]","[228.6477]","[""u"",""i""]","[""""]","null","true","in","i","NO","","0","in","","","","228.6477","learning","8.64","","","","","","","","","","","","","","","","","","","","","","","",""
"","learn_trial","categorize-lines","182","1059008","0.0-3.0-0.176","20211004","111","6036","","","","","","","","[319.8521]","[319.8521]","[""u"",""i""]","[""""]","null","true","in","u","YES","","1","in","","","","319.8521","learning","15.52","","","","","","","","","","","","","","","","","","","","","","","",""
"","learn_trial","categorize-lines","183","1067456","0.0-3.0-0.177","20211004","111","4420","","","","","","","","[170.5372]","[170.5372]","[""u"",""i""]","[""""]","null","true","in","i","NO","","0","in","","","","170.5372","learning","2.63","","","","","","","","","","","","","","","","","","","","","","","",""
"","learn_trial","categorize-lines","184","1070262","0.0-3.0-0.178","20211004","111","778","","","","","","","","[235.0957]","[235.0957]","[""u"",""i""]","[""""]","null","true","in","u","YES","","1","in","","","","235.0957","learning","9.21","","","","","","","","","","","","","","","","","","","","","","","",""
"","learn_trial","categorize-lines","185","1074934","0.0-3.0-0.179","20211004","111","642","","","","","","","","[240.0801]","[240.0801]","[""u"",""i""]","[""""]","null","true","out","u","YES","","0","out","","","","240.0801","learning","9.64","","","","","","","","","","","","","","","","","","","","","","","",""
"","learn_trial","categorize-lines","186","1077678","0.0-3.0-0.180","20211004","111","716","","","","","","","","[198.8682]","[198.8682]","[""u"",""i""]","[""""]","null","true","in","u","YES","","1","in","","","","198.8682","learning","5.78","","","","","","","","","","","","","","","","","","","","","","","",""
"","learn_trial","categorize-lines","187","1082598","0.0-3.0-0.181","20211004","111","892","","","","","","","","[286.0393]","[286.0393]","[""u"",""i""]","[""""]","null","true","in","i","NO","","0","in","","","","286.0393","learning","13.23","","","","","","","","","","","","","","","","","","","","","","","",""
"","learn_trial","categorize-lines","188","1085934","0.0-3.0-0.182","20211004","111","1310","","","","","","","","[314.8971]","[314.8971]","[""u"",""i""]","[""""]","null","true","in","u","YES","","1","in","","","","314.8971","learning","15.2","","","","","","","","","","","","","","","","","","","","","","","",""
"","learn_trial","categorize-lines","189","1089030","0.0-3.0-0.183","20211004","111","1066","","","","","","","","[261.6069]","[261.6069]","[""u"",""i""]","[""""]","null","true","in","u","YES","","1","in","","","","261.6069","learning","11.4","","","","","","","","","","","","","","","","","","","","","","","",""
"","learn_trial","categorize-lines","190","1097760","0.0-3.0-0.184","20211004","111","4700","","","","","","","","[372.443]","[372.443]","[""u"",""i""]","[""""]","null","true","in","i","NO","","0","in","","","","372.443","learning","18.64","","","","","","","","","","","","","","","","","","","","","","","",""
"","learn_trial","categorize-lines","191","1105638","0.0-3.0-0.185","20211004","111","5850","","","","","","","","[160.4473]","[160.4473]","[""u"",""i""]","[""""]","null","true","out","i","NO","","1","out","","","","160.4473","learning","1.38","","","","","","","","","","","","","","","","","","","","","","","",""
"","learn_trial","categorize-lines","192","1110334","0.0-3.0-0.186","20211004","111","668","","","","","","","","[205.4765]","[205.4765]","[""u"",""i""]","[""""]","null","true","in","i","NO","","0","in","","","","205.4765","learning","6.45","","","","","","","","","","","","","","","","","","","","","","","",""
"","learn_trial","categorize-lines","193","1114046","0.0-3.0-0.187","20211004","111","1684","","","","","","","","[391.0651]","[391.0651]","[""u"",""i""]","[""""]","null","true","out","i","NO","","1","out","","","","391.0651","learning","19.64","","","","","","","","","","","","","","","","","","","","","","","",""
"","learn_trial","categorize-lines","194","1118966","0.0-3.0-0.188","20211004","111","892","","","","","","","","[213.0308]","[213.0308]","[""u"",""i""]","[""""]","null","true","in","i","NO","","0","in","","","","213.0308","learning","7.19","","","","","","","","","","","","","","","","","","","","","","","",""
"","learn_trial","categorize-lines","195","1121412","0.0-3.0-0.189","20211004","111","418","","","","","","","","[196.841]","[196.841]","[""u"",""i""]","[""""]","null","true","out","i","NO","","1","out","","","","196.841","learning","5.57","","","","","","","","","","","","","","","","","","","","","","","",""
"","learn_trial","categorize-lines","196","1126158","0.0-3.0-0.190","20211004","111","718","","","","","","","","[249.3927]","[249.3927]","[""u"",""i""]","[""""]","null","true","out","u","YES","","0","out","","","","249.3927","learning","10.42","","","","","","","","","","","","","","","","","","","","","","","",""
"","learn_trial","categorize-lines","197","1129024","0.0-3.0-0.191","20211004","111","836","","","","","","","","[259.6994]","[259.6994]","[""u"",""i""]","[""""]","null","true","in","u","YES","","1","in","","","","259.6994","learning","11.25","","","","","","","","","","","","","","","","","","","","","","","",""
"","learn_trial","categorize-lines","198","1132054","0.0-3.0-0.192","20211004","111","1004","","","","","","","","[302.3998]","[302.3998]","[""u"",""i""]","[""""]","null","true","out","i","NO","","1","out","","","","302.3998","learning","14.37","","","","","","","","","","","","","","","","","","","","","","","",""
"","learn_trial","categorize-lines","199","1134558","0.0-3.0-0.193","20211004","111","476","","","","","","","","[269.773]","[269.773]","[""u"",""i""]","[""""]","null","true","in","u","YES","","1","in","","","","269.773","learning","12.03","","","","","","","","","","","","","","","","","","","","","","","",""
"","learn_trial","categorize-lines","200","1139256","0.0-3.0-0.194","20211004","111","668","","","","","","","","[215.1197]","[215.1197]","[""u"",""i""]","[""""]","null","true","in","i","NO","","0","in","","","","215.1197","learning","7.39","","","","","","","","","","","","","","","","","","","","","","","",""
"","learn_trial","categorize-lines","201","1144094","0.0-3.0-0.195","20211004","111","810","","","","","","","","[255.801]","[255.801]","[""u"",""i""]","[""""]","null","true","out","u","YES","","0","out","","","","255.801","learning","10.94","","","","","","","","","","","","","","","","","","","","","","","",""
"","learn_trial","categorize-lines","202","1146614","0.0-3.0-0.196","20211004","111","490","","","","","","","","[308.8111]","[308.8111]","[""u"",""i""]","[""""]","null","true","in","u","YES","","1","in","","","","308.8111","learning","14.8","","","","","","","","","","","","","","","","","","","","","","","",""
"","learn_trial","categorize-lines","203","1149270","0.0-3.0-0.197","20211004","111","626","","","","","","","","[204.3767]","[204.3767]","[""u"",""i""]","[""""]","null","true","out","i","NO","","1","out","","","","204.3767","learning","6.34","","","","","","","","","","","","","","","","","","","","","","","",""
"","learn_trial","categorize-lines","204","1151776","0.0-3.0-0.198","20211004","111","476","","","","","","","","[346.6662]","[346.6662]","[""u"",""i""]","[""""]","null","true","in","u","YES","","1","in","","","","346.6662","learning","17.17","","","","","","","","","","","","","","","","","","","","","","","",""
"","learn_trial","categorize-lines","205","1156494","0.0-3.0-0.199","20211004","111","690","","","","","","","","[340.7966]","[340.7966]","[""u"",""i""]","[""""]","null","true","out","u","YES","","0","out","","","","340.7966","learning","16.82","","","","","","","","","","","","","","","","","","","","","","","",""
"","transfer_instructions","instructions","206","1213140","0.0-4.0-0.0","20211004","111","56644","","","","","","[{""page_index"":0,""viewing_time"":2924},{""page_index"":1,""viewing_time"":53720}]","","","","","","","","","","","","","","","","","","","","","","","","","","","","","","","","","","","","","","","","","","",""
"","transfer_trial","categorize-lines","207","1230528","0.0-5.0-0.0","20211004","111","16314","","","","","","","","[272.6843,224.3381,300.6345]","[272.6843,224.3381,300.6345]","[""j"",""k"",""l""]","[""J"",""K"",""L""]","272.6843","false","null","j","","272.6843","1","null","224.3381","300.6345","","","transfer","","12.25","272.6843","8.25","224.3381","14.25","300.6345","272.6843","12.25","272.6843","224.3381","300.6345","12.25","8.25","14.25","attraction","trinary","easy","right","left","target","1","right","target",""
"","transfer_trial","categorize-lines","208","1233368","0.0-5.0-0.1","20211004","111","1768","","","","","","","","[247.3327,300.6345,224.3381]","[224.3381,247.3327,300.6345]","[""j"",""k"",""l""]","[""J"",""K"",""L""]","247.3327","false","null","k","","247.3327","1","null","247.3327","300.6345","","","transfer","","10.25","247.3327","14.25","300.6345","8.25","224.3381","247.3327","10.25","247.3327","300.6345","224.3381","10.25","14.25","8.25","attraction","trinary","easy","left","right","target","1","left","target",""
"","transfer_trial","categorize-lines","209","1235656","0.0-5.0-0.2","20211004","111","1216","","","","","","","","[235.555,286.3185,315.6662]","[286.3185,235.555,315.6662]","[""j"",""k"",""l""]","[""J"",""K"",""L""]","null","false","null","k","","235.555","0","null","235.555","315.6662","","","transfer","","13.25","286.3185","9.25","235.555","15.25","315.6662","","","235.555","286.3185","315.6662","9.25","13.25","15.25","attraction","trinary","equal_chance_2_JND","right","left","both","2","equal","competitor",""
"","transfer_trial","categorize-lines","210","1239264","0.0-5.0-0.3","20211004","111","2534","","","","","","","","[328.3209,169.4252,256.5509]","[328.3209,169.4252,256.5509]","[""j"",""k"",""l""]","[""J"",""K"",""L""]","328.3209","false","null","l","","256.5509","0","null","169.4252","256.5509","","","transfer","","","","","","","","328.3209","16.0556","328.3209","169.4252","256.5509","16.0556","2.4959","11","filler","trinary","","","","","4.8056","right","NA",""
"","transfer_trial","categorize-lines","211","1241280","0.0-5.0-0.4","20211004","111","946","","","","","","","","[386.139,312.1544,417.8944]","[312.1544,386.139,417.8944]","[""j"",""k"",""l""]","[""J"",""K"",""L""]","386.139","false","null","k","","386.139","1","null","386.139","417.8944","","","transfer","","","","","","","","386.139","19.3802","386.139","312.1544","417.8944","19.3802","15.0207","21","filler","trinary","","","","","8.1302","right","NA",""
"","transfer_trial","categorize-lines","212","1258536","0.0-5.0-0.5","20211004","111","16180","","","","","","","","[272.6843,235.555,300.6345]","[300.6345,235.555,272.6843]","[""j"",""k"",""l""]","[""J"",""K"",""L""]","272.6843","false","null","j","","300.6345","0","null","235.555","272.6843","","","transfer","","12.25","272.6843","9.25","235.555","14.25","300.6345","272.6843","12.25","272.6843","235.555","300.6345","12.25","9.25","14.25","attraction","trinary","difficult","right","left","target","1","right","decoy",""
"","transfer_trial","categorize-lines","213","1261464","0.0-5.0-0.6","20211004","111","1854","","","","","","","","[272.6843,235.555]","[272.6843,235.555]","[""j"",""k""]","[""J"",""K""]","272.6843","false","null","j","","272.6843","1","null","235.555","","","","transfer","","12.25","272.6843","9.25","235.555","","","272.6843","12.25","272.6843","235.555","0","12.25","9.25","0","attraction","binary","difficult","right","left","target","1","right","target",""
"","transfer_trial","categorize-lines","214","1263952","0.0-5.0-0.7","20211004","111","1418","","","","","","","","[247.3327,286.3185,315.6662]","[315.6662,247.3327,286.3185]","[""j"",""k"",""l""]","[""J"",""K"",""L""]","247.3327","false","null","k","","247.3327","1","null","247.3327","286.3185","","","transfer","","13.25","286.3185","10.25","247.3327","15.25","315.6662","247.3327","10.25","247.3327","286.3185","315.6662","10.25","13.25","15.25","attraction","trinary","difficult","right","left","competitor","1","left","competitor",""
"","transfer_trial","categorize-lines","215","1267030","0.0-5.0-0.8","20211004","111","2010","","","","","","","","[247.3327,300.6345,331.4495]","[331.4495,247.3327,300.6345]","[""j"",""k"",""l""]","[""J"",""K"",""L""]","247.3327","false","null","k","","247.3327","1","null","247.3327","300.6345","","","transfer","","14.25","300.6345","10.25","247.3327","16.25","331.4495","247.3327","10.25","247.3327","300.6345","331.4495","10.25","14.25","16.25","attraction","trinary","easy","right","left","competitor","1","left","competitor",""
"","transfer_trial","categorize-lines","216","1269614","0.0-5.0-0.9","20211004","111","1514","","","","","","","","[247.3327,300.6345,224.3381]","[224.3381,247.3327,300.6345]","[""j"",""k"",""l""]","[""J"",""K"",""L""]","247.3327","false","null","j","","224.3381","0","null","247.3327","300.6345","","","transfer","","10.25","247.3327","14.25","300.6345","8.25","224.3381","247.3327","10.25","247.3327","300.6345","224.3381","10.25","14.25","8.25","attraction","trinary","easy","left","right","target","1","left","decoy",""
"","transfer_trial","categorize-lines","217","1272824","0.0-5.0-0.10","20211004","111","2138","","","","","","","","[272.6843,235.555]","[272.6843,235.555]","[""j"",""k""]","[""J"",""K""]","272.6843","false","null","k","","235.555","0","null","235.555","","","","transfer","","12.25","272.6843","9.25","235.555","","","272.6843","12.25","272.6843","235.555","0","12.25","9.25","0","attraction","binary","difficult","right","left","target","1","right","competitor",""
"","transfer_trial","categorize-lines","218","1275248","0.0-5.0-0.11","20211004","111","1354","","","","","","","","[341.3932,233.7879]","[341.3932,233.7879]","[""j"",""k""]","[""J"",""K""]","341.3932","false","null","j","","341.3932","1","null","233.7879","","","","transfer","","","","","","","","341.3932","16.8558","341.3932","233.7879","0","16.8558","9.0957","0","filler","binary","","","","","5.6058","right","NA",""
"","transfer_trial","categorize-lines","219","1277126","0.0-5.0-0.12","20211004","111","810","","","","","","","","[247.3327,272.6843,300.6345]","[272.6843,247.3327,300.6345]","[""j"",""k"",""l""]","[""J"",""K"",""L""]","null","false","null","k","","247.3327","0","null","247.3327","300.6345","","","transfer","","12.25","272.6843","10.25","247.3327","14.25","300.6345","","","247.3327","272.6843","300.6345","10.25","12.25","14.25","attraction","trinary","equal_chance_1_JND","right","left","both","1","equal","competitor",""
"","transfer_trial","categorize-lines","220","1278984","0.0-5.0-0.13","20211004","111","786","","","","","","","","[305.254,300.7485]","[305.254,300.7485]","[""j"",""k""]","[""J"",""K""]","305.254","false","null","j","","305.254","1","null","300.7485","","","","transfer","","","","","","","","305.254","14.5625","305.254","300.7485","0","14.5625","14.2578","0","filler","binary","","","","","3.3125","right","NA",""
"","transfer_trial","categorize-lines","221","1282720","0.0-5.0-0.14","20211004","111","2662","","","","","","","","[304.3135,400.7464,165.375]","[400.7464,304.3135,165.375]","[""j"",""k"",""l""]","[""J"",""K"",""L""]","304.3135","false","null","j","","400.7464","0","null","304.3135","165.375","","","transfer","","","","","","","","304.3135","14.4993","304.3135","400.7464","165.375","14.4993","20.1412","2","filler","trinary","","","","","3.2493","right","NA",""
"","transfer_trial","categorize-lines","222","1285264","0.0-5.0-0.15","20211004","111","1472","","","","","","","","[272.6843,224.3381,300.6345]","[272.6843,300.6345,224.3381]","[""j"",""k"",""l""]","[""J"",""K"",""L""]","272.6843","false","null","l","","224.3381","0","null","300.6345","224.3381","","","transfer","","12.25","272.6843","8.25","224.3381","14.25","300.6345","272.6843","12.25","272.6843","224.3381","300.6345","12.25","8.25","14.25","attraction","trinary","easy","right","left","target","1","right","competitor",""
"","transfer_trial","categorize-lines","223","1287208","0.0-5.0-0.16","20211004","111","874","","","","","","","","[272.6843,235.555]","[272.6843,235.555]","[""j"",""k""]","[""J"",""K""]","272.6843","false","null","j","","272.6843","1","null","235.555","","","","transfer","","9.25","235.555","12.25","272.6843","","","272.6843","12.25","272.6843","235.555","0","12.25","9.25","0","attraction","binary","difficult","left","right","competitor","1","right","competitor",""
"","transfer_trial","categorize-lines","224","1289176","0.0-5.0-0.17","20211004","111","896","","","","","","","","[272.6843,224.3381,203.4812]","[224.3381,203.4812,272.6843]","[""j"",""k"",""l""]","[""J"",""K"",""L""]","272.6843","false","null","k","","203.4812","0","null","203.4812","272.6843","","","transfer","","8.25","224.3381","12.25","272.6843","6.25","203.4812","272.6843","12.25","272.6843","224.3381","203.4812","12.25","8.25","6.25","attraction","trinary","easy","left","right","competitor","1","right","decoy",""
"","transfer_trial","categorize-lines","225","1292038","0.0-5.0-0.18","20211004","111","1792","","","","","","","","[247.3327,272.6843]","[272.6843,247.3327]","[""j"",""k""]","[""J"",""K""]","null","false","null","k","","247.3327","0","null","247.3327","","","","transfer","","12.25","272.6843","10.25","247.3327","","","","","247.3327","272.6843","0","10.25","12.25","0","attraction","binary","equal_chance_1_JND","right","left","both","1","equal","competitor",""
"","transfer_trial","categorize-lines","226","1293950","0.0-5.0-0.19","20211004","111","838","","","","","","","","[247.3327,286.3185,224.3381]","[247.3327,224.3381,286.3185]","[""j"",""k"",""l""]","[""J"",""K"",""L""]","247.3327","false","null","k","","224.3381","0","null","224.3381","286.3185","","","transfer","","10.25","247.3327","13.25","286.3185","8.25","224.3381","247.3327","10.25","247.3327","286.3185","224.3381","10.25","13.25","8.25","attraction","trinary","difficult","left","right","target","1","left","decoy",""
"","transfer_trial","categorize-lines","227","1297422","0.0-5.0-0.20","20211004","111","2400","","","","","","","","[239.0713,448.3953,269.3784]","[239.0713,269.3784,448.3953]","[""j"",""k"",""l""]","[""J"",""K"",""L""]","239.0713","false","null","l","","448.3953","0","null","269.3784","448.3953","","","transfer","","","","","","","","239.0713","9.5537","239.0713","448.3953","269.3784","9.5537","22.4439","12","filler","trinary","","","","","1.6963","left","NA",""
"","transfer_trial","categorize-lines","228","1299846","0.0-5.0-0.21","20211004","111","1354","","","","","","","","[282.4293,184.8867,211.0651]","[211.0651,184.8867,282.4293]","[""j"",""k"",""l""]","[""J"",""K"",""L""]","282.4293","false","null","j","","211.0651","0","null","184.8867","282.4293","","","transfer","","","","","","","","282.4293","12.9697","282.4293","184.8867","211.0651","12.9697","4.2859","7","filler","trinary","","","","","1.7197","right","NA",""
"","transfer_trial","categorize-lines","229","1302438","0.0-5.0-0.22","20211004","111","1522","","","","","","","","[235.555,286.3185]","[235.555,286.3185]","[""j"",""k""]","[""J"",""K""]","null","false","null","k","","286.3185","0","null","286.3185","","","","transfer","","9.25","235.555","13.25","286.3185","","","","","235.555","286.3185","0","9.25","13.25","0","attraction","binary","equal_chance_2_JND","left","right","both","2","equal","competitor",""
"","transfer_trial","categorize-lines","230","1304174","0.0-5.0-0.23","20211004","111","664","","","","","","","","[247.3327,300.6345]","[247.3327,300.6345]","[""j"",""k""]","[""J"",""K""]","247.3327","false","null","k","","300.6345","0","null","300.6345","","","","transfer","","10.25","247.3327","14.25","300.6345","","","247.3327","10.25","247.3327","300.6345","0","10.25","14.25","0","attraction","binary","easy","left","right","target","1","left","competitor",""
"","transfer_trial","categorize-lines","231","1305878","0.0-5.0-0.24","20211004","111","632","","","","","","","","[235.555,286.3185]","[286.3185,235.555]","[""j"",""k""]","[""J"",""K""]","null","false","null","k","","235.555","0","null","235.555","","","","transfer","","9.25","235.555","13.25","286.3185","","","","","235.555","286.3185","0","9.25","13.25","0","attraction","binary","equal_chance_2_JND","left","right","both","2","equal","target",""
"","transfer_trial","categorize-lines","232","1307758","0.0-5.0-0.25","20211004","111","806","","","","","","","","[235.555,286.3185]","[286.3185,235.555]","[""j"",""k""]","[""J"",""K""]","null","false","null","k","","235.555","0","null","235.555","","","","transfer","","13.25","286.3185","9.25","235.555","","","","","235.555","286.3185","0","9.25","13.25","0","attraction","binary","equal_chance_2_JND","right","left","both","2","equal","competitor",""
"","transfer_trial","categorize-lines","233","1310030","0.0-5.0-0.26","20211004","111","1202","","","","","","","","[272.6843,235.555,213.6553]","[235.555,213.6553,272.6843]","[""j"",""k"",""l""]","[""J"",""K"",""L""]","272.6843","false","null","j","","235.555","0","null","213.6553","272.6843","","","transfer","","9.25","235.555","12.25","272.6843","7.25","213.6553","272.6843","12.25","272.6843","235.555","213.6553","12.25","9.25","7.25","attraction","trinary","difficult","left","right","competitor","1","right","target",""
"","transfer_trial","categorize-lines","234","1312398","0.0-5.0-0.27","20211004","111","1298","","","","","","","","[289.9466,270.9946,182.3259]","[270.9946,182.3259,289.9466]","[""j"",""k"",""l""]","[""J"",""K"",""L""]","289.9466","false","null","k","","182.3259","0","null","182.3259","289.9466","","","transfer","","","","","","","","289.9466","13.5081","289.9466","270.9946","182.3259","13.5081","12.1226","4","filler","trinary","","","","","2.2581","right","NA",""
"","transfer_trial","categorize-lines","235","1314006","0.0-5.0-0.28","20211004","111","534","","","","","","","","[235.555,286.3185,213.6553]","[213.6553,286.3185,235.555]","[""j"",""k"",""l""]","[""J"",""K"",""L""]","null","false","null","k","","286.3185","0","null","286.3185","235.555","","","transfer","","9.25","235.555","13.25","286.3185","7.25","213.6553","","","235.555","286.3185","213.6553","9.25","13.25","7.25","attraction","trinary","equal_chance_2_JND","left","right","both","2","equal","competitor",""
"","transfer_trial","categorize-lines","236","1316726","0.0-5.0-0.29","20211004","111","1648","","","","","","","","[247.3327,272.6843]","[272.6843,247.3327]","[""j"",""k""]","[""J"",""K""]","null","false","null","k","","247.3327","0","null","247.3327","","","","transfer","","10.25","247.3327","12.25","272.6843","","","","","247.3327","272.6843","0","10.25","12.25","0","attraction","binary","equal_chance_1_JND","left","right","both","1","equal","target",""
"","transfer_trial","categorize-lines","237","1318654","0.0-5.0-0.30","20211004","111","860","","","","","","","","[225.2208,219.0756]","[219.0756,225.2208]","[""j"",""k""]","[""J"",""K""]","225.2208","false","null","j","","219.0756","0","null","225.2208","","","","transfer","","","","","","","","225.2208","8.3305","225.2208","219.0756","0","8.3305","7.7635","0","filler","binary","","","","","2.9195","left","NA",""
"","transfer_trial","categorize-lines","238","1320486","0.0-5.0-0.31","20211004","111","762","","","","","","","","[272.6843,224.3381,203.4812]","[203.4812,272.6843,224.3381]","[""j"",""k"",""l""]","[""J"",""K"",""L""]","272.6843","false","null","j","","203.4812","0","null","272.6843","224.3381","","","transfer","","8.25","224.3381","12.25","272.6843","6.25","203.4812","272.6843","12.25","272.6843","224.3381","203.4812","12.25","8.25","6.25","attraction","trinary","easy","left","right","competitor","1","right","decoy",""
"","transfer_trial","categorize-lines","239","1322902","0.0-5.0-0.32","20211004","111","1344","","","","","","","","[272.6843,235.555,213.6553]","[235.555,213.6553,272.6843]","[""j"",""k"",""l""]","[""J"",""K"",""L""]","272.6843","false","null","j","","235.555","0","null","213.6553","272.6843","","","transfer","","9.25","235.555","12.25","272.6843","7.25","213.6553","272.6843","12.25","272.6843","235.555","213.6553","12.25","9.25","7.25","attraction","trinary","difficult","left","right","competitor","1","right","target",""
"","transfer_trial","categorize-lines","240","1324774","0.0-5.0-0.33","20211004","111","800","","","","","","","","[235.555,286.3185]","[235.555,286.3185]","[""j"",""k""]","[""J"",""K""]","null","false","null","k","","286.3185","0","null","286.3185","","","","transfer","","9.25","235.555","13.25","286.3185","","","","","235.555","286.3185","0","9.25","13.25","0","attraction","binary","equal_chance_2_JND","left","right","both","2","equal","competitor",""
"","transfer_trial","categorize-lines","241","1326478","0.0-5.0-0.34","20211004","111","634","","","","","","","","[235.555,286.3185,213.6553]","[235.555,286.3185,213.6553]","[""j"",""k"",""l""]","[""J"",""K"",""L""]","null","false","null","k","","286.3185","0","null","286.3185","213.6553","","","transfer","","9.25","235.555","13.25","286.3185","7.25","213.6553","","","235.555","286.3185","213.6553","9.25","13.25","7.25","attraction","trinary","equal_chance_2_JND","left","right","both","2","equal","competitor",""
"","transfer_trial","categorize-lines","242","1328654","0.0-5.0-0.35","20211004","111","1106","","","","","","","","[247.3327,300.6345]","[300.6345,247.3327]","[""j"",""k""]","[""J"",""K""]","247.3327","false","null","k","","247.3327","1","null","247.3327","","","","transfer","","14.25","300.6345","10.25","247.3327","","","247.3327","10.25","247.3327","300.6345","0","10.25","14.25","0","attraction","binary","easy","right","left","competitor","1","left","competitor",""
"","transfer_trial","categorize-lines","243","1331030","0.0-5.0-0.36","20211004","111","1306","","","","","","","","[263.5487,191.6791]","[191.6791,263.5487]","[""j"",""k""]","[""J"",""K""]","263.5487","false","null","j","","191.6791","0","null","263.5487","","","","transfer","","","","","","","","263.5487","11.5516","263.5487","191.6791","0","11.5516","5.0253","0","filler","binary","","","","","0.3016","right","NA",""
"","transfer_trial","categorize-lines","244","1334008","0.0-5.0-0.37","20211004","111","1906","","","","","","","","[272.6843,235.555]","[235.555,272.6843]","[""j"",""k""]","[""J"",""K""]","272.6843","false","null","j","","235.555","0","null","272.6843","","","","transfer","","9.25","235.555","12.25","272.6843","","","272.6843","12.25","272.6843","235.555","0","12.25","9.25","0","attraction","binary","difficult","left","right","competitor","1","right","target",""
"","transfer_trial","categorize-lines","245","1335750","0.0-5.0-0.38","20211004","111","674","","","","","","","","[272.6843,224.3381]","[272.6843,224.3381]","[""j"",""k""]","[""J"",""K""]","272.6843","false","null","j","","272.6843","1","null","224.3381","","","","transfer","","8.25","224.3381","12.25","272.6843","","","272.6843","12.25","272.6843","224.3381","0","12.25","8.25","0","attraction","binary","easy","left","right","competitor","1","right","competitor",""
"","transfer_trial","categorize-lines","246","1337646","0.0-5.0-0.39","20211004","111","826","","","","","","","","[256.5345,203.5786]","[256.5345,203.5786]","[""j"",""k""]","[""J"",""K""]","256.5345","false","null","j","","256.5345","1","null","203.5786","","","","transfer","","","","","","","","256.5345","10.9987","256.5345","203.5786","0","10.9987","6.2598","0","filler","binary","","","","","0.2513","left","NA",""
"","transfer_trial","categorize-lines","247","1339630","0.0-5.0-0.40","20211004","111","914","","","","","","","","[247.3327,272.6843,224.3381]","[247.3327,272.6843,224.3381]","[""j"",""k"",""l""]","[""J"",""K"",""L""]","null","false","null","k","","272.6843","0","null","272.6843","224.3381","","","transfer","","10.25","247.3327","12.25","272.6843","8.25","224.3381","","","247.3327","272.6843","224.3381","10.25","12.25","8.25","attraction","trinary","equal_chance_1_JND","left","right","both","1","equal","competitor",""
"","transfer_trial","categorize-lines","248","1341478","0.0-5.0-0.41","20211004","111","778","","","","","","","","[235.555,286.3185]","[235.555,286.3185]","[""j"",""k""]","[""J"",""K""]","null","false","null","k","","286.3185","0","null","286.3185","","","","transfer","","13.25","286.3185","9.25","235.555","","","","","235.555","286.3185","0","9.25","13.25","0","attraction","binary","equal_chance_2_JND","right","left","both","2","equal","target",""
"","transfer_trial","categorize-lines","249","1343190","0.0-5.0-0.42","20211004","111","642","","","","","","","","[247.3327,272.6843,224.3381]","[247.3327,224.3381,272.6843]","[""j"",""k"",""l""]","[""J"",""K"",""L""]","null","false","null","k","","224.3381","0","null","224.3381","272.6843","","","transfer","","10.25","247.3327","12.25","272.6843","8.25","224.3381","","","247.3327","272.6843","224.3381","10.25","12.25","8.25","attraction","trinary","equal_chance_1_JND","left","right","both","1","equal","decoy",""
"","transfer_trial","categorize-lines","250","1344854","0.0-5.0-0.43","20211004","111","594","","","","","","","","[247.3327,300.6345,331.4495]","[300.6345,247.3327,331.4495]","[""j"",""k"",""l""]","[""J"",""K"",""L""]","247.3327","false","null","k","","247.3327","1","null","247.3327","331.4495","","","transfer","","14.25","300.6345","10.25","247.3327","16.25","331.4495","247.3327","10.25","247.3327","300.6345","331.4495","10.25","14.25","16.25","attraction","trinary","easy","right","left","competitor","1","left","competitor",""
"","transfer_trial","categorize-lines","251","1347766","0.0-5.0-0.44","20211004","111","1842","","","","","","","","[180.2735,344.178,360.9929]","[344.178,180.2735,360.9929]","[""j"",""k"",""l""]","[""J"",""K"",""L""]","180.2735","false","null","k","","180.2735","1","null","180.2735","360.9929","","","transfer","","","","","","","","180.2735","3.768","180.2735","344.178","360.9929","3.768","17.0224","18","filler","trinary","","","","","7.482","left","NA",""
"","transfer_trial","categorize-lines","252","1349488","0.0-5.0-0.45","20211004","111","652","","","","","","","","[247.3327,286.3185,224.3381]","[286.3185,224.3381,247.3327]","[""j"",""k"",""l""]","[""J"",""K"",""L""]","247.3327","false","null","l","","247.3327","1","null","224.3381","247.3327","","","transfer","","10.25","247.3327","13.25","286.3185","8.25","224.3381","247.3327","10.25","247.3327","286.3185","224.3381","10.25","13.25","8.25","attraction","trinary","difficult","left","right","target","1","left","target",""
"","transfer_trial","categorize-lines","253","1351646","0.0-5.0-0.46","20211004","111","1090","","","","","","","","[272.6843,224.3381,203.4812]","[224.3381,203.4812,272.6843]","[""j"",""k"",""l""]","[""J"",""K"",""L""]","272.6843","false","null","k","","203.4812","0","null","203.4812","272.6843","","","transfer","","8.25","224.3381","12.25","272.6843","6.25","203.4812","272.6843","12.25","272.6843","224.3381","203.4812","12.25","8.25","6.25","attraction","trinary","easy","left","right","competitor","1","right","decoy",""
"","transfer_trial","categorize-lines","254","1353726","0.0-5.0-0.47","20211004","111","1010","","","","","","","","[247.3327,300.6345]","[247.3327,300.6345]","[""j"",""k""]","[""J"",""K""]","247.3327","false","null","k","","300.6345","0","null","300.6345","","","","transfer","","14.25","300.6345","10.25","247.3327","","","247.3327","10.25","247.3327","300.6345","0","10.25","14.25","0","attraction","binary","easy","right","left","competitor","1","left","target",""
"","transfer_trial","categorize-lines","255","1355910","0.0-5.0-0.48","20211004","111","1114","","","","","","","","[272.6843,235.555,213.6553]","[235.555,213.6553,272.6843]","[""j"",""k"",""l""]","[""J"",""K"",""L""]","272.6843","false","null","j","","235.555","0","null","213.6553","272.6843","","","transfer","","9.25","235.555","12.25","272.6843","7.25","213.6553","272.6843","12.25","272.6843","235.555","213.6553","12.25","9.25","7.25","attraction","trinary","difficult","left","right","competitor","1","right","target",""
"","transfer_trial","categorize-lines","256","1357942","0.0-5.0-0.49","20211004","111","962","","","","","","","","[247.3327,300.6345]","[247.3327,300.6345]","[""j"",""k""]","[""J"",""K""]","247.3327","false","null","k","","300.6345","0","null","300.6345","","","","transfer","","10.25","247.3327","14.25","300.6345","","","247.3327","10.25","247.3327","300.6345","0","10.25","14.25","0","attraction","binary","easy","left","right","target","1","left","competitor",""
"","transfer_trial","categorize-lines","257","1360430","0.0-5.0-0.50","20211004","111","1418","","","","","","","","[272.6843,235.555,300.6345]","[300.6345,272.6843,235.555]","[""j"",""k"",""l""]","[""J"",""K"",""L""]","272.6843","false","null","l","","235.555","0","null","272.6843","235.555","","","transfer","","12.25","272.6843","9.25","235.555","14.25","300.6345","272.6843","12.25","272.6843","235.555","300.6345","12.25","9.25","14.25","attraction","trinary","difficult","right","left","target","1","right","competitor",""
"","transfer_trial","categorize-lines","258","1362510","0.0-5.0-0.51","20211004","111","1010","","","","","","","","[247.3327,286.3185]","[286.3185,247.3327]","[""j"",""k""]","[""J"",""K""]","247.3327","false","null","k","","247.3327","1","null","247.3327","","","","transfer","","10.25","247.3327","13.25","286.3185","","","247.3327","10.25","247.3327","286.3185","0","10.25","13.25","0","attraction","binary","difficult","left","right","target","1","left","target",""
"","transfer_trial","categorize-lines","259","1364270","0.0-5.0-0.52","20211004","111","692","","","","","","","","[272.6843,224.3381]","[224.3381,272.6843]","[""j"",""k""]","[""J"",""K""]","272.6843","false","null","j","","224.3381","0","null","272.6843","","","","transfer","","8.25","224.3381","12.25","272.6843","","","272.6843","12.25","272.6843","224.3381","0","12.25","8.25","0","attraction","binary","easy","left","right","competitor","1","right","target",""
"","transfer_trial","categorize-lines","260","1366216","0.0-5.0-0.53","20211004","111","872","","","","","","","","[247.3327,272.6843]","[247.3327,272.6843]","[""j"",""k""]","[""J"",""K""]","null","false","null","k","","272.6843","0","null","272.6843","","","","transfer","","12.25","272.6843","10.25","247.3327","","","","","247.3327","272.6843","0","10.25","12.25","0","attraction","binary","equal_chance_1_JND","right","left","both","1","equal","target",""
"","transfer_trial","categorize-lines","261","1368246","0.0-5.0-0.54","20211004","111","960","","","","","","","","[262.3725,331.3835,157.5]","[262.3725,157.5,331.3835]","[""j"",""k"",""l""]","[""J"",""K"",""L""]","262.3725","false","null","j","","262.3725","1","null","157.5","331.3835","","","transfer","","","","","","","","262.3725","11.4599","262.3725","331.3835","157.5","11.4599","16.2459","1","filler","trinary","","","","","0.2099","right","NA",""
"","transfer_trial","categorize-lines","262","1370742","0.0-5.0-0.55","20211004","111","1426","","","","","","","","[247.3327,272.6843]","[272.6843,247.3327]","[""j"",""k""]","[""J"",""K""]","null","false","null","k","","247.3327","0","null","247.3327","","","","transfer","","10.25","247.3327","12.25","272.6843","","","","","247.3327","272.6843","0","10.25","12.25","0","attraction","binary","equal_chance_1_JND","left","right","both","1","equal","target",""
"","transfer_trial","categorize-lines","263","1374006","0.0-5.0-0.56","20211004","111","2194","","","","","","","","[209.4107,272.2156,360.9929]","[360.9929,272.2156,209.4107]","[""j"",""k"",""l""]","[""J"",""K"",""L""]","209.4107","false","null","l","","209.4107","1","null","272.2156","209.4107","","","transfer","","","","","","","","209.4107","6.8387","209.4107","272.2156","360.9929","6.8387","12.2147","18","filler","trinary","","","","","4.4113","left","NA",""
"","transfer_trial","categorize-lines","264","1376262","0.0-5.0-0.57","20211004","111","1182","","","","","","","","[247.3327,286.3185]","[247.3327,286.3185]","[""j"",""k""]","[""J"",""K""]","247.3327","false","null","k","","286.3185","0","null","286.3185","","","","transfer","","13.25","286.3185","10.25","247.3327","","","247.3327","10.25","247.3327","286.3185","0","10.25","13.25","0","attraction","binary","difficult","right","left","competitor","1","left","target",""
"","transfer_trial","categorize-lines","265","1377838","0.0-5.0-0.58","20211004","111","504","","","","","","","","[247.3327,286.3185]","[247.3327,286.3185]","[""j"",""k""]","[""J"",""K""]","247.3327","false","null","k","","286.3185","0","null","286.3185","","","","transfer","","13.25","286.3185","10.25","247.3327","","","247.3327","10.25","247.3327","286.3185","0","10.25","13.25","0","attraction","binary","difficult","right","left","competitor","1","left","target",""
"","transfer_trial","categorize-lines","266","1381342","0.0-5.0-0.59","20211004","111","2434","","","","","","","","[272.6843,224.3381,300.6345]","[300.6345,272.6843,224.3381]","[""j"",""k"",""l""]","[""J"",""K"",""L""]","272.6843","false","null","l","","224.3381","0","null","272.6843","224.3381","","","transfer","","12.25","272.6843","8.25","224.3381","14.25","300.6345","272.6843","12.25","272.6843","224.3381","300.6345","12.25","8.25","14.25","attraction","trinary","easy","right","left","target","1","right","competitor",""
"","transfer_trial","categorize-lines","267","1383174","0.0-5.0-0.60","20211004","111","762","","","","","","","","[167.4275,266.5615]","[167.4275,266.5615]","[""j"",""k""]","[""J"",""K""]","167.4275","false","null","k","","266.5615","0","null","266.5615","","","","transfer","","","","","","","","167.4275","2.2528","167.4275","266.5615","0","2.2528","11.7845","0","filler","binary","","","","","8.9972","left","NA",""
"","transfer_trial","categorize-lines","268","1385278","0.0-5.0-0.61","20211004","111","1034","","","","","","","","[247.3327,272.6843]","[247.3327,272.6843]","[""j"",""k""]","[""J"",""K""]","null","false","null","k","","272.6843","0","null","272.6843","","","","transfer","","12.25","272.6843","10.25","247.3327","","","","","247.3327","272.6843","0","10.25","12.25","0","attraction","binary","equal_chance_1_JND","right","left","both","1","equal","target",""
"","transfer_trial","categorize-lines","269","1387030","0.0-5.0-0.62","20211004","111","682","","","","","","","","[272.6843,224.3381]","[272.6843,224.3381]","[""j"",""k""]","[""J"",""K""]","272.6843","false","null","j","","272.6843","1","null","224.3381","","","","transfer","","12.25","272.6843","8.25","224.3381","","","272.6843","12.25","272.6843","224.3381","0","12.25","8.25","0","attraction","binary","easy","right","left","target","1","right","target",""
"","transfer_trial","categorize-lines","270","1388750","0.0-5.0-0.63","20211004","111","648","","","","","","","","[247.3327,286.3185,224.3381]","[224.3381,286.3185,247.3327]","[""j"",""k"",""l""]","[""J"",""K"",""L""]","247.3327","false","null","k","","286.3185","0","null","286.3185","247.3327","","","transfer","","10.25","247.3327","13.25","286.3185","8.25","224.3381","247.3327","10.25","247.3327","286.3185","224.3381","10.25","13.25","8.25","attraction","trinary","difficult","left","right","target","1","left","competitor",""
"","transfer_trial","categorize-lines","271","1390470","0.0-5.0-0.64","20211004","111","646","","","","","","","","[209.6228,170.5024]","[209.6228,170.5024]","[""j"",""k""]","[""J"",""K""]","209.6228","false","null","j","","209.6228","1","null","170.5024","","","","transfer","","","","","","","","209.6228","6.8595","209.6228","170.5024","0","6.8595","2.6258","0","filler","binary","","","","","4.3905","left","NA",""
"","transfer_trial","categorize-lines","272","1392030","0.0-5.0-0.65","20211004","111","488","","","","","","","","[272.6843,235.555]","[235.555,272.6843]","[""j"",""k""]","[""J"",""K""]","272.6843","false","null","j","","235.555","0","null","272.6843","","","","transfer","","9.25","235.555","12.25","272.6843","","","272.6843","12.25","272.6843","235.555","0","12.25","9.25","0","attraction","binary","difficult","left","right","competitor","1","right","target",""
"","transfer_trial","categorize-lines","273","1393654","0.0-5.0-0.66","20211004","111","552","","","","","","","","[282.7171,237.1519]","[237.1519,282.7171]","[""j"",""k""]","[""J"",""K""]","282.7171","false","null","j","","237.1519","0","null","282.7171","","","","transfer","","","","","","","","282.7171","12.9906","282.7171","237.1519","0","12.9906","9.3885","0","filler","binary","","","","","1.7406","right","NA",""
"","transfer_trial","categorize-lines","274","1395366","0.0-5.0-0.67","20211004","111","640","","","","","","","","[247.3327,272.6843,224.3381]","[224.3381,247.3327,272.6843]","[""j"",""k"",""l""]","[""J"",""K"",""L""]","null","false","null","k","","247.3327","0","null","247.3327","272.6843","","","transfer","","10.25","247.3327","12.25","272.6843","8.25","224.3381","","","247.3327","272.6843","224.3381","10.25","12.25","8.25","attraction","trinary","equal_chance_1_JND","left","right","both","1","equal","target",""
"","transfer_trial","categorize-lines","275","1397070","0.0-5.0-0.68","20211004","111","632","","","","","","","","[247.3327,300.6345]","[300.6345,247.3327]","[""j"",""k""]","[""J"",""K""]","247.3327","false","null","k","","247.3327","1","null","247.3327","","","","transfer","","10.25","247.3327","14.25","300.6345","","","247.3327","10.25","247.3327","300.6345","0","10.25","14.25","0","attraction","binary","easy","left","right","target","1","left","target",""
"","transfer_trial","categorize-lines","276","1398654","0.0-5.0-0.69","20211004","111","512","","","","","","","","[247.3327,300.6345]","[247.3327,300.6345]","[""j"",""k""]","[""J"",""K""]","247.3327","false","null","k","","300.6345","0","null","300.6345","","","","transfer","","14.25","300.6345","10.25","247.3327","","","247.3327","10.25","247.3327","300.6345","0","10.25","14.25","0","attraction","binary","easy","right","left","competitor","1","left","target",""
