"success","screen_id","trial_type","trial_index","time_elapsed","internal_node_id","date","sub_n","rt","response","timeout","failed_images","failed_audio","failed_video","view_history","stim","line_lens","line_lens_order","choices","stim_names","corr_ans","give_fb","in_cat","key_choice","yn_choice","choice","correct","fb_in_cat","stim_1_in_order","stim_2_in_order","stim_3_in_order","line_length","cat_trial_type","jnds","T_psy","T_phys","C_psy","C_phys","D_psy","D_phys","corr_choice","correct_psy","stim_1","stim_2","stim_3","stim_1_psy","stim_2_psy","stim_3_psy","transfer_trial_type","trial_choice_set","difficulty_level","target_side","competitor_side","tc_correct","correct_dist_to_mean","side_correct","attr_choice","stimulus"
"true","enter-fullscreen-mode","fullscreen","0","2528","0.0-0.0","20211013","152","","","","","","","","","","","","","","","","","","","","","","","","","","","","","","","","","","","","","","","","","","","","","","","","","",""
"","enter-sub-number","survey-html-form","1","5712","0.0-1.0","20211013","152","3175","{""response"":""152""}","","","","","","","","","","","","","","","","","","","","","","","","","","","","","","","","","","","","","","","","","","","","","","","",""
"true","","preload","2","5721","0.0-2.0-0.0","20211013","152","","","false","[]","[]","[]","","","","","","","","","","","","","","","","","","","","","","","","","","","","","","","","","","","","","","","","","","","",""
"","instructions","instructions","3","132262","0.0-2.0-1.0","20211013","152","126540","","","","","","[{""page_index"":0,""viewing_time"":1876},{""page_index"":1,""viewing_time"":23404},{""page_index"":2,""viewing_time"":17409},{""page_index"":3,""viewing_time"":51657},{""page_index"":4,""viewing_time"":17984},{""page_index"":5,""viewing_time"":1792},{""page_index"":6,""viewing_time"":12416}]","","","","","","","","","","","","","","","","","","","","","","","","","","","","","","","","","","","","","","","","","","",""
"","demo-lines","draw-demo-lines","4","192276","0.0-2.0-2.0","20211013","152","","","","","","","","lines","","","","","","","","","","","","","","","","","","","","","","","","","","","","","","","","","","","","","","","","","",""
"","click-to-begin-the-experiment","instructions","5","195779","0.0-2.0-3.0","20211013","152","3501","","","","","","[{""page_index"":0,""viewing_time"":3501}]","","","","","","","","","","","","","","","","","","","","","","","","","","","","","","","","","","","","","","","","","","",""
"","learn_trial","categorize-lines","6","201081","0.0-3.0-0.0","20211013","152","3261","","","","","","","","[259.6994]","[259.6994]","[""u"",""i""]","[""""]","null","true","in","u","YES","","1","in","","","","259.6994","learning","11.25","","","","","","","","","","","","","","","","","","","","","","","",""
"","learn_trial","categorize-lines","7","205521","0.0-3.0-0.1","20211013","152","2400","","","","","","","","[414.0384]","[414.0384]","[""u"",""i""]","[""""]","null","true","out","i","NO","","1","out","","","","414.0384","learning","20.81","","","","","","","","","","","","","","","","","","","","","","","",""
"","learn_trial","categorize-lines","8","210177","0.0-3.0-0.2","20211013","152","2611","","","","","","","","[186.3733]","[186.3733]","[""u"",""i""]","[""""]","null","true","out","i","NO","","1","out","","","","186.3733","learning","4.45","","","","","","","","","","","","","","","","","","","","","","","",""
"","learn_trial","categorize-lines","9","215303","0.0-3.0-0.3","20211013","152","1086","","","","","","","","[223.4641]","[223.4641]","[""u"",""i""]","[""""]","null","true","out","u","YES","","0","out","","","","223.4641","learning","8.17","","","","","","","","","","","","","","","","","","","","","","","",""
"","learn_trial","categorize-lines","10","221081","0.0-3.0-0.4","20211013","152","1734","","","","","","","","[282.5715]","[282.5715]","[""u"",""i""]","[""""]","null","true","out","u","YES","","0","out","","","","282.5715","learning","12.98","","","","","","","","","","","","","","","","","","","","","","","",""
"","learn_trial","categorize-lines","11","225984","0.0-3.0-0.5","20211013","152","866","","","","","","","","[204.9759]","[204.9759]","[""u"",""i""]","[""""]","null","true","in","i","NO","","0","in","","","","204.9759","learning","6.4","","","","","","","","","","","","","","","","","","","","","","","",""
"","learn_trial","categorize-lines","12","232919","0.0-3.0-0.6","20211013","152","2901","","","","","","","","[274.6873]","[274.6873]","[""u"",""i""]","[""""]","null","true","out","u","YES","","0","out","","","","274.6873","learning","12.4","","","","","","","","","","","","","","","","","","","","","","","",""
"","learn_trial","categorize-lines","13","236000","0.0-3.0-0.7","20211013","152","1036","","","","","","","","[246.0089]","[246.0089]","[""u"",""i""]","[""""]","null","true","in","u","YES","","1","in","","","","246.0089","learning","10.14","","","","","","","","","","","","","","","","","","","","","","","",""
"","learn_trial","categorize-lines","14","241154","0.0-3.0-0.8","20211013","152","1120","","","","","","","","[233.8373]","[233.8373]","[""u"",""i""]","[""""]","null","true","in","i","NO","","0","in","","","","233.8373","learning","9.1","","","","","","","","","","","","","","","","","","","","","","","",""
"","learn_trial","categorize-lines","15","244510","0.0-3.0-0.9","20211013","152","1320","","","","","","","","[254.3077]","[254.3077]","[""u"",""i""]","[""""]","null","true","in","u","YES","","1","in","","","","254.3077","learning","10.82","","","","","","","","","","","","","","","","","","","","","","","",""
"","learn_trial","categorize-lines","16","247367","0.0-3.0-0.10","20211013","152","817","","","","","","","","[302.5474]","[302.5474]","[""u"",""i""]","[""""]","null","true","in","u","YES","","1","in","","","","302.5474","learning","14.38","","","","","","","","","","","","","","","","","","","","","","","",""
"","learn_trial","categorize-lines","17","250481","0.0-3.0-0.11","20211013","152","1071","","","","","","","","[304.621]","[304.621]","[""u"",""i""]","[""""]","null","true","out","i","NO","","1","out","","","","304.621","learning","14.52","","","","","","","","","","","","","","","","","","","","","","","",""
"","learn_trial","categorize-lines","18","255415","0.0-3.0-0.12","20211013","152","896","","","","","","","","[284.5082]","[284.5082]","[""u"",""i""]","[""""]","null","true","out","u","YES","","0","out","","","","284.5082","learning","13.12","","","","","","","","","","","","","","","","","","","","","","","",""
"","learn_trial","categorize-lines","19","259217","0.0-3.0-0.13","20211013","152","1759","","","","","","","","[173.1362]","[173.1362]","[""u"",""i""]","[""""]","null","true","out","i","NO","","1","out","","","","173.1362","learning","2.94","","","","","","","","","","","","","","","","","","","","","","","",""
"","learn_trial","categorize-lines","20","261993","0.0-3.0-0.14","20211013","152","739","","","","","","","","[157.5]","[157.5]","[""u"",""i""]","[""""]","null","true","out","i","NO","","1","out","","","","157.5","learning","1","","","","","","","","","","","","","","","","","","","","","","","",""
"","learn_trial","categorize-lines","21","265398","0.0-3.0-0.15","20211013","152","1366","","","","","","","","[225.3253]","[225.3253]","[""u"",""i""]","[""""]","null","true","in","u","YES","","1","in","","","","225.3253","learning","8.34","","","","","","","","","","","","","","","","","","","","","","","",""
"","learn_trial","categorize-lines","22","269111","0.0-3.0-0.16","20211013","152","1671","","","","","","","","[183.2177]","[183.2177]","[""u"",""i""]","[""""]","null","true","out","i","NO","","1","out","","","","183.2177","learning","4.1","","","","","","","","","","","","","","","","","","","","","","","",""
"","learn_trial","categorize-lines","23","272401","0.0-3.0-0.17","20211013","152","1249","","","","","","","","[289.5496]","[289.5496]","[""u"",""i""]","[""""]","null","true","in","u","YES","","1","in","","","","289.5496","learning","13.48","","","","","","","","","","","","","","","","","","","","","","","",""
"","learn_trial","categorize-lines","24","276230","0.0-3.0-0.18","20211013","152","1787","","","","","","","","[196.3614]","[196.3614]","[""u"",""i""]","[""""]","null","true","in","u","YES","","1","in","","","","196.3614","learning","5.52","","","","","","","","","","","","","","","","","","","","","","","",""
"","learn_trial","categorize-lines","25","282798","0.0-3.0-0.19","20211013","152","2531","","","","","","","","[286.0393]","[286.0393]","[""u"",""i""]","[""""]","null","true","in","i","NO","","0","in","","","","286.0393","learning","13.23","","","","","","","","","","","","","","","","","","","","","","","",""
"","learn_trial","categorize-lines","26","287238","0.0-3.0-0.20","20211013","152","2401","","","","","","","","[242.9078]","[242.9078]","[""u"",""i""]","[""""]","null","true","in","u","YES","","1","in","","","","242.9078","learning","9.88","","","","","","","","","","","","","","","","","","","","","","","",""
"","learn_trial","categorize-lines","27","290336","0.0-3.0-0.21","20211013","152","1058","","","","","","","","[286.1789]","[286.1789]","[""u"",""i""]","[""""]","null","true","in","u","YES","","1","in","","","","286.1789","learning","13.24","","","","","","","","","","","","","","","","","","","","","","","",""
"","learn_trial","categorize-lines","28","293365","0.0-3.0-0.22","20211013","152","987","","","","","","","","[269.773]","[269.773]","[""u"",""i""]","[""""]","null","true","in","u","YES","","1","in","","","","269.773","learning","12.03","","","","","","","","","","","","","","","","","","","","","","","",""
"","learn_trial","categorize-lines","29","296208","0.0-3.0-0.23","20211013","152","801","","","","","","","","[338.8071]","[338.8071]","[""u"",""i""]","[""""]","null","true","out","i","NO","","1","out","","","","338.8071","learning","16.7","","","","","","","","","","","","","","","","","","","","","","","",""
"","learn_trial","categorize-lines","30","299152","0.0-3.0-0.24","20211013","152","901","","","","","","","","[303.4343]","[303.4343]","[""u"",""i""]","[""""]","null","true","in","u","YES","","1","in","","","","303.4343","learning","14.44","","","","","","","","","","","","","","","","","","","","","","","",""
"","learn_trial","categorize-lines","31","305753","0.0-3.0-0.25","20211013","152","2559","","","","","","","","[256.4258]","[256.4258]","[""u"",""i""]","[""""]","null","true","out","u","YES","","0","out","","","","256.4258","learning","10.99","","","","","","","","","","","","","","","","","","","","","","","",""
"","learn_trial","categorize-lines","32","309137","0.0-3.0-0.26","20211013","152","1343","","","","","","","","[157.3464]","[157.3464]","[""u"",""i""]","[""""]","null","true","out","i","NO","","1","out","","","","157.3464","learning","0.98","","","","","","","","","","","","","","","","","","","","","","","",""
"","learn_trial","categorize-lines","33","312704","0.0-3.0-0.27","20211013","152","1527","","","","","","","","[433.4695]","[433.4695]","[""u"",""i""]","[""""]","null","true","out","i","NO","","1","out","","","","433.4695","learning","21.75","","","","","","","","","","","","","","","","","","","","","","","",""
"","learn_trial","categorize-lines","34","316072","0.0-3.0-0.28","20211013","152","1324","","","","","","","","[395.4783]","[395.4783]","[""u"",""i""]","[""""]","null","true","out","i","NO","","1","out","","","","395.4783","learning","19.87","","","","","","","","","","","","","","","","","","","","","","","",""
"","learn_trial","categorize-lines","35","319528","0.0-3.0-0.29","20211013","152","1409","","","","","","","","[414.4426]","[414.4426]","[""u"",""i""]","[""""]","null","true","out","i","NO","","1","out","","","","414.4426","learning","20.83","","","","","","","","","","","","","","","","","","","","","","","",""
"","learn_trial","categorize-lines","36","323104","0.0-3.0-0.30","20211013","152","1541","","","","","","","","[235.555]","[235.555]","[""u"",""i""]","[""""]","null","true","in","u","YES","","1","in","","","","235.555","learning","9.25","","","","","","","","","","","","","","","","","","","","","","","",""
"","learn_trial","categorize-lines","37","328359","0.0-3.0-0.31","20211013","152","3214","","","","","","","","[288.4217]","[288.4217]","[""u"",""i""]","[""""]","null","true","in","u","YES","","1","in","","","","288.4217","learning","13.4","","","","","","","","","","","","","","","","","","","","","","","",""
"","learn_trial","categorize-lines","38","331051","0.0-3.0-0.32","20211013","152","658","","","","","","","","[381.2683]","[381.2683]","[""u"",""i""]","[""""]","null","true","out","i","NO","","1","out","","","","381.2683","learning","19.12","","","","","","","","","","","","","","","","","","","","","","","",""
"","learn_trial","categorize-lines","39","336150","0.0-3.0-0.33","20211013","152","1064","","","","","","","","[249.3927]","[249.3927]","[""u"",""i""]","[""""]","null","true","out","u","YES","","0","out","","","","249.3927","learning","10.42","","","","","","","","","","","","","","","","","","","","","","","",""
"","learn_trial","categorize-lines","40","341404","0.0-3.0-0.34","20211013","152","1220","","","","","","","","[306.8586]","[306.8586]","[""u"",""i""]","[""""]","null","true","out","u","YES","","0","out","","","","306.8586","learning","14.67","","","","","","","","","","","","","","","","","","","","","","","",""
"","learn_trial","categorize-lines","41","347398","0.0-3.0-0.35","20211013","152","1959","","","","","","","","[189.3983]","[189.3983]","[""u"",""i""]","[""""]","null","true","in","i","NO","","0","in","","","","189.3983","learning","4.78","","","","","","","","","","","","","","","","","","","","","","","",""
"","learn_trial","categorize-lines","42","350543","0.0-3.0-0.36","20211013","152","1109","","","","","","","","[251.8382]","[251.8382]","[""u"",""i""]","[""""]","null","true","in","u","YES","","1","in","","","","251.8382","learning","10.62","","","","","","","","","","","","","","","","","","","","","","","",""
"","learn_trial","categorize-lines","43","355512","0.0-3.0-0.37","20211013","152","926","","","","","","","","[268.0673]","[268.0673]","[""u"",""i""]","[""""]","null","true","out","u","YES","","0","out","","","","268.0673","learning","11.9","","","","","","","","","","","","","","","","","","","","","","","",""
"","learn_trial","categorize-lines","44","361118","0.0-3.0-0.38","20211013","152","1567","","","","","","","","[199.354]","[199.354]","[""u"",""i""]","[""""]","null","true","out","u","YES","","0","out","","","","199.354","learning","5.83","","","","","","","","","","","","","","","","","","","","","","","",""
"","learn_trial","categorize-lines","45","363957","0.0-3.0-0.39","20211013","152","802","","","","","","","","[425.0919]","[425.0919]","[""u"",""i""]","[""""]","null","true","out","i","NO","","1","out","","","","425.0919","learning","21.35","","","","","","","","","","","","","","","","","","","","","","","",""
"","learn_trial","categorize-lines","46","369849","0.0-3.0-0.40","20211013","152","1849","","","","","","","","[397.6065]","[397.6065]","[""u"",""i""]","[""""]","null","true","in","i","NO","","0","in","","","","397.6065","learning","19.98","","","","","","","","","","","","","","","","","","","","","","","",""
"","learn_trial","categorize-lines","47","375719","0.0-3.0-0.41","20211013","152","1830","","","","","","","","[198.8682]","[198.8682]","[""u"",""i""]","[""""]","null","true","in","i","NO","","0","in","","","","198.8682","learning","5.78","","","","","","","","","","","","","","","","","","","","","","","",""
"","learn_trial","categorize-lines","48","379006","0.0-3.0-0.42","20211013","152","1254","","","","","","","","[278.0583]","[278.0583]","[""u"",""i""]","[""""]","null","true","in","u","YES","","1","in","","","","278.0583","learning","12.65","","","","","","","","","","","","","","","","","","","","","","","",""
"","learn_trial","categorize-lines","49","381989","0.0-3.0-0.43","20211013","152","944","","","","","","","","[287.8593]","[287.8593]","[""u"",""i""]","[""""]","null","true","in","u","YES","","1","in","","","","287.8593","learning","13.36","","","","","","","","","","","","","","","","","","","","","","","",""
"","learn_trial","categorize-lines","50","384750","0.0-3.0-0.44","20211013","152","723","","","","","","","","[290.1153]","[290.1153]","[""u"",""i""]","[""""]","null","true","in","u","YES","","1","in","","","","290.1153","learning","13.52","","","","","","","","","","","","","","","","","","","","","","","",""
"","learn_trial","categorize-lines","51","389685","0.0-3.0-0.45","20211013","152","896","","","","","","","","[282.8474]","[282.8474]","[""u"",""i""]","[""""]","null","true","out","u","YES","","0","out","","","","282.8474","learning","13","","","","","","","","","","","","","","","","","","","","","","","",""
"","learn_trial","categorize-lines","52","396663","0.0-3.0-0.46","20211013","152","2935","","","","","","","","[269.5099]","[269.5099]","[""u"",""i""]","[""""]","null","true","in","i","NO","","0","in","","","","269.5099","learning","12.01","","","","","","","","","","","","","","","","","","","","","","","",""
"","learn_trial","categorize-lines","53","403374","0.0-3.0-0.47","20211013","152","2672","","","","","","","","[219.6805]","[219.6805]","[""u"",""i""]","[""""]","null","true","in","i","NO","","0","in","","","","219.6805","learning","7.82","","","","","","","","","","","","","","","","","","","","","","","",""
"","learn_trial","categorize-lines","54","406332","0.0-3.0-0.48","20211013","152","919","","","","","","","","[314.8971]","[314.8971]","[""u"",""i""]","[""""]","null","true","in","u","YES","","1","in","","","","314.8971","learning","15.2","","","","","","","","","","","","","","","","","","","","","","","",""
"","learn_trial","categorize-lines","55","411184","0.0-3.0-0.49","20211013","152","814","","","","","","","","[257.4286]","[257.4286]","[""u"",""i""]","[""""]","null","true","out","u","YES","","0","out","","","","257.4286","learning","11.07","","","","","","","","","","","","","","","","","","","","","","","",""
"","learn_trial","categorize-lines","56","415280","0.0-3.0-0.50","20211013","152","2057","","","","","","","","[354.5346]","[354.5346]","[""u"",""i""]","[""""]","null","true","in","u","YES","","1","in","","","","354.5346","learning","17.63","","","","","","","","","","","","","","","","","","","","","","","",""
"","learn_trial","categorize-lines","57","419929","0.0-3.0-0.51","20211013","152","2607","","","","","","","","[206.4815]","[206.4815]","[""u"",""i""]","[""""]","null","true","out","i","NO","","1","out","","","","206.4815","learning","6.55","","","","","","","","","","","","","","","","","","","","","","","",""
"","learn_trial","categorize-lines","58","425432","0.0-3.0-0.52","20211013","152","1460","","","","","","","","[328.3911]","[328.3911]","[""u"",""i""]","[""""]","null","true","out","u","YES","","0","out","","","","328.3911","learning","16.06","","","","","","","","","","","","","","","","","","","","","","","",""
"","learn_trial","categorize-lines","59","430222","0.0-3.0-0.53","20211013","152","2753","","","","","","","","[300.928]","[300.928]","[""u"",""i""]","[""""]","null","true","out","i","NO","","1","out","","","","300.928","learning","14.27","","","","","","","","","","","","","","","","","","","","","","","",""
"","learn_trial","categorize-lines","60","433257","0.0-3.0-0.54","20211013","152","993","","","","","","","","[223.5732]","[223.5732]","[""u"",""i""]","[""""]","null","true","in","u","YES","","1","in","","","","223.5732","learning","8.18","","","","","","","","","","","","","","","","","","","","","","","",""
"","learn_trial","categorize-lines","61","438496","0.0-3.0-0.55","20211013","152","1196","","","","","","","","[214.2817]","[214.2817]","[""u"",""i""]","[""""]","null","true","out","u","YES","","0","out","","","","214.2817","learning","7.31","","","","","","","","","","","","","","","","","","","","","","","",""
"","learn_trial","categorize-lines","62","442303","0.0-3.0-0.56","20211013","152","1770","","","","","","","","[234.2942]","[234.2942]","[""u"",""i""]","[""""]","null","true","in","u","YES","","1","in","","","","234.2942","learning","9.14","","","","","","","","","","","","","","","","","","","","","","","",""
"","learn_trial","categorize-lines","63","447416","0.0-3.0-0.57","20211013","152","1072","","","","","","","","[319.8521]","[319.8521]","[""u"",""i""]","[""""]","null","true","in","i","NO","","0","in","","","","319.8521","learning","15.52","","","","","","","","","","","","","","","","","","","","","","","",""
"","learn_trial","categorize-lines","64","450289","0.0-3.0-0.58","20211013","152","828","","","","","","","","[235.4401]","[235.4401]","[""u"",""i""]","[""""]","null","true","in","u","YES","","1","in","","","","235.4401","learning","9.24","","","","","","","","","","","","","","","","","","","","","","","",""
"","learn_trial","categorize-lines","65","455647","0.0-3.0-0.59","20211013","152","1318","","","","","","","","[215.6451]","[215.6451]","[""u"",""i""]","[""""]","null","true","out","u","YES","","0","out","","","","215.6451","learning","7.44","","","","","","","","","","","","","","","","","","","","","","","",""
"","learn_trial","categorize-lines","66","458743","0.0-3.0-0.60","20211013","152","1055","","","","","","","","[196.2656]","[196.2656]","[""u"",""i""]","[""""]","null","true","in","u","YES","","1","in","","","","196.2656","learning","5.51","","","","","","","","","","","","","","","","","","","","","","","",""
"","learn_trial","categorize-lines","67","465585","0.0-3.0-0.61","20211013","152","2799","","","","","","","","[302.2523]","[302.2523]","[""u"",""i""]","[""""]","null","true","out","u","YES","","0","out","","","","302.2523","learning","14.36","","","","","","","","","","","","","","","","","","","","","","","",""
"","learn_trial","categorize-lines","68","470486","0.0-3.0-0.62","20211013","152","862","","","","","","","","[186.2824]","[186.2824]","[""u"",""i""]","[""""]","null","true","in","i","NO","","0","in","","","","186.2824","learning","4.44","","","","","","","","","","","","","","","","","","","","","","","",""
"","learn_trial","categorize-lines","69","475648","0.0-3.0-0.63","20211013","152","1126","","","","","","","","[177.9319]","[177.9319]","[""u"",""i""]","[""""]","null","true","out","u","YES","","0","out","","","","177.9319","learning","3.5","","","","","","","","","","","","","","","","","","","","","","","",""
"","learn_trial","categorize-lines","70","478824","0.0-3.0-0.64","20211013","152","1134","","","","","","","","[318.7615]","[318.7615]","[""u"",""i""]","[""""]","null","true","out","i","NO","","1","out","","","","318.7615","learning","15.45","","","","","","","","","","","","","","","","","","","","","","","",""
"","learn_trial","categorize-lines","71","483991","0.0-3.0-0.65","20211013","152","3128","","","","","","","","[260.5878]","[260.5878]","[""u"",""i""]","[""""]","null","true","in","u","YES","","1","in","","","","260.5878","learning","11.32","","","","","","","","","","","","","","","","","","","","","","","",""
"","learn_trial","categorize-lines","72","486750","0.0-3.0-0.66","20211013","152","722","","","","","","","","[248.5424]","[248.5424]","[""u"",""i""]","[""""]","null","true","in","u","YES","","1","in","","","","248.5424","learning","10.35","","","","","","","","","","","","","","","","","","","","","","","",""
"","learn_trial","categorize-lines","73","492506","0.0-3.0-0.67","20211013","152","1711","","","","","","","","[292.2463]","[292.2463]","[""u"",""i""]","[""""]","null","true","in","i","NO","","0","in","","","","292.2463","learning","13.67","","","","","","","","","","","","","","","","","","","","","","","",""
"","learn_trial","categorize-lines","74","498015","0.0-3.0-0.68","20211013","152","1469","","","","","","","","[204.8759]","[204.8759]","[""u"",""i""]","[""""]","null","true","out","u","YES","","0","out","","","","204.8759","learning","6.39","","","","","","","","","","","","","","","","","","","","","","","",""
"","learn_trial","categorize-lines","75","503528","0.0-3.0-0.69","20211013","152","1469","","","","","","","","[240.0801]","[240.0801]","[""u"",""i""]","[""""]","null","true","out","u","YES","","0","out","","","","240.0801","learning","9.64","","","","","","","","","","","","","","","","","","","","","","","",""
"","learn_trial","categorize-lines","76","508382","0.0-3.0-0.70","20211013","152","820","","","","","","","","[169.8728]","[169.8728]","[""u"",""i""]","[""""]","null","true","out","u","YES","","0","out","","","","169.8728","learning","2.55","","","","","","","","","","","","","","","","","","","","","","","",""
"","learn_trial","categorize-lines","77","514288","0.0-3.0-0.71","20211013","152","1864","","","","","","","","[160.4473]","[160.4473]","[""u"",""i""]","[""""]","null","true","out","u","YES","","0","out","","","","160.4473","learning","1.38","","","","","","","","","","","","","","","","","","","","","","","",""
"","learn_trial","categorize-lines","78","517223","0.0-3.0-0.72","20211013","152","891","","","","","","","","[325.361]","[325.361]","[""u"",""i""]","[""""]","null","true","out","i","NO","","1","out","","","","325.361","learning","15.87","","","","","","","","","","","","","","","","","","","","","","","",""
"","learn_trial","categorize-lines","79","520052","0.0-3.0-0.73","20211013","152","794","","","","","","","","[351.2632]","[351.2632]","[""u"",""i""]","[""""]","null","true","out","i","NO","","1","out","","","","351.2632","learning","17.44","","","","","","","","","","","","","","","","","","","","","","","",""
"","learn_trial","categorize-lines","80","525067","0.0-3.0-0.74","20211013","152","979","","","","","","","","[189.1213]","[189.1213]","[""u"",""i""]","[""""]","null","true","out","u","YES","","0","out","","","","189.1213","learning","4.75","","","","","","","","","","","","","","","","","","","","","","","",""
"","learn_trial","categorize-lines","81","528376","0.0-3.0-0.75","20211013","152","1275","","","","","","","","[427.3794]","[427.3794]","[""u"",""i""]","[""""]","null","true","out","i","NO","","1","out","","","","427.3794","learning","21.46","","","","","","","","","","","","","","","","","","","","","","","",""
"","learn_trial","categorize-lines","82","531312","0.0-3.0-0.76","20211013","152","896","","","","","","","","[258.5615]","[258.5615]","[""u"",""i""]","[""""]","null","true","in","u","YES","","1","in","","","","258.5615","learning","11.16","","","","","","","","","","","","","","","","","","","","","","","",""
"","learn_trial","categorize-lines","83","534109","0.0-3.0-0.77","20211013","152","759","","","","","","","","[213.0308]","[213.0308]","[""u"",""i""]","[""""]","null","true","in","u","YES","","1","in","","","","213.0308","learning","7.19","","","","","","","","","","","","","","","","","","","","","","","",""
"","learn_trial","categorize-lines","84","536998","0.0-3.0-0.78","20211013","152","855","","","","","","","","[278.7375]","[278.7375]","[""u"",""i""]","[""""]","null","true","in","u","YES","","1","in","","","","278.7375","learning","12.7","","","","","","","","","","","","","","","","","","","","","","","",""
"","learn_trial","categorize-lines","85","540968","0.0-3.0-0.79","20211013","152","1931","","","","","","","","[215.1197]","[215.1197]","[""u"",""i""]","[""""]","null","true","in","u","YES","","1","in","","","","215.1197","learning","7.39","","","","","","","","","","","","","","","","","","","","","","","",""
"","learn_trial","categorize-lines","86","545813","0.0-3.0-0.80","20211013","152","803","","","","","","","","[179.0641]","[179.0641]","[""u"",""i""]","[""""]","null","true","in","i","NO","","0","in","","","","179.0641","learning","3.63","","","","","","","","","","","","","","","","","","","","","","","",""
"","learn_trial","categorize-lines","87","548591","0.0-3.0-0.81","20211013","152","745","","","","","","","","[259.5727]","[259.5727]","[""u"",""i""]","[""""]","null","true","in","u","YES","","1","in","","","","259.5727","learning","11.24","","","","","","","","","","","","","","","","","","","","","","","",""
"","learn_trial","categorize-lines","88","551409","0.0-3.0-0.82","20211013","152","776","","","","","","","","[324.5682]","[324.5682]","[""u"",""i""]","[""""]","null","true","in","u","YES","","1","in","","","","324.5682","learning","15.82","","","","","","","","","","","","","","","","","","","","","","","",""
"","learn_trial","categorize-lines","89","557199","0.0-3.0-0.83","20211013","152","1752","","","","","","","","[273.0837]","[273.0837]","[""u"",""i""]","[""""]","null","true","out","u","YES","","0","out","","","","273.0837","learning","12.28","","","","","","","","","","","","","","","","","","","","","","","",""
"","learn_trial","categorize-lines","90","560502","0.0-3.0-0.84","20211013","152","1266","","","","","","","","[402.0934]","[402.0934]","[""u"",""i""]","[""""]","null","true","out","i","NO","","1","out","","","","402.0934","learning","20.21","","","","","","","","","","","","","","","","","","","","","","","",""
"","learn_trial","categorize-lines","91","565465","0.0-3.0-0.85","20211013","152","922","","","","","","","","[217.0172]","[217.0172]","[""u"",""i""]","[""""]","null","true","out","u","YES","","0","out","","","","217.0172","learning","7.57","","","","","","","","","","","","","","","","","","","","","","","",""
"","learn_trial","categorize-lines","92","570352","0.0-3.0-0.86","20211013","152","848","","","","","","","","[242.6709]","[242.6709]","[""u"",""i""]","[""""]","null","true","in","i","NO","","0","in","","","","242.6709","learning","9.86","","","","","","","","","","","","","","","","","","","","","","","",""
"","learn_trial","categorize-lines","93","575441","0.0-3.0-0.87","20211013","152","1044","","","","","","","","[315.3583]","[315.3583]","[""u"",""i""]","[""""]","null","true","out","u","YES","","0","out","","","","315.3583","learning","15.23","","","","","","","","","","","","","","","","","","","","","","","",""
"","learn_trial","categorize-lines","94","578560","0.0-3.0-0.88","20211013","152","1080","","","","","","","","[235.0957]","[235.0957]","[""u"",""i""]","[""""]","null","true","in","u","YES","","1","in","","","","235.0957","learning","9.21","","","","","","","","","","","","","","","","","","","","","","","",""
"","learn_trial","categorize-lines","95","581944","0.0-3.0-0.89","20211013","152","1343","","","","","","","","[354.016]","[354.016]","[""u"",""i""]","[""""]","null","true","in","u","YES","","1","in","","","","354.016","learning","17.6","","","","","","","","","","","","","","","","","","","","","","","",""
"","learn_trial","categorize-lines","96","586721","0.0-3.0-0.90","20211013","152","742","","","","","","","","[348.1918]","[348.1918]","[""u"",""i""]","[""""]","null","true","out","u","YES","","0","out","","","","348.1918","learning","17.26","","","","","","","","","","","","","","","","","","","","","","","",""
"","learn_trial","categorize-lines","97","589897","0.0-3.0-0.91","20211013","152","1132","","","","","","","","[226.3169]","[226.3169]","[""u"",""i""]","[""""]","null","true","out","i","NO","","1","out","","","","226.3169","learning","8.43","","","","","","","","","","","","","","","","","","","","","","","",""
"","learn_trial","categorize-lines","98","595558","0.0-3.0-0.92","20211013","152","1623","","","","","","","","[188.2927]","[188.2927]","[""u"",""i""]","[""""]","null","true","out","u","YES","","0","out","","","","188.2927","learning","4.66","","","","","","","","","","","","","","","","","","","","","","","",""
"","learn_trial","categorize-lines","99","602135","0.0-3.0-0.93","20211013","152","2536","","","","","","","","[271.7546]","[271.7546]","[""u"",""i""]","[""""]","null","true","in","i","NO","","0","in","","","","271.7546","learning","12.18","","","","","","","","","","","","","","","","","","","","","","","",""
"","learn_trial","categorize-lines","100","607446","0.0-3.0-0.94","20211013","152","1272","","","","","","","","[389.5417]","[389.5417]","[""u"",""i""]","[""""]","null","true","in","i","NO","","0","in","","","","389.5417","learning","19.56","","","","","","","","","","","","","","","","","","","","","","","",""
"","learn_trial","categorize-lines","101","612151","0.0-3.0-0.95","20211013","152","664","","","","","","","","[297.2797]","[297.2797]","[""u"",""i""]","[""""]","null","true","in","i","NO","","0","in","","","","297.2797","learning","14.02","","","","","","","","","","","","","","","","","","","","","","","",""
"","learn_trial","categorize-lines","102","614961","0.0-3.0-0.96","20211013","152","768","","","","","","","","[260.715]","[260.715]","[""u"",""i""]","[""""]","null","true","in","u","YES","","1","in","","","","260.715","learning","11.33","","","","","","","","","","","","","","","","","","","","","","","",""
"","learn_trial","categorize-lines","103","620166","0.0-3.0-0.97","20211013","152","1164","","","","","","","","[162.972]","[162.972]","[""u"",""i""]","[""""]","null","true","out","u","YES","","0","out","","","","162.972","learning","1.7","","","","","","","","","","","","","","","","","","","","","","","",""
"","learn_trial","categorize-lines","104","623038","0.0-3.0-0.98","20211013","152","838","","","","","","","","[215.1197]","[215.1197]","[""u"",""i""]","[""""]","null","true","in","u","YES","","1","in","","","","215.1197","learning","7.39","","","","","","","","","","","","","","","","","","","","","","","",""
"","learn_trial","categorize-lines","105","625856","0.0-3.0-0.99","20211013","152","776","","","","","","","","[196.841]","[196.841]","[""u"",""i""]","[""""]","null","true","out","i","NO","","1","out","","","","196.841","learning","5.57","","","","","","","","","","","","","","","","","","","","","","","",""
"","learn_trial","categorize-lines","106","629014","0.0-3.0-0.100","20211013","152","1119","","","","","","","","[150.8808]","[150.8808]","[""u"",""i""]","[""""]","null","true","out","i","NO","","1","out","","","","150.8808","learning","0.12","","","","","","","","","","","","","","","","","","","","","","","",""
"","learn_trial","categorize-lines","107","631903","0.0-3.0-0.101","20211013","152","850","","","","","","","","[224.886]","[224.886]","[""u"",""i""]","[""""]","null","true","in","u","YES","","1","in","","","","224.886","learning","8.3","","","","","","","","","","","","","","","","","","","","","","","",""
"","learn_trial","categorize-lines","108","636854","0.0-3.0-0.102","20211013","152","917","","","","","","","","[261.6069]","[261.6069]","[""u"",""i""]","[""""]","null","true","in","i","NO","","0","in","","","","261.6069","learning","11.4","","","","","","","","","","","","","","","","","","","","","","","",""
"","learn_trial","categorize-lines","109","642157","0.0-3.0-0.103","20211013","152","1268","","","","","","","","[292.6743]","[292.6743]","[""u"",""i""]","[""""]","null","true","out","u","YES","","0","out","","","","292.6743","learning","13.7","","","","","","","","","","","","","","","","","","","","","","","",""
"","learn_trial","categorize-lines","110","645553","0.0-3.0-0.104","20211013","152","1361","","","","","","","","[244.931]","[244.931]","[""u"",""i""]","[""""]","null","true","out","i","NO","","1","out","","","","244.931","learning","10.05","","","","","","","","","","","","","","","","","","","","","","","",""
"","learn_trial","categorize-lines","111","650904","0.0-3.0-0.105","20211013","152","1317","","","","","","","","[343.8027]","[343.8027]","[""u"",""i""]","[""""]","null","true","out","u","YES","","0","out","","","","343.8027","learning","17","","","","","","","","","","","","","","","","","","","","","","","",""
"","learn_trial","categorize-lines","112","653842","0.0-3.0-0.106","20211013","152","889","","","","","","","","[228.0906]","[228.0906]","[""u"",""i""]","[""""]","null","true","out","i","NO","","1","out","","","","228.0906","learning","8.59","","","","","","","","","","","","","","","","","","","","","","","",""
"","learn_trial","categorize-lines","113","658984","0.0-3.0-0.107","20211013","152","1103","","","","","","","","[340.7966]","[340.7966]","[""u"",""i""]","[""""]","null","true","out","u","YES","","0","out","","","","340.7966","learning","16.82","","","","","","","","","","","","","","","","","","","","","","","",""
"","learn_trial","categorize-lines","114","663696","0.0-3.0-0.108","20211013","152","671","","","","","","","","[188.2927]","[188.2927]","[""u"",""i""]","[""""]","null","true","out","u","YES","","0","out","","","","188.2927","learning","4.66","","","","","","","","","","","","","","","","","","","","","","","",""
"","learn_trial","categorize-lines","115","667096","0.0-3.0-0.109","20211013","152","1356","","","","","","","","[211.2711]","[211.2711]","[""u"",""i""]","[""""]","null","true","out","i","NO","","1","out","","","","211.2711","learning","7.02","","","","","","","","","","","","","","","","","","","","","","","",""
"","learn_trial","categorize-lines","116","674009","0.0-3.0-0.110","20211013","152","2871","","","","","","","","[304.3239]","[304.3239]","[""u"",""i""]","[""""]","null","true","in","i","NO","","0","in","","","","304.3239","learning","14.5","","","","","","","","","","","","","","","","","","","","","","","",""
"","learn_trial","categorize-lines","117","678824","0.0-3.0-0.111","20211013","152","2778","","","","","","","","[268.8532]","[268.8532]","[""u"",""i""]","[""""]","null","true","in","u","YES","","1","in","","","","268.8532","learning","11.96","","","","","","","","","","","","","","","","","","","","","","","",""
"","learn_trial","categorize-lines","118","685774","0.0-3.0-0.112","20211013","152","4912","","","","","","","","[327.7509]","[327.7509]","[""u"",""i""]","[""""]","null","true","in","u","YES","","1","in","","","","327.7509","learning","16.02","","","","","","","","","","","","","","","","","","","","","","","",""
"","learn_trial","categorize-lines","119","690958","0.0-3.0-0.113","20211013","152","1145","","","","","","","","[440.9352]","[440.9352]","[""u"",""i""]","[""""]","null","true","out","u","YES","","0","out","","","","440.9352","learning","22.1","","","","","","","","","","","","","","","","","","","","","","","",""
"","learn_trial","categorize-lines","120","695567","0.0-3.0-0.114","20211013","152","568","","","","","","","","[205.4765]","[205.4765]","[""u"",""i""]","[""""]","null","true","in","i","NO","","0","in","","","","205.4765","learning","6.45","","","","","","","","","","","","","","","","","","","","","","","",""
"","learn_trial","categorize-lines","121","701882","0.0-3.0-0.115","20211013","152","2273","","","","","","","","[241.7256]","[241.7256]","[""u"",""i""]","[""""]","null","true","in","i","NO","","0","in","","","","241.7256","learning","9.78","","","","","","","","","","","","","","","","","","","","","","","",""
"","learn_trial","categorize-lines","122","706414","0.0-3.0-0.116","20211013","152","2495","","","","","","","","[270.9602]","[270.9602]","[""u"",""i""]","[""""]","null","true","in","u","YES","","1","in","","","","270.9602","learning","12.12","","","","","","","","","","","","","","","","","","","","","","","",""
"","learn_trial","categorize-lines","123","709383","0.0-3.0-0.117","20211013","152","928","","","","","","","","[315.0507]","[315.0507]","[""u"",""i""]","[""""]","null","true","in","u","YES","","1","in","","","","315.0507","learning","15.21","","","","","","","","","","","","","","","","","","","","","","","",""
"","learn_trial","categorize-lines","124","715807","0.0-3.0-0.118","20211013","152","2384","","","","","","","","[258.8139]","[258.8139]","[""u"",""i""]","[""""]","null","true","in","i","NO","","0","in","","","","258.8139","learning","11.18","","","","","","","","","","","","","","","","","","","","","","","",""
"","learn_trial","categorize-lines","125","718496","0.0-3.0-0.119","20211013","152","647","","","","","","","","[233.9515]","[233.9515]","[""u"",""i""]","[""""]","null","true","in","u","YES","","1","in","","","","233.9515","learning","9.11","","","","","","","","","","","","","","","","","","","","","","","",""
"","learn_trial","categorize-lines","126","723096","0.0-3.0-0.120","20211013","152","560","","","","","","","","[234.4085]","[234.4085]","[""u"",""i""]","[""""]","null","true","out","u","YES","","0","out","","","","234.4085","learning","9.15","","","","","","","","","","","","","","","","","","","","","","","",""
"","learn_trial","categorize-lines","127","728385","0.0-3.0-0.121","20211013","152","1248","","","","","","","","[372.443]","[372.443]","[""u"",""i""]","[""""]","null","true","in","i","NO","","0","in","","","","372.443","learning","18.64","","","","","","","","","","","","","","","","","","","","","","","",""
"","learn_trial","categorize-lines","128","731960","0.0-3.0-0.122","20211013","152","1534","","","","","","","","[217.0172]","[217.0172]","[""u"",""i""]","[""""]","null","true","out","i","NO","","1","out","","","","217.0172","learning","7.57","","","","","","","","","","","","","","","","","","","","","","","",""
"","learn_trial","categorize-lines","129","739846","0.0-3.0-0.123","20211013","152","3849","","","","","","","","[305.9616]","[305.9616]","[""u"",""i""]","[""""]","null","true","in","i","NO","","0","in","","","","305.9616","learning","14.61","","","","","","","","","","","","","","","","","","","","","","","",""
"","learn_trial","categorize-lines","130","746560","0.0-3.0-0.124","20211013","152","2682","","","","","","","","[335.8447]","[335.8447]","[""u"",""i""]","[""""]","null","true","out","u","YES","","0","out","","","","335.8447","learning","16.52","","","","","","","","","","","","","","","","","","","","","","","",""
"","learn_trial","categorize-lines","131","752336","0.0-3.0-0.125","20211013","152","1738","","","","","","","","[185.4662]","[185.4662]","[""u"",""i""]","[""""]","null","true","out","u","YES","","0","out","","","","185.4662","learning","4.35","","","","","","","","","","","","","","","","","","","","","","","",""
"","learn_trial","categorize-lines","132","757786","0.0-3.0-0.126","20211013","152","1409","","","","","","","","[176.8932]","[176.8932]","[""u"",""i""]","[""""]","null","true","out","u","YES","","0","out","","","","176.8932","learning","3.38","","","","","","","","","","","","","","","","","","","","","","","",""
"","learn_trial","categorize-lines","133","762633","0.0-3.0-0.127","20211013","152","2811","","","","","","","","[155.8185]","[155.8185]","[""u"",""i""]","[""""]","null","true","out","i","NO","","1","out","","","","155.8185","learning","0.78","","","","","","","","","","","","","","","","","","","","","","","",""
"","learn_trial","categorize-lines","134","766974","0.0-3.0-0.128","20211013","152","2302","","","","","","","","[243.7389]","[243.7389]","[""u"",""i""]","[""""]","null","true","in","u","YES","","1","in","","","","243.7389","learning","9.95","","","","","","","","","","","","","","","","","","","","","","","",""
"","learn_trial","categorize-lines","135","770631","0.0-3.0-0.129","20211013","152","1617","","","","","","","","[431.9916]","[431.9916]","[""u"",""i""]","[""""]","null","true","out","i","NO","","1","out","","","","431.9916","learning","21.68","","","","","","","","","","","","","","","","","","","","","","","",""
"","learn_trial","categorize-lines","136","773945","0.0-3.0-0.130","20211013","152","1274","","","","","","","","[281.4707]","[281.4707]","[""u"",""i""]","[""""]","null","true","in","u","YES","","1","in","","","","281.4707","learning","12.9","","","","","","","","","","","","","","","","","","","","","","","",""
"","learn_trial","categorize-lines","137","782350","0.0-3.0-0.131","20211013","152","4369","","","","","","","","[319.0728]","[319.0728]","[""u"",""i""]","[""""]","null","true","in","i","NO","","0","in","","","","319.0728","learning","15.47","","","","","","","","","","","","","","","","","","","","","","","",""
"","learn_trial","categorize-lines","138","788298","0.0-3.0-0.132","20211013","152","1908","","","","","","","","[160.7608]","[160.7608]","[""u"",""i""]","[""""]","null","true","out","u","YES","","0","out","","","","160.7608","learning","1.42","","","","","","","","","","","","","","","","","","","","","","","",""
"","learn_trial","categorize-lines","139","793447","0.0-3.0-0.133","20211013","152","1112","","","","","","","","[235.3252]","[235.3252]","[""u"",""i""]","[""""]","null","true","out","u","YES","","0","out","","","","235.3252","learning","9.23","","","","","","","","","","","","","","","","","","","","","","","",""
"","learn_trial","categorize-lines","140","798768","0.0-3.0-0.134","20211013","152","1279","","","","","","","","[238.6785]","[238.6785]","[""u"",""i""]","[""""]","null","true","out","u","YES","","0","out","","","","238.6785","learning","9.52","","","","","","","","","","","","","","","","","","","","","","","",""
"","learn_trial","categorize-lines","141","802150","0.0-3.0-0.135","20211013","152","1348","","","","","","","","[280.511]","[280.511]","[""u"",""i""]","[""""]","null","true","in","u","YES","","1","in","","","","280.511","learning","12.83","","","","","","","","","","","","","","","","","","","","","","","",""
"","learn_trial","categorize-lines","142","807705","0.0-3.0-0.136","20211013","152","1516","","","","","","","","[272.5513]","[272.5513]","[""u"",""i""]","[""""]","null","true","out","u","YES","","0","out","","","","272.5513","learning","12.24","","","","","","","","","","","","","","","","","","","","","","","",""
"","learn_trial","categorize-lines","143","810999","0.0-3.0-0.137","20211013","152","1253","","","","","","","","[380.8964]","[380.8964]","[""u"",""i""]","[""""]","null","true","out","i","NO","","1","out","","","","380.8964","learning","19.1","","","","","","","","","","","","","","","","","","","","","","","",""
"","learn_trial","categorize-lines","144","816544","0.0-3.0-0.138","20211013","152","1503","","","","","","","","[370.2688]","[370.2688]","[""u"",""i""]","[""""]","null","true","out","u","YES","","0","out","","","","370.2688","learning","18.52","","","","","","","","","","","","","","","","","","","","","","","",""
"","learn_trial","categorize-lines","145","821342","0.0-3.0-0.139","20211013","152","2763","","","","","","","","[204.3767]","[204.3767]","[""u"",""i""]","[""""]","null","true","out","i","NO","","1","out","","","","204.3767","learning","6.34","","","","","","","","","","","","","","","","","","","","","","","",""
"","learn_trial","categorize-lines","146","827697","0.0-3.0-0.140","20211013","152","2311","","","","","","","","[189.4907]","[189.4907]","[""u"",""i""]","[""""]","null","true","out","u","YES","","0","out","","","","189.4907","learning","4.79","","","","","","","","","","","","","","","","","","","","","","","",""
"","learn_trial","categorize-lines","147","831981","0.0-3.0-0.141","20211013","152","2245","","","","","","","","[275.2239]","[275.2239]","[""u"",""i""]","[""""]","null","true","in","u","YES","","1","in","","","","275.2239","learning","12.44","","","","","","","","","","","","","","","","","","","","","","","",""
"","learn_trial","categorize-lines","148","835264","0.0-3.0-0.142","20211013","152","1243","","","","","","","","[153.0308]","[153.0308]","[""u"",""i""]","[""""]","null","true","out","i","NO","","1","out","","","","153.0308","learning","0.41","","","","","","","","","","","","","","","","","","","","","","","",""
"","learn_trial","categorize-lines","149","840657","0.0-3.0-0.143","20211013","152","1348","","","","","","","","[232.019]","[232.019]","[""u"",""i""]","[""""]","null","true","in","i","NO","","0","in","","","","232.019","learning","8.94","","","","","","","","","","","","","","","","","","","","","","","",""
"","learn_trial","categorize-lines","150","844232","0.0-3.0-0.144","20211013","152","1533","","","","","","","","[259.5727]","[259.5727]","[""u"",""i""]","[""""]","null","true","in","u","YES","","1","in","","","","259.5727","learning","11.24","","","","","","","","","","","","","","","","","","","","","","","",""
"","learn_trial","categorize-lines","151","850194","0.0-3.0-0.145","20211013","152","1921","","","","","","","","[212.3044]","[212.3044]","[""u"",""i""]","[""""]","null","true","in","i","NO","","0","in","","","","212.3044","learning","7.12","","","","","","","","","","","","","","","","","","","","","","","",""
"","learn_trial","categorize-lines","152","856135","0.0-3.0-0.146","20211013","152","1903","","","","","","","","[302.3998]","[302.3998]","[""u"",""i""]","[""""]","null","true","out","u","YES","","0","out","","","","302.3998","learning","14.37","","","","","","","","","","","","","","","","","","","","","","","",""
"","learn_trial","categorize-lines","153","864200","0.0-3.0-0.147","20211013","152","6024","","","","","","","","[245.4095]","[245.4095]","[""u"",""i""]","[""""]","null","true","in","u","YES","","1","in","","","","245.4095","learning","10.09","","","","","","","","","","","","","","","","","","","","","","","",""
"","learn_trial","categorize-lines","154","867809","0.0-3.0-0.148","20211013","152","1566","","","","","","","","[179.6767]","[179.6767]","[""u"",""i""]","[""""]","null","true","out","i","NO","","1","out","","","","179.6767","learning","3.7","","","","","","","","","","","","","","","","","","","","","","","",""
"","learn_trial","categorize-lines","155","872895","0.0-3.0-0.149","20211013","152","1049","","","","","","","","[352.1211]","[352.1211]","[""u"",""i""]","[""""]","null","true","out","u","YES","","0","out","","","","352.1211","learning","17.49","","","","","","","","","","","","","","","","","","","","","","","",""
"","learn_trial","categorize-lines","156","875945","0.0-3.0-0.150","20211013","152","1013","","","","","","","","[243.0264]","[243.0264]","[""u"",""i""]","[""""]","null","true","out","i","NO","","1","out","","","","243.0264","learning","9.89","","","","","","","","","","","","","","","","","","","","","","","",""
"","learn_trial","categorize-lines","157","880040","0.0-3.0-0.151","20211013","152","2054","","","","","","","","[346.6662]","[346.6662]","[""u"",""i""]","[""""]","null","true","in","u","YES","","1","in","","","","346.6662","learning","17.17","","","","","","","","","","","","","","","","","","","","","","","",""
"","learn_trial","categorize-lines","158","883855","0.0-3.0-0.152","20211013","152","1773","","","","","","","","[228.6477]","[228.6477]","[""u"",""i""]","[""""]","null","true","in","u","YES","","1","in","","","","228.6477","learning","8.64","","","","","","","","","","","","","","","","","","","","","","","",""
"","learn_trial","categorize-lines","159","887609","0.0-3.0-0.153","20211013","152","1715","","","","","","","","[316.5916]","[316.5916]","[""u"",""i""]","[""""]","null","true","out","i","NO","","1","out","","","","316.5916","learning","15.31","","","","","","","","","","","","","","","","","","","","","","","",""
"","learn_trial","categorize-lines","160","894474","0.0-3.0-0.154","20211013","152","2821","","","","","","","","[219.1453]","[219.1453]","[""u"",""i""]","[""""]","null","true","in","i","NO","","0","in","","","","219.1453","learning","7.77","","","","","","","","","","","","","","","","","","","","","","","",""
"","learn_trial","categorize-lines","161","897753","0.0-3.0-0.155","20211013","152","1239","","","","","","","","[441.7966]","[441.7966]","[""u"",""i""]","[""""]","null","true","out","i","NO","","1","out","","","","441.7966","learning","22.14","","","","","","","","","","","","","","","","","","","","","","","",""
"","learn_trial","categorize-lines","162","904768","0.0-3.0-0.156","20211013","152","2977","","","","","","","","[338.1466]","[338.1466]","[""u"",""i""]","[""""]","null","true","out","u","YES","","0","out","","","","338.1466","learning","16.66","","","","","","","","","","","","","","","","","","","","","","","",""
"","learn_trial","categorize-lines","163","909898","0.0-3.0-0.157","20211013","152","1084","","","","","","","","[170.5372]","[170.5372]","[""u"",""i""]","[""""]","null","true","in","i","NO","","0","in","","","","170.5372","learning","2.63","","","","","","","","","","","","","","","","","","","","","","","",""
"","learn_trial","categorize-lines","164","916620","0.0-3.0-0.158","20211013","152","2679","","","","","","","","[170.787]","[170.787]","[""u"",""i""]","[""""]","null","true","out","u","YES","","0","out","","","","170.787","learning","2.66","","","","","","","","","","","","","","","","","","","","","","","",""
"","learn_trial","categorize-lines","165","926320","0.0-3.0-0.159","20211013","152","5657","","","","","","","","[294.3929]","[294.3929]","[""u"",""i""]","[""""]","null","true","in","i","NO","","0","in","","","","294.3929","learning","13.82","","","","","","","","","","","","","","","","","","","","","","","",""
"","learn_trial","categorize-lines","166","931120","0.0-3.0-0.160","20211013","152","2757","","","","","","","","[356.0948]","[356.0948]","[""u"",""i""]","[""""]","null","true","in","u","YES","","1","in","","","","356.0948","learning","17.72","","","","","","","","","","","","","","","","","","","","","","","",""
"","learn_trial","categorize-lines","167","934519","0.0-3.0-0.161","20211013","152","1357","","","","","","","","[172.2094]","[172.2094]","[""u"",""i""]","[""""]","null","true","out","i","NO","","1","out","","","","172.2094","learning","2.83","","","","","","","","","","","","","","","","","","","","","","","",""
"","learn_trial","categorize-lines","168","939872","0.0-3.0-0.162","20211013","152","1309","","","","","","","","[367.2103]","[367.2103]","[""u"",""i""]","[""""]","null","true","out","u","YES","","0","out","","","","367.2103","learning","18.35","","","","","","","","","","","","","","","","","","","","","","","",""
"","learn_trial","categorize-lines","169","943930","0.0-3.0-0.163","20211013","152","2015","","","","","","","","[255.801]","[255.801]","[""u"",""i""]","[""""]","null","true","out","i","NO","","1","out","","","","255.801","learning","10.94","","","","","","","","","","","","","","","","","","","","","","","",""
"","learn_trial","categorize-lines","170","947705","0.0-3.0-0.164","20211013","152","1736","","","","","","","","[391.0651]","[391.0651]","[""u"",""i""]","[""""]","null","true","out","i","NO","","1","out","","","","391.0651","learning","19.64","","","","","","","","","","","","","","","","","","","","","","","",""
"","learn_trial","categorize-lines","171","955097","0.0-3.0-0.165","20211013","152","5352","","","","","","","","[193.6971]","[193.6971]","[""u"",""i""]","[""""]","null","true","in","u","YES","","1","in","","","","193.6971","learning","5.24","","","","","","","","","","","","","","","","","","","","","","","",""
"","learn_trial","categorize-lines","172","960568","0.0-3.0-0.166","20211013","152","3431","","","","","","","","[160.2908]","[160.2908]","[""u"",""i""]","[""""]","null","true","out","i","NO","","1","out","","","","160.2908","learning","1.36","","","","","","","","","","","","","","","","","","","","","","","",""
"","learn_trial","categorize-lines","173","965768","0.0-3.0-0.167","20211013","152","3164","","","","","","","","[308.8111]","[308.8111]","[""u"",""i""]","[""""]","null","true","in","u","YES","","1","in","","","","308.8111","learning","14.8","","","","","","","","","","","","","","","","","","","","","","","",""
"","learn_trial","categorize-lines","174","973462","0.0-3.0-0.168","20211013","152","3653","","","","","","","","[260.715]","[260.715]","[""u"",""i""]","[""""]","null","true","in","i","NO","","0","in","","","","260.715","learning","11.33","","","","","","","","","","","","","","","","","","","","","","","",""
"","learn_trial","categorize-lines","175","976650","0.0-3.0-0.169","20211013","152","1146","","","","","","","","[242.9078]","[242.9078]","[""u"",""i""]","[""""]","null","true","in","u","YES","","1","in","","","","242.9078","learning","9.88","","","","","","","","","","","","","","","","","","","","","","","",""
"","learn_trial","categorize-lines","176","984497","0.0-3.0-0.170","20211013","152","3807","","","","","","","","[306.8586]","[306.8586]","[""u"",""i""]","[""""]","null","true","in","i","NO","","0","in","","","","306.8586","learning","14.67","","","","","","","","","","","","","","","","","","","","","","","",""
"","learn_trial","categorize-lines","177","991985","0.0-3.0-0.171","20211013","152","5444","","","","","","","","[223.5732]","[223.5732]","[""u"",""i""]","[""""]","null","true","in","u","YES","","1","in","","","","223.5732","learning","8.18","","","","","","","","","","","","","","","","","","","","","","","",""
"","learn_trial","categorize-lines","178","999881","0.0-3.0-0.172","20211013","152","3856","","","","","","","","[226.0962]","[226.0962]","[""u"",""i""]","[""""]","null","true","in","i","NO","","0","in","","","","226.0962","learning","8.41","","","","","","","","","","","","","","","","","","","","","","","",""
"","learn_trial","categorize-lines","179","1004999","0.0-3.0-0.173","20211013","152","1082","","","","","","","","[274.8213]","[274.8213]","[""u"",""i""]","[""""]","null","true","out","u","YES","","0","out","","","","274.8213","learning","12.41","","","","","","","","","","","","","","","","","","","","","","","",""
"","learn_trial","categorize-lines","180","1011071","0.0-3.0-0.174","20211013","152","2040","","","","","","","","[197.4181]","[197.4181]","[""u"",""i""]","[""""]","null","true","in","i","NO","","0","in","","","","197.4181","learning","5.63","","","","","","","","","","","","","","","","","","","","","","","",""
"","learn_trial","categorize-lines","181","1016322","0.0-3.0-0.175","20211013","152","1210","","","","","","","","[266.7626]","[266.7626]","[""u"",""i""]","[""""]","null","true","out","u","YES","","0","out","","","","266.7626","learning","11.8","","","","","","","","","","","","","","","","","","","","","","","",""
"","learn_trial","categorize-lines","182","1019438","0.0-3.0-0.176","20211013","152","1077","","","","","","","","[433.4695]","[433.4695]","[""u"",""i""]","[""""]","null","true","out","i","NO","","1","out","","","","433.4695","learning","21.75","","","","","","","","","","","","","","","","","","","","","","","",""
"","learn_trial","categorize-lines","183","1025688","0.0-3.0-0.177","20211013","152","2212","","","","","","","","[309.2634]","[309.2634]","[""u"",""i""]","[""""]","null","true","out","u","YES","","0","out","","","","309.2634","learning","14.83","","","","","","","","","","","","","","","","","","","","","","","",""
"","learn_trial","categorize-lines","184","1031921","0.0-3.0-0.178","20211013","152","2188","","","","","","","","[231.4537]","[231.4537]","[""u"",""i""]","[""""]","null","true","in","i","NO","","0","in","","","","231.4537","learning","8.89","","","","","","","","","","","","","","","","","","","","","","","",""
"","learn_trial","categorize-lines","185","1035113","0.0-3.0-0.179","20211013","152","1153","","","","","","","","[219.6805]","[219.6805]","[""u"",""i""]","[""""]","null","true","in","u","YES","","1","in","","","","219.6805","learning","7.82","","","","","","","","","","","","","","","","","","","","","","","",""
"","learn_trial","categorize-lines","186","1045503","0.0-3.0-0.180","20211013","152","6353","","","","","","","","[214.9099]","[214.9099]","[""u"",""i""]","[""""]","null","true","out","u","YES","","0","out","","","","214.9099","learning","7.37","","","","","","","","","","","","","","","","","","","","","","","",""
"","learn_trial","categorize-lines","187","1050691","0.0-3.0-0.181","20211013","152","1142","","","","","","","","[241.019]","[241.019]","[""u"",""i""]","[""""]","null","true","in","i","NO","","0","in","","","","241.019","learning","9.72","","","","","","","","","","","","","","","","","","","","","","","",""
"","learn_trial","categorize-lines","188","1059144","0.0-3.0-0.182","20211013","152","4412","","","","","","","","[237.6328]","[237.6328]","[""u"",""i""]","[""""]","null","true","in","i","NO","","0","in","","","","237.6328","learning","9.43","","","","","","","","","","","","","","","","","","","","","","","",""
"","learn_trial","categorize-lines","189","1062068","0.0-3.0-0.183","20211013","152","887","","","","","","","","[351.4346]","[351.4346]","[""u"",""i""]","[""""]","null","true","in","u","YES","","1","in","","","","351.4346","learning","17.45","","","","","","","","","","","","","","","","","","","","","","","",""
"","learn_trial","categorize-lines","190","1066167","0.0-3.0-0.184","20211013","152","2058","","","","","","","","[219.1453]","[219.1453]","[""u"",""i""]","[""""]","null","true","in","u","YES","","1","in","","","","219.1453","learning","7.77","","","","","","","","","","","","","","","","","","","","","","","",""
"","learn_trial","categorize-lines","191","1070905","0.0-3.0-0.185","20211013","152","698","","","","","","","","[197.1294]","[197.1294]","[""u"",""i""]","[""""]","null","true","out","u","YES","","0","out","","","","197.1294","learning","5.6","","","","","","","","","","","","","","","","","","","","","","","",""
"","learn_trial","categorize-lines","192","1076392","0.0-3.0-0.186","20211013","152","1447","","","","","","","","[264.3011]","[264.3011]","[""u"",""i""]","[""""]","null","true","in","i","NO","","0","in","","","","264.3011","learning","11.61","","","","","","","","","","","","","","","","","","","","","","","",""
"","learn_trial","categorize-lines","193","1080265","0.0-3.0-0.187","20211013","152","1836","","","","","","","","[286.8779]","[286.8779]","[""u"",""i""]","[""""]","null","true","in","u","YES","","1","in","","","","286.8779","learning","13.29","","","","","","","","","","","","","","","","","","","","","","","",""
"","learn_trial","categorize-lines","194","1086583","0.0-3.0-0.188","20211013","152","2279","","","","","","","","[228.4247]","[228.4247]","[""u"",""i""]","[""""]","null","true","out","u","YES","","0","out","","","","228.4247","learning","8.62","","","","","","","","","","","","","","","","","","","","","","","",""
"","learn_trial","categorize-lines","195","1091584","0.0-3.0-0.189","20211013","152","962","","","","","","","","[426.7543]","[426.7543]","[""u"",""i""]","[""""]","null","true","out","u","YES","","0","out","","","","426.7543","learning","21.43","","","","","","","","","","","","","","","","","","","","","","","",""
"","learn_trial","categorize-lines","196","1096907","0.0-3.0-0.190","20211013","152","1280","","","","","","","","[383.8815]","[383.8815]","[""u"",""i""]","[""""]","null","true","out","u","YES","","0","out","","","","383.8815","learning","19.26","","","","","","","","","","","","","","","","","","","","","","","",""
"","learn_trial","categorize-lines","197","1101873","0.0-3.0-0.191","20211013","152","2923","","","","","","","","[367.7482]","[367.7482]","[""u"",""i""]","[""""]","null","true","out","i","NO","","1","out","","","","367.7482","learning","18.38","","","","","","","","","","","","","","","","","","","","","","","",""
"","learn_trial","categorize-lines","198","1104729","0.0-3.0-0.192","20211013","152","812","","","","","","","","[378.8576]","[378.8576]","[""u"",""i""]","[""""]","null","true","out","i","NO","","1","out","","","","378.8576","learning","18.99","","","","","","","","","","","","","","","","","","","","","","","",""
"","learn_trial","categorize-lines","199","1108430","0.0-3.0-0.193","20211013","152","1672","","","","","","","","[158.6569]","[158.6569]","[""u"",""i""]","[""""]","null","true","out","i","NO","","1","out","","","","158.6569","learning","1.15","","","","","","","","","","","","","","","","","","","","","","","",""
"","learn_trial","categorize-lines","200","1111593","0.0-3.0-0.194","20211013","152","1121","","","","","","","","[316.4372]","[316.4372]","[""u"",""i""]","[""""]","null","true","in","u","YES","","1","in","","","","316.4372","learning","15.3","","","","","","","","","","","","","","","","","","","","","","","",""
"","learn_trial","categorize-lines","201","1114562","0.0-3.0-0.195","20211013","152","925","","","","","","","","[262.5019]","[262.5019]","[""u"",""i""]","[""""]","null","true","in","u","YES","","1","in","","","","262.5019","learning","11.47","","","","","","","","","","","","","","","","","","","","","","","",""
"","learn_trial","categorize-lines","202","1119707","0.0-3.0-0.196","20211013","152","1103","","","","","","","","[356.0948]","[356.0948]","[""u"",""i""]","[""""]","null","true","in","i","NO","","0","in","","","","356.0948","learning","17.72","","","","","","","","","","","","","","","","","","","","","","","",""
"","learn_trial","categorize-lines","203","1123395","0.0-3.0-0.197","20211013","152","1651","","","","","","","","[301.663]","[301.663]","[""u"",""i""]","[""""]","null","true","in","u","YES","","1","in","","","","301.663","learning","14.32","","","","","","","","","","","","","","","","","","","","","","","",""
"","learn_trial","categorize-lines","204","1130657","0.0-3.0-0.198","20211013","152","3222","","","","","","","","[242.5526]","[242.5526]","[""u"",""i""]","[""""]","null","true","in","i","NO","","0","in","","","","242.5526","learning","9.85","","","","","","","","","","","","","","","","","","","","","","","",""
"","learn_trial","categorize-lines","205","1136777","0.0-3.0-0.199","20211013","152","4077","","","","","","","","[261.0969]","[261.0969]","[""u"",""i""]","[""""]","null","true","out","i","NO","","1","out","","","","261.0969","learning","11.36","","","","","","","","","","","","","","","","","","","","","","","",""
"","transfer_instructions","instructions","206","1173270","0.0-4.0-0.0","20211013","152","36491","","","","","","[{""page_index"":0,""viewing_time"":20619},{""page_index"":1,""viewing_time"":15872}]","","","","","","","","","","","","","","","","","","","","","","","","","","","","","","","","","","","","","","","","","","",""
"","transfer_trial","categorize-lines","207","1178152","0.0-5.0-0.0","20211013","152","3803","","","","","","","","[247.3327,300.6345]","[300.6345,247.3327]","[""j"",""k""]","[""J"",""K""]","247.3327","false","null","k","","247.3327","1","null","247.3327","","","","transfer","","10.25","247.3327","14.25","300.6345","","","247.3327","10.25","247.3327","300.6345","0","10.25","14.25","0","attraction","binary","easy","left","right","target","1","left","target",""
"","transfer_trial","categorize-lines","208","1182079","0.0-5.0-0.1","20211013","152","2848","","","","","","","","[272.6843,224.3381]","[272.6843,224.3381]","[""j"",""k""]","[""J"",""K""]","272.6843","false","null","j","","272.6843","1","null","224.3381","","","","transfer","","12.25","272.6843","8.25","224.3381","","","272.6843","12.25","272.6843","224.3381","0","12.25","8.25","0","attraction","binary","easy","right","left","target","1","right","target",""
"","transfer_trial","categorize-lines","209","1187215","0.0-5.0-0.2","20211013","152","4059","","","","","","","","[247.3327,300.6345,331.4495]","[247.3327,300.6345,331.4495]","[""j"",""k"",""l""]","[""J"",""K"",""L""]","247.3327","false","null","k","","300.6345","0","null","300.6345","331.4495","","","transfer","","14.25","300.6345","10.25","247.3327","16.25","331.4495","247.3327","10.25","247.3327","300.6345","331.4495","10.25","14.25","16.25","attraction","trinary","easy","right","left","competitor","1","left","target",""
"","transfer_trial","categorize-lines","210","1191135","0.0-5.0-0.3","20211013","152","2842","","","","","","","","[272.6843,235.555]","[235.555,272.6843]","[""j"",""k""]","[""J"",""K""]","272.6843","false","null","j","","235.555","0","null","272.6843","","","","transfer","","12.25","272.6843","9.25","235.555","","","272.6843","12.25","272.6843","235.555","0","12.25","9.25","0","attraction","binary","difficult","right","left","target","1","right","competitor",""
"","transfer_trial","categorize-lines","211","1196248","0.0-5.0-0.4","20211013","152","4032","","","","","","","","[272.6843,224.3381]","[272.6843,224.3381]","[""j"",""k""]","[""J"",""K""]","272.6843","false","null","j","","272.6843","1","null","224.3381","","","","transfer","","8.25","224.3381","12.25","272.6843","","","272.6843","12.25","272.6843","224.3381","0","12.25","8.25","0","attraction","binary","easy","left","right","competitor","1","right","competitor",""
"","transfer_trial","categorize-lines","212","1203056","0.0-5.0-0.5","20211013","152","5731","","","","","","","","[328.3209,169.4252,256.5509]","[169.4252,328.3209,256.5509]","[""j"",""k"",""l""]","[""J"",""K"",""L""]","328.3209","false","null","j","","169.4252","0","null","328.3209","256.5509","","","transfer","","","","","","","","328.3209","16.0556","328.3209","169.4252","256.5509","16.0556","2.4959","11","filler","trinary","","","","","4.8056","right","NA",""
"","transfer_trial","categorize-lines","213","1207688","0.0-5.0-0.6","20211013","152","3556","","","","","","","","[247.3327,300.6345,331.4495]","[331.4495,300.6345,247.3327]","[""j"",""k"",""l""]","[""J"",""K"",""L""]","247.3327","false","null","k","","300.6345","0","null","300.6345","247.3327","","","transfer","","14.25","300.6345","10.25","247.3327","16.25","331.4495","247.3327","10.25","247.3327","300.6345","331.4495","10.25","14.25","16.25","attraction","trinary","easy","right","left","competitor","1","left","target",""
"","transfer_trial","categorize-lines","214","1215303","0.0-5.0-0.7","20211013","152","6536","","","","","","","","[272.6843,224.3381]","[272.6843,224.3381]","[""j"",""k""]","[""J"",""K""]","272.6843","false","null","k","","224.3381","0","null","224.3381","","","","transfer","","8.25","224.3381","12.25","272.6843","","","272.6843","12.25","272.6843","224.3381","0","12.25","8.25","0","attraction","binary","easy","left","right","competitor","1","right","target",""
"","transfer_trial","categorize-lines","215","1226919","0.0-5.0-0.8","20211013","152","10537","","","","","","","","[295.8017,288.9036,327.4312]","[288.9036,327.4312,295.8017]","[""j"",""k"",""l""]","[""J"",""K"",""L""]","295.8017","false","null","j","","288.9036","0","null","327.4312","295.8017","","","transfer","","","","","","","","295.8017","13.9178","295.8017","288.9036","327.4312","13.9178","13.4342","16","filler","trinary","","","","","2.6678","right","NA",""
"","transfer_trial","categorize-lines","216","1232936","0.0-5.0-0.9","20211013","152","4935","","","","","","","","[272.6843,235.555]","[235.555,272.6843]","[""j"",""k""]","[""J"",""K""]","272.6843","false","null","k","","272.6843","1","null","272.6843","","","","transfer","","9.25","235.555","12.25","272.6843","","","272.6843","12.25","272.6843","235.555","0","12.25","9.25","0","attraction","binary","difficult","left","right","competitor","1","right","competitor",""
"","transfer_trial","categorize-lines","217","1240248","0.0-5.0-0.10","20211013","152","6228","","","","","","","","[247.3327,300.6345,331.4495]","[247.3327,331.4495,300.6345]","[""j"",""k"",""l""]","[""J"",""K"",""L""]","247.3327","false","null","k","","331.4495","0","null","331.4495","300.6345","","","transfer","","14.25","300.6345","10.25","247.3327","16.25","331.4495","247.3327","10.25","247.3327","300.6345","331.4495","10.25","14.25","16.25","attraction","trinary","easy","right","left","competitor","1","left","decoy",""
"","transfer_trial","categorize-lines","218","1243015","0.0-5.0-0.11","20211013","152","1688","","","","","","","","[263.5487,191.6791]","[263.5487,191.6791]","[""j"",""k""]","[""J"",""K""]","263.5487","false","null","j","","263.5487","1","null","191.6791","","","","transfer","","","","","","","","263.5487","11.5516","263.5487","191.6791","0","11.5516","5.0253","0","filler","binary","","","","","0.3016","right","NA",""
"","transfer_trial","categorize-lines","219","1246216","0.0-5.0-0.12","20211013","152","2120","","","","","","","","[247.3327,286.3185]","[286.3185,247.3327]","[""j"",""k""]","[""J"",""K""]","247.3327","false","null","k","","247.3327","1","null","247.3327","","","","transfer","","13.25","286.3185","10.25","247.3327","","","247.3327","10.25","247.3327","286.3185","0","10.25","13.25","0","attraction","binary","difficult","right","left","competitor","1","left","competitor",""
"","transfer_trial","categorize-lines","220","1248951","0.0-5.0-0.13","20211013","152","1657","","","","","","","","[247.3327,286.3185]","[247.3327,286.3185]","[""j"",""k""]","[""J"",""K""]","247.3327","false","null","j","","247.3327","1","null","286.3185","","","","transfer","","10.25","247.3327","13.25","286.3185","","","247.3327","10.25","247.3327","286.3185","0","10.25","13.25","0","attraction","binary","difficult","left","right","target","1","left","target",""
"","transfer_trial","categorize-lines","221","1251040","0.0-5.0-0.14","20211013","152","1005","","","","","","","","[247.3327,272.6843,300.6345]","[247.3327,300.6345,272.6843]","[""j"",""k"",""l""]","[""J"",""K"",""L""]","null","false","null","k","","300.6345","0","null","300.6345","272.6843","","","transfer","","12.25","272.6843","10.25","247.3327","14.25","300.6345","","","247.3327","272.6843","300.6345","10.25","12.25","14.25","attraction","trinary","equal_chance_1_JND","right","left","both","1","equal","decoy",""
"","transfer_trial","categorize-lines","222","1253695","0.0-5.0-0.15","20211013","152","1581","","","","","","","","[272.6843,235.555]","[235.555,272.6843]","[""j"",""k""]","[""J"",""K""]","272.6843","false","null","k","","272.6843","1","null","272.6843","","","","transfer","","12.25","272.6843","9.25","235.555","","","272.6843","12.25","272.6843","235.555","0","12.25","9.25","0","attraction","binary","difficult","right","left","target","1","right","target",""
"","transfer_trial","categorize-lines","223","1258616","0.0-5.0-0.16","20211013","152","3837","","","","","","","","[247.3327,272.6843]","[247.3327,272.6843]","[""j"",""k""]","[""J"",""K""]","null","false","null","j","","247.3327","0","null","272.6843","","","","transfer","","12.25","272.6843","10.25","247.3327","","","","","247.3327","272.6843","0","10.25","12.25","0","attraction","binary","equal_chance_1_JND","right","left","both","1","equal","competitor",""
"","transfer_trial","categorize-lines","224","1264215","0.0-5.0-0.17","20211013","152","4521","","","","","","","","[247.3327,272.6843]","[247.3327,272.6843]","[""j"",""k""]","[""J"",""K""]","null","false","null","j","","247.3327","0","null","272.6843","","","","transfer","","12.25","272.6843","10.25","247.3327","","","","","247.3327","272.6843","0","10.25","12.25","0","attraction","binary","equal_chance_1_JND","right","left","both","1","equal","competitor",""
"","transfer_trial","categorize-lines","225","1271319","0.0-5.0-0.18","20211013","152","6025","","","","","","","","[247.3327,272.6843,224.3381]","[247.3327,224.3381,272.6843]","[""j"",""k"",""l""]","[""J"",""K"",""L""]","null","false","null","k","","224.3381","0","null","224.3381","272.6843","","","transfer","","10.25","247.3327","12.25","272.6843","8.25","224.3381","","","247.3327","272.6843","224.3381","10.25","12.25","8.25","attraction","trinary","equal_chance_1_JND","left","right","both","1","equal","decoy",""
"","transfer_trial","categorize-lines","226","1274303","0.0-5.0-0.19","20211013","152","1906","","","","","","","","[247.3327,300.6345,224.3381]","[247.3327,300.6345,224.3381]","[""j"",""k"",""l""]","[""J"",""K"",""L""]","247.3327","false","null","j","","247.3327","1","null","300.6345","224.3381","","","transfer","","10.25","247.3327","14.25","300.6345","8.25","224.3381","247.3327","10.25","247.3327","300.6345","224.3381","10.25","14.25","8.25","attraction","trinary","easy","left","right","target","1","left","target",""
"","transfer_trial","categorize-lines","227","1276768","0.0-5.0-0.20","20211013","152","1380","","","","","","","","[235.555,286.3185,213.6553]","[235.555,213.6553,286.3185]","[""j"",""k"",""l""]","[""J"",""K"",""L""]","null","false","null","j","","235.555","0","null","213.6553","286.3185","","","transfer","","9.25","235.555","13.25","286.3185","7.25","213.6553","","","235.555","286.3185","213.6553","9.25","13.25","7.25","attraction","trinary","equal_chance_2_JND","left","right","both","2","equal","target",""
"","transfer_trial","categorize-lines","228","1281183","0.0-5.0-0.21","20211013","152","3337","","","","","","","","[272.6843,224.3381,300.6345]","[224.3381,300.6345,272.6843]","[""j"",""k"",""l""]","[""J"",""K"",""L""]","272.6843","false","null","j","","224.3381","0","null","300.6345","272.6843","","","transfer","","12.25","272.6843","8.25","224.3381","14.25","300.6345","272.6843","12.25","272.6843","224.3381","300.6345","12.25","8.25","14.25","attraction","trinary","easy","right","left","target","1","right","competitor",""
"","transfer_trial","categorize-lines","229","1285024","0.0-5.0-0.22","20211013","152","2760","","","","","","","","[209.4107,272.2156,360.9929]","[272.2156,360.9929,209.4107]","[""j"",""k"",""l""]","[""J"",""K"",""L""]","209.4107","false","null","k","","360.9929","0","null","360.9929","209.4107","","","transfer","","","","","","","","209.4107","6.8387","209.4107","272.2156","360.9929","6.8387","12.2147","18","filler","trinary","","","","","4.4113","left","NA",""
"","transfer_trial","categorize-lines","230","1287823","0.0-5.0-0.23","20211013","152","1718","","","","","","","","[247.3327,300.6345]","[247.3327,300.6345]","[""j"",""k""]","[""J"",""K""]","247.3327","false","null","j","","247.3327","1","null","300.6345","","","","transfer","","10.25","247.3327","14.25","300.6345","","","247.3327","10.25","247.3327","300.6345","0","10.25","14.25","0","attraction","binary","easy","left","right","target","1","left","target",""
"","transfer_trial","categorize-lines","231","1291175","0.0-5.0-0.24","20211013","152","2273","","","","","","","","[256.5345,203.5786]","[203.5786,256.5345]","[""j"",""k""]","[""J"",""K""]","256.5345","false","null","k","","256.5345","1","null","256.5345","","","","transfer","","","","","","","","256.5345","10.9987","256.5345","203.5786","0","10.9987","6.2598","0","filler","binary","","","","","0.2513","left","NA",""
"","transfer_trial","categorize-lines","232","1296792","0.0-5.0-0.25","20211013","152","4537","","","","","","","","[247.3327,300.6345]","[300.6345,247.3327]","[""j"",""k""]","[""J"",""K""]","247.3327","false","null","j","","300.6345","0","null","247.3327","","","","transfer","","14.25","300.6345","10.25","247.3327","","","247.3327","10.25","247.3327","300.6345","0","10.25","14.25","0","attraction","binary","easy","right","left","competitor","1","left","target",""
"","transfer_trial","categorize-lines","233","1299088","0.0-5.0-0.26","20211013","152","1217","","","","","","","","[289.9466,270.9946,182.3259]","[182.3259,270.9946,289.9466]","[""j"",""k"",""l""]","[""J"",""K"",""L""]","289.9466","false","null","k","","270.9946","0","null","270.9946","289.9466","","","transfer","","","","","","","","289.9466","13.5081","289.9466","270.9946","182.3259","13.5081","12.1226","4","filler","trinary","","","","","2.2581","right","NA",""
"","transfer_trial","categorize-lines","234","1302343","0.0-5.0-0.27","20211013","152","2173","","","","","","","","[272.6843,224.3381,203.4812]","[272.6843,203.4812,224.3381]","[""j"",""k"",""l""]","[""J"",""K"",""L""]","272.6843","false","null","j","","272.6843","1","null","203.4812","224.3381","","","transfer","","8.25","224.3381","12.25","272.6843","6.25","203.4812","272.6843","12.25","272.6843","224.3381","203.4812","12.25","8.25","6.25","attraction","trinary","easy","left","right","competitor","1","right","competitor",""
"","transfer_trial","categorize-lines","235","1309544","0.0-5.0-0.28","20211013","152","6124","","","","","","","","[272.6843,235.555,213.6553]","[272.6843,213.6553,235.555]","[""j"",""k"",""l""]","[""J"",""K"",""L""]","272.6843","false","null","j","","272.6843","1","null","213.6553","235.555","","","transfer","","9.25","235.555","12.25","272.6843","7.25","213.6553","272.6843","12.25","272.6843","235.555","213.6553","12.25","9.25","7.25","attraction","trinary","difficult","left","right","competitor","1","right","competitor",""
"","transfer_trial","categorize-lines","236","1312416","0.0-5.0-0.29","20211013","152","1794","","","","","","","","[247.3327,300.6345,224.3381]","[247.3327,300.6345,224.3381]","[""j"",""k"",""l""]","[""J"",""K"",""L""]","247.3327","false","null","k","","300.6345","0","null","300.6345","224.3381","","","transfer","","10.25","247.3327","14.25","300.6345","8.25","224.3381","247.3327","10.25","247.3327","300.6345","224.3381","10.25","14.25","8.25","attraction","trinary","easy","left","right","target","1","left","competitor",""
"","transfer_trial","categorize-lines","237","1314751","0.0-5.0-0.30","20211013","152","1257","","","","","","","","[235.555,286.3185]","[286.3185,235.555]","[""j"",""k""]","[""J"",""K""]","null","false","null","k","","235.555","0","null","235.555","","","","transfer","","13.25","286.3185","9.25","235.555","","","","","235.555","286.3185","0","9.25","13.25","0","attraction","binary","equal_chance_2_JND","right","left","both","2","equal","competitor",""
"","transfer_trial","categorize-lines","238","1319070","0.0-5.0-0.31","20211013","152","3236","","","","","","","","[289.2816,392.1136]","[289.2816,392.1136]","[""j"",""k""]","[""J"",""K""]","289.2816","false","null","j","","289.2816","1","null","392.1136","","","","transfer","","","","","","","","289.2816","13.461","289.2816","392.1136","0","13.461","19.6949","0","filler","binary","","","","","2.211","right","NA",""
"","transfer_trial","categorize-lines","239","1322911","0.0-5.0-0.32","20211013","152","2766","","","","","","","","[235.555,286.3185,213.6553]","[286.3185,235.555,213.6553]","[""j"",""k"",""l""]","[""J"",""K"",""L""]","null","false","null","j","","286.3185","0","null","235.555","213.6553","","","transfer","","9.25","235.555","13.25","286.3185","7.25","213.6553","","","235.555","286.3185","213.6553","9.25","13.25","7.25","attraction","trinary","equal_chance_2_JND","left","right","both","2","equal","competitor",""
"","transfer_trial","categorize-lines","240","1326935","0.0-5.0-0.33","20211013","152","2944","","","","","","","","[247.3327,300.6345]","[300.6345,247.3327]","[""j"",""k""]","[""J"",""K""]","247.3327","false","null","k","","247.3327","1","null","247.3327","","","","transfer","","14.25","300.6345","10.25","247.3327","","","247.3327","10.25","247.3327","300.6345","0","10.25","14.25","0","attraction","binary","easy","right","left","competitor","1","left","competitor",""
"","transfer_trial","categorize-lines","241","1330816","0.0-5.0-0.34","20211013","152","2800","","","","","","","","[247.3327,286.3185,224.3381]","[247.3327,224.3381,286.3185]","[""j"",""k"",""l""]","[""J"",""K"",""L""]","247.3327","false","null","j","","247.3327","1","null","224.3381","286.3185","","","transfer","","10.25","247.3327","13.25","286.3185","8.25","224.3381","247.3327","10.25","247.3327","286.3185","224.3381","10.25","13.25","8.25","attraction","trinary","difficult","left","right","target","1","left","target",""
"","transfer_trial","categorize-lines","242","1333591","0.0-5.0-0.35","20211013","152","1698","","","","","","","","[235.555,286.3185,315.6662]","[235.555,315.6662,286.3185]","[""j"",""k"",""l""]","[""J"",""K"",""L""]","null","false","null","k","","315.6662","0","null","315.6662","286.3185","","","transfer","","13.25","286.3185","9.25","235.555","15.25","315.6662","","","235.555","286.3185","315.6662","9.25","13.25","15.25","attraction","trinary","equal_chance_2_JND","right","left","both","2","equal","decoy",""
"","transfer_trial","categorize-lines","243","1336383","0.0-5.0-0.36","20211013","152","1710","","","","","","","","[247.3327,272.6843]","[272.6843,247.3327]","[""j"",""k""]","[""J"",""K""]","null","false","null","k","","247.3327","0","null","247.3327","","","","transfer","","10.25","247.3327","12.25","272.6843","","","","","247.3327","272.6843","0","10.25","12.25","0","attraction","binary","equal_chance_1_JND","left","right","both","1","equal","target",""
"","transfer_trial","categorize-lines","244","1338391","0.0-5.0-0.37","20211013","152","927","","","","","","","","[272.6843,235.555,300.6345]","[300.6345,235.555,272.6843]","[""j"",""k"",""l""]","[""J"",""K"",""L""]","272.6843","false","null","j","","300.6345","0","null","235.555","272.6843","","","transfer","","12.25","272.6843","9.25","235.555","14.25","300.6345","272.6843","12.25","272.6843","235.555","300.6345","12.25","9.25","14.25","attraction","trinary","difficult","right","left","target","1","right","decoy",""
"","transfer_trial","categorize-lines","245","1341113","0.0-5.0-0.38","20211013","152","1636","","","","","","","","[235.555,286.3185,315.6662]","[286.3185,235.555,315.6662]","[""j"",""k"",""l""]","[""J"",""K"",""L""]","null","false","null","l","","315.6662","0","null","235.555","315.6662","","","transfer","","13.25","286.3185","9.25","235.555","15.25","315.6662","","","235.555","286.3185","315.6662","9.25","13.25","15.25","attraction","trinary","equal_chance_2_JND","right","left","both","2","equal","decoy",""
"","transfer_trial","categorize-lines","246","1344015","0.0-5.0-0.39","20211013","152","1824","","","","","","","","[282.4293,184.8867,211.0651]","[282.4293,211.0651,184.8867]","[""j"",""k"",""l""]","[""J"",""K"",""L""]","282.4293","false","null","j","","282.4293","1","null","211.0651","184.8867","","","transfer","","","","","","","","282.4293","12.9697","282.4293","184.8867","211.0651","12.9697","4.2859","7","filler","trinary","","","","","1.7197","right","NA",""
"","transfer_trial","categorize-lines","247","1348311","0.0-5.0-0.40","20211013","152","3216","","","","","","","","[239.0713,448.3953,269.3784]","[269.3784,239.0713,448.3953]","[""j"",""k"",""l""]","[""J"",""K"",""L""]","239.0713","false","null","j","","269.3784","0","null","239.0713","448.3953","","","transfer","","","","","","","","239.0713","9.5537","239.0713","448.3953","269.3784","9.5537","22.4439","12","filler","trinary","","","","","1.6963","left","NA",""
"","transfer_trial","categorize-lines","248","1351944","0.0-5.0-0.41","20211013","152","2551","","","","","","","","[247.3327,272.6843]","[272.6843,247.3327]","[""j"",""k""]","[""J"",""K""]","null","false","null","k","","247.3327","0","null","247.3327","","","","transfer","","12.25","272.6843","10.25","247.3327","","","","","247.3327","272.6843","0","10.25","12.25","0","attraction","binary","equal_chance_1_JND","right","left","both","1","equal","competitor",""
"","transfer_trial","categorize-lines","249","1354632","0.0-5.0-0.42","20211013","152","1608","","","","","","","","[272.6843,235.555,300.6345]","[235.555,272.6843,300.6345]","[""j"",""k"",""l""]","[""J"",""K"",""L""]","272.6843","false","null","j","","235.555","0","null","272.6843","300.6345","","","transfer","","12.25","272.6843","9.25","235.555","14.25","300.6345","272.6843","12.25","272.6843","235.555","300.6345","12.25","9.25","14.25","attraction","trinary","difficult","right","left","target","1","right","competitor",""
"","transfer_trial","categorize-lines","250","1358368","0.0-5.0-0.43","20211013","152","2656","","","","","","","","[247.3327,272.6843,224.3381]","[247.3327,224.3381,272.6843]","[""j"",""k"",""l""]","[""J"",""K"",""L""]","null","false","null","l","","272.6843","0","null","224.3381","272.6843","","","transfer","","10.25","247.3327","12.25","272.6843","8.25","224.3381","","","247.3327","272.6843","224.3381","10.25","12.25","8.25","attraction","trinary","equal_chance_1_JND","left","right","both","1","equal","competitor",""
"","transfer_trial","categorize-lines","251","1360687","0.0-5.0-0.44","20211013","152","1240","","","","","","","","[247.3327,286.3185]","[247.3327,286.3185]","[""j"",""k""]","[""J"",""K""]","247.3327","false","null","j","","247.3327","1","null","286.3185","","","","transfer","","13.25","286.3185","10.25","247.3327","","","247.3327","10.25","247.3327","286.3185","0","10.25","13.25","0","attraction","binary","difficult","right","left","competitor","1","left","competitor",""
"","transfer_trial","categorize-lines","252","1363423","0.0-5.0-0.45","20211013","152","1660","","","","","","","","[386.139,312.1544,417.8944]","[417.8944,386.139,312.1544]","[""j"",""k"",""l""]","[""J"",""K"",""L""]","386.139","false","null","k","","386.139","1","null","386.139","312.1544","","","transfer","","","","","","","","386.139","19.3802","386.139","312.1544","417.8944","19.3802","15.0207","21","filler","trinary","","","","","8.1302","right","NA",""
"","transfer_trial","categorize-lines","253","1367726","0.0-5.0-0.46","20211013","152","3227","","","","","","","","[272.6843,235.555,213.6553]","[235.555,272.6843,213.6553]","[""j"",""k"",""l""]","[""J"",""K"",""L""]","272.6843","false","null","j","","235.555","0","null","272.6843","213.6553","","","transfer","","9.25","235.555","12.25","272.6843","7.25","213.6553","272.6843","12.25","272.6843","235.555","213.6553","12.25","9.25","7.25","attraction","trinary","difficult","left","right","competitor","1","right","target",""
"","transfer_trial","categorize-lines","254","1370127","0.0-5.0-0.47","20211013","152","1324","","","","","","","","[247.3327,286.3185,315.6662]","[247.3327,315.6662,286.3185]","[""j"",""k"",""l""]","[""J"",""K"",""L""]","247.3327","false","null","j","","247.3327","1","null","315.6662","286.3185","","","transfer","","13.25","286.3185","10.25","247.3327","15.25","315.6662","247.3327","10.25","247.3327","286.3185","315.6662","10.25","13.25","15.25","attraction","trinary","difficult","right","left","competitor","1","left","competitor",""
"","transfer_trial","categorize-lines","255","1373119","0.0-5.0-0.48","20211013","152","1914","","","","","","","","[247.3327,272.6843,224.3381]","[224.3381,247.3327,272.6843]","[""j"",""k"",""l""]","[""J"",""K"",""L""]","null","false","null","k","","247.3327","0","null","247.3327","272.6843","","","transfer","","10.25","247.3327","12.25","272.6843","8.25","224.3381","","","247.3327","272.6843","224.3381","10.25","12.25","8.25","attraction","trinary","equal_chance_1_JND","left","right","both","1","equal","target",""
"","transfer_trial","categorize-lines","256","1375999","0.0-5.0-0.49","20211013","152","1801","","","","","","","","[230.8978,283.8988]","[230.8978,283.8988]","[""j"",""k""]","[""J"",""K""]","230.8978","false","null","j","","230.8978","1","null","283.8988","","","","transfer","","","","","","","","230.8978","8.8407","230.8978","283.8988","0","8.8407","13.0761","0","filler","binary","","","","","2.4093","left","NA",""
"","transfer_trial","categorize-lines","257","1381767","0.0-5.0-0.50","20211013","152","4691","","","","","","","","[235.555,286.3185]","[286.3185,235.555]","[""j"",""k""]","[""J"",""K""]","null","false","null","k","","235.555","0","null","235.555","","","","transfer","","13.25","286.3185","9.25","235.555","","","","","235.555","286.3185","0","9.25","13.25","0","attraction","binary","equal_chance_2_JND","right","left","both","2","equal","competitor",""
"","transfer_trial","categorize-lines","258","1385976","0.0-5.0-0.51","20211013","152","3131","","","","","","","","[272.6843,224.3381,203.4812]","[272.6843,203.4812,224.3381]","[""j"",""k"",""l""]","[""J"",""K"",""L""]","272.6843","false","null","j","","272.6843","1","null","203.4812","224.3381","","","transfer","","8.25","224.3381","12.25","272.6843","6.25","203.4812","272.6843","12.25","272.6843","224.3381","203.4812","12.25","8.25","6.25","attraction","trinary","easy","left","right","competitor","1","right","competitor",""
"","transfer_trial","categorize-lines","259","1388287","0.0-5.0-0.52","20211013","152","1232","","","","","","","","[247.3327,286.3185]","[247.3327,286.3185]","[""j"",""k""]","[""J"",""K""]","247.3327","false","null","k","","286.3185","0","null","286.3185","","","","transfer","","10.25","247.3327","13.25","286.3185","","","247.3327","10.25","247.3327","286.3185","0","10.25","13.25","0","attraction","binary","difficult","left","right","target","1","left","competitor",""
"","transfer_trial","categorize-lines","260","1392599","0.0-5.0-0.53","20211013","152","3236","","","","","","","","[272.6843,224.3381]","[272.6843,224.3381]","[""j"",""k""]","[""J"",""K""]","272.6843","false","null","j","","272.6843","1","null","224.3381","","","","transfer","","12.25","272.6843","8.25","224.3381","","","272.6843","12.25","272.6843","224.3381","0","12.25","8.25","0","attraction","binary","easy","right","left","target","1","right","target",""
"","transfer_trial","categorize-lines","261","1396103","0.0-5.0-0.54","20211013","152","2420","","","","","","","","[247.3327,272.6843,300.6345]","[247.3327,272.6843,300.6345]","[""j"",""k"",""l""]","[""J"",""K"",""L""]","null","false","null","k","","272.6843","0","null","272.6843","300.6345","","","transfer","","12.25","272.6843","10.25","247.3327","14.25","300.6345","","","247.3327","272.6843","300.6345","10.25","12.25","14.25","attraction","trinary","equal_chance_1_JND","right","left","both","1","equal","target",""
"","transfer_trial","categorize-lines","262","1399191","0.0-5.0-0.55","20211013","152","2006","","","","","","","","[281.7339,200.4552,191.4422]","[200.4552,281.7339,191.4422]","[""j"",""k"",""l""]","[""J"",""K"",""L""]","281.7339","false","null","k","","281.7339","1","null","281.7339","191.4422","","","transfer","","","","","","","","281.7339","12.9192","281.7339","200.4552","191.4422","12.9192","5.9429","5","filler","trinary","","","","","1.6692","right","NA",""
"","transfer_trial","categorize-lines","263","1401175","0.0-5.0-0.56","20211013","152","900","","","","","","","","[235.555,286.3185]","[235.555,286.3185]","[""j"",""k""]","[""J"",""K""]","null","false","null","j","","235.555","0","null","286.3185","","","","transfer","","9.25","235.555","13.25","286.3185","","","","","235.555","286.3185","0","9.25","13.25","0","attraction","binary","equal_chance_2_JND","left","right","both","2","equal","target",""
"","transfer_trial","categorize-lines","264","1404359","0.0-5.0-0.57","20211013","152","2109","","","","","","","","[247.3327,286.3185]","[247.3327,286.3185]","[""j"",""k""]","[""J"",""K""]","247.3327","false","null","k","","286.3185","0","null","286.3185","","","","transfer","","10.25","247.3327","13.25","286.3185","","","247.3327","10.25","247.3327","286.3185","0","10.25","13.25","0","attraction","binary","difficult","left","right","target","1","left","competitor",""
"","transfer_trial","categorize-lines","265","1406743","0.0-5.0-0.58","20211013","152","1305","","","","","","","","[225.2208,219.0756]","[219.0756,225.2208]","[""j"",""k""]","[""J"",""K""]","225.2208","false","null","j","","219.0756","0","null","225.2208","","","","transfer","","","","","","","","225.2208","8.3305","225.2208","219.0756","0","8.3305","7.7635","0","filler","binary","","","","","2.9195","left","NA",""
"","transfer_trial","categorize-lines","266","1408671","0.0-5.0-0.59","20211013","152","844","","","","","","","","[272.6843,224.3381,203.4812]","[272.6843,203.4812,224.3381]","[""j"",""k"",""l""]","[""J"",""K"",""L""]","272.6843","false","null","k","","203.4812","0","null","203.4812","224.3381","","","transfer","","8.25","224.3381","12.25","272.6843","6.25","203.4812","272.6843","12.25","272.6843","224.3381","203.4812","12.25","8.25","6.25","attraction","trinary","easy","left","right","competitor","1","right","decoy",""
"","transfer_trial","categorize-lines","267","1410695","0.0-5.0-0.60","20211013","152","946","","","","","","","","[247.3327,286.3185]","[247.3327,286.3185]","[""j"",""k""]","[""J"",""K""]","247.3327","false","null","j","","247.3327","1","null","286.3185","","","","transfer","","13.25","286.3185","10.25","247.3327","","","247.3327","10.25","247.3327","286.3185","0","10.25","13.25","0","attraction","binary","difficult","right","left","competitor","1","left","competitor",""
"","transfer_trial","categorize-lines","268","1412847","0.0-5.0-0.61","20211013","152","1072","","","","","","","","[235.555,286.3185]","[286.3185,235.555]","[""j"",""k""]","[""J"",""K""]","null","false","null","k","","235.555","0","null","235.555","","","","transfer","","9.25","235.555","13.25","286.3185","","","","","235.555","286.3185","0","9.25","13.25","0","attraction","binary","equal_chance_2_JND","left","right","both","2","equal","target",""
"","transfer_trial","categorize-lines","269","1414655","0.0-5.0-0.62","20211013","152","728","","","","","","","","[235.555,286.3185,315.6662]","[235.555,286.3185,315.6662]","[""j"",""k"",""l""]","[""J"",""K"",""L""]","null","false","null","k","","286.3185","0","null","286.3185","315.6662","","","transfer","","13.25","286.3185","9.25","235.555","15.25","315.6662","","","235.555","286.3185","315.6662","9.25","13.25","15.25","attraction","trinary","equal_chance_2_JND","right","left","both","2","equal","target",""
"","transfer_trial","categorize-lines","270","1417319","0.0-5.0-0.63","20211013","152","1581","","","","","","","","[272.6843,235.555]","[272.6843,235.555]","[""j"",""k""]","[""J"",""K""]","272.6843","false","null","k","","235.555","0","null","235.555","","","","transfer","","12.25","272.6843","9.25","235.555","","","272.6843","12.25","272.6843","235.555","0","12.25","9.25","0","attraction","binary","difficult","right","left","target","1","right","competitor",""
"","transfer_trial","categorize-lines","271","1419271","0.0-5.0-0.64","20211013","152","868","","","","","","","","[305.254,300.7485]","[305.254,300.7485]","[""j"",""k""]","[""J"",""K""]","305.254","false","null","j","","305.254","1","null","300.7485","","","","transfer","","","","","","","","305.254","14.5625","305.254","300.7485","0","14.5625","14.2578","0","filler","binary","","","","","3.3125","right","NA",""
"","transfer_trial","categorize-lines","272","1421943","0.0-5.0-0.65","20211013","152","1599","","","","","","","","[247.3327,300.6345]","[247.3327,300.6345]","[""j"",""k""]","[""J"",""K""]","247.3327","false","null","k","","300.6345","0","null","300.6345","","","","transfer","","14.25","300.6345","10.25","247.3327","","","247.3327","10.25","247.3327","300.6345","0","10.25","14.25","0","attraction","binary","easy","right","left","competitor","1","left","target",""
"","transfer_trial","categorize-lines","273","1423760","0.0-5.0-0.66","20211013","152","730","","","","","","","","[272.6843,235.555,213.6553]","[235.555,213.6553,272.6843]","[""j"",""k"",""l""]","[""J"",""K"",""L""]","272.6843","false","null","k","","213.6553","0","null","213.6553","272.6843","","","transfer","","9.25","235.555","12.25","272.6843","7.25","213.6553","272.6843","12.25","272.6843","235.555","213.6553","12.25","9.25","7.25","attraction","trinary","difficult","left","right","competitor","1","right","decoy",""
"","transfer_trial","categorize-lines","274","1429023","0.0-5.0-0.67","20211013","152","4182","","","","","","","","[180.2735,344.178,360.9929]","[180.2735,360.9929,344.178]","[""j"",""k"",""l""]","[""J"",""K"",""L""]","180.2735","false","null","k","","360.9929","0","null","360.9929","344.178","","","transfer","","","","","","","","180.2735","3.768","180.2735","344.178","360.9929","3.768","17.0224","18","filler","trinary","","","","","7.482","left","NA",""
"","transfer_trial","categorize-lines","275","1431455","0.0-5.0-0.68","20211013","152","1349","","","","","","","","[262.3725,331.3835,157.5]","[331.3835,157.5,262.3725]","[""j"",""k"",""l""]","[""J"",""K"",""L""]","262.3725","false","null","j","","331.3835","0","null","157.5","262.3725","","","transfer","","","","","","","","262.3725","11.4599","262.3725","331.3835","157.5","11.4599","16.2459","1","filler","trinary","","","","","0.2099","right","NA",""
"","transfer_trial","categorize-lines","276","1436743","0.0-5.0-0.69","20211013","152","4204","","","","","","","","[235.555,286.3185]","[235.555,286.3185]","[""j"",""k""]","[""J"",""K""]","null","false","null","k","","286.3185","0","null","286.3185","","","","transfer","","9.25","235.555","13.25","286.3185","","","","","235.555","286.3185","0","9.25","13.25","0","attraction","binary","equal_chance_2_JND","left","right","both","2","equal","competitor",""
