"success","screen_id","trial_type","trial_index","time_elapsed","internal_node_id","date","sub_n","rt","response","timeout","failed_images","failed_audio","failed_video","view_history","stim","line_lens","line_lens_order","choices","stim_names","corr_ans","give_fb","in_cat","key_choice","yn_choice","choice","correct","fb_in_cat","stim_1_in_order","stim_2_in_order","stim_3_in_order","line_length","cat_trial_type","jnds","T_psy","T_phys","C_psy","C_phys","D_psy","D_phys","corr_choice","correct_psy","stim_1","stim_2","stim_3","stim_1_psy","stim_2_psy","stim_3_psy","transfer_trial_type","trial_choice_set","difficulty_level","target_side","competitor_side","tc_correct","correct_dist_to_mean","side_correct","attr_choice","stimulus"
"true","enter-fullscreen-mode","fullscreen","0","219496","0.0-0.0","20211015","172","","","","","","","","","","","","","","","","","","","","","","","","","","","","","","","","","","","","","","","","","","","","","","","","","",""
"","enter-sub-number","survey-html-form","1","222380","0.0-1.0","20211015","172","2872","{""response"":""172""}","","","","","","","","","","","","","","","","","","","","","","","","","","","","","","","","","","","","","","","","","","","","","","","",""
"true","","preload","2","222412","0.0-2.0-0.0","20211015","172","","","false","[]","[]","[]","","","","","","","","","","","","","","","","","","","","","","","","","","","","","","","","","","","","","","","","","","","",""
"","instructions","instructions","3","311518","0.0-2.0-1.0","20211015","172","89104","","","","","","[{""page_index"":0,""viewing_time"":17528},{""page_index"":1,""viewing_time"":10416},{""page_index"":2,""viewing_time"":11838},{""page_index"":3,""viewing_time"":34792},{""page_index"":4,""viewing_time"":3464},{""page_index"":5,""viewing_time"":3208},{""page_index"":6,""viewing_time"":7856}]","","","","","","","","","","","","","","","","","","","","","","","","","","","","","","","","","","","","","","","","","","",""
"","demo-lines","draw-demo-lines","4","371534","0.0-2.0-2.0","20211015","172","","","","","","","","lines","","","","","","","","","","","","","","","","","","","","","","","","","","","","","","","","","","","","","","","","","",""
"","click-to-begin-the-experiment","instructions","5","373380","0.0-2.0-3.0","20211015","172","1844","","","","","","[{""page_index"":0,""viewing_time"":1844}]","","","","","","","","","","","","","","","","","","","","","","","","","","","","","","","","","","","","","","","","","","",""
"","learn_trial","categorize-lines","6","380280","0.0-3.0-0.0","20211015","172","2862","","","","","","","","[226.3169]","[226.3169]","[""u"",""i""]","[""""]","null","true","out","u","YES","","0","out","","","","226.3169","learning","8.43","","","","","","","","","","","","","","","","","","","","","","","",""
"","learn_trial","categorize-lines","7","383718","0.0-3.0-0.1","20211015","172","1408","","","","","","","","[204.9759]","[204.9759]","[""u"",""i""]","[""""]","null","true","in","u","YES","","1","in","","","","204.9759","learning","6.4","","","","","","","","","","","","","","","","","","","","","","","",""
"","learn_trial","categorize-lines","8","387238","0.0-3.0-0.2","20211015","172","1490","","","","","","","","[302.3998]","[302.3998]","[""u"",""i""]","[""""]","null","true","out","i","NO","","1","out","","","","302.3998","learning","14.37","","","","","","","","","","","","","","","","","","","","","","","",""
"","learn_trial","categorize-lines","9","391790","0.0-3.0-0.3","20211015","172","2520","","","","","","","","[338.8071]","[338.8071]","[""u"",""i""]","[""""]","null","true","out","i","NO","","1","out","","","","338.8071","learning","16.7","","","","","","","","","","","","","","","","","","","","","","","",""
"","learn_trial","categorize-lines","10","395414","0.0-3.0-0.4","20211015","172","1594","","","","","","","","[319.0728]","[319.0728]","[""u"",""i""]","[""""]","null","true","in","u","YES","","1","in","","","","319.0728","learning","15.47","","","","","","","","","","","","","","","","","","","","","","","",""
"","learn_trial","categorize-lines","11","403396","0.0-3.0-0.5","20211015","172","3944","","","","","","","","[426.7543]","[426.7543]","[""u"",""i""]","[""""]","null","true","out","u","YES","","0","out","","","","426.7543","learning","21.43","","","","","","","","","","","","","","","","","","","","","","","",""
"","learn_trial","categorize-lines","12","409686","0.0-3.0-0.6","20211015","172","2264","","","","","","","","[179.0641]","[179.0641]","[""u"",""i""]","[""""]","null","true","in","i","NO","","0","in","","","","179.0641","learning","3.63","","","","","","","","","","","","","","","","","","","","","","","",""
"","learn_trial","categorize-lines","13","412662","0.0-3.0-0.7","20211015","172","946","","","","","","","","[212.3044]","[212.3044]","[""u"",""i""]","[""""]","null","true","in","u","YES","","1","in","","","","212.3044","learning","7.12","","","","","","","","","","","","","","","","","","","","","","","",""
"","learn_trial","categorize-lines","14","416362","0.0-3.0-0.8","20211015","172","1666","","","","","","","","[391.0651]","[391.0651]","[""u"",""i""]","[""""]","null","true","out","i","NO","","1","out","","","","391.0651","learning","19.64","","","","","","","","","","","","","","","","","","","","","","","",""
"","learn_trial","categorize-lines","15","419422","0.0-3.0-0.9","20211015","172","1032","","","","","","","","[301.663]","[301.663]","[""u"",""i""]","[""""]","null","true","in","u","YES","","1","in","","","","301.663","learning","14.32","","","","","","","","","","","","","","","","","","","","","","","",""
"","learn_trial","categorize-lines","16","424582","0.0-3.0-0.10","20211015","172","1128","","","","","","","","[389.5417]","[389.5417]","[""u"",""i""]","[""""]","null","true","in","i","NO","","0","in","","","","389.5417","learning","19.56","","","","","","","","","","","","","","","","","","","","","","","",""
"","learn_trial","categorize-lines","17","427398","0.0-3.0-0.11","20211015","172","786","","","","","","","","[346.6662]","[346.6662]","[""u"",""i""]","[""""]","null","true","in","u","YES","","1","in","","","","346.6662","learning","17.17","","","","","","","","","","","","","","","","","","","","","","","",""
"","learn_trial","categorize-lines","18","430016","0.0-3.0-0.12","20211015","172","588","","","","","","","","[215.1197]","[215.1197]","[""u"",""i""]","[""""]","null","true","in","u","YES","","1","in","","","","215.1197","learning","7.39","","","","","","","","","","","","","","","","","","","","","","","",""
"","learn_trial","categorize-lines","19","434788","0.0-3.0-0.13","20211015","172","744","","","","","","","","[237.6328]","[237.6328]","[""u"",""i""]","[""""]","null","true","in","i","NO","","0","in","","","","237.6328","learning","9.43","","","","","","","","","","","","","","","","","","","","","","","",""
"","learn_trial","categorize-lines","20","437654","0.0-3.0-0.14","20211015","172","834","","","","","","","","[196.3614]","[196.3614]","[""u"",""i""]","[""""]","null","true","in","u","YES","","1","in","","","","196.3614","learning","5.52","","","","","","","","","","","","","","","","","","","","","","","",""
"","learn_trial","categorize-lines","21","442206","0.0-3.0-0.15","20211015","172","522","","","","","","","","[188.2927]","[188.2927]","[""u"",""i""]","[""""]","null","true","out","u","YES","","0","out","","","","188.2927","learning","4.66","","","","","","","","","","","","","","","","","","","","","","","",""
"","learn_trial","categorize-lines","22","447558","0.0-3.0-0.16","20211015","172","1322","","","","","","","","[340.7966]","[340.7966]","[""u"",""i""]","[""""]","null","true","out","u","YES","","0","out","","","","340.7966","learning","16.82","","","","","","","","","","","","","","","","","","","","","","","",""
"","learn_trial","categorize-lines","23","453332","0.0-3.0-0.17","20211015","172","1742","","","","","","","","[157.5]","[157.5]","[""u"",""i""]","[""""]","null","true","out","u","YES","","0","out","","","","157.5","learning","1","","","","","","","","","","","","","","","","","","","","","","","",""
"","learn_trial","categorize-lines","24","455950","0.0-3.0-0.18","20211015","172","588","","","","","","","","[226.0962]","[226.0962]","[""u"",""i""]","[""""]","null","true","in","u","YES","","1","in","","","","226.0962","learning","8.41","","","","","","","","","","","","","","","","","","","","","","","",""
"","learn_trial","categorize-lines","25","461006","0.0-3.0-0.19","20211015","172","1028","","","","","","","","[217.0172]","[217.0172]","[""u"",""i""]","[""""]","null","true","out","u","YES","","0","out","","","","217.0172","learning","7.57","","","","","","","","","","","","","","","","","","","","","","","",""
"","learn_trial","categorize-lines","26","464164","0.0-3.0-0.20","20211015","172","1132","","","","","","","","[219.1453]","[219.1453]","[""u"",""i""]","[""""]","null","true","in","u","YES","","1","in","","","","219.1453","learning","7.77","","","","","","","","","","","","","","","","","","","","","","","",""
"","learn_trial","categorize-lines","27","467614","0.0-3.0-0.21","20211015","172","1420","","","","","","","","[176.8932]","[176.8932]","[""u"",""i""]","[""""]","null","true","out","i","NO","","1","out","","","","176.8932","learning","3.38","","","","","","","","","","","","","","","","","","","","","","","",""
"","learn_trial","categorize-lines","28","471108","0.0-3.0-0.22","20211015","172","1468","","","","","","","","[160.4473]","[160.4473]","[""u"",""i""]","[""""]","null","true","out","i","NO","","1","out","","","","160.4473","learning","1.38","","","","","","","","","","","","","","","","","","","","","","","",""
"","learn_trial","categorize-lines","29","473902","0.0-3.0-0.23","20211015","172","766","","","","","","","","[286.1789]","[286.1789]","[""u"",""i""]","[""""]","null","true","in","u","YES","","1","in","","","","286.1789","learning","13.24","","","","","","","","","","","","","","","","","","","","","","","",""
"","learn_trial","categorize-lines","30","476854","0.0-3.0-0.24","20211015","172","924","","","","","","","","[234.2942]","[234.2942]","[""u"",""i""]","[""""]","null","true","in","u","YES","","1","in","","","","234.2942","learning","9.14","","","","","","","","","","","","","","","","","","","","","","","",""
"","learn_trial","categorize-lines","31","482908","0.0-3.0-0.25","20211015","172","2028","","","","","","","","[238.6785]","[238.6785]","[""u"",""i""]","[""""]","null","true","out","u","YES","","0","out","","","","238.6785","learning","9.52","","","","","","","","","","","","","","","","","","","","","","","",""
"","learn_trial","categorize-lines","32","485932","0.0-3.0-0.26","20211015","172","996","","","","","","","","[223.5732]","[223.5732]","[""u"",""i""]","[""""]","null","true","in","u","YES","","1","in","","","","223.5732","learning","8.18","","","","","","","","","","","","","","","","","","","","","","","",""
"","learn_trial","categorize-lines","33","490228","0.0-3.0-0.27","20211015","172","2268","","","","","","","","[314.8971]","[314.8971]","[""u"",""i""]","[""""]","null","true","in","u","YES","","1","in","","","","314.8971","learning","15.2","","","","","","","","","","","","","","","","","","","","","","","",""
"","learn_trial","categorize-lines","34","495726","0.0-3.0-0.28","20211015","172","1464","","","","","","","","[303.4343]","[303.4343]","[""u"",""i""]","[""""]","null","true","in","i","NO","","0","in","","","","303.4343","learning","14.44","","","","","","","","","","","","","","","","","","","","","","","",""
"","learn_trial","categorize-lines","35","498552","0.0-3.0-0.29","20211015","172","796","","","","","","","","[213.0308]","[213.0308]","[""u"",""i""]","[""""]","null","true","in","u","YES","","1","in","","","","213.0308","learning","7.19","","","","","","","","","","","","","","","","","","","","","","","",""
"","learn_trial","categorize-lines","36","503870","0.0-3.0-0.30","20211015","172","1286","","","","","","","","[241.019]","[241.019]","[""u"",""i""]","[""""]","null","true","in","i","NO","","0","in","","","","241.019","learning","9.72","","","","","","","","","","","","","","","","","","","","","","","",""
"","learn_trial","categorize-lines","37","508516","0.0-3.0-0.31","20211015","172","620","","","","","","","","[255.801]","[255.801]","[""u"",""i""]","[""""]","null","true","out","u","YES","","0","out","","","","255.801","learning","10.94","","","","","","","","","","","","","","","","","","","","","","","",""
"","learn_trial","categorize-lines","38","513420","0.0-3.0-0.32","20211015","172","876","","","","","","","","[231.4537]","[231.4537]","[""u"",""i""]","[""""]","null","true","in","i","NO","","0","in","","","","231.4537","learning","8.89","","","","","","","","","","","","","","","","","","","","","","","",""
"","learn_trial","categorize-lines","39","516188","0.0-3.0-0.33","20211015","172","740","","","","","","","","[354.016]","[354.016]","[""u"",""i""]","[""""]","null","true","in","u","YES","","1","in","","","","354.016","learning","17.6","","","","","","","","","","","","","","","","","","","","","","","",""
"","learn_trial","categorize-lines","40","519492","0.0-3.0-0.34","20211015","172","1276","","","","","","","","[258.5615]","[258.5615]","[""u"",""i""]","[""""]","null","true","in","u","YES","","1","in","","","","258.5615","learning","11.16","","","","","","","","","","","","","","","","","","","","","","","",""
"","learn_trial","categorize-lines","41","523748","0.0-3.0-0.35","20211015","172","2228","","","","","","","","[282.5715]","[282.5715]","[""u"",""i""]","[""""]","null","true","out","i","NO","","1","out","","","","282.5715","learning","12.98","","","","","","","","","","","","","","","","","","","","","","","",""
"","learn_trial","categorize-lines","42","527404","0.0-3.0-0.36","20211015","172","1628","","","","","","","","[427.3794]","[427.3794]","[""u"",""i""]","[""""]","null","true","out","i","NO","","1","out","","","","427.3794","learning","21.46","","","","","","","","","","","","","","","","","","","","","","","",""
"","learn_trial","categorize-lines","43","543308","0.0-3.0-0.37","20211015","172","11880","","","","","","","","[214.9099]","[214.9099]","[""u"",""i""]","[""""]","null","true","out","u","YES","","0","out","","","","214.9099","learning","7.37","","","","","","","","","","","","","","","","","","","","","","","",""
"","learn_trial","categorize-lines","44","546718","0.0-3.0-0.38","20211015","172","1380","","","","","","","","[186.2824]","[186.2824]","[""u"",""i""]","[""""]","null","true","in","u","YES","","1","in","","","","186.2824","learning","4.44","","","","","","","","","","","","","","","","","","","","","","","",""
"","learn_trial","categorize-lines","45","554846","0.0-3.0-0.39","20211015","172","4098","","","","","","","","[177.9319]","[177.9319]","[""u"",""i""]","[""""]","null","true","out","u","YES","","0","out","","","","177.9319","learning","3.5","","","","","","","","","","","","","","","","","","","","","","","",""
"","learn_trial","categorize-lines","46","558174","0.0-3.0-0.40","20211015","172","1294","","","","","","","","[219.6805]","[219.6805]","[""u"",""i""]","[""""]","null","true","in","u","YES","","1","in","","","","219.6805","learning","7.82","","","","","","","","","","","","","","","","","","","","","","","",""
"","learn_trial","categorize-lines","47","560766","0.0-3.0-0.41","20211015","172","564","","","","","","","","[199.354]","[199.354]","[""u"",""i""]","[""""]","null","true","out","i","NO","","1","out","","","","199.354","learning","5.83","","","","","","","","","","","","","","","","","","","","","","","",""
"","learn_trial","categorize-lines","48","563660","0.0-3.0-0.42","20211015","172","868","","","","","","","","[179.6767]","[179.6767]","[""u"",""i""]","[""""]","null","true","out","i","NO","","1","out","","","","179.6767","learning","3.7","","","","","","","","","","","","","","","","","","","","","","","",""
"","learn_trial","categorize-lines","49","566164","0.0-3.0-0.43","20211015","172","474","","","","","","","","[254.3077]","[254.3077]","[""u"",""i""]","[""""]","null","true","in","u","YES","","1","in","","","","254.3077","learning","10.82","","","","","","","","","","","","","","","","","","","","","","","",""
"","learn_trial","categorize-lines","50","570918","0.0-3.0-0.44","20211015","172","2722","","","","","","","","[281.4707]","[281.4707]","[""u"",""i""]","[""""]","null","true","in","u","YES","","1","in","","","","281.4707","learning","12.9","","","","","","","","","","","","","","","","","","","","","","","",""
"","learn_trial","categorize-lines","51","579636","0.0-3.0-0.45","20211015","172","4690","","","","","","","","[433.4695]","[433.4695]","[""u"",""i""]","[""""]","null","true","out","u","YES","","0","out","","","","433.4695","learning","21.75","","","","","","","","","","","","","","","","","","","","","","","",""
"","learn_trial","categorize-lines","52","583292","0.0-3.0-0.46","20211015","172","1628","","","","","","","","[150.8808]","[150.8808]","[""u"",""i""]","[""""]","null","true","out","i","NO","","1","out","","","","150.8808","learning","0.12","","","","","","","","","","","","","","","","","","","","","","","",""
"","learn_trial","categorize-lines","53","592892","0.0-3.0-0.47","20211015","172","5570","","","","","","","","[318.7615]","[318.7615]","[""u"",""i""]","[""""]","null","true","out","u","YES","","0","out","","","","318.7615","learning","15.45","","","","","","","","","","","","","","","","","","","","","","","",""
"","learn_trial","categorize-lines","54","599148","0.0-3.0-0.48","20211015","172","4226","","","","","","","","[242.6709]","[242.6709]","[""u"",""i""]","[""""]","null","true","in","u","YES","","1","in","","","","242.6709","learning","9.86","","","","","","","","","","","","","","","","","","","","","","","",""
"","learn_trial","categorize-lines","55","606102","0.0-3.0-0.49","20211015","172","2924","","","","","","","","[172.2094]","[172.2094]","[""u"",""i""]","[""""]","null","true","out","u","YES","","0","out","","","","172.2094","learning","2.83","","","","","","","","","","","","","","","","","","","","","","","",""
"","learn_trial","categorize-lines","56","609188","0.0-3.0-0.50","20211015","172","1054","","","","","","","","[309.2634]","[309.2634]","[""u"",""i""]","[""""]","null","true","out","i","NO","","1","out","","","","309.2634","learning","14.83","","","","","","","","","","","","","","","","","","","","","","","",""
"","learn_trial","categorize-lines","57","634892","0.0-3.0-0.51","20211015","172","23674","","","","","","","","[205.4765]","[205.4765]","[""u"",""i""]","[""""]","null","true","in","u","YES","","1","in","","","","205.4765","learning","6.45","","","","","","","","","","","","","","","","","","","","","","","",""
"","learn_trial","categorize-lines","58","640092","0.0-3.0-0.52","20211015","172","1172","","","","","","","","[316.5916]","[316.5916]","[""u"",""i""]","[""""]","null","true","out","u","YES","","0","out","","","","316.5916","learning","15.31","","","","","","","","","","","","","","","","","","","","","","","",""
"","learn_trial","categorize-lines","59","643260","0.0-3.0-0.53","20211015","172","1138","","","","","","","","[308.8111]","[308.8111]","[""u"",""i""]","[""""]","null","true","in","u","YES","","1","in","","","","308.8111","learning","14.8","","","","","","","","","","","","","","","","","","","","","","","",""
"","learn_trial","categorize-lines","60","647892","0.0-3.0-0.54","20211015","172","598","","","","","","","","[302.2523]","[302.2523]","[""u"",""i""]","[""""]","null","true","out","u","YES","","0","out","","","","302.2523","learning","14.36","","","","","","","","","","","","","","","","","","","","","","","",""
"","learn_trial","categorize-lines","61","658108","0.0-3.0-0.55","20211015","172","8186","","","","","","","","[324.5682]","[324.5682]","[""u"",""i""]","[""""]","null","true","in","u","YES","","1","in","","","","324.5682","learning","15.82","","","","","","","","","","","","","","","","","","","","","","","",""
"","learn_trial","categorize-lines","62","662988","0.0-3.0-0.56","20211015","172","850","","","","","","","","[343.8027]","[343.8027]","[""u"",""i""]","[""""]","null","true","out","u","YES","","0","out","","","","343.8027","learning","17","","","","","","","","","","","","","","","","","","","","","","","",""
"","learn_trial","categorize-lines","63","668268","0.0-3.0-0.57","20211015","172","1252","","","","","","","","[204.3767]","[204.3767]","[""u"",""i""]","[""""]","null","true","out","u","YES","","0","out","","","","204.3767","learning","6.34","","","","","","","","","","","","","","","","","","","","","","","",""
"","learn_trial","categorize-lines","64","671092","0.0-3.0-0.58","20211015","172","796","","","","","","","","[261.6069]","[261.6069]","[""u"",""i""]","[""""]","null","true","in","u","YES","","1","in","","","","261.6069","learning","11.4","","","","","","","","","","","","","","","","","","","","","","","",""
"","learn_trial","categorize-lines","65","676308","0.0-3.0-0.59","20211015","172","1188","","","","","","","","[223.5732]","[223.5732]","[""u"",""i""]","[""""]","null","true","in","i","NO","","0","in","","","","223.5732","learning","8.18","","","","","","","","","","","","","","","","","","","","","","","",""
"","learn_trial","categorize-lines","66","687316","0.0-3.0-0.60","20211015","172","8980","","","","","","","","[242.5526]","[242.5526]","[""u"",""i""]","[""""]","null","true","in","u","YES","","1","in","","","","242.5526","learning","9.85","","","","","","","","","","","","","","","","","","","","","","","",""
"","learn_trial","categorize-lines","67","694244","0.0-3.0-0.61","20211015","172","2900","","","","","","","","[188.2927]","[188.2927]","[""u"",""i""]","[""""]","null","true","out","u","YES","","0","out","","","","188.2927","learning","4.66","","","","","","","","","","","","","","","","","","","","","","","",""
"","learn_trial","categorize-lines","68","701588","0.0-3.0-0.62","20211015","172","3314","","","","","","","","[214.2817]","[214.2817]","[""u"",""i""]","[""""]","null","true","out","u","YES","","0","out","","","","214.2817","learning","7.31","","","","","","","","","","","","","","","","","","","","","","","",""
"","learn_trial","categorize-lines","69","712076","0.0-3.0-0.63","20211015","172","6460","","","","","","","","[274.6873]","[274.6873]","[""u"",""i""]","[""""]","null","true","out","u","YES","","0","out","","","","274.6873","learning","12.4","","","","","","","","","","","","","","","","","","","","","","","",""
"","learn_trial","categorize-lines","70","716518","0.0-3.0-0.64","20211015","172","2406","","","","","","","","[233.8373]","[233.8373]","[""u"",""i""]","[""""]","null","true","in","u","YES","","1","in","","","","233.8373","learning","9.1","","","","","","","","","","","","","","","","","","","","","","","",""
"","learn_trial","categorize-lines","71","745378","0.0-3.0-0.65","20211015","172","24832","","","","","","","","[280.511]","[280.511]","[""u"",""i""]","[""""]","null","true","in","i","NO","","0","in","","","","280.511","learning","12.83","","","","","","","","","","","","","","","","","","","","","","","",""
"","learn_trial","categorize-lines","72","756690","0.0-3.0-0.66","20211015","172","7288","","","","","","","","[189.4907]","[189.4907]","[""u"",""i""]","[""""]","null","true","out","u","YES","","0","out","","","","189.4907","learning","4.79","","","","","","","","","","","","","","","","","","","","","","","",""
"","learn_trial","categorize-lines","73","759170","0.0-3.0-0.67","20211015","172","442","","","","","","","","[235.555]","[235.555]","[""u"",""i""]","[""""]","null","true","in","u","YES","","1","in","","","","235.555","learning","9.25","","","","","","","","","","","","","","","","","","","","","","","",""
"","learn_trial","categorize-lines","74","763826","0.0-3.0-0.68","20211015","172","632","","","","","","","","[440.9352]","[440.9352]","[""u"",""i""]","[""""]","null","true","out","u","YES","","0","out","","","","440.9352","learning","22.1","","","","","","","","","","","","","","","","","","","","","","","",""
"","learn_trial","categorize-lines","75","768176","0.0-3.0-0.69","20211015","172","330","","","","","","","","[316.4372]","[316.4372]","[""u"",""i""]","[""""]","null","true","in","i","NO","","0","in","","","","316.4372","learning","15.3","","","","","","","","","","","","","","","","","","","","","","","",""
"","learn_trial","categorize-lines","76","770754","0.0-3.0-0.70","20211015","172","554","","","","","","","","[258.8139]","[258.8139]","[""u"",""i""]","[""""]","null","true","in","u","YES","","1","in","","","","258.8139","learning","11.18","","","","","","","","","","","","","","","","","","","","","","","",""
"","learn_trial","categorize-lines","77","776620","0.0-3.0-0.71","20211015","172","1840","","","","","","","","[155.8185]","[155.8185]","[""u"",""i""]","[""""]","null","true","out","u","YES","","0","out","","","","155.8185","learning","0.78","","","","","","","","","","","","","","","","","","","","","","","",""
"","learn_trial","categorize-lines","78","779394","0.0-3.0-0.72","20211015","172","746","","","","","","","","[153.0308]","[153.0308]","[""u"",""i""]","[""""]","null","true","out","i","NO","","1","out","","","","153.0308","learning","0.41","","","","","","","","","","","","","","","","","","","","","","","",""
"","learn_trial","categorize-lines","79","783214","0.0-3.0-0.73","20211015","172","1784","","","","","","","","[325.361]","[325.361]","[""u"",""i""]","[""""]","null","true","out","i","NO","","1","out","","","","325.361","learning","15.87","","","","","","","","","","","","","","","","","","","","","","","",""
"","learn_trial","categorize-lines","80","788452","0.0-3.0-0.74","20211015","172","1206","","","","","","","","[244.931]","[244.931]","[""u"",""i""]","[""""]","null","true","out","u","YES","","0","out","","","","244.931","learning","10.05","","","","","","","","","","","","","","","","","","","","","","","",""
"","learn_trial","categorize-lines","81","792042","0.0-3.0-0.75","20211015","172","1560","","","","","","","","[304.3239]","[304.3239]","[""u"",""i""]","[""""]","null","true","in","u","YES","","1","in","","","","304.3239","learning","14.5","","","","","","","","","","","","","","","","","","","","","","","",""
"","learn_trial","categorize-lines","82","794874","0.0-3.0-0.76","20211015","172","802","","","","","","","","[234.4085]","[234.4085]","[""u"",""i""]","[""""]","null","true","out","i","NO","","1","out","","","","234.4085","learning","9.15","","","","","","","","","","","","","","","","","","","","","","","",""
"","learn_trial","categorize-lines","83","800114","0.0-3.0-0.77","20211015","172","1212","","","","","","","","[242.9078]","[242.9078]","[""u"",""i""]","[""""]","null","true","in","i","NO","","0","in","","","","242.9078","learning","9.88","","","","","","","","","","","","","","","","","","","","","","","",""
"","learn_trial","categorize-lines","84","803954","0.0-3.0-0.78","20211015","172","1812","","","","","","","","[431.9916]","[431.9916]","[""u"",""i""]","[""""]","null","true","out","i","NO","","1","out","","","","431.9916","learning","21.68","","","","","","","","","","","","","","","","","","","","","","","",""
"","learn_trial","categorize-lines","85","807996","0.0-3.0-0.79","20211015","172","2012","","","","","","","","[315.3583]","[315.3583]","[""u"",""i""]","[""""]","null","true","out","i","NO","","1","out","","","","315.3583","learning","15.23","","","","","","","","","","","","","","","","","","","","","","","",""
"","learn_trial","categorize-lines","86","821186","0.0-3.0-0.80","20211015","172","11164","","","","","","","","[219.6805]","[219.6805]","[""u"",""i""]","[""""]","null","true","in","u","YES","","1","in","","","","219.6805","learning","7.82","","","","","","","","","","","","","","","","","","","","","","","",""
"","learn_trial","categorize-lines","87","827954","0.0-3.0-0.81","20211015","172","2740","","","","","","","","[185.4662]","[185.4662]","[""u"",""i""]","[""""]","null","true","out","u","YES","","0","out","","","","185.4662","learning","4.35","","","","","","","","","","","","","","","","","","","","","","","",""
"","learn_trial","categorize-lines","88","832682","0.0-3.0-0.82","20211015","172","2700","","","","","","","","[356.0948]","[356.0948]","[""u"",""i""]","[""""]","null","true","in","u","YES","","1","in","","","","356.0948","learning","17.72","","","","","","","","","","","","","","","","","","","","","","","",""
"","learn_trial","categorize-lines","89","836738","0.0-3.0-0.83","20211015","172","2024","","","","","","","","[380.8964]","[380.8964]","[""u"",""i""]","[""""]","null","true","out","i","NO","","1","out","","","","380.8964","learning","19.1","","","","","","","","","","","","","","","","","","","","","","","",""
"","learn_trial","categorize-lines","90","841314","0.0-3.0-0.84","20211015","172","550","","","","","","","","[173.1362]","[173.1362]","[""u"",""i""]","[""""]","null","true","out","u","YES","","0","out","","","","173.1362","learning","2.94","","","","","","","","","","","","","","","","","","","","","","","",""
"","learn_trial","categorize-lines","91","847066","0.0-3.0-0.85","20211015","172","1726","","","","","","","","[378.8576]","[378.8576]","[""u"",""i""]","[""""]","null","true","out","u","YES","","0","out","","","","378.8576","learning","18.99","","","","","","","","","","","","","","","","","","","","","","","",""
"","learn_trial","categorize-lines","92","851912","0.0-3.0-0.86","20211015","172","2814","","","","","","","","[160.7608]","[160.7608]","[""u"",""i""]","[""""]","null","true","out","i","NO","","1","out","","","","160.7608","learning","1.42","","","","","","","","","","","","","","","","","","","","","","","",""
"","learn_trial","categorize-lines","93","860508","0.0-3.0-0.87","20211015","172","4564","","","","","","","","[196.841]","[196.841]","[""u"",""i""]","[""""]","null","true","out","u","YES","","0","out","","","","196.841","learning","5.57","","","","","","","","","","","","","","","","","","","","","","","",""
"","learn_trial","categorize-lines","94","863770","0.0-3.0-0.88","20211015","172","1236","","","","","","","","[260.715]","[260.715]","[""u"",""i""]","[""""]","null","true","in","u","YES","","1","in","","","","260.715","learning","11.33","","","","","","","","","","","","","","","","","","","","","","","",""
"","learn_trial","categorize-lines","95","868582","0.0-3.0-0.89","20211015","172","778","","","","","","","","[266.7626]","[266.7626]","[""u"",""i""]","[""""]","null","true","out","u","YES","","0","out","","","","266.7626","learning","11.8","","","","","","","","","","","","","","","","","","","","","","","",""
"","learn_trial","categorize-lines","96","874794","0.0-3.0-0.90","20211015","172","4180","","","","","","","","[261.0969]","[261.0969]","[""u"",""i""]","[""""]","null","true","out","i","NO","","1","out","","","","261.0969","learning","11.36","","","","","","","","","","","","","","","","","","","","","","","",""
"","learn_trial","categorize-lines","97","882466","0.0-3.0-0.91","20211015","172","5640","","","","","","","","[319.8521]","[319.8521]","[""u"",""i""]","[""""]","null","true","in","u","YES","","1","in","","","","319.8521","learning","15.52","","","","","","","","","","","","","","","","","","","","","","","",""
"","learn_trial","categorize-lines","98","891178","0.0-3.0-0.92","20211015","172","4684","","","","","","","","[328.3911]","[328.3911]","[""u"",""i""]","[""""]","null","true","out","u","YES","","0","out","","","","328.3911","learning","16.06","","","","","","","","","","","","","","","","","","","","","","","",""
"","learn_trial","categorize-lines","99","895826","0.0-3.0-0.93","20211015","172","2620","","","","","","","","[170.787]","[170.787]","[""u"",""i""]","[""""]","null","true","out","i","NO","","1","out","","","","170.787","learning","2.66","","","","","","","","","","","","","","","","","","","","","","","",""
"","learn_trial","categorize-lines","100","899410","0.0-3.0-0.94","20211015","172","1556","","","","","","","","[228.6477]","[228.6477]","[""u"",""i""]","[""""]","null","true","in","u","YES","","1","in","","","","228.6477","learning","8.64","","","","","","","","","","","","","","","","","","","","","","","",""
"","learn_trial","categorize-lines","101","907346","0.0-3.0-0.95","20211015","172","5906","","","","","","","","[294.3929]","[294.3929]","[""u"",""i""]","[""""]","null","true","in","u","YES","","1","in","","","","294.3929","learning","13.82","","","","","","","","","","","","","","","","","","","","","","","",""
"","learn_trial","categorize-lines","102","915282","0.0-3.0-0.96","20211015","172","3906","","","","","","","","[338.1466]","[338.1466]","[""u"",""i""]","[""""]","null","true","out","u","YES","","0","out","","","","338.1466","learning","16.66","","","","","","","","","","","","","","","","","","","","","","","",""
"","learn_trial","categorize-lines","103","920500","0.0-3.0-0.97","20211015","172","3178","","","","","","","","[286.0393]","[286.0393]","[""u"",""i""]","[""""]","null","true","in","u","YES","","1","in","","","","286.0393","learning","13.23","","","","","","","","","","","","","","","","","","","","","","","",""
"","learn_trial","categorize-lines","104","923714","0.0-3.0-0.98","20211015","172","1182","","","","","","","","[290.1153]","[290.1153]","[""u"",""i""]","[""""]","null","true","in","u","YES","","1","in","","","","290.1153","learning","13.52","","","","","","","","","","","","","","","","","","","","","","","",""
"","learn_trial","categorize-lines","105","927690","0.0-3.0-0.99","20211015","172","1944","","","","","","","","[272.5513]","[272.5513]","[""u"",""i""]","[""""]","null","true","out","i","NO","","1","out","","","","272.5513","learning","12.24","","","","","","","","","","","","","","","","","","","","","","","",""
"","learn_trial","categorize-lines","106","933652","0.0-3.0-0.100","20211015","172","1928","","","","","","","","[228.0906]","[228.0906]","[""u"",""i""]","[""""]","null","true","out","u","YES","","0","out","","","","228.0906","learning","8.59","","","","","","","","","","","","","","","","","","","","","","","",""
"","learn_trial","categorize-lines","107","945988","0.0-3.0-0.101","20211015","172","8302","","","","","","","","[414.4426]","[414.4426]","[""u"",""i""]","[""""]","null","true","out","u","YES","","0","out","","","","414.4426","learning","20.83","","","","","","","","","","","","","","","","","","","","","","","",""
"","learn_trial","categorize-lines","108","948338","0.0-3.0-0.102","20211015","172","320","","","","","","","","[288.4217]","[288.4217]","[""u"",""i""]","[""""]","null","true","in","u","YES","","1","in","","","","288.4217","learning","13.4","","","","","","","","","","","","","","","","","","","","","","","",""
"","learn_trial","categorize-lines","109","951962","0.0-3.0-0.103","20211015","172","1594","","","","","","","","[157.3464]","[157.3464]","[""u"",""i""]","[""""]","null","true","out","i","NO","","1","out","","","","157.3464","learning","0.98","","","","","","","","","","","","","","","","","","","","","","","",""
"","learn_trial","categorize-lines","110","954826","0.0-3.0-0.104","20211015","172","836","","","","","","","","[269.773]","[269.773]","[""u"",""i""]","[""""]","null","true","in","u","YES","","1","in","","","","269.773","learning","12.03","","","","","","","","","","","","","","","","","","","","","","","",""
"","learn_trial","categorize-lines","111","963786","0.0-3.0-0.105","20211015","172","6930","","","","","","","","[372.443]","[372.443]","[""u"",""i""]","[""""]","null","true","in","u","YES","","1","in","","","","372.443","learning","18.64","","","","","","","","","","","","","","","","","","","","","","","",""
"","learn_trial","categorize-lines","112","969658","0.0-3.0-0.106","20211015","172","1842","","","","","","","","[286.8779]","[286.8779]","[""u"",""i""]","[""""]","null","true","in","i","NO","","0","in","","","","286.8779","learning","13.29","","","","","","","","","","","","","","","","","","","","","","","",""
"","learn_trial","categorize-lines","113","973562","0.0-3.0-0.107","20211015","172","1868","","","","","","","","[224.886]","[224.886]","[""u"",""i""]","[""""]","null","true","in","u","YES","","1","in","","","","224.886","learning","8.3","","","","","","","","","","","","","","","","","","","","","","","",""
"","learn_trial","categorize-lines","114","985738","0.0-3.0-0.108","20211015","172","8146","","","","","","","","[186.3733]","[186.3733]","[""u"",""i""]","[""""]","null","true","out","u","YES","","0","out","","","","186.3733","learning","4.45","","","","","","","","","","","","","","","","","","","","","","","",""
"","learn_trial","categorize-lines","115","988308","0.0-3.0-0.109","20211015","172","534","","","","","","","","[300.928]","[300.928]","[""u"",""i""]","[""""]","null","true","out","i","NO","","1","out","","","","300.928","learning","14.27","","","","","","","","","","","","","","","","","","","","","","","",""
"","learn_trial","categorize-lines","116","991074","0.0-3.0-0.110","20211015","172","734","","","","","","","","[189.3983]","[189.3983]","[""u"",""i""]","[""""]","null","true","in","u","YES","","1","in","","","","189.3983","learning","4.78","","","","","","","","","","","","","","","","","","","","","","","",""
"","learn_trial","categorize-lines","117","994242","0.0-3.0-0.111","20211015","172","1138","","","","","","","","[315.0507]","[315.0507]","[""u"",""i""]","[""""]","null","true","in","u","YES","","1","in","","","","315.0507","learning","15.21","","","","","","","","","","","","","","","","","","","","","","","",""
"","learn_trial","categorize-lines","118","999058","0.0-3.0-0.112","20211015","172","2786","","","","","","","","[243.0264]","[243.0264]","[""u"",""i""]","[""""]","null","true","out","i","NO","","1","out","","","","243.0264","learning","9.89","","","","","","","","","","","","","","","","","","","","","","","",""
"","learn_trial","categorize-lines","119","1003562","0.0-3.0-0.113","20211015","172","474","","","","","","","","[160.2908]","[160.2908]","[""u"",""i""]","[""""]","null","true","out","u","YES","","0","out","","","","160.2908","learning","1.36","","","","","","","","","","","","","","","","","","","","","","","",""
"","learn_trial","categorize-lines","120","1006866","0.0-3.0-0.114","20211015","172","1274","","","","","","","","[246.0089]","[246.0089]","[""u"",""i""]","[""""]","null","true","in","u","YES","","1","in","","","","246.0089","learning","10.14","","","","","","","","","","","","","","","","","","","","","","","",""
"","learn_trial","categorize-lines","121","1011506","0.0-3.0-0.115","20211015","172","612","","","","","","","","[348.1918]","[348.1918]","[""u"",""i""]","[""""]","null","true","out","u","YES","","0","out","","","","348.1918","learning","17.26","","","","","","","","","","","","","","","","","","","","","","","",""
"","learn_trial","categorize-lines","122","1014826","0.0-3.0-0.116","20211015","172","1292","","","","","","","","[259.5727]","[259.5727]","[""u"",""i""]","[""""]","null","true","in","u","YES","","1","in","","","","259.5727","learning","11.24","","","","","","","","","","","","","","","","","","","","","","","",""
"","learn_trial","categorize-lines","123","1017482","0.0-3.0-0.117","20211015","172","628","","","","","","","","[306.8586]","[306.8586]","[""u"",""i""]","[""""]","null","true","out","i","NO","","1","out","","","","306.8586","learning","14.67","","","","","","","","","","","","","","","","","","","","","","","",""
"","learn_trial","categorize-lines","124","1020282","0.0-3.0-0.118","20211015","172","770","","","","","","","","[170.5372]","[170.5372]","[""u"",""i""]","[""""]","null","true","in","u","YES","","1","in","","","","170.5372","learning","2.63","","","","","","","","","","","","","","","","","","","","","","","",""
"","learn_trial","categorize-lines","125","1025058","0.0-3.0-0.119","20211015","172","742","","","","","","","","[260.5878]","[260.5878]","[""u"",""i""]","[""""]","null","true","in","i","NO","","0","in","","","","260.5878","learning","11.32","","","","","","","","","","","","","","","","","","","","","","","",""
"","learn_trial","categorize-lines","126","1037002","0.0-3.0-0.120","20211015","172","9914","","","","","","","","[241.7256]","[241.7256]","[""u"",""i""]","[""""]","null","true","in","u","YES","","1","in","","","","241.7256","learning","9.78","","","","","","","","","","","","","","","","","","","","","","","",""
"","learn_trial","categorize-lines","127","1041444","0.0-3.0-0.121","20211015","172","408","","","","","","","","[381.2683]","[381.2683]","[""u"",""i""]","[""""]","null","true","out","u","YES","","0","out","","","","381.2683","learning","19.12","","","","","","","","","","","","","","","","","","","","","","","",""
"","learn_trial","categorize-lines","128","1061994","0.0-3.0-0.122","20211015","172","18516","","","","","","","","[242.9078]","[242.9078]","[""u"",""i""]","[""""]","null","true","in","u","YES","","1","in","","","","242.9078","learning","9.88","","","","","","","","","","","","","","","","","","","","","","","",""
"","learn_trial","categorize-lines","129","1073658","0.0-3.0-0.123","20211015","172","9634","","","","","","","","[305.9616]","[305.9616]","[""u"",""i""]","[""""]","null","true","in","u","YES","","1","in","","","","305.9616","learning","14.61","","","","","","","","","","","","","","","","","","","","","","","",""
"","learn_trial","categorize-lines","130","1076282","0.0-3.0-0.124","20211015","172","594","","","","","","","","[327.7509]","[327.7509]","[""u"",""i""]","[""""]","null","true","in","u","YES","","1","in","","","","327.7509","learning","16.02","","","","","","","","","","","","","","","","","","","","","","","",""
"","learn_trial","categorize-lines","131","1080858","0.0-3.0-0.125","20211015","172","546","","","","","","","","[304.621]","[304.621]","[""u"",""i""]","[""""]","null","true","out","u","YES","","0","out","","","","304.621","learning","14.52","","","","","","","","","","","","","","","","","","","","","","","",""
"","learn_trial","categorize-lines","132","1086928","0.0-3.0-0.126","20211015","172","2044","","","","","","","","[282.8474]","[282.8474]","[""u"",""i""]","[""""]","null","true","out","u","YES","","0","out","","","","282.8474","learning","13","","","","","","","","","","","","","","","","","","","","","","","",""
"","learn_trial","categorize-lines","133","1092384","0.0-3.0-0.127","20211015","172","1428","","","","","","","","[259.6994]","[259.6994]","[""u"",""i""]","[""""]","null","true","in","i","NO","","0","in","","","","259.6994","learning","11.25","","","","","","","","","","","","","","","","","","","","","","","",""
"","learn_trial","categorize-lines","134","1107144","0.0-3.0-0.128","20211015","172","10732","","","","","","","","[257.4286]","[257.4286]","[""u"",""i""]","[""""]","null","true","out","u","YES","","0","out","","","","257.4286","learning","11.07","","","","","","","","","","","","","","","","","","","","","","","",""
"","learn_trial","categorize-lines","135","1114464","0.0-3.0-0.129","20211015","172","3292","","","","","","","","[271.7546]","[271.7546]","[""u"",""i""]","[""""]","null","true","in","i","NO","","0","in","","","","271.7546","learning","12.18","","","","","","","","","","","","","","","","","","","","","","","",""
"","learn_trial","categorize-lines","136","1121632","0.0-3.0-0.130","20211015","172","3140","","","","","","","","[169.8728]","[169.8728]","[""u"",""i""]","[""""]","null","true","out","u","YES","","0","out","","","","169.8728","learning","2.55","","","","","","","","","","","","","","","","","","","","","","","",""
"","learn_trial","categorize-lines","137","1129388","0.0-3.0-0.131","20211015","172","5724","","","","","","","","[289.5496]","[289.5496]","[""u"",""i""]","[""""]","null","true","in","u","YES","","1","in","","","","289.5496","learning","13.48","","","","","","","","","","","","","","","","","","","","","","","",""
"","learn_trial","categorize-lines","138","1133042","0.0-3.0-0.132","20211015","172","1622","","","","","","","","[433.4695]","[433.4695]","[""u"",""i""]","[""""]","null","true","out","i","NO","","1","out","","","","433.4695","learning","21.75","","","","","","","","","","","","","","","","","","","","","","","",""
"","learn_trial","categorize-lines","139","1144090","0.0-3.0-0.133","20211015","172","9016","","","","","","","","[354.5346]","[354.5346]","[""u"",""i""]","[""""]","null","true","in","u","YES","","1","in","","","","354.5346","learning","17.63","","","","","","","","","","","","","","","","","","","","","","","",""
"","learn_trial","categorize-lines","140","1146464","0.0-3.0-0.134","20211015","172","344","","","","","","","","[268.0673]","[268.0673]","[""u"",""i""]","[""""]","null","true","out","i","NO","","1","out","","","","268.0673","learning","11.9","","","","","","","","","","","","","","","","","","","","","","","",""
"","learn_trial","categorize-lines","141","1152266","0.0-3.0-0.135","20211015","172","1770","","","","","","","","[335.8447]","[335.8447]","[""u"",""i""]","[""""]","null","true","out","u","YES","","0","out","","","","335.8447","learning","16.52","","","","","","","","","","","","","","","","","","","","","","","",""
"","learn_trial","categorize-lines","142","1173632","0.0-3.0-0.136","20211015","172","17338","","","","","","","","[370.2688]","[370.2688]","[""u"",""i""]","[""""]","null","true","out","u","YES","","0","out","","","","370.2688","learning","18.52","","","","","","","","","","","","","","","","","","","","","","","",""
"","learn_trial","categorize-lines","143","1191584","0.0-3.0-0.137","20211015","172","13922","","","","","","","","[292.6743]","[292.6743]","[""u"",""i""]","[""""]","null","true","out","u","YES","","0","out","","","","292.6743","learning","13.7","","","","","","","","","","","","","","","","","","","","","","","",""
"","learn_trial","categorize-lines","144","1604064","0.0-3.0-0.138","20211015","172","408452","","","","","","","","[162.972]","[162.972]","[""u"",""i""]","[""""]","null","true","out","u","YES","","0","out","","","","162.972","learning","1.7","","","","","","","","","","","","","","","","","","","","","","","",""
"","learn_trial","categorize-lines","145","1609024","0.0-3.0-0.139","20211015","172","924","","","","","","","","[235.4401]","[235.4401]","[""u"",""i""]","[""""]","null","true","in","i","NO","","0","in","","","","235.4401","learning","9.24","","","","","","","","","","","","","","","","","","","","","","","",""
"","learn_trial","categorize-lines","146","1613430","0.0-3.0-0.140","20211015","172","374","","","","","","","","[223.4641]","[223.4641]","[""u"",""i""]","[""""]","null","true","out","u","YES","","0","out","","","","223.4641","learning","8.17","","","","","","","","","","","","","","","","","","","","","","","",""
"","learn_trial","categorize-lines","147","1615958","0.0-3.0-0.141","20211015","172","498","","","","","","","","[302.5474]","[302.5474]","[""u"",""i""]","[""""]","null","true","in","u","YES","","1","in","","","","302.5474","learning","14.38","","","","","","","","","","","","","","","","","","","","","","","",""
"","learn_trial","categorize-lines","148","1619534","0.0-3.0-0.142","20211015","172","1548","","","","","","","","[235.3252]","[235.3252]","[""u"",""i""]","[""""]","null","true","out","i","NO","","1","out","","","","235.3252","learning","9.23","","","","","","","","","","","","","","","","","","","","","","","",""
"","learn_trial","categorize-lines","149","1622846","0.0-3.0-0.143","20211015","172","1282","","","","","","","","[233.9515]","[233.9515]","[""u"",""i""]","[""""]","null","true","in","u","YES","","1","in","","","","233.9515","learning","9.11","","","","","","","","","","","","","","","","","","","","","","","",""
"","learn_trial","categorize-lines","150","1626590","0.0-3.0-0.144","20211015","172","1714","","","","","","","","[287.8593]","[287.8593]","[""u"",""i""]","[""""]","null","true","in","u","YES","","1","in","","","","287.8593","learning","13.36","","","","","","","","","","","","","","","","","","","","","","","",""
"","learn_trial","categorize-lines","151","1634550","0.0-3.0-0.145","20211015","172","5930","","","","","","","","[215.6451]","[215.6451]","[""u"",""i""]","[""""]","null","true","out","i","NO","","1","out","","","","215.6451","learning","7.44","","","","","","","","","","","","","","","","","","","","","","","",""
"","learn_trial","categorize-lines","152","1646582","0.0-3.0-0.146","20211015","172","8006","","","","","","","","[273.0837]","[273.0837]","[""u"",""i""]","[""""]","null","true","out","u","YES","","0","out","","","","273.0837","learning","12.28","","","","","","","","","","","","","","","","","","","","","","","",""
"","learn_trial","categorize-lines","153","1657414","0.0-3.0-0.147","20211015","172","6802","","","","","","","","[206.4815]","[206.4815]","[""u"",""i""]","[""""]","null","true","out","u","YES","","0","out","","","","206.4815","learning","6.55","","","","","","","","","","","","","","","","","","","","","","","",""
"","learn_trial","categorize-lines","154","1660400","0.0-3.0-0.148","20211015","172","956","","","","","","","","[292.2463]","[292.2463]","[""u"",""i""]","[""""]","null","true","in","u","YES","","1","in","","","","292.2463","learning","13.67","","","","","","","","","","","","","","","","","","","","","","","",""
"","learn_trial","categorize-lines","155","1665566","0.0-3.0-0.149","20211015","172","1134","","","","","","","","[260.715]","[260.715]","[""u"",""i""]","[""""]","null","true","in","i","NO","","0","in","","","","260.715","learning","11.33","","","","","","","","","","","","","","","","","","","","","","","",""
"","learn_trial","categorize-lines","156","1669238","0.0-3.0-0.150","20211015","172","1640","","","","","","","","[269.5099]","[269.5099]","[""u"",""i""]","[""""]","null","true","in","u","YES","","1","in","","","","269.5099","learning","12.01","","","","","","","","","","","","","","","","","","","","","","","",""
"","learn_trial","categorize-lines","157","1673550","0.0-3.0-0.151","20211015","172","278","","","","","","","","[243.7389]","[243.7389]","[""u"",""i""]","[""""]","null","true","in","i","NO","","0","in","","","","243.7389","learning","9.95","","","","","","","","","","","","","","","","","","","","","","","",""
"","learn_trial","categorize-lines","158","1680206","0.0-3.0-0.152","20211015","172","2626","","","","","","","","[219.1453]","[219.1453]","[""u"",""i""]","[""""]","null","true","in","i","NO","","0","in","","","","219.1453","learning","7.77","","","","","","","","","","","","","","","","","","","","","","","",""
"","learn_trial","categorize-lines","159","1695110","0.0-3.0-0.153","20211015","172","10874","","","","","","","","[204.8759]","[204.8759]","[""u"",""i""]","[""""]","null","true","out","u","YES","","0","out","","","","204.8759","learning","6.39","","","","","","","","","","","","","","","","","","","","","","","",""
"","learn_trial","categorize-lines","160","1705812","0.0-3.0-0.154","20211015","172","8674","","","","","","","","[245.4095]","[245.4095]","[""u"",""i""]","[""""]","null","true","in","u","YES","","1","in","","","","245.4095","learning","10.09","","","","","","","","","","","","","","","","","","","","","","","",""
"","learn_trial","categorize-lines","161","1709940","0.0-3.0-0.155","20211015","172","100","","","","","","","","[441.7966]","[441.7966]","[""u"",""i""]","[""""]","null","true","out","u","YES","","0","out","","","","441.7966","learning","22.14","","","","","","","","","","","","","","","","","","","","","","","",""
"","learn_trial","categorize-lines","162","1714758","0.0-3.0-0.156","20211015","172","790","","","","","","","","[275.2239]","[275.2239]","[""u"",""i""]","[""""]","null","true","in","i","NO","","0","in","","","","275.2239","learning","12.44","","","","","","","","","","","","","","","","","","","","","","","",""
"","learn_trial","categorize-lines","163","1718190","0.0-3.0-0.157","20211015","172","1404","","","","","","","","[193.6971]","[193.6971]","[""u"",""i""]","[""""]","null","true","in","u","YES","","1","in","","","","193.6971","learning","5.24","","","","","","","","","","","","","","","","","","","","","","","",""
"","learn_trial","categorize-lines","164","1721460","0.0-3.0-0.158","20211015","172","1242","","","","","","","","[215.1197]","[215.1197]","[""u"",""i""]","[""""]","null","true","in","u","YES","","1","in","","","","215.1197","learning","7.39","","","","","","","","","","","","","","","","","","","","","","","",""
"","learn_trial","categorize-lines","165","1728772","0.0-3.0-0.159","20211015","172","3284","","","","","","","","[232.019]","[232.019]","[""u"",""i""]","[""""]","null","true","in","i","NO","","0","in","","","","232.019","learning","8.94","","","","","","","","","","","","","","","","","","","","","","","",""
"","learn_trial","categorize-lines","166","1746510","0.0-3.0-0.160","20211015","172","13708","","","","","","","","[367.2103]","[367.2103]","[""u"",""i""]","[""""]","null","true","out","u","YES","","0","out","","","","367.2103","learning","18.35","","","","","","","","","","","","","","","","","","","","","","","",""
"","learn_trial","categorize-lines","167","1751950","0.0-3.0-0.161","20211015","172","3410","","","","","","","","[425.0919]","[425.0919]","[""u"",""i""]","[""""]","null","true","out","i","NO","","1","out","","","","425.0919","learning","21.35","","","","","","","","","","","","","","","","","","","","","","","",""
"","learn_trial","categorize-lines","168","1755726","0.0-3.0-0.162","20211015","172","1744","","","","","","","","[196.2656]","[196.2656]","[""u"",""i""]","[""""]","null","true","in","u","YES","","1","in","","","","196.2656","learning","5.51","","","","","","","","","","","","","","","","","","","","","","","",""
"","learn_trial","categorize-lines","169","1759068","0.0-3.0-0.163","20211015","172","1314","","","","","","","","[351.4346]","[351.4346]","[""u"",""i""]","[""""]","null","true","in","u","YES","","1","in","","","","351.4346","learning","17.45","","","","","","","","","","","","","","","","","","","","","","","",""
"","learn_trial","categorize-lines","170","1762188","0.0-3.0-0.164","20211015","172","1092","","","","","","","","[274.8213]","[274.8213]","[""u"",""i""]","[""""]","null","true","out","i","NO","","1","out","","","","274.8213","learning","12.41","","","","","","","","","","","","","","","","","","","","","","","",""
"","learn_trial","categorize-lines","171","1767316","0.0-3.0-0.165","20211015","172","1102","","","","","","","","[397.6065]","[397.6065]","[""u"",""i""]","[""""]","null","true","in","i","NO","","0","in","","","","397.6065","learning","19.98","","","","","","","","","","","","","","","","","","","","","","","",""
"","learn_trial","categorize-lines","172","1774956","0.0-3.0-0.166","20211015","172","5612","","","","","","","","[270.9602]","[270.9602]","[""u"",""i""]","[""""]","null","true","in","u","YES","","1","in","","","","270.9602","learning","12.12","","","","","","","","","","","","","","","","","","","","","","","",""
"","learn_trial","categorize-lines","173","1777710","0.0-3.0-0.167","20211015","172","726","","","","","","","","[248.5424]","[248.5424]","[""u"",""i""]","[""""]","null","true","in","u","YES","","1","in","","","","248.5424","learning","10.35","","","","","","","","","","","","","","","","","","","","","","","",""
"","learn_trial","categorize-lines","174","1782668","0.0-3.0-0.168","20211015","172","928","","","","","","","","[259.5727]","[259.5727]","[""u"",""i""]","[""""]","null","true","in","i","NO","","0","in","","","","259.5727","learning","11.24","","","","","","","","","","","","","","","","","","","","","","","",""
"","learn_trial","categorize-lines","175","1787636","0.0-3.0-0.169","20211015","172","938","","","","","","","","[217.0172]","[217.0172]","[""u"",""i""]","[""""]","null","true","out","u","YES","","0","out","","","","217.0172","learning","7.57","","","","","","","","","","","","","","","","","","","","","","","",""
"","learn_trial","categorize-lines","176","1793076","0.0-3.0-0.170","20211015","172","1412","","","","","","","","[395.4783]","[395.4783]","[""u"",""i""]","[""""]","null","true","out","u","YES","","0","out","","","","395.4783","learning","19.87","","","","","","","","","","","","","","","","","","","","","","","",""
"","learn_trial","categorize-lines","177","1797828","0.0-3.0-0.171","20211015","172","722","","","","","","","","[352.1211]","[352.1211]","[""u"",""i""]","[""""]","null","true","out","u","YES","","0","out","","","","352.1211","learning","17.49","","","","","","","","","","","","","","","","","","","","","","","",""
"","learn_trial","categorize-lines","178","1802212","0.0-3.0-0.172","20211015","172","354","","","","","","","","[297.2797]","[297.2797]","[""u"",""i""]","[""""]","null","true","in","i","NO","","0","in","","","","297.2797","learning","14.02","","","","","","","","","","","","","","","","","","","","","","","",""
"","learn_trial","categorize-lines","179","1804532","0.0-3.0-0.173","20211015","172","290","","","","","","","","[264.3011]","[264.3011]","[""u"",""i""]","[""""]","null","true","in","u","YES","","1","in","","","","264.3011","learning","11.61","","","","","","","","","","","","","","","","","","","","","","","",""
"","learn_trial","categorize-lines","180","1809380","0.0-3.0-0.174","20211015","172","818","","","","","","","","[211.2711]","[211.2711]","[""u"",""i""]","[""""]","null","true","out","u","YES","","0","out","","","","211.2711","learning","7.02","","","","","","","","","","","","","","","","","","","","","","","",""
"","learn_trial","categorize-lines","181","1814404","0.0-3.0-0.175","20211015","172","996","","","","","","","","[402.0934]","[402.0934]","[""u"",""i""]","[""""]","null","true","out","u","YES","","0","out","","","","402.0934","learning","20.21","","","","","","","","","","","","","","","","","","","","","","","",""
"","learn_trial","categorize-lines","182","1818956","0.0-3.0-0.176","20211015","172","522","","","","","","","","[268.8532]","[268.8532]","[""u"",""i""]","[""""]","null","true","in","i","NO","","0","in","","","","268.8532","learning","11.96","","","","","","","","","","","","","","","","","","","","","","","",""
"","learn_trial","categorize-lines","183","1823388","0.0-3.0-0.177","20211015","172","400","","","","","","","","[262.5019]","[262.5019]","[""u"",""i""]","[""""]","null","true","in","i","NO","","0","in","","","","262.5019","learning","11.47","","","","","","","","","","","","","","","","","","","","","","","",""
"","learn_trial","categorize-lines","184","1825788","0.0-3.0-0.178","20211015","172","368","","","","","","","","[414.0384]","[414.0384]","[""u"",""i""]","[""""]","null","true","out","i","NO","","1","out","","","","414.0384","learning","20.81","","","","","","","","","","","","","","","","","","","","","","","",""
"","learn_trial","categorize-lines","185","1830940","0.0-3.0-0.179","20211015","172","1122","","","","","","","","[198.8682]","[198.8682]","[""u"",""i""]","[""""]","null","true","in","i","NO","","0","in","","","","198.8682","learning","5.78","","","","","","","","","","","","","","","","","","","","","","","",""
"","learn_trial","categorize-lines","186","1833308","0.0-3.0-0.180","20211015","172","338","","","","","","","","[356.0948]","[356.0948]","[""u"",""i""]","[""""]","null","true","in","u","YES","","1","in","","","","356.0948","learning","17.72","","","","","","","","","","","","","","","","","","","","","","","",""
"","learn_trial","categorize-lines","187","1838140","0.0-3.0-0.181","20211015","172","802","","","","","","","","[367.7482]","[367.7482]","[""u"",""i""]","[""""]","null","true","out","u","YES","","0","out","","","","367.7482","learning","18.38","","","","","","","","","","","","","","","","","","","","","","","",""
"","learn_trial","categorize-lines","188","1842684","0.0-3.0-0.182","20211015","172","514","","","","","","","","[284.5082]","[284.5082]","[""u"",""i""]","[""""]","null","true","out","u","YES","","0","out","","","","284.5082","learning","13.12","","","","","","","","","","","","","","","","","","","","","","","",""
"","learn_trial","categorize-lines","189","1847388","0.0-3.0-0.183","20211015","172","674","","","","","","","","[183.2177]","[183.2177]","[""u"",""i""]","[""""]","null","true","out","u","YES","","0","out","","","","183.2177","learning","4.1","","","","","","","","","","","","","","","","","","","","","","","",""
"","learn_trial","categorize-lines","190","1852444","0.0-3.0-0.184","20211015","172","1026","","","","","","","","[240.0801]","[240.0801]","[""u"",""i""]","[""""]","null","true","out","u","YES","","0","out","","","","240.0801","learning","9.64","","","","","","","","","","","","","","","","","","","","","","","",""
"","learn_trial","categorize-lines","191","1857332","0.0-3.0-0.185","20211015","172","858","","","","","","","","[197.4181]","[197.4181]","[""u"",""i""]","[""""]","null","true","in","i","NO","","0","in","","","","197.4181","learning","5.63","","","","","","","","","","","","","","","","","","","","","","","",""
"","learn_trial","categorize-lines","192","1863140","0.0-3.0-0.186","20211015","172","1780","","","","","","","","[249.3927]","[249.3927]","[""u"",""i""]","[""""]","null","true","out","u","YES","","0","out","","","","249.3927","learning","10.42","","","","","","","","","","","","","","","","","","","","","","","",""
"","learn_trial","categorize-lines","193","1866196","0.0-3.0-0.187","20211015","172","1028","","","","","","","","[225.3253]","[225.3253]","[""u"",""i""]","[""""]","null","true","in","u","YES","","1","in","","","","225.3253","learning","8.34","","","","","","","","","","","","","","","","","","","","","","","",""
"","learn_trial","categorize-lines","194","1870004","0.0-3.0-0.188","20211015","172","1780","","","","","","","","[189.1213]","[189.1213]","[""u"",""i""]","[""""]","null","true","out","i","NO","","1","out","","","","189.1213","learning","4.75","","","","","","","","","","","","","","","","","","","","","","","",""
"","learn_trial","categorize-lines","195","1873940","0.0-3.0-0.189","20211015","172","1906","","","","","","","","[306.8586]","[306.8586]","[""u"",""i""]","[""""]","null","true","in","u","YES","","1","in","","","","306.8586","learning","14.67","","","","","","","","","","","","","","","","","","","","","","","",""
"","learn_trial","categorize-lines","196","1880876","0.0-3.0-0.190","20211015","172","4906","","","","","","","","[278.0583]","[278.0583]","[""u"",""i""]","[""""]","null","true","in","u","YES","","1","in","","","","278.0583","learning","12.65","","","","","","","","","","","","","","","","","","","","","","","",""
"","learn_trial","categorize-lines","197","1886612","0.0-3.0-0.191","20211015","172","1706","","","","","","","","[228.4247]","[228.4247]","[""u"",""i""]","[""""]","null","true","out","u","YES","","0","out","","","","228.4247","learning","8.62","","","","","","","","","","","","","","","","","","","","","","","",""
"","learn_trial","categorize-lines","198","1891654","0.0-3.0-0.192","20211015","172","1008","","","","","","","","[256.4258]","[256.4258]","[""u"",""i""]","[""""]","null","true","out","u","YES","","0","out","","","","256.4258","learning","10.99","","","","","","","","","","","","","","","","","","","","","","","",""
"","learn_trial","categorize-lines","199","1896708","0.0-3.0-0.193","20211015","172","1024","","","","","","","","[278.7375]","[278.7375]","[""u"",""i""]","[""""]","null","true","in","i","NO","","0","in","","","","278.7375","learning","12.7","","","","","","","","","","","","","","","","","","","","","","","",""
"","learn_trial","categorize-lines","200","1901732","0.0-3.0-0.194","20211015","172","996","","","","","","","","[351.2632]","[351.2632]","[""u"",""i""]","[""""]","null","true","out","u","YES","","0","out","","","","351.2632","learning","17.44","","","","","","","","","","","","","","","","","","","","","","","",""
"","learn_trial","categorize-lines","201","1904476","0.0-3.0-0.195","20211015","172","716","","","","","","","","[158.6569]","[158.6569]","[""u"",""i""]","[""""]","null","true","out","i","NO","","1","out","","","","158.6569","learning","1.15","","","","","","","","","","","","","","","","","","","","","","","",""
"","learn_trial","categorize-lines","202","1910484","0.0-3.0-0.196","20211015","172","1978","","","","","","","","[235.0957]","[235.0957]","[""u"",""i""]","[""""]","null","true","in","i","NO","","0","in","","","","235.0957","learning","9.21","","","","","","","","","","","","","","","","","","","","","","","",""
"","learn_trial","categorize-lines","203","1915276","0.0-3.0-0.197","20211015","172","762","","","","","","","","[197.1294]","[197.1294]","[""u"",""i""]","[""""]","null","true","out","u","YES","","0","out","","","","197.1294","learning","5.6","","","","","","","","","","","","","","","","","","","","","","","",""
"","learn_trial","categorize-lines","204","1917580","0.0-3.0-0.198","20211015","172","274","","","","","","","","[383.8815]","[383.8815]","[""u"",""i""]","[""""]","null","true","out","i","NO","","1","out","","","","383.8815","learning","19.26","","","","","","","","","","","","","","","","","","","","","","","",""
"","learn_trial","categorize-lines","205","1921364","0.0-3.0-0.199","20211015","172","1756","","","","","","","","[251.8382]","[251.8382]","[""u"",""i""]","[""""]","null","true","in","u","YES","","1","in","","","","251.8382","learning","10.62","","","","","","","","","","","","","","","","","","","","","","","",""
"","transfer_instructions","instructions","206","1936330","0.0-4.0-0.0","20211015","172","14966","","","","","","[{""page_index"":0,""viewing_time"":5974},{""page_index"":1,""viewing_time"":8992}]","","","","","","","","","","","","","","","","","","","","","","","","","","","","","","","","","","","","","","","","","","",""
"","transfer_trial","categorize-lines","207","1947294","0.0-5.0-0.0","20211015","172","9890","","","","","","","","[235.555,286.3185,213.6553]","[235.555,213.6553,286.3185]","[""j"",""k"",""l""]","[""J"",""K"",""L""]","null","false","null","k","","213.6553","0","null","213.6553","286.3185","","","transfer","","9.25","235.555","13.25","286.3185","7.25","213.6553","","","235.555","286.3185","213.6553","9.25","13.25","7.25","attraction","trinary","equal_chance_2_JND","left","right","both","2","equal","decoy",""
"","transfer_trial","categorize-lines","208","1953766","0.0-5.0-0.1","20211015","172","5396","","","","","","","","[282.4293,184.8867,211.0651]","[184.8867,282.4293,211.0651]","[""j"",""k"",""l""]","[""J"",""K"",""L""]","282.4293","false","null","l","","211.0651","0","null","282.4293","211.0651","","","transfer","","","","","","","","282.4293","12.9697","282.4293","184.8867","211.0651","12.9697","4.2859","7","filler","trinary","","","","","1.7197","right","NA",""
"","transfer_trial","categorize-lines","209","1956980","0.0-5.0-0.2","20211015","172","2142","","","","","","","","[247.3327,300.6345,331.4495]","[300.6345,247.3327,331.4495]","[""j"",""k"",""l""]","[""J"",""K"",""L""]","247.3327","false","null","k","","247.3327","1","null","247.3327","331.4495","","","transfer","","14.25","300.6345","10.25","247.3327","16.25","331.4495","247.3327","10.25","247.3327","300.6345","331.4495","10.25","14.25","16.25","attraction","trinary","easy","right","left","competitor","1","left","competitor",""
"","transfer_trial","categorize-lines","210","1961564","0.0-5.0-0.3","20211015","172","3512","","","","","","","","[235.555,286.3185]","[235.555,286.3185]","[""j"",""k""]","[""J"",""K""]","null","false","null","k","","286.3185","0","null","286.3185","","","","transfer","","13.25","286.3185","9.25","235.555","","","","","235.555","286.3185","0","9.25","13.25","0","attraction","binary","equal_chance_2_JND","right","left","both","2","equal","target",""
"","transfer_trial","categorize-lines","211","1964300","0.0-5.0-0.4","20211015","172","1666","","","","","","","","[247.3327,272.6843,300.6345]","[272.6843,300.6345,247.3327]","[""j"",""k"",""l""]","[""J"",""K"",""L""]","null","false","null","k","","300.6345","0","null","300.6345","247.3327","","","transfer","","12.25","272.6843","10.25","247.3327","14.25","300.6345","","","247.3327","272.6843","300.6345","10.25","12.25","14.25","attraction","trinary","equal_chance_1_JND","right","left","both","1","equal","decoy",""
"","transfer_trial","categorize-lines","212","1966444","0.0-5.0-0.5","20211015","172","1074","","","","","","","","[247.3327,286.3185,315.6662]","[247.3327,315.6662,286.3185]","[""j"",""k"",""l""]","[""J"",""K"",""L""]","247.3327","false","null","k","","315.6662","0","null","315.6662","286.3185","","","transfer","","13.25","286.3185","10.25","247.3327","15.25","315.6662","247.3327","10.25","247.3327","286.3185","315.6662","10.25","13.25","15.25","attraction","trinary","difficult","right","left","competitor","1","left","decoy",""
"","transfer_trial","categorize-lines","213","1970028","0.0-5.0-0.6","20211015","172","2514","","","","","","","","[272.6843,235.555,213.6553]","[235.555,272.6843,213.6553]","[""j"",""k"",""l""]","[""J"",""K"",""L""]","272.6843","false","null","j","","235.555","0","null","272.6843","213.6553","","","transfer","","9.25","235.555","12.25","272.6843","7.25","213.6553","272.6843","12.25","272.6843","235.555","213.6553","12.25","9.25","7.25","attraction","trinary","difficult","left","right","competitor","1","right","target",""
"","transfer_trial","categorize-lines","214","1973100","0.0-5.0-0.7","20211015","172","2002","","","","","","","","[272.6843,235.555]","[235.555,272.6843]","[""j"",""k""]","[""J"",""K""]","272.6843","false","null","k","","272.6843","1","null","272.6843","","","","transfer","","12.25","272.6843","9.25","235.555","","","272.6843","12.25","272.6843","235.555","0","12.25","9.25","0","attraction","binary","difficult","right","left","target","1","right","target",""
"","transfer_trial","categorize-lines","215","1977004","0.0-5.0-0.8","20211015","172","2832","","","","","","","","[247.3327,286.3185,315.6662]","[247.3327,315.6662,286.3185]","[""j"",""k"",""l""]","[""J"",""K"",""L""]","247.3327","false","null","l","","286.3185","0","null","315.6662","286.3185","","","transfer","","13.25","286.3185","10.25","247.3327","15.25","315.6662","247.3327","10.25","247.3327","286.3185","315.6662","10.25","13.25","15.25","attraction","trinary","difficult","right","left","competitor","1","left","target",""
"","transfer_trial","categorize-lines","216","1982348","0.0-5.0-0.9","20211015","172","4268","","","","","","","","[235.555,286.3185,213.6553]","[286.3185,213.6553,235.555]","[""j"",""k"",""l""]","[""J"",""K"",""L""]","null","false","null","j","","286.3185","0","null","213.6553","235.555","","","transfer","","9.25","235.555","13.25","286.3185","7.25","213.6553","","","235.555","286.3185","213.6553","9.25","13.25","7.25","attraction","trinary","equal_chance_2_JND","left","right","both","2","equal","competitor",""
"","transfer_trial","categorize-lines","217","1984836","0.0-5.0-0.10","20211015","172","1416","","","","","","","","[247.3327,272.6843,300.6345]","[300.6345,247.3327,272.6843]","[""j"",""k"",""l""]","[""J"",""K"",""L""]","null","false","null","j","","300.6345","0","null","247.3327","272.6843","","","transfer","","12.25","272.6843","10.25","247.3327","14.25","300.6345","","","247.3327","272.6843","300.6345","10.25","12.25","14.25","attraction","trinary","equal_chance_1_JND","right","left","both","1","equal","decoy",""
"","transfer_trial","categorize-lines","218","1992428","0.0-5.0-0.11","20211015","172","6522","","","","","","","","[386.139,312.1544,417.8944]","[312.1544,417.8944,386.139]","[""j"",""k"",""l""]","[""J"",""K"",""L""]","386.139","false","null","j","","312.1544","0","null","417.8944","386.139","","","transfer","","","","","","","","386.139","19.3802","386.139","312.1544","417.8944","19.3802","15.0207","21","filler","trinary","","","","","8.1302","right","NA",""
"","transfer_trial","categorize-lines","219","1995036","0.0-5.0-0.12","20211015","172","1538","","","","","","","","[247.3327,300.6345]","[247.3327,300.6345]","[""j"",""k""]","[""J"",""K""]","247.3327","false","null","k","","300.6345","0","null","300.6345","","","","transfer","","14.25","300.6345","10.25","247.3327","","","247.3327","10.25","247.3327","300.6345","0","10.25","14.25","0","attraction","binary","easy","right","left","competitor","1","left","target",""
"","transfer_trial","categorize-lines","220","1997972","0.0-5.0-0.13","20211015","172","1866","","","","","","","","[247.3327,286.3185]","[247.3327,286.3185]","[""j"",""k""]","[""J"",""K""]","247.3327","false","null","j","","247.3327","1","null","286.3185","","","","transfer","","13.25","286.3185","10.25","247.3327","","","247.3327","10.25","247.3327","286.3185","0","10.25","13.25","0","attraction","binary","difficult","right","left","competitor","1","left","competitor",""
"","transfer_trial","categorize-lines","221","2000540","0.0-5.0-0.14","20211015","172","1498","","","","","","","","[272.6843,224.3381]","[224.3381,272.6843]","[""j"",""k""]","[""J"",""K""]","272.6843","false","null","k","","272.6843","1","null","272.6843","","","","transfer","","12.25","272.6843","8.25","224.3381","","","272.6843","12.25","272.6843","224.3381","0","12.25","8.25","0","attraction","binary","easy","right","left","target","1","right","target",""
"","transfer_trial","categorize-lines","222","2004940","0.0-5.0-0.15","20211015","172","3328","","","","","","","","[247.3327,272.6843]","[247.3327,272.6843]","[""j"",""k""]","[""J"",""K""]","null","false","null","k","","272.6843","0","null","272.6843","","","","transfer","","10.25","247.3327","12.25","272.6843","","","","","247.3327","272.6843","0","10.25","12.25","0","attraction","binary","equal_chance_1_JND","left","right","both","1","equal","competitor",""
"","transfer_trial","categorize-lines","223","2007748","0.0-5.0-0.16","20211015","172","1736","","","","","","","","[247.3327,300.6345,331.4495]","[331.4495,247.3327,300.6345]","[""j"",""k"",""l""]","[""J"",""K"",""L""]","247.3327","false","null","l","","300.6345","0","null","247.3327","300.6345","","","transfer","","14.25","300.6345","10.25","247.3327","16.25","331.4495","247.3327","10.25","247.3327","300.6345","331.4495","10.25","14.25","16.25","attraction","trinary","easy","right","left","competitor","1","left","target",""
"","transfer_trial","categorize-lines","224","2010324","0.0-5.0-0.17","20211015","172","1506","","","","","","","","[247.3327,286.3185]","[247.3327,286.3185]","[""j"",""k""]","[""J"",""K""]","247.3327","false","null","j","","247.3327","1","null","286.3185","","","","transfer","","13.25","286.3185","10.25","247.3327","","","247.3327","10.25","247.3327","286.3185","0","10.25","13.25","0","attraction","binary","difficult","right","left","competitor","1","left","competitor",""
"","transfer_trial","categorize-lines","225","2012908","0.0-5.0-0.18","20211015","172","1514","","","","","","","","[235.555,286.3185,213.6553]","[286.3185,235.555,213.6553]","[""j"",""k"",""l""]","[""J"",""K"",""L""]","null","false","null","k","","235.555","0","null","235.555","213.6553","","","transfer","","9.25","235.555","13.25","286.3185","7.25","213.6553","","","235.555","286.3185","213.6553","9.25","13.25","7.25","attraction","trinary","equal_chance_2_JND","left","right","both","2","equal","target",""
"","transfer_trial","categorize-lines","226","2015732","0.0-5.0-0.19","20211015","172","1754","","","","","","","","[247.3327,286.3185]","[286.3185,247.3327]","[""j"",""k""]","[""J"",""K""]","247.3327","false","null","j","","286.3185","0","null","247.3327","","","","transfer","","10.25","247.3327","13.25","286.3185","","","247.3327","10.25","247.3327","286.3185","0","10.25","13.25","0","attraction","binary","difficult","left","right","target","1","left","competitor",""
"","transfer_trial","categorize-lines","227","2018356","0.0-5.0-0.20","20211015","172","1550","","","","","","","","[247.3327,272.6843,224.3381]","[224.3381,247.3327,272.6843]","[""j"",""k"",""l""]","[""J"",""K"",""L""]","null","false","null","k","","247.3327","0","null","247.3327","272.6843","","","transfer","","10.25","247.3327","12.25","272.6843","8.25","224.3381","","","247.3327","272.6843","224.3381","10.25","12.25","8.25","attraction","trinary","equal_chance_1_JND","left","right","both","1","equal","target",""
"","transfer_trial","categorize-lines","228","2024052","0.0-5.0-0.21","20211015","172","4624","","","","","","","","[247.3327,286.3185,224.3381]","[286.3185,247.3327,224.3381]","[""j"",""k"",""l""]","[""J"",""K"",""L""]","247.3327","false","null","l","","224.3381","0","null","247.3327","224.3381","","","transfer","","10.25","247.3327","13.25","286.3185","8.25","224.3381","247.3327","10.25","247.3327","286.3185","224.3381","10.25","13.25","8.25","attraction","trinary","difficult","left","right","target","1","left","decoy",""
"","transfer_trial","categorize-lines","229","2026772","0.0-5.0-0.22","20211015","172","1650","","","","","","","","[167.4275,266.5615]","[266.5615,167.4275]","[""j"",""k""]","[""J"",""K""]","167.4275","false","null","k","","167.4275","1","null","167.4275","","","","transfer","","","","","","","","167.4275","2.2528","167.4275","266.5615","0","2.2528","11.7845","0","filler","binary","","","","","8.9972","left","NA",""
"","transfer_trial","categorize-lines","230","2029852","0.0-5.0-0.23","20211015","172","2010","","","","","","","","[209.4107,272.2156,360.9929]","[360.9929,209.4107,272.2156]","[""j"",""k"",""l""]","[""J"",""K"",""L""]","209.4107","false","null","k","","209.4107","1","null","209.4107","272.2156","","","transfer","","","","","","","","209.4107","6.8387","209.4107","272.2156","360.9929","6.8387","12.2147","18","filler","trinary","","","","","4.4113","left","NA",""
"","transfer_trial","categorize-lines","231","2032620","0.0-5.0-0.24","20211015","172","1696","","","","","","","","[247.3327,300.6345]","[247.3327,300.6345]","[""j"",""k""]","[""J"",""K""]","247.3327","false","null","j","","247.3327","1","null","300.6345","","","","transfer","","14.25","300.6345","10.25","247.3327","","","247.3327","10.25","247.3327","300.6345","0","10.25","14.25","0","attraction","binary","easy","right","left","competitor","1","left","competitor",""
"","transfer_trial","categorize-lines","232","2035124","0.0-5.0-0.25","20211015","172","1432","","","","","","","","[235.555,286.3185]","[286.3185,235.555]","[""j"",""k""]","[""J"",""K""]","null","false","null","k","","235.555","0","null","235.555","","","","transfer","","13.25","286.3185","9.25","235.555","","","","","235.555","286.3185","0","9.25","13.25","0","attraction","binary","equal_chance_2_JND","right","left","both","2","equal","competitor",""
"","transfer_trial","categorize-lines","233","2037676","0.0-5.0-0.26","20211015","172","1482","","","","","","","","[247.3327,300.6345]","[300.6345,247.3327]","[""j"",""k""]","[""J"",""K""]","247.3327","false","null","k","","247.3327","1","null","247.3327","","","","transfer","","10.25","247.3327","14.25","300.6345","","","247.3327","10.25","247.3327","300.6345","0","10.25","14.25","0","attraction","binary","easy","left","right","target","1","left","target",""
"","transfer_trial","categorize-lines","234","2040932","0.0-5.0-0.27","20211015","172","2186","","","","","","","","[247.3327,272.6843]","[247.3327,272.6843]","[""j"",""k""]","[""J"",""K""]","null","false","null","j","","247.3327","0","null","272.6843","","","","transfer","","12.25","272.6843","10.25","247.3327","","","","","247.3327","272.6843","0","10.25","12.25","0","attraction","binary","equal_chance_1_JND","right","left","both","1","equal","competitor",""
"","transfer_trial","categorize-lines","235","2043860","0.0-5.0-0.28","20211015","172","1856","","","","","","","","[272.6843,235.555,300.6345]","[300.6345,235.555,272.6843]","[""j"",""k"",""l""]","[""J"",""K"",""L""]","272.6843","false","null","l","","272.6843","1","null","235.555","272.6843","","","transfer","","12.25","272.6843","9.25","235.555","14.25","300.6345","272.6843","12.25","272.6843","235.555","300.6345","12.25","9.25","14.25","attraction","trinary","difficult","right","left","target","1","right","target",""
"","transfer_trial","categorize-lines","236","2046916","0.0-5.0-0.29","20211015","172","1984","","","","","","","","[247.3327,286.3185,224.3381]","[224.3381,286.3185,247.3327]","[""j"",""k"",""l""]","[""J"",""K"",""L""]","247.3327","false","null","j","","224.3381","0","null","286.3185","247.3327","","","transfer","","10.25","247.3327","13.25","286.3185","8.25","224.3381","247.3327","10.25","247.3327","286.3185","224.3381","10.25","13.25","8.25","attraction","trinary","difficult","left","right","target","1","left","decoy",""
"","transfer_trial","categorize-lines","237","2049508","0.0-5.0-0.30","20211015","172","1522","","","","","","","","[235.555,286.3185,315.6662]","[235.555,286.3185,315.6662]","[""j"",""k"",""l""]","[""J"",""K"",""L""]","null","false","null","k","","286.3185","0","null","286.3185","315.6662","","","transfer","","13.25","286.3185","9.25","235.555","15.25","315.6662","","","235.555","286.3185","315.6662","9.25","13.25","15.25","attraction","trinary","equal_chance_2_JND","right","left","both","2","equal","target",""
"","transfer_trial","categorize-lines","238","2053148","0.0-5.0-0.31","20211015","172","2570","","","","","","","","[328.3209,169.4252,256.5509]","[256.5509,169.4252,328.3209]","[""j"",""k"",""l""]","[""J"",""K"",""L""]","328.3209","false","null","j","","256.5509","0","null","169.4252","328.3209","","","transfer","","","","","","","","328.3209","16.0556","328.3209","169.4252","256.5509","16.0556","2.4959","11","filler","trinary","","","","","4.8056","right","NA",""
"","transfer_trial","categorize-lines","239","2056044","0.0-5.0-0.32","20211015","172","1824","","","","","","","","[272.6843,224.3381]","[224.3381,272.6843]","[""j"",""k""]","[""J"",""K""]","272.6843","false","null","k","","272.6843","1","null","272.6843","","","","transfer","","8.25","224.3381","12.25","272.6843","","","272.6843","12.25","272.6843","224.3381","0","12.25","8.25","0","attraction","binary","easy","left","right","competitor","1","right","competitor",""
"","transfer_trial","categorize-lines","240","2058220","0.0-5.0-0.33","20211015","172","1106","","","","","","","","[235.555,286.3185,315.6662]","[286.3185,315.6662,235.555]","[""j"",""k"",""l""]","[""J"",""K"",""L""]","null","false","null","k","","315.6662","0","null","315.6662","235.555","","","transfer","","13.25","286.3185","9.25","235.555","15.25","315.6662","","","235.555","286.3185","315.6662","9.25","13.25","15.25","attraction","trinary","equal_chance_2_JND","right","left","both","2","equal","decoy",""
"","transfer_trial","categorize-lines","241","2060796","0.0-5.0-0.34","20211015","172","1504","","","","","","","","[238.2482,245.7076]","[238.2482,245.7076]","[""j"",""k""]","[""J"",""K""]","238.2482","false","null","j","","238.2482","1","null","245.7076","","","","transfer","","","","","","","","238.2482","9.483","238.2482","245.7076","0","9.483","10.1149","0","filler","binary","","","","","1.767","left","NA",""
"","transfer_trial","categorize-lines","242","2065100","0.0-5.0-0.35","20211015","172","3232","","","","","","","","[209.6228,170.5024]","[209.6228,170.5024]","[""j"",""k""]","[""J"",""K""]","209.6228","false","null","j","","209.6228","1","null","170.5024","","","","transfer","","","","","","","","209.6228","6.8595","209.6228","170.5024","0","6.8595","2.6258","0","filler","binary","","","","","4.3905","left","NA",""
"","transfer_trial","categorize-lines","243","2068780","0.0-5.0-0.36","20211015","172","2610","","","","","","","","[289.2816,392.1136]","[392.1136,289.2816]","[""j"",""k""]","[""J"",""K""]","289.2816","false","null","k","","289.2816","1","null","289.2816","","","","transfer","","","","","","","","289.2816","13.461","289.2816","392.1136","0","13.461","19.6949","0","filler","binary","","","","","2.211","right","NA",""
"","transfer_trial","categorize-lines","244","2072700","0.0-5.0-0.37","20211015","172","2848","","","","","","","","[227.6639,153.6208,379.0425]","[379.0425,227.6639,153.6208]","[""j"",""k"",""l""]","[""J"",""K"",""L""]","227.6639","false","null","j","","379.0425","0","null","227.6639","153.6208","","","transfer","","","","","","","","227.6639","8.5516","227.6639","153.6208","379.0425","8.5516","0.4889","19","filler","trinary","","","","","2.6984","left","NA",""
"","transfer_trial","categorize-lines","245","2076452","0.0-5.0-0.38","20211015","172","2682","","","","","","","","[262.3725,331.3835,157.5]","[331.3835,157.5,262.3725]","[""j"",""k"",""l""]","[""J"",""K"",""L""]","262.3725","false","null","j","","331.3835","0","null","157.5","262.3725","","","transfer","","","","","","","","262.3725","11.4599","262.3725","331.3835","157.5","11.4599","16.2459","1","filler","trinary","","","","","0.2099","right","NA",""
"","transfer_trial","categorize-lines","246","2079830","0.0-5.0-0.39","20211015","172","2298","","","","","","","","[272.6843,235.555,300.6345]","[272.6843,235.555,300.6345]","[""j"",""k"",""l""]","[""J"",""K"",""L""]","272.6843","false","null","j","","272.6843","1","null","235.555","300.6345","","","transfer","","12.25","272.6843","9.25","235.555","14.25","300.6345","272.6843","12.25","272.6843","235.555","300.6345","12.25","9.25","14.25","attraction","trinary","difficult","right","left","target","1","right","target",""
"","transfer_trial","categorize-lines","247","2084180","0.0-5.0-0.40","20211015","172","3276","","","","","","","","[247.3327,286.3185]","[247.3327,286.3185]","[""j"",""k""]","[""J"",""K""]","247.3327","false","null","k","","286.3185","0","null","286.3185","","","","transfer","","10.25","247.3327","13.25","286.3185","","","247.3327","10.25","247.3327","286.3185","0","10.25","13.25","0","attraction","binary","difficult","left","right","target","1","left","competitor",""
"","transfer_trial","categorize-lines","248","2087700","0.0-5.0-0.41","20211015","172","2448","","","","","","","","[272.6843,224.3381,203.4812]","[272.6843,224.3381,203.4812]","[""j"",""k"",""l""]","[""J"",""K"",""L""]","272.6843","false","null","j","","272.6843","1","null","224.3381","203.4812","","","transfer","","8.25","224.3381","12.25","272.6843","6.25","203.4812","272.6843","12.25","272.6843","224.3381","203.4812","12.25","8.25","6.25","attraction","trinary","easy","left","right","competitor","1","right","competitor",""
"","transfer_trial","categorize-lines","249","2094148","0.0-5.0-0.42","20211015","172","5376","","","","","","","","[247.3327,272.6843]","[272.6843,247.3327]","[""j"",""k""]","[""J"",""K""]","null","false","null","k","","247.3327","0","null","247.3327","","","","transfer","","12.25","272.6843","10.25","247.3327","","","","","247.3327","272.6843","0","10.25","12.25","0","attraction","binary","equal_chance_1_JND","right","left","both","1","equal","competitor",""
"","transfer_trial","categorize-lines","250","2100580","0.0-5.0-0.43","20211015","172","5362","","","","","","","","[247.3327,272.6843]","[272.6843,247.3327]","[""j"",""k""]","[""J"",""K""]","null","false","null","k","","247.3327","0","null","247.3327","","","","transfer","","12.25","272.6843","10.25","247.3327","","","","","247.3327","272.6843","0","10.25","12.25","0","attraction","binary","equal_chance_1_JND","right","left","both","1","equal","competitor",""
"","transfer_trial","categorize-lines","251","2103276","0.0-5.0-0.44","20211015","172","1622","","","","","","","","[272.6843,224.3381,300.6345]","[224.3381,272.6843,300.6345]","[""j"",""k"",""l""]","[""J"",""K"",""L""]","272.6843","false","null","l","","300.6345","0","null","272.6843","300.6345","","","transfer","","12.25","272.6843","8.25","224.3381","14.25","300.6345","272.6843","12.25","272.6843","224.3381","300.6345","12.25","8.25","14.25","attraction","trinary","easy","right","left","target","1","right","decoy",""
"","transfer_trial","categorize-lines","252","2106308","0.0-5.0-0.45","20211015","172","1960","","","","","","","","[272.6843,235.555]","[272.6843,235.555]","[""j"",""k""]","[""J"",""K""]","272.6843","false","null","j","","272.6843","1","null","235.555","","","","transfer","","9.25","235.555","12.25","272.6843","","","272.6843","12.25","272.6843","235.555","0","12.25","9.25","0","attraction","binary","difficult","left","right","competitor","1","right","competitor",""
"","transfer_trial","categorize-lines","253","2108964","0.0-5.0-0.46","20211015","172","1584","","","","","","","","[281.7339,200.4552,191.4422]","[191.4422,200.4552,281.7339]","[""j"",""k"",""l""]","[""J"",""K"",""L""]","281.7339","false","null","k","","200.4552","0","null","200.4552","281.7339","","","transfer","","","","","","","","281.7339","12.9192","281.7339","200.4552","191.4422","12.9192","5.9429","5","filler","trinary","","","","","1.6692","right","NA",""
"","transfer_trial","categorize-lines","254","2112092","0.0-5.0-0.47","20211015","172","2056","","","","","","","","[272.6843,235.555]","[272.6843,235.555]","[""j"",""k""]","[""J"",""K""]","272.6843","false","null","j","","272.6843","1","null","235.555","","","","transfer","","9.25","235.555","12.25","272.6843","","","272.6843","12.25","272.6843","235.555","0","12.25","9.25","0","attraction","binary","difficult","left","right","competitor","1","right","competitor",""
"","transfer_trial","categorize-lines","255","2114846","0.0-5.0-0.48","20211015","172","1680","","","","","","","","[272.6843,235.555]","[272.6843,235.555]","[""j"",""k""]","[""J"",""K""]","272.6843","false","null","j","","272.6843","1","null","235.555","","","","transfer","","12.25","272.6843","9.25","235.555","","","272.6843","12.25","272.6843","235.555","0","12.25","9.25","0","attraction","binary","difficult","right","left","target","1","right","target",""
"","transfer_trial","categorize-lines","256","2117364","0.0-5.0-0.49","20211015","172","1440","","","","","","","","[235.555,286.3185]","[286.3185,235.555]","[""j"",""k""]","[""J"",""K""]","null","false","null","k","","235.555","0","null","235.555","","","","transfer","","9.25","235.555","13.25","286.3185","","","","","235.555","286.3185","0","9.25","13.25","0","attraction","binary","equal_chance_2_JND","left","right","both","2","equal","target",""
"","transfer_trial","categorize-lines","257","2119956","0.0-5.0-0.50","20211015","172","1520","","","","","","","","[272.6843,235.555,213.6553]","[272.6843,235.555,213.6553]","[""j"",""k"",""l""]","[""J"",""K"",""L""]","272.6843","false","null","j","","272.6843","1","null","235.555","213.6553","","","transfer","","9.25","235.555","12.25","272.6843","7.25","213.6553","272.6843","12.25","272.6843","235.555","213.6553","12.25","9.25","7.25","attraction","trinary","difficult","left","right","competitor","1","right","competitor",""
"","transfer_trial","categorize-lines","258","2125228","0.0-5.0-0.51","20211015","172","4200","","","","","","","","[247.3327,272.6843]","[272.6843,247.3327]","[""j"",""k""]","[""J"",""K""]","null","false","null","k","","247.3327","0","null","247.3327","","","","transfer","","10.25","247.3327","12.25","272.6843","","","","","247.3327","272.6843","0","10.25","12.25","0","attraction","binary","equal_chance_1_JND","left","right","both","1","equal","target",""
"","transfer_trial","categorize-lines","259","2130836","0.0-5.0-0.52","20211015","172","4536","","","","","","","","[247.3327,300.6345,224.3381]","[300.6345,224.3381,247.3327]","[""j"",""k"",""l""]","[""J"",""K"",""L""]","247.3327","false","null","j","","300.6345","0","null","224.3381","247.3327","","","transfer","","10.25","247.3327","14.25","300.6345","8.25","224.3381","247.3327","10.25","247.3327","300.6345","224.3381","10.25","14.25","8.25","attraction","trinary","easy","left","right","target","1","left","competitor",""
"","transfer_trial","categorize-lines","260","2133452","0.0-5.0-0.53","20211015","172","1542","","","","","","","","[235.555,286.3185]","[286.3185,235.555]","[""j"",""k""]","[""J"",""K""]","null","false","null","k","","235.555","0","null","235.555","","","","transfer","","13.25","286.3185","9.25","235.555","","","","","235.555","286.3185","0","9.25","13.25","0","attraction","binary","equal_chance_2_JND","right","left","both","2","equal","competitor",""
"","transfer_trial","categorize-lines","261","2138332","0.0-5.0-0.54","20211015","172","3808","","","","","","","","[239.0713,448.3953,269.3784]","[269.3784,448.3953,239.0713]","[""j"",""k"",""l""]","[""J"",""K"",""L""]","239.0713","false","null","l","","239.0713","1","null","448.3953","239.0713","","","transfer","","","","","","","","239.0713","9.5537","239.0713","448.3953","269.3784","9.5537","22.4439","12","filler","trinary","","","","","1.6963","left","NA",""
"","transfer_trial","categorize-lines","262","2142268","0.0-5.0-0.55","20211015","172","2866","","","","","","","","[235.555,286.3185]","[235.555,286.3185]","[""j"",""k""]","[""J"",""K""]","null","false","null","j","","235.555","0","null","286.3185","","","","transfer","","9.25","235.555","13.25","286.3185","","","","","235.555","286.3185","0","9.25","13.25","0","attraction","binary","equal_chance_2_JND","left","right","both","2","equal","target",""
"","transfer_trial","categorize-lines","263","2145068","0.0-5.0-0.56","20211015","172","1726","","","","","","","","[256.5345,203.5786]","[203.5786,256.5345]","[""j"",""k""]","[""J"",""K""]","256.5345","false","null","j","","203.5786","0","null","256.5345","","","","transfer","","","","","","","","256.5345","10.9987","256.5345","203.5786","0","10.9987","6.2598","0","filler","binary","","","","","0.2513","left","NA",""
"","transfer_trial","categorize-lines","264","2147732","0.0-5.0-0.57","20211015","172","1590","","","","","","","","[282.7171,237.1519]","[282.7171,237.1519]","[""j"",""k""]","[""J"",""K""]","282.7171","false","null","k","","237.1519","0","null","237.1519","","","","transfer","","","","","","","","282.7171","12.9906","282.7171","237.1519","0","12.9906","9.3885","0","filler","binary","","","","","1.7406","right","NA",""
"","transfer_trial","categorize-lines","265","2150196","0.0-5.0-0.58","20211015","172","1394","","","","","","","","[247.3327,300.6345,224.3381]","[247.3327,224.3381,300.6345]","[""j"",""k"",""l""]","[""J"",""K"",""L""]","247.3327","false","null","k","","224.3381","0","null","224.3381","300.6345","","","transfer","","10.25","247.3327","14.25","300.6345","8.25","224.3381","247.3327","10.25","247.3327","300.6345","224.3381","10.25","14.25","8.25","attraction","trinary","easy","left","right","target","1","left","decoy",""
"","transfer_trial","categorize-lines","266","2152498","0.0-5.0-0.59","20211015","172","1232","","","","","","","","[247.3327,300.6345]","[300.6345,247.3327]","[""j"",""k""]","[""J"",""K""]","247.3327","false","null","k","","247.3327","1","null","247.3327","","","","transfer","","10.25","247.3327","14.25","300.6345","","","247.3327","10.25","247.3327","300.6345","0","10.25","14.25","0","attraction","binary","easy","left","right","target","1","left","target",""
"","transfer_trial","categorize-lines","267","2154716","0.0-5.0-0.60","20211015","172","1144","","","","","","","","[235.555,286.3185,315.6662]","[235.555,286.3185,315.6662]","[""j"",""k"",""l""]","[""J"",""K"",""L""]","null","false","null","k","","286.3185","0","null","286.3185","315.6662","","","transfer","","13.25","286.3185","9.25","235.555","15.25","315.6662","","","235.555","286.3185","315.6662","9.25","13.25","15.25","attraction","trinary","equal_chance_2_JND","right","left","both","2","equal","target",""
"","transfer_trial","categorize-lines","268","2159916","0.0-5.0-0.61","20211015","172","4128","","","","","","","","[225.2208,219.0756]","[219.0756,225.2208]","[""j"",""k""]","[""J"",""K""]","225.2208","false","null","j","","219.0756","0","null","225.2208","","","","transfer","","","","","","","","225.2208","8.3305","225.2208","219.0756","0","8.3305","7.7635","0","filler","binary","","","","","2.9195","left","NA",""
"","transfer_trial","categorize-lines","269","2162388","0.0-5.0-0.62","20211015","172","1402","","","","","","","","[272.6843,235.555,213.6553]","[213.6553,235.555,272.6843]","[""j"",""k"",""l""]","[""J"",""K"",""L""]","272.6843","false","null","j","","213.6553","0","null","235.555","272.6843","","","transfer","","9.25","235.555","12.25","272.6843","7.25","213.6553","272.6843","12.25","272.6843","235.555","213.6553","12.25","9.25","7.25","attraction","trinary","difficult","left","right","competitor","1","right","decoy",""
"","transfer_trial","categorize-lines","270","2164682","0.0-5.0-0.63","20211015","172","1226","","","","","","","","[235.555,286.3185]","[286.3185,235.555]","[""j"",""k""]","[""J"",""K""]","null","false","null","k","","235.555","0","null","235.555","","","","transfer","","9.25","235.555","13.25","286.3185","","","","","235.555","286.3185","0","9.25","13.25","0","attraction","binary","equal_chance_2_JND","left","right","both","2","equal","target",""
"","transfer_trial","categorize-lines","271","2170282","0.0-5.0-0.64","20211015","172","4528","","","","","","","","[272.6843,224.3381]","[224.3381,272.6843]","[""j"",""k""]","[""J"",""K""]","272.6843","false","null","j","","224.3381","0","null","272.6843","","","","transfer","","8.25","224.3381","12.25","272.6843","","","272.6843","12.25","272.6843","224.3381","0","12.25","8.25","0","attraction","binary","easy","left","right","competitor","1","right","target",""
"","transfer_trial","categorize-lines","272","2203330","0.0-5.0-0.65","20211015","172","31978","","","","","","","","[247.3327,300.6345]","[300.6345,247.3327]","[""j"",""k""]","[""J"",""K""]","247.3327","false","null","k","","247.3327","1","null","247.3327","","","","transfer","","14.25","300.6345","10.25","247.3327","","","247.3327","10.25","247.3327","300.6345","0","10.25","14.25","0","attraction","binary","easy","right","left","competitor","1","left","competitor",""
"","transfer_trial","categorize-lines","273","2205738","0.0-5.0-0.66","20211015","172","1336","","","","","","","","[247.3327,286.3185,224.3381]","[286.3185,224.3381,247.3327]","[""j"",""k"",""l""]","[""J"",""K"",""L""]","247.3327","false","null","k","","224.3381","0","null","224.3381","247.3327","","","transfer","","10.25","247.3327","13.25","286.3185","8.25","224.3381","247.3327","10.25","247.3327","286.3185","224.3381","10.25","13.25","8.25","attraction","trinary","difficult","left","right","target","1","left","decoy",""
"","transfer_trial","categorize-lines","274","2210946","0.0-5.0-0.67","20211015","172","4136","","","","","","","","[247.3327,272.6843]","[272.6843,247.3327]","[""j"",""k""]","[""J"",""K""]","null","false","null","k","","247.3327","0","null","247.3327","","","","transfer","","10.25","247.3327","12.25","272.6843","","","","","247.3327","272.6843","0","10.25","12.25","0","attraction","binary","equal_chance_1_JND","left","right","both","1","equal","target",""
"","transfer_trial","categorize-lines","275","2214546","0.0-5.0-0.68","20211015","172","2530","","","","","","","","[247.3327,272.6843,224.3381]","[247.3327,272.6843,224.3381]","[""j"",""k"",""l""]","[""J"",""K"",""L""]","null","false","null","j","","247.3327","0","null","272.6843","224.3381","","","transfer","","10.25","247.3327","12.25","272.6843","8.25","224.3381","","","247.3327","272.6843","224.3381","10.25","12.25","8.25","attraction","trinary","equal_chance_1_JND","left","right","both","1","equal","target",""
"","transfer_trial","categorize-lines","276","2216746","0.0-5.0-0.69","20211015","172","1130","","","","","","","","[230.8978,283.8988]","[283.8988,230.8978]","[""j"",""k""]","[""J"",""K""]","230.8978","false","null","k","","230.8978","1","null","230.8978","","","","transfer","","","","","","","","230.8978","8.8407","230.8978","283.8988","0","8.8407","13.0761","0","filler","binary","","","","","2.4093","left","NA",""
