"success","screen_id","trial_type","trial_index","time_elapsed","internal_node_id","date","sub_n","rt","response","timeout","failed_images","failed_audio","failed_video","view_history","stim","line_lens","line_lens_order","choices","stim_names","corr_ans","give_fb","in_cat","key_choice","yn_choice","choice","correct","fb_in_cat","stim_1_in_order","stim_2_in_order","stim_3_in_order","line_length","cat_trial_type","jnds","T_psy","T_phys","C_psy","C_phys","D_psy","D_phys","corr_choice","correct_psy","stim_1","stim_2","stim_3","stim_1_psy","stim_2_psy","stim_3_psy","transfer_trial_type","trial_choice_set","difficulty_level","target_side","competitor_side","tc_correct","correct_dist_to_mean","side_correct","attr_choice","stimulus"
"true","enter-fullscreen-mode","fullscreen","0","4468","0.0-0.0","20211015","171","","","","","","","","","","","","","","","","","","","","","","","","","","","","","","","","","","","","","","","","","","","","","","","","","",""
"","enter-sub-number","survey-html-form","1","7640","0.0-1.0","20211015","171","3156","{""response"":""171""}","","","","","","","","","","","","","","","","","","","","","","","","","","","","","","","","","","","","","","","","","","","","","","","",""
"true","","preload","2","7666","0.0-2.0-0.0","20211015","171","","","false","[]","[]","[]","","","","","","","","","","","","","","","","","","","","","","","","","","","","","","","","","","","","","","","","","","","",""
"","instructions","instructions","3","80892","0.0-2.0-1.0","20211015","171","73222","","","","","","[{""page_index"":0,""viewing_time"":6574},{""page_index"":1,""viewing_time"":9552},{""page_index"":2,""viewing_time"":10968},{""page_index"":3,""viewing_time"":27944},{""page_index"":4,""viewing_time"":9912},{""page_index"":5,""viewing_time"":2102},{""page_index"":6,""viewing_time"":6170}]","","","","","","","","","","","","","","","","","","","","","","","","","","","","","","","","","","","","","","","","","","",""
"","demo-lines","draw-demo-lines","4","140908","0.0-2.0-2.0","20211015","171","","","","","","","","lines","","","","","","","","","","","","","","","","","","","","","","","","","","","","","","","","","","","","","","","","","",""
"","click-to-begin-the-experiment","instructions","5","142426","0.0-2.0-3.0","20211015","171","1516","","","","","","[{""page_index"":0,""viewing_time"":1516}]","","","","","","","","","","","","","","","","","","","","","","","","","","","","","","","","","","","","","","","","","","",""
"","learn_trial","categorize-lines","6","148202","0.0-3.0-0.0","20211015","171","3740","","","","","","","","[372.443]","[372.443]","[""u"",""i""]","[""""]","null","true","in","u","YES","","1","in","","","","372.443","learning","18.64","","","","","","","","","","","","","","","","","","","","","","","",""
"","learn_trial","categorize-lines","7","151576","0.0-3.0-0.1","20211015","171","1344","","","","","","","","[389.5417]","[389.5417]","[""u"",""i""]","[""""]","null","true","in","u","YES","","1","in","","","","389.5417","learning","19.56","","","","","","","","","","","","","","","","","","","","","","","",""
"","learn_trial","categorize-lines","8","160096","0.0-3.0-0.2","20211015","171","4488","","","","","","","","[235.555]","[235.555]","[""u"",""i""]","[""""]","null","true","in","i","NO","","0","in","","","","235.555","learning","9.25","","","","","","","","","","","","","","","","","","","","","","","",""
"","learn_trial","categorize-lines","9","165312","0.0-3.0-0.3","20211015","171","3182","","","","","","","","[196.841]","[196.841]","[""u"",""i""]","[""""]","null","true","out","i","NO","","1","out","","","","196.841","learning","5.57","","","","","","","","","","","","","","","","","","","","","","","",""
"","learn_trial","categorize-lines","10","168696","0.0-3.0-0.4","20211015","171","1354","","","","","","","","[356.0948]","[356.0948]","[""u"",""i""]","[""""]","null","true","in","u","YES","","1","in","","","","356.0948","learning","17.72","","","","","","","","","","","","","","","","","","","","","","","",""
"","learn_trial","categorize-lines","11","172072","0.0-3.0-0.5","20211015","171","1346","","","","","","","","[160.2908]","[160.2908]","[""u"",""i""]","[""""]","null","true","out","i","NO","","1","out","","","","160.2908","learning","1.36","","","","","","","","","","","","","","","","","","","","","","","",""
"","learn_trial","categorize-lines","12","177312","0.0-3.0-0.6","20211015","171","1210","","","","","","","","[206.4815]","[206.4815]","[""u"",""i""]","[""""]","null","true","out","u","YES","","0","out","","","","206.4815","learning","6.55","","","","","","","","","","","","","","","","","","","","","","","",""
"","learn_trial","categorize-lines","13","182528","0.0-3.0-0.7","20211015","171","1186","","","","","","","","[228.4247]","[228.4247]","[""u"",""i""]","[""""]","null","true","out","u","YES","","0","out","","","","228.4247","learning","8.62","","","","","","","","","","","","","","","","","","","","","","","",""
"","learn_trial","categorize-lines","14","185612","0.0-3.0-0.8","20211015","171","1050","","","","","","","","[259.5727]","[259.5727]","[""u"",""i""]","[""""]","null","true","in","u","YES","","1","in","","","","259.5727","learning","11.24","","","","","","","","","","","","","","","","","","","","","","","",""
"","learn_trial","categorize-lines","15","190958","0.0-3.0-0.9","20211015","171","1314","","","","","","","","[284.5082]","[284.5082]","[""u"",""i""]","[""""]","null","true","out","u","YES","","0","out","","","","284.5082","learning","13.12","","","","","","","","","","","","","","","","","","","","","","","",""
"","learn_trial","categorize-lines","16","193640","0.0-3.0-0.10","20211015","171","652","","","","","","","","[314.8971]","[314.8971]","[""u"",""i""]","[""""]","null","true","in","u","YES","","1","in","","","","314.8971","learning","15.2","","","","","","","","","","","","","","","","","","","","","","","",""
"","learn_trial","categorize-lines","17","198776","0.0-3.0-0.11","20211015","171","1106","","","","","","","","[219.1453]","[219.1453]","[""u"",""i""]","[""""]","null","true","in","i","NO","","0","in","","","","219.1453","learning","7.77","","","","","","","","","","","","","","","","","","","","","","","",""
"","learn_trial","categorize-lines","18","201632","0.0-3.0-0.12","20211015","171","826","","","","","","","","[260.715]","[260.715]","[""u"",""i""]","[""""]","null","true","in","u","YES","","1","in","","","","260.715","learning","11.33","","","","","","","","","","","","","","","","","","","","","","","",""
"","learn_trial","categorize-lines","19","204576","0.0-3.0-0.13","20211015","171","916","","","","","","","","[303.4343]","[303.4343]","[""u"",""i""]","[""""]","null","true","in","u","YES","","1","in","","","","303.4343","learning","14.44","","","","","","","","","","","","","","","","","","","","","","","",""
"","learn_trial","categorize-lines","20","209646","0.0-3.0-0.14","20211015","171","1042","","","","","","","","[335.8447]","[335.8447]","[""u"",""i""]","[""""]","null","true","out","u","YES","","0","out","","","","335.8447","learning","16.52","","","","","","","","","","","","","","","","","","","","","","","",""
"","learn_trial","categorize-lines","21","214496","0.0-3.0-0.15","20211015","171","816","","","","","","","","[351.2632]","[351.2632]","[""u"",""i""]","[""""]","null","true","out","u","YES","","0","out","","","","351.2632","learning","17.44","","","","","","","","","","","","","","","","","","","","","","","",""
"","learn_trial","categorize-lines","22","217704","0.0-3.0-0.16","20211015","171","1176","","","","","","","","[235.0957]","[235.0957]","[""u"",""i""]","[""""]","null","true","in","u","YES","","1","in","","","","235.0957","learning","9.21","","","","","","","","","","","","","","","","","","","","","","","",""
"","learn_trial","categorize-lines","23","220840","0.0-3.0-0.17","20211015","171","1094","","","","","","","","[177.9319]","[177.9319]","[""u"",""i""]","[""""]","null","true","out","i","NO","","1","out","","","","177.9319","learning","3.5","","","","","","","","","","","","","","","","","","","","","","","",""
"","learn_trial","categorize-lines","24","226064","0.0-3.0-0.18","20211015","171","1194","","","","","","","","[290.1153]","[290.1153]","[""u"",""i""]","[""""]","null","true","in","i","NO","","0","in","","","","290.1153","learning","13.52","","","","","","","","","","","","","","","","","","","","","","","",""
"","learn_trial","categorize-lines","25","229128","0.0-3.0-0.19","20211015","171","1034","","","","","","","","[234.4085]","[234.4085]","[""u"",""i""]","[""""]","null","true","out","i","NO","","1","out","","","","234.4085","learning","9.15","","","","","","","","","","","","","","","","","","","","","","","",""
"","learn_trial","categorize-lines","26","232152","0.0-3.0-0.20","20211015","171","996","","","","","","","","[240.0801]","[240.0801]","[""u"",""i""]","[""""]","null","true","out","i","NO","","1","out","","","","240.0801","learning","9.64","","","","","","","","","","","","","","","","","","","","","","","",""
"","learn_trial","categorize-lines","27","234968","0.0-3.0-0.21","20211015","171","786","","","","","","","","[289.5496]","[289.5496]","[""u"",""i""]","[""""]","null","true","in","u","YES","","1","in","","","","289.5496","learning","13.48","","","","","","","","","","","","","","","","","","","","","","","",""
"","learn_trial","categorize-lines","28","239960","0.0-3.0-0.22","20211015","171","964","","","","","","","","[319.0728]","[319.0728]","[""u"",""i""]","[""""]","null","true","in","i","NO","","0","in","","","","319.0728","learning","15.47","","","","","","","","","","","","","","","","","","","","","","","",""
"","learn_trial","categorize-lines","29","244760","0.0-3.0-0.23","20211015","171","772","","","","","","","","[378.8576]","[378.8576]","[""u"",""i""]","[""""]","null","true","out","u","YES","","0","out","","","","378.8576","learning","18.99","","","","","","","","","","","","","","","","","","","","","","","",""
"","learn_trial","categorize-lines","30","250184","0.0-3.0-0.24","20211015","171","1396","","","","","","","","[260.715]","[260.715]","[""u"",""i""]","[""""]","null","true","in","i","NO","","0","in","","","","260.715","learning","11.33","","","","","","","","","","","","","","","","","","","","","","","",""
"","learn_trial","categorize-lines","31","255520","0.0-3.0-0.25","20211015","171","1308","","","","","","","","[215.1197]","[215.1197]","[""u"",""i""]","[""""]","null","true","in","i","NO","","0","in","","","","215.1197","learning","7.39","","","","","","","","","","","","","","","","","","","","","","","",""
"","learn_trial","categorize-lines","32","258320","0.0-3.0-0.26","20211015","171","772","","","","","","","","[258.5615]","[258.5615]","[""u"",""i""]","[""""]","null","true","in","u","YES","","1","in","","","","258.5615","learning","11.16","","","","","","","","","","","","","","","","","","","","","","","",""
"","learn_trial","categorize-lines","33","263286","0.0-3.0-0.27","20211015","171","938","","","","","","","","[244.931]","[244.931]","[""u"",""i""]","[""""]","null","true","out","u","YES","","0","out","","","","244.931","learning","10.05","","","","","","","","","","","","","","","","","","","","","","","",""
"","learn_trial","categorize-lines","34","266998","0.0-3.0-0.28","20211015","171","1684","","","","","","","","[275.2239]","[275.2239]","[""u"",""i""]","[""""]","null","true","in","u","YES","","1","in","","","","275.2239","learning","12.44","","","","","","","","","","","","","","","","","","","","","","","",""
"","learn_trial","categorize-lines","35","269848","0.0-3.0-0.29","20211015","171","816","","","","","","","","[155.8185]","[155.8185]","[""u"",""i""]","[""""]","null","true","out","i","NO","","1","out","","","","155.8185","learning","0.78","","","","","","","","","","","","","","","","","","","","","","","",""
"","learn_trial","categorize-lines","36","273246","0.0-3.0-0.30","20211015","171","1372","","","","","","","","[367.2103]","[367.2103]","[""u"",""i""]","[""""]","null","true","out","i","NO","","1","out","","","","367.2103","learning","18.35","","","","","","","","","","","","","","","","","","","","","","","",""
"","learn_trial","categorize-lines","37","278840","0.0-3.0-0.31","20211015","171","1564","","","","","","","","[189.1213]","[189.1213]","[""u"",""i""]","[""""]","null","true","out","u","YES","","0","out","","","","189.1213","learning","4.75","","","","","","","","","","","","","","","","","","","","","","","",""
"","learn_trial","categorize-lines","38","281712","0.0-3.0-0.32","20211015","171","842","","","","","","","","[233.8373]","[233.8373]","[""u"",""i""]","[""""]","null","true","in","u","YES","","1","in","","","","233.8373","learning","9.1","","","","","","","","","","","","","","","","","","","","","","","",""
"","learn_trial","categorize-lines","39","285518","0.0-3.0-0.33","20211015","171","1780","","","","","","","","[327.7509]","[327.7509]","[""u"",""i""]","[""""]","null","true","in","u","YES","","1","in","","","","327.7509","learning","16.02","","","","","","","","","","","","","","","","","","","","","","","",""
"","learn_trial","categorize-lines","40","288488","0.0-3.0-0.34","20211015","171","942","","","","","","","","[224.886]","[224.886]","[""u"",""i""]","[""""]","null","true","in","u","YES","","1","in","","","","224.886","learning","8.3","","","","","","","","","","","","","","","","","","","","","","","",""
"","learn_trial","categorize-lines","41","291566","0.0-3.0-0.35","20211015","171","1052","","","","","","","","[367.7482]","[367.7482]","[""u"",""i""]","[""""]","null","true","out","i","NO","","1","out","","","","367.7482","learning","18.38","","","","","","","","","","","","","","","","","","","","","","","",""
"","learn_trial","categorize-lines","42","295494","0.0-3.0-0.36","20211015","171","1900","","","","","","","","[197.4181]","[197.4181]","[""u"",""i""]","[""""]","null","true","in","u","YES","","1","in","","","","197.4181","learning","5.63","","","","","","","","","","","","","","","","","","","","","","","",""
"","learn_trial","categorize-lines","43","298302","0.0-3.0-0.37","20211015","171","782","","","","","","","","[158.6569]","[158.6569]","[""u"",""i""]","[""""]","null","true","out","i","NO","","1","out","","","","158.6569","learning","1.15","","","","","","","","","","","","","","","","","","","","","","","",""
"","learn_trial","categorize-lines","44","301520","0.0-3.0-0.38","20211015","171","1188","","","","","","","","[441.7966]","[441.7966]","[""u"",""i""]","[""""]","null","true","out","i","NO","","1","out","","","","441.7966","learning","22.14","","","","","","","","","","","","","","","","","","","","","","","",""
"","learn_trial","categorize-lines","45","304406","0.0-3.0-0.39","20211015","171","860","","","","","","","","[286.0393]","[286.0393]","[""u"",""i""]","[""""]","null","true","in","u","YES","","1","in","","","","286.0393","learning","13.23","","","","","","","","","","","","","","","","","","","","","","","",""
"","learn_trial","categorize-lines","46","307638","0.0-3.0-0.40","20211015","171","1204","","","","","","","","[232.019]","[232.019]","[""u"",""i""]","[""""]","null","true","in","u","YES","","1","in","","","","232.019","learning","8.94","","","","","","","","","","","","","","","","","","","","","","","",""
"","learn_trial","categorize-lines","47","310726","0.0-3.0-0.41","20211015","171","1060","","","","","","","","[383.8815]","[383.8815]","[""u"",""i""]","[""""]","null","true","out","i","NO","","1","out","","","","383.8815","learning","19.26","","","","","","","","","","","","","","","","","","","","","","","",""
"","learn_trial","categorize-lines","48","314136","0.0-3.0-0.42","20211015","171","1380","","","","","","","","[278.0583]","[278.0583]","[""u"",""i""]","[""""]","null","true","in","u","YES","","1","in","","","","278.0583","learning","12.65","","","","","","","","","","","","","","","","","","","","","","","",""
"","learn_trial","categorize-lines","49","317094","0.0-3.0-0.43","20211015","171","932","","","","","","","","[381.2683]","[381.2683]","[""u"",""i""]","[""""]","null","true","out","i","NO","","1","out","","","","381.2683","learning","19.12","","","","","","","","","","","","","","","","","","","","","","","",""
"","learn_trial","categorize-lines","50","319998","0.0-3.0-0.44","20211015","171","876","","","","","","","","[260.5878]","[260.5878]","[""u"",""i""]","[""""]","null","true","in","u","YES","","1","in","","","","260.5878","learning","11.32","","","","","","","","","","","","","","","","","","","","","","","",""
"","learn_trial","categorize-lines","51","323326","0.0-3.0-0.45","20211015","171","1294","","","","","","","","[185.4662]","[185.4662]","[""u"",""i""]","[""""]","null","true","out","i","NO","","1","out","","","","185.4662","learning","4.35","","","","","","","","","","","","","","","","","","","","","","","",""
"","learn_trial","categorize-lines","52","327430","0.0-3.0-0.46","20211015","171","2076","","","","","","","","[205.4765]","[205.4765]","[""u"",""i""]","[""""]","null","true","in","u","YES","","1","in","","","","205.4765","learning","6.45","","","","","","","","","","","","","","","","","","","","","","","",""
"","learn_trial","categorize-lines","53","330254","0.0-3.0-0.47","20211015","171","796","","","","","","","","[231.4537]","[231.4537]","[""u"",""i""]","[""""]","null","true","in","u","YES","","1","in","","","","231.4537","learning","8.89","","","","","","","","","","","","","","","","","","","","","","","",""
"","learn_trial","categorize-lines","54","335062","0.0-3.0-0.48","20211015","171","780","","","","","","","","[257.4286]","[257.4286]","[""u"",""i""]","[""""]","null","true","out","u","YES","","0","out","","","","257.4286","learning","11.07","","","","","","","","","","","","","","","","","","","","","","","",""
"","learn_trial","categorize-lines","55","338134","0.0-3.0-0.49","20211015","171","1044","","","","","","","","[248.5424]","[248.5424]","[""u"",""i""]","[""""]","null","true","in","u","YES","","1","in","","","","248.5424","learning","10.35","","","","","","","","","","","","","","","","","","","","","","","",""
"","learn_trial","categorize-lines","56","342288","0.0-3.0-0.50","20211015","171","2124","","","","","","","","[340.7966]","[340.7966]","[""u"",""i""]","[""""]","null","true","out","i","NO","","1","out","","","","340.7966","learning","16.82","","","","","","","","","","","","","","","","","","","","","","","",""
"","learn_trial","categorize-lines","57","345494","0.0-3.0-0.51","20211015","171","1180","","","","","","","","[338.8071]","[338.8071]","[""u"",""i""]","[""""]","null","true","out","i","NO","","1","out","","","","338.8071","learning","16.7","","","","","","","","","","","","","","","","","","","","","","","",""
"","learn_trial","categorize-lines","58","348198","0.0-3.0-0.52","20211015","171","676","","","","","","","","[414.0384]","[414.0384]","[""u"",""i""]","[""""]","null","true","out","i","NO","","1","out","","","","414.0384","learning","20.81","","","","","","","","","","","","","","","","","","","","","","","",""
"","learn_trial","categorize-lines","59","351102","0.0-3.0-0.53","20211015","171","876","","","","","","","","[153.0308]","[153.0308]","[""u"",""i""]","[""""]","null","true","out","i","NO","","1","out","","","","153.0308","learning","0.41","","","","","","","","","","","","","","","","","","","","","","","",""
"","learn_trial","categorize-lines","60","353678","0.0-3.0-0.54","20211015","171","548","","","","","","","","[251.8382]","[251.8382]","[""u"",""i""]","[""""]","null","true","in","u","YES","","1","in","","","","251.8382","learning","10.62","","","","","","","","","","","","","","","","","","","","","","","",""
"","learn_trial","categorize-lines","61","356446","0.0-3.0-0.55","20211015","171","740","","","","","","","","[242.9078]","[242.9078]","[""u"",""i""]","[""""]","null","true","in","u","YES","","1","in","","","","242.9078","learning","9.88","","","","","","","","","","","","","","","","","","","","","","","",""
"","learn_trial","categorize-lines","62","361102","0.0-3.0-0.56","20211015","171","628","","","","","","","","[306.8586]","[306.8586]","[""u"",""i""]","[""""]","null","true","out","u","YES","","0","out","","","","306.8586","learning","14.67","","","","","","","","","","","","","","","","","","","","","","","",""
"","learn_trial","categorize-lines","63","363918","0.0-3.0-0.57","20211015","171","790","","","","","","","","[433.4695]","[433.4695]","[""u"",""i""]","[""""]","null","true","out","i","NO","","1","out","","","","433.4695","learning","21.75","","","","","","","","","","","","","","","","","","","","","","","",""
"","learn_trial","categorize-lines","64","367334","0.0-3.0-0.58","20211015","171","1390","","","","","","","","[269.5099]","[269.5099]","[""u"",""i""]","[""""]","null","true","in","u","YES","","1","in","","","","269.5099","learning","12.01","","","","","","","","","","","","","","","","","","","","","","","",""
"","learn_trial","categorize-lines","65","369958","0.0-3.0-0.59","20211015","171","598","","","","","","","","[426.7543]","[426.7543]","[""u"",""i""]","[""""]","null","true","out","i","NO","","1","out","","","","426.7543","learning","21.43","","","","","","","","","","","","","","","","","","","","","","","",""
"","learn_trial","categorize-lines","66","374726","0.0-3.0-0.60","20211015","171","740","","","","","","","","[228.0906]","[228.0906]","[""u"",""i""]","[""""]","null","true","out","u","YES","","0","out","","","","228.0906","learning","8.59","","","","","","","","","","","","","","","","","","","","","","","",""
"","learn_trial","categorize-lines","67","379582","0.0-3.0-0.61","20211015","171","828","","","","","","","","[186.2824]","[186.2824]","[""u"",""i""]","[""""]","null","true","in","i","NO","","0","in","","","","186.2824","learning","4.44","","","","","","","","","","","","","","","","","","","","","","","",""
"","learn_trial","categorize-lines","68","382334","0.0-3.0-0.62","20211015","171","722","","","","","","","","[292.2463]","[292.2463]","[""u"",""i""]","[""""]","null","true","in","u","YES","","1","in","","","","292.2463","learning","13.67","","","","","","","","","","","","","","","","","","","","","","","",""
"","learn_trial","categorize-lines","69","385118","0.0-3.0-0.63","20211015","171","754","","","","","","","","[380.8964]","[380.8964]","[""u"",""i""]","[""""]","null","true","out","i","NO","","1","out","","","","380.8964","learning","19.1","","","","","","","","","","","","","","","","","","","","","","","",""
"","learn_trial","categorize-lines","70","388182","0.0-3.0-0.64","20211015","171","1036","","","","","","","","[215.1197]","[215.1197]","[""u"",""i""]","[""""]","null","true","in","u","YES","","1","in","","","","215.1197","learning","7.39","","","","","","","","","","","","","","","","","","","","","","","",""
"","learn_trial","categorize-lines","71","392982","0.0-3.0-0.65","20211015","171","770","","","","","","","","[304.621]","[304.621]","[""u"",""i""]","[""""]","null","true","out","u","YES","","0","out","","","","304.621","learning","14.52","","","","","","","","","","","","","","","","","","","","","","","",""
"","learn_trial","categorize-lines","72","397934","0.0-3.0-0.66","20211015","171","922","","","","","","","","[356.0948]","[356.0948]","[""u"",""i""]","[""""]","null","true","in","i","NO","","0","in","","","","356.0948","learning","17.72","","","","","","","","","","","","","","","","","","","","","","","",""
"","learn_trial","categorize-lines","73","400918","0.0-3.0-0.67","20211015","171","954","","","","","","","","[219.6805]","[219.6805]","[""u"",""i""]","[""""]","null","true","in","u","YES","","1","in","","","","219.6805","learning","7.82","","","","","","","","","","","","","","","","","","","","","","","",""
"","learn_trial","categorize-lines","74","403662","0.0-3.0-0.68","20211015","171","716","","","","","","","","[259.6994]","[259.6994]","[""u"",""i""]","[""""]","null","true","in","u","YES","","1","in","","","","259.6994","learning","11.25","","","","","","","","","","","","","","","","","","","","","","","",""
"","learn_trial","categorize-lines","75","406542","0.0-3.0-0.69","20211015","171","846","","","","","","","","[297.2797]","[297.2797]","[""u"",""i""]","[""""]","null","true","in","u","YES","","1","in","","","","297.2797","learning","14.02","","","","","","","","","","","","","","","","","","","","","","","",""
"","learn_trial","categorize-lines","76","409382","0.0-3.0-0.70","20211015","171","810","","","","","","","","[287.8593]","[287.8593]","[""u"",""i""]","[""""]","null","true","in","u","YES","","1","in","","","","287.8593","learning","13.36","","","","","","","","","","","","","","","","","","","","","","","",""
"","learn_trial","categorize-lines","77","412446","0.0-3.0-0.71","20211015","171","1036","","","","","","","","[183.2177]","[183.2177]","[""u"",""i""]","[""""]","null","true","out","i","NO","","1","out","","","","183.2177","learning","4.1","","","","","","","","","","","","","","","","","","","","","","","",""
"","learn_trial","categorize-lines","78","415438","0.0-3.0-0.72","20211015","171","962","","","","","","","","[324.5682]","[324.5682]","[""u"",""i""]","[""""]","null","true","in","u","YES","","1","in","","","","324.5682","learning","15.82","","","","","","","","","","","","","","","","","","","","","","","",""
"","learn_trial","categorize-lines","79","418758","0.0-3.0-0.73","20211015","171","1292","","","","","","","","[219.1453]","[219.1453]","[""u"",""i""]","[""""]","null","true","in","u","YES","","1","in","","","","219.1453","learning","7.77","","","","","","","","","","","","","","","","","","","","","","","",""
"","learn_trial","categorize-lines","80","421470","0.0-3.0-0.74","20211015","171","684","","","","","","","","[241.7256]","[241.7256]","[""u"",""i""]","[""""]","null","true","in","u","YES","","1","in","","","","241.7256","learning","9.78","","","","","","","","","","","","","","","","","","","","","","","",""
"","learn_trial","categorize-lines","81","426062","0.0-3.0-0.75","20211015","171","564","","","","","","","","[273.0837]","[273.0837]","[""u"",""i""]","[""""]","null","true","out","u","YES","","0","out","","","","273.0837","learning","12.28","","","","","","","","","","","","","","","","","","","","","","","",""
"","learn_trial","categorize-lines","82","429254","0.0-3.0-0.76","20211015","171","1160","","","","","","","","[305.9616]","[305.9616]","[""u"",""i""]","[""""]","null","true","in","u","YES","","1","in","","","","305.9616","learning","14.61","","","","","","","","","","","","","","","","","","","","","","","",""
"","learn_trial","categorize-lines","83","434662","0.0-3.0-0.77","20211015","171","1378","","","","","","","","[196.2656]","[196.2656]","[""u"",""i""]","[""""]","null","true","in","i","NO","","0","in","","","","196.2656","learning","5.51","","","","","","","","","","","","","","","","","","","","","","","",""
"","learn_trial","categorize-lines","84","437518","0.0-3.0-0.78","20211015","171","828","","","","","","","","[234.2942]","[234.2942]","[""u"",""i""]","[""""]","null","true","in","u","YES","","1","in","","","","234.2942","learning","9.14","","","","","","","","","","","","","","","","","","","","","","","",""
"","learn_trial","categorize-lines","85","440262","0.0-3.0-0.79","20211015","171","714","","","","","","","","[269.773]","[269.773]","[""u"",""i""]","[""""]","null","true","in","u","YES","","1","in","","","","269.773","learning","12.03","","","","","","","","","","","","","","","","","","","","","","","",""
"","learn_trial","categorize-lines","86","443150","0.0-3.0-0.80","20211015","171","858","","","","","","","","[286.1789]","[286.1789]","[""u"",""i""]","[""""]","null","true","in","u","YES","","1","in","","","","286.1789","learning","13.24","","","","","","","","","","","","","","","","","","","","","","","",""
"","learn_trial","categorize-lines","87","446254","0.0-3.0-0.81","20211015","171","1074","","","","","","","","[346.6662]","[346.6662]","[""u"",""i""]","[""""]","null","true","in","u","YES","","1","in","","","","346.6662","learning","17.17","","","","","","","","","","","","","","","","","","","","","","","",""
"","learn_trial","categorize-lines","88","450958","0.0-3.0-0.82","20211015","171","674","","","","","","","","[274.6873]","[274.6873]","[""u"",""i""]","[""""]","null","true","out","u","YES","","0","out","","","","274.6873","learning","12.4","","","","","","","","","","","","","","","","","","","","","","","",""
"","learn_trial","categorize-lines","89","455966","0.0-3.0-0.83","20211015","171","978","","","","","","","","[226.3169]","[226.3169]","[""u"",""i""]","[""""]","null","true","out","u","YES","","0","out","","","","226.3169","learning","8.43","","","","","","","","","","","","","","","","","","","","","","","",""
"","learn_trial","categorize-lines","90","461150","0.0-3.0-0.84","20211015","171","1154","","","","","","","","[325.361]","[325.361]","[""u"",""i""]","[""""]","null","true","out","u","YES","","0","out","","","","325.361","learning","15.87","","","","","","","","","","","","","","","","","","","","","","","",""
"","learn_trial","categorize-lines","91","465392","0.0-3.0-0.85","20211015","171","2212","","","","","","","","[225.3253]","[225.3253]","[""u"",""i""]","[""""]","null","true","in","u","YES","","1","in","","","","225.3253","learning","8.34","","","","","","","","","","","","","","","","","","","","","","","",""
"","learn_trial","categorize-lines","92","470600","0.0-3.0-0.86","20211015","171","1172","","","","","","","","[223.4641]","[223.4641]","[""u"",""i""]","[""""]","null","true","out","u","YES","","0","out","","","","223.4641","learning","8.17","","","","","","","","","","","","","","","","","","","","","","","",""
"","learn_trial","categorize-lines","93","473470","0.0-3.0-0.87","20211015","171","840","","","","","","","","[281.4707]","[281.4707]","[""u"",""i""]","[""""]","null","true","in","u","YES","","1","in","","","","281.4707","learning","12.9","","","","","","","","","","","","","","","","","","","","","","","",""
"","learn_trial","categorize-lines","94","478534","0.0-3.0-0.88","20211015","171","1032","","","","","","","","[319.8521]","[319.8521]","[""u"",""i""]","[""""]","null","true","in","i","NO","","0","in","","","","319.8521","learning","15.52","","","","","","","","","","","","","","","","","","","","","","","",""
"","learn_trial","categorize-lines","95","481398","0.0-3.0-0.89","20211015","171","832","","","","","","","","[395.4783]","[395.4783]","[""u"",""i""]","[""""]","null","true","out","i","NO","","1","out","","","","395.4783","learning","19.87","","","","","","","","","","","","","","","","","","","","","","","",""
"","learn_trial","categorize-lines","96","486262","0.0-3.0-0.90","20211015","171","834","","","","","","","","[238.6785]","[238.6785]","[""u"",""i""]","[""""]","null","true","out","u","YES","","0","out","","","","238.6785","learning","9.52","","","","","","","","","","","","","","","","","","","","","","","",""
"","learn_trial","categorize-lines","97","489078","0.0-3.0-0.91","20211015","171","786","","","","","","","","[352.1211]","[352.1211]","[""u"",""i""]","[""""]","null","true","out","i","NO","","1","out","","","","352.1211","learning","17.49","","","","","","","","","","","","","","","","","","","","","","","",""
"","learn_trial","categorize-lines","98","491734","0.0-3.0-0.92","20211015","171","626","","","","","","","","[271.7546]","[271.7546]","[""u"",""i""]","[""""]","null","true","in","u","YES","","1","in","","","","271.7546","learning","12.18","","","","","","","","","","","","","","","","","","","","","","","",""
"","learn_trial","categorize-lines","99","496966","0.0-3.0-0.93","20211015","171","1204","","","","","","","","[249.3927]","[249.3927]","[""u"",""i""]","[""""]","null","true","out","u","YES","","0","out","","","","249.3927","learning","10.42","","","","","","","","","","","","","","","","","","","","","","","",""
"","learn_trial","categorize-lines","100","502750","0.0-3.0-0.94","20211015","171","1756","","","","","","","","[262.5019]","[262.5019]","[""u"",""i""]","[""""]","null","true","in","i","NO","","0","in","","","","262.5019","learning","11.47","","","","","","","","","","","","","","","","","","","","","","","",""
"","learn_trial","categorize-lines","101","505856","0.0-3.0-0.95","20211015","171","1074","","","","","","","","[304.3239]","[304.3239]","[""u"",""i""]","[""""]","null","true","in","u","YES","","1","in","","","","304.3239","learning","14.5","","","","","","","","","","","","","","","","","","","","","","","",""
"","learn_trial","categorize-lines","102","508888","0.0-3.0-0.96","20211015","171","998","","","","","","","","[351.4346]","[351.4346]","[""u"",""i""]","[""""]","null","true","in","u","YES","","1","in","","","","351.4346","learning","17.45","","","","","","","","","","","","","","","","","","","","","","","",""
"","learn_trial","categorize-lines","103","514294","0.0-3.0-0.97","20211015","171","1376","","","","","","","","[197.1294]","[197.1294]","[""u"",""i""]","[""""]","null","true","out","u","YES","","0","out","","","","197.1294","learning","5.6","","","","","","","","","","","","","","","","","","","","","","","",""
"","learn_trial","categorize-lines","104","519526","0.0-3.0-0.98","20211015","171","1200","","","","","","","","[338.1466]","[338.1466]","[""u"",""i""]","[""""]","null","true","out","u","YES","","0","out","","","","338.1466","learning","16.66","","","","","","","","","","","","","","","","","","","","","","","",""
"","learn_trial","categorize-lines","105","522470","0.0-3.0-0.99","20211015","171","916","","","","","","","","[427.3794]","[427.3794]","[""u"",""i""]","[""""]","null","true","out","i","NO","","1","out","","","","427.3794","learning","21.46","","","","","","","","","","","","","","","","","","","","","","","",""
"","learn_trial","categorize-lines","106","527462","0.0-3.0-0.100","20211015","171","964","","","","","","","","[282.8474]","[282.8474]","[""u"",""i""]","[""""]","null","true","out","u","YES","","0","out","","","","282.8474","learning","13","","","","","","","","","","","","","","","","","","","","","","","",""
"","learn_trial","categorize-lines","107","530956","0.0-3.0-0.101","20211015","171","1468","","","","","","","","[301.663]","[301.663]","[""u"",""i""]","[""""]","null","true","in","u","YES","","1","in","","","","301.663","learning","14.32","","","","","","","","","","","","","","","","","","","","","","","",""
"","learn_trial","categorize-lines","108","535766","0.0-3.0-0.102","20211015","171","780","","","","","","","","[300.928]","[300.928]","[""u"",""i""]","[""""]","null","true","out","u","YES","","0","out","","","","300.928","learning","14.27","","","","","","","","","","","","","","","","","","","","","","","",""
"","learn_trial","categorize-lines","109","539292","0.0-3.0-0.103","20211015","171","1498","","","","","","","","[186.3733]","[186.3733]","[""u"",""i""]","[""""]","null","true","out","i","NO","","1","out","","","","186.3733","learning","4.45","","","","","","","","","","","","","","","","","","","","","","","",""
"","learn_trial","categorize-lines","110","543982","0.0-3.0-0.104","20211015","171","660","","","","","","","","[266.7626]","[266.7626]","[""u"",""i""]","[""""]","null","true","out","u","YES","","0","out","","","","266.7626","learning","11.8","","","","","","","","","","","","","","","","","","","","","","","",""
"","learn_trial","categorize-lines","111","548830","0.0-3.0-0.105","20211015","171","818","","","","","","","","[215.6451]","[215.6451]","[""u"",""i""]","[""""]","null","true","out","u","YES","","0","out","","","","215.6451","learning","7.44","","","","","","","","","","","","","","","","","","","","","","","",""
"","learn_trial","categorize-lines","112","554750","0.0-3.0-0.106","20211015","171","1892","","","","","","","","[354.016]","[354.016]","[""u"",""i""]","[""""]","null","true","in","i","NO","","0","in","","","","354.016","learning","17.6","","","","","","","","","","","","","","","","","","","","","","","",""
"","learn_trial","categorize-lines","113","557564","0.0-3.0-0.107","20211015","171","788","","","","","","","","[226.0962]","[226.0962]","[""u"",""i""]","[""""]","null","true","in","u","YES","","1","in","","","","226.0962","learning","8.41","","","","","","","","","","","","","","","","","","","","","","","",""
"","learn_trial","categorize-lines","114","562638","0.0-3.0-0.108","20211015","171","1044","","","","","","","","[261.0969]","[261.0969]","[""u"",""i""]","[""""]","null","true","out","u","YES","","0","out","","","","261.0969","learning","11.36","","","","","","","","","","","","","","","","","","","","","","","",""
"","learn_trial","categorize-lines","115","565550","0.0-3.0-0.109","20211015","171","882","","","","","","","","[245.4095]","[245.4095]","[""u"",""i""]","[""""]","null","true","in","u","YES","","1","in","","","","245.4095","learning","10.09","","","","","","","","","","","","","","","","","","","","","","","",""
"","learn_trial","categorize-lines","116","568596","0.0-3.0-0.110","20211015","171","1020","","","","","","","","[306.8586]","[306.8586]","[""u"",""i""]","[""""]","null","true","in","u","YES","","1","in","","","","306.8586","learning","14.67","","","","","","","","","","","","","","","","","","","","","","","",""
"","learn_trial","categorize-lines","117","571314","0.0-3.0-0.111","20211015","171","684","","","","","","","","[237.6328]","[237.6328]","[""u"",""i""]","[""""]","null","true","in","u","YES","","1","in","","","","237.6328","learning","9.43","","","","","","","","","","","","","","","","","","","","","","","",""
"","learn_trial","categorize-lines","118","576470","0.0-3.0-0.112","20211015","171","1124","","","","","","","","[214.9099]","[214.9099]","[""u"",""i""]","[""""]","null","true","out","u","YES","","0","out","","","","214.9099","learning","7.37","","","","","","","","","","","","","","","","","","","","","","","",""
"","learn_trial","categorize-lines","119","581342","0.0-3.0-0.113","20211015","171","844","","","","","","","","[315.3583]","[315.3583]","[""u"",""i""]","[""""]","null","true","out","u","YES","","0","out","","","","315.3583","learning","15.23","","","","","","","","","","","","","","","","","","","","","","","",""
"","learn_trial","categorize-lines","120","583972","0.0-3.0-0.114","20211015","171","604","","","","","","","","[160.4473]","[160.4473]","[""u"",""i""]","[""""]","null","true","out","i","NO","","1","out","","","","160.4473","learning","1.38","","","","","","","","","","","","","","","","","","","","","","","",""
"","learn_trial","categorize-lines","121","586636","0.0-3.0-0.115","20211015","171","636","","","","","","","","[157.3464]","[157.3464]","[""u"",""i""]","[""""]","null","true","out","i","NO","","1","out","","","","157.3464","learning","0.98","","","","","","","","","","","","","","","","","","","","","","","",""
"","learn_trial","categorize-lines","122","589444","0.0-3.0-0.116","20211015","171","780","","","","","","","","[308.8111]","[308.8111]","[""u"",""i""]","[""""]","null","true","in","u","YES","","1","in","","","","308.8111","learning","14.8","","","","","","","","","","","","","","","","","","","","","","","",""
"","learn_trial","categorize-lines","123","593318","0.0-3.0-0.117","20211015","171","1844","","","","","","","","[193.6971]","[193.6971]","[""u"",""i""]","[""""]","null","true","in","u","YES","","1","in","","","","193.6971","learning","5.24","","","","","","","","","","","","","","","","","","","","","","","",""
"","learn_trial","categorize-lines","124","598364","0.0-3.0-0.118","20211015","171","1020","","","","","","","","[172.2094]","[172.2094]","[""u"",""i""]","[""""]","null","true","out","u","YES","","0","out","","","","172.2094","learning","2.83","","","","","","","","","","","","","","","","","","","","","","","",""
"","learn_trial","categorize-lines","125","603814","0.0-3.0-0.119","20211015","171","1420","","","","","","","","[255.801]","[255.801]","[""u"",""i""]","[""""]","null","true","out","u","YES","","0","out","","","","255.801","learning","10.94","","","","","","","","","","","","","","","","","","","","","","","",""
"","learn_trial","categorize-lines","126","607012","0.0-3.0-0.120","20211015","171","1170","","","","","","","","[198.8682]","[198.8682]","[""u"",""i""]","[""""]","null","true","in","u","YES","","1","in","","","","198.8682","learning","5.78","","","","","","","","","","","","","","","","","","","","","","","",""
"","learn_trial","categorize-lines","127","610164","0.0-3.0-0.121","20211015","171","1124","","","","","","","","[414.4426]","[414.4426]","[""u"",""i""]","[""""]","null","true","out","i","NO","","1","out","","","","414.4426","learning","20.83","","","","","","","","","","","","","","","","","","","","","","","",""
"","learn_trial","categorize-lines","128","615006","0.0-3.0-0.122","20211015","171","812","","","","","","","","[272.5513]","[272.5513]","[""u"",""i""]","[""""]","null","true","out","u","YES","","0","out","","","","272.5513","learning","12.24","","","","","","","","","","","","","","","","","","","","","","","",""
"","learn_trial","categorize-lines","129","619940","0.0-3.0-0.123","20211015","171","908","","","","","","","","[214.2817]","[214.2817]","[""u"",""i""]","[""""]","null","true","out","u","YES","","0","out","","","","214.2817","learning","7.31","","","","","","","","","","","","","","","","","","","","","","","",""
"","learn_trial","categorize-lines","130","622726","0.0-3.0-0.124","20211015","171","756","","","","","","","","[173.1362]","[173.1362]","[""u"",""i""]","[""""]","null","true","out","i","NO","","1","out","","","","173.1362","learning","2.94","","","","","","","","","","","","","","","","","","","","","","","",""
"","learn_trial","categorize-lines","131","627926","0.0-3.0-0.125","20211015","171","1172","","","","","","","","[328.3911]","[328.3911]","[""u"",""i""]","[""""]","null","true","out","u","YES","","0","out","","","","328.3911","learning","16.06","","","","","","","","","","","","","","","","","","","","","","","",""
"","learn_trial","categorize-lines","132","631944","0.0-3.0-0.126","20211015","171","1986","","","","","","","","[204.9759]","[204.9759]","[""u"",""i""]","[""""]","null","true","in","u","YES","","1","in","","","","204.9759","learning","6.4","","","","","","","","","","","","","","","","","","","","","","","",""
"","learn_trial","categorize-lines","133","636502","0.0-3.0-0.127","20211015","171","528","","","","","","","","[204.8759]","[204.8759]","[""u"",""i""]","[""""]","null","true","out","u","YES","","0","out","","","","204.8759","learning","6.39","","","","","","","","","","","","","","","","","","","","","","","",""
"","learn_trial","categorize-lines","134","639406","0.0-3.0-0.128","20211015","171","874","","","","","","","","[162.972]","[162.972]","[""u"",""i""]","[""""]","null","true","out","i","NO","","1","out","","","","162.972","learning","1.7","","","","","","","","","","","","","","","","","","","","","","","",""
"","learn_trial","categorize-lines","135","642478","0.0-3.0-0.129","20211015","171","1040","","","","","","","","[315.0507]","[315.0507]","[""u"",""i""]","[""""]","null","true","in","u","YES","","1","in","","","","315.0507","learning","15.21","","","","","","","","","","","","","","","","","","","","","","","",""
"","learn_trial","categorize-lines","136","645396","0.0-3.0-0.130","20211015","171","890","","","","","","","","[288.4217]","[288.4217]","[""u"",""i""]","[""""]","null","true","in","u","YES","","1","in","","","","288.4217","learning","13.4","","","","","","","","","","","","","","","","","","","","","","","",""
"","learn_trial","categorize-lines","137","648350","0.0-3.0-0.131","20211015","171","924","","","","","","","","[280.511]","[280.511]","[""u"",""i""]","[""""]","null","true","in","u","YES","","1","in","","","","280.511","learning","12.83","","","","","","","","","","","","","","","","","","","","","","","",""
"","learn_trial","categorize-lines","138","651294","0.0-3.0-0.132","20211015","171","914","","","","","","","","[294.3929]","[294.3929]","[""u"",""i""]","[""""]","null","true","in","u","YES","","1","in","","","","294.3929","learning","13.82","","","","","","","","","","","","","","","","","","","","","","","",""
"","learn_trial","categorize-lines","139","656214","0.0-3.0-0.133","20211015","171","890","","","","","","","","[243.0264]","[243.0264]","[""u"",""i""]","[""""]","null","true","out","u","YES","","0","out","","","","243.0264","learning","9.89","","","","","","","","","","","","","","","","","","","","","","","",""
"","learn_trial","categorize-lines","140","661340","0.0-3.0-0.134","20211015","171","1100","","","","","","","","[189.4907]","[189.4907]","[""u"",""i""]","[""""]","null","true","out","u","YES","","0","out","","","","189.4907","learning","4.79","","","","","","","","","","","","","","","","","","","","","","","",""
"","learn_trial","categorize-lines","141","664404","0.0-3.0-0.135","20211015","171","1036","","","","","","","","[433.4695]","[433.4695]","[""u"",""i""]","[""""]","null","true","out","i","NO","","1","out","","","","433.4695","learning","21.75","","","","","","","","","","","","","","","","","","","","","","","",""
"","learn_trial","categorize-lines","142","667296","0.0-3.0-0.136","20211015","171","860","","","","","","","","[286.8779]","[286.8779]","[""u"",""i""]","[""""]","null","true","in","u","YES","","1","in","","","","286.8779","learning","13.29","","","","","","","","","","","","","","","","","","","","","","","",""
"","learn_trial","categorize-lines","143","672100","0.0-3.0-0.137","20211015","171","774","","","","","","","","[316.5916]","[316.5916]","[""u"",""i""]","[""""]","null","true","out","u","YES","","0","out","","","","316.5916","learning","15.31","","","","","","","","","","","","","","","","","","","","","","","",""
"","learn_trial","categorize-lines","144","675012","0.0-3.0-0.138","20211015","171","880","","","","","","","","[254.3077]","[254.3077]","[""u"",""i""]","[""""]","null","true","in","u","YES","","1","in","","","","254.3077","learning","10.82","","","","","","","","","","","","","","","","","","","","","","","",""
"","learn_trial","categorize-lines","145","677892","0.0-3.0-0.139","20211015","171","848","","","","","","","","[233.9515]","[233.9515]","[""u"",""i""]","[""""]","null","true","in","u","YES","","1","in","","","","233.9515","learning","9.11","","","","","","","","","","","","","","","","","","","","","","","",""
"","learn_trial","categorize-lines","146","680644","0.0-3.0-0.140","20211015","171","722","","","","","","","","[160.7608]","[160.7608]","[""u"",""i""]","[""""]","null","true","out","i","NO","","1","out","","","","160.7608","learning","1.42","","","","","","","","","","","","","","","","","","","","","","","",""
"","learn_trial","categorize-lines","147","683534","0.0-3.0-0.141","20211015","171","862","","","","","","","","[270.9602]","[270.9602]","[""u"",""i""]","[""""]","null","true","in","u","YES","","1","in","","","","270.9602","learning","12.12","","","","","","","","","","","","","","","","","","","","","","","",""
"","learn_trial","categorize-lines","148","689044","0.0-3.0-0.142","20211015","171","1480","","","","","","","","[302.5474]","[302.5474]","[""u"",""i""]","[""""]","null","true","in","i","NO","","0","in","","","","302.5474","learning","14.38","","","","","","","","","","","","","","","","","","","","","","","",""
"","learn_trial","categorize-lines","149","691876","0.0-3.0-0.143","20211015","171","804","","","","","","","","[228.6477]","[228.6477]","[""u"",""i""]","[""""]","null","true","in","u","YES","","1","in","","","","228.6477","learning","8.64","","","","","","","","","","","","","","","","","","","","","","","",""
"","learn_trial","categorize-lines","150","694676","0.0-3.0-0.144","20211015","171","770","","","","","","","","[150.8808]","[150.8808]","[""u"",""i""]","[""""]","null","true","out","i","NO","","1","out","","","","150.8808","learning","0.12","","","","","","","","","","","","","","","","","","","","","","","",""
"","learn_trial","categorize-lines","151","697676","0.0-3.0-0.145","20211015","171","970","","","","","","","","[157.5]","[157.5]","[""u"",""i""]","[""""]","null","true","out","i","NO","","1","out","","","","157.5","learning","1","","","","","","","","","","","","","","","","","","","","","","","",""
"","learn_trial","categorize-lines","152","702524","0.0-3.0-0.146","20211015","171","818","","","","","","","","[204.3767]","[204.3767]","[""u"",""i""]","[""""]","null","true","out","u","YES","","0","out","","","","204.3767","learning","6.34","","","","","","","","","","","","","","","","","","","","","","","",""
"","learn_trial","categorize-lines","153","707564","0.0-3.0-0.147","20211015","171","1010","","","","","","","","[397.6065]","[397.6065]","[""u"",""i""]","[""""]","null","true","in","i","NO","","0","in","","","","397.6065","learning","19.98","","","","","","","","","","","","","","","","","","","","","","","",""
"","learn_trial","categorize-lines","154","710404","0.0-3.0-0.148","20211015","171","810","","","","","","","","[242.5526]","[242.5526]","[""u"",""i""]","[""""]","null","true","in","u","YES","","1","in","","","","242.5526","learning","9.85","","","","","","","","","","","","","","","","","","","","","","","",""
"","learn_trial","categorize-lines","155","716644","0.0-3.0-0.149","20211015","171","2210","","","","","","","","[188.2927]","[188.2927]","[""u"",""i""]","[""""]","null","true","out","u","YES","","0","out","","","","188.2927","learning","4.66","","","","","","","","","","","","","","","","","","","","","","","",""
"","learn_trial","categorize-lines","156","721660","0.0-3.0-0.150","20211015","171","986","","","","","","","","[309.2634]","[309.2634]","[""u"",""i""]","[""""]","null","true","out","u","YES","","0","out","","","","309.2634","learning","14.83","","","","","","","","","","","","","","","","","","","","","","","",""
"","learn_trial","categorize-lines","157","724484","0.0-3.0-0.151","20211015","171","794","","","","","","","","[431.9916]","[431.9916]","[""u"",""i""]","[""""]","null","true","out","i","NO","","1","out","","","","431.9916","learning","21.68","","","","","","","","","","","","","","","","","","","","","","","",""
"","learn_trial","categorize-lines","158","729290","0.0-3.0-0.152","20211015","171","770","","","","","","","","[256.4258]","[256.4258]","[""u"",""i""]","[""""]","null","true","out","u","YES","","0","out","","","","256.4258","learning","10.99","","","","","","","","","","","","","","","","","","","","","","","",""
"","learn_trial","categorize-lines","159","732828","0.0-3.0-0.153","20211015","171","1510","","","","","","","","[243.7389]","[243.7389]","[""u"",""i""]","[""""]","null","true","in","u","YES","","1","in","","","","243.7389","learning","9.95","","","","","","","","","","","","","","","","","","","","","","","",""
"","learn_trial","categorize-lines","160","735884","0.0-3.0-0.154","20211015","171","1028","","","","","","","","[179.6767]","[179.6767]","[""u"",""i""]","[""""]","null","true","out","i","NO","","1","out","","","","179.6767","learning","3.7","","","","","","","","","","","","","","","","","","","","","","","",""
"","learn_trial","categorize-lines","161","739228","0.0-3.0-0.155","20211015","171","1316","","","","","","","","[425.0919]","[425.0919]","[""u"",""i""]","[""""]","null","true","out","i","NO","","1","out","","","","425.0919","learning","21.35","","","","","","","","","","","","","","","","","","","","","","","",""
"","learn_trial","categorize-lines","162","744316","0.0-3.0-0.156","20211015","171","1060","","","","","","","","[211.2711]","[211.2711]","[""u"",""i""]","[""""]","null","true","out","u","YES","","0","out","","","","211.2711","learning","7.02","","","","","","","","","","","","","","","","","","","","","","","",""
"","learn_trial","categorize-lines","163","749244","0.0-3.0-0.157","20211015","171","900","","","","","","","","[217.0172]","[217.0172]","[""u"",""i""]","[""""]","null","true","out","u","YES","","0","out","","","","217.0172","learning","7.57","","","","","","","","","","","","","","","","","","","","","","","",""
"","learn_trial","categorize-lines","164","754644","0.0-3.0-0.158","20211015","171","1372","","","","","","","","[196.3614]","[196.3614]","[""u"",""i""]","[""""]","null","true","in","i","NO","","0","in","","","","196.3614","learning","5.52","","","","","","","","","","","","","","","","","","","","","","","",""
"","learn_trial","categorize-lines","165","757988","0.0-3.0-0.159","20211015","171","1314","","","","","","","","[246.0089]","[246.0089]","[""u"",""i""]","[""""]","null","true","in","u","YES","","1","in","","","","246.0089","learning","10.14","","","","","","","","","","","","","","","","","","","","","","","",""
"","learn_trial","categorize-lines","166","763348","0.0-3.0-0.160","20211015","171","1330","","","","","","","","[370.2688]","[370.2688]","[""u"",""i""]","[""""]","null","true","out","u","YES","","0","out","","","","370.2688","learning","18.52","","","","","","","","","","","","","","","","","","","","","","","",""
"","learn_trial","categorize-lines","167","766468","0.0-3.0-0.161","20211015","171","1086","","","","","","","","[212.3044]","[212.3044]","[""u"",""i""]","[""""]","null","true","in","u","YES","","1","in","","","","212.3044","learning","7.12","","","","","","","","","","","","","","","","","","","","","","","",""
"","learn_trial","categorize-lines","168","770028","0.0-3.0-0.162","20211015","171","1530","","","","","","","","[391.0651]","[391.0651]","[""u"",""i""]","[""""]","null","true","out","i","NO","","1","out","","","","391.0651","learning","19.64","","","","","","","","","","","","","","","","","","","","","","","",""
"","learn_trial","categorize-lines","169","775596","0.0-3.0-0.163","20211015","171","1538","","","","","","","","[170.5372]","[170.5372]","[""u"",""i""]","[""""]","null","true","in","i","NO","","0","in","","","","170.5372","learning","2.63","","","","","","","","","","","","","","","","","","","","","","","",""
"","learn_trial","categorize-lines","170","780372","0.0-3.0-0.164","20211015","171","748","","","","","","","","[268.0673]","[268.0673]","[""u"",""i""]","[""""]","null","true","out","u","YES","","0","out","","","","268.0673","learning","11.9","","","","","","","","","","","","","","","","","","","","","","","",""
"","learn_trial","categorize-lines","171","783844","0.0-3.0-0.165","20211015","171","1444","","","","","","","","[242.9078]","[242.9078]","[""u"",""i""]","[""""]","null","true","in","u","YES","","1","in","","","","242.9078","learning","9.88","","","","","","","","","","","","","","","","","","","","","","","",""
"","learn_trial","categorize-lines","172","787340","0.0-3.0-0.166","20211015","171","1468","","","","","","","","[343.8027]","[343.8027]","[""u"",""i""]","[""""]","null","true","out","i","NO","","1","out","","","","343.8027","learning","17","","","","","","","","","","","","","","","","","","","","","","","",""
"","learn_trial","categorize-lines","173","792220","0.0-3.0-0.167","20211015","171","846","","","","","","","","[354.5346]","[354.5346]","[""u"",""i""]","[""""]","null","true","in","i","NO","","0","in","","","","354.5346","learning","17.63","","","","","","","","","","","","","","","","","","","","","","","",""
"","learn_trial","categorize-lines","174","795036","0.0-3.0-0.168","20211015","171","782","","","","","","","","[264.3011]","[264.3011]","[""u"",""i""]","[""""]","null","true","in","u","YES","","1","in","","","","264.3011","learning","11.61","","","","","","","","","","","","","","","","","","","","","","","",""
"","learn_trial","categorize-lines","175","798060","0.0-3.0-0.169","20211015","171","994","","","","","","","","[223.5732]","[223.5732]","[""u"",""i""]","[""""]","null","true","in","u","YES","","1","in","","","","223.5732","learning","8.18","","","","","","","","","","","","","","","","","","","","","","","",""
"","learn_trial","categorize-lines","176","802868","0.0-3.0-0.170","20211015","171","778","","","","","","","","[179.0641]","[179.0641]","[""u"",""i""]","[""""]","null","true","in","i","NO","","0","in","","","","179.0641","learning","3.63","","","","","","","","","","","","","","","","","","","","","","","",""
"","learn_trial","categorize-lines","177","806372","0.0-3.0-0.171","20211015","171","1474","","","","","","","","[258.8139]","[258.8139]","[""u"",""i""]","[""""]","null","true","in","u","YES","","1","in","","","","258.8139","learning","11.18","","","","","","","","","","","","","","","","","","","","","","","",""
"","learn_trial","categorize-lines","178","809660","0.0-3.0-0.172","20211015","171","1258","","","","","","","","[302.2523]","[302.2523]","[""u"",""i""]","[""""]","null","true","out","i","NO","","1","out","","","","302.2523","learning","14.36","","","","","","","","","","","","","","","","","","","","","","","",""
"","learn_trial","categorize-lines","179","814852","0.0-3.0-0.173","20211015","171","1162","","","","","","","","[348.1918]","[348.1918]","[""u"",""i""]","[""""]","null","true","out","u","YES","","0","out","","","","348.1918","learning","17.26","","","","","","","","","","","","","","","","","","","","","","","",""
"","learn_trial","categorize-lines","180","820740","0.0-3.0-0.174","20211015","171","1858","","","","","","","","[199.354]","[199.354]","[""u"",""i""]","[""""]","null","true","out","u","YES","","0","out","","","","199.354","learning","5.83","","","","","","","","","","","","","","","","","","","","","","","",""
"","learn_trial","categorize-lines","181","826100","0.0-3.0-0.175","20211015","171","1330","","","","","","","","[217.0172]","[217.0172]","[""u"",""i""]","[""""]","null","true","out","u","YES","","0","out","","","","217.0172","learning","7.57","","","","","","","","","","","","","","","","","","","","","","","",""
"","learn_trial","categorize-lines","182","831348","0.0-3.0-0.176","20211015","171","1218","","","","","","","","[302.3998]","[302.3998]","[""u"",""i""]","[""""]","null","true","out","u","YES","","0","out","","","","302.3998","learning","14.37","","","","","","","","","","","","","","","","","","","","","","","",""
"","learn_trial","categorize-lines","183","836612","0.0-3.0-0.177","20211015","171","1230","","","","","","","","[318.7615]","[318.7615]","[""u"",""i""]","[""""]","null","true","out","u","YES","","0","out","","","","318.7615","learning","15.45","","","","","","","","","","","","","","","","","","","","","","","",""
"","learn_trial","categorize-lines","184","840204","0.0-3.0-0.178","20211015","171","1560","","","","","","","","[170.787]","[170.787]","[""u"",""i""]","[""""]","null","true","out","i","NO","","1","out","","","","170.787","learning","2.66","","","","","","","","","","","","","","","","","","","","","","","",""
"","learn_trial","categorize-lines","185","845228","0.0-3.0-0.179","20211015","171","994","","","","","","","","[292.6743]","[292.6743]","[""u"",""i""]","[""""]","null","true","out","u","YES","","0","out","","","","292.6743","learning","13.7","","","","","","","","","","","","","","","","","","","","","","","",""
"","learn_trial","categorize-lines","186","848050","0.0-3.0-0.180","20211015","171","794","","","","","","","","[242.6709]","[242.6709]","[""u"",""i""]","[""""]","null","true","in","u","YES","","1","in","","","","242.6709","learning","9.86","","","","","","","","","","","","","","","","","","","","","","","",""
"","learn_trial","categorize-lines","187","850900","0.0-3.0-0.181","20211015","171","820","","","","","","","","[169.8728]","[169.8728]","[""u"",""i""]","[""""]","null","true","out","i","NO","","1","out","","","","169.8728","learning","2.55","","","","","","","","","","","","","","","","","","","","","","","",""
"","learn_trial","categorize-lines","188","853596","0.0-3.0-0.182","20211015","171","666","","","","","","","","[268.8532]","[268.8532]","[""u"",""i""]","[""""]","null","true","in","u","YES","","1","in","","","","268.8532","learning","11.96","","","","","","","","","","","","","","","","","","","","","","","",""
"","learn_trial","categorize-lines","189","857130","0.0-3.0-0.183","20211015","171","1508","","","","","","","","[282.5715]","[282.5715]","[""u"",""i""]","[""""]","null","true","out","i","NO","","1","out","","","","282.5715","learning","12.98","","","","","","","","","","","","","","","","","","","","","","","",""
"","learn_trial","categorize-lines","190","860306","0.0-3.0-0.184","20211015","171","1148","","","","","","","","[189.3983]","[189.3983]","[""u"",""i""]","[""""]","null","true","in","u","YES","","1","in","","","","189.3983","learning","4.78","","","","","","","","","","","","","","","","","","","","","","","",""
"","learn_trial","categorize-lines","191","865964","0.0-3.0-0.185","20211015","171","1628","","","","","","","","[176.8932]","[176.8932]","[""u"",""i""]","[""""]","null","true","out","u","YES","","0","out","","","","176.8932","learning","3.38","","","","","","","","","","","","","","","","","","","","","","","",""
"","learn_trial","categorize-lines","192","868676","0.0-3.0-0.186","20211015","171","684","","","","","","","","[261.6069]","[261.6069]","[""u"",""i""]","[""""]","null","true","in","u","YES","","1","in","","","","261.6069","learning","11.4","","","","","","","","","","","","","","","","","","","","","","","",""
"","learn_trial","categorize-lines","193","871658","0.0-3.0-0.187","20211015","171","954","","","","","","","","[316.4372]","[316.4372]","[""u"",""i""]","[""""]","null","true","in","u","YES","","1","in","","","","316.4372","learning","15.3","","","","","","","","","","","","","","","","","","","","","","","",""
"","learn_trial","categorize-lines","194","874386","0.0-3.0-0.188","20211015","171","700","","","","","","","","[223.5732]","[223.5732]","[""u"",""i""]","[""""]","null","true","in","u","YES","","1","in","","","","223.5732","learning","8.18","","","","","","","","","","","","","","","","","","","","","","","",""
"","learn_trial","categorize-lines","195","876972","0.0-3.0-0.189","20211015","171","556","","","","","","","","[278.7375]","[278.7375]","[""u"",""i""]","[""""]","null","true","in","u","YES","","1","in","","","","278.7375","learning","12.7","","","","","","","","","","","","","","","","","","","","","","","",""
"","learn_trial","categorize-lines","196","879412","0.0-3.0-0.190","20211015","171","412","","","","","","","","[235.4401]","[235.4401]","[""u"",""i""]","[""""]","null","true","in","u","YES","","1","in","","","","235.4401","learning","9.24","","","","","","","","","","","","","","","","","","","","","","","",""
"","learn_trial","categorize-lines","197","882386","0.0-3.0-0.191","20211015","171","946","","","","","","","","[402.0934]","[402.0934]","[""u"",""i""]","[""""]","null","true","out","i","NO","","1","out","","","","402.0934","learning","20.21","","","","","","","","","","","","","","","","","","","","","","","",""
"","learn_trial","categorize-lines","198","884990","0.0-3.0-0.192","20211015","171","572","","","","","","","","[259.5727]","[259.5727]","[""u"",""i""]","[""""]","null","true","in","u","YES","","1","in","","","","259.5727","learning","11.24","","","","","","","","","","","","","","","","","","","","","","","",""
"","learn_trial","categorize-lines","199","887962","0.0-3.0-0.193","20211015","171","944","","","","","","","","[241.019]","[241.019]","[""u"",""i""]","[""""]","null","true","in","u","YES","","1","in","","","","241.019","learning","9.72","","","","","","","","","","","","","","","","","","","","","","","",""
"","learn_trial","categorize-lines","200","890780","0.0-3.0-0.194","20211015","171","788","","","","","","","","[440.9352]","[440.9352]","[""u"",""i""]","[""""]","null","true","out","i","NO","","1","out","","","","440.9352","learning","22.1","","","","","","","","","","","","","","","","","","","","","","","",""
"","learn_trial","categorize-lines","201","895482","0.0-3.0-0.195","20211015","171","674","","","","","","","","[235.3252]","[235.3252]","[""u"",""i""]","[""""]","null","true","out","u","YES","","0","out","","","","235.3252","learning","9.23","","","","","","","","","","","","","","","","","","","","","","","",""
"","learn_trial","categorize-lines","202","898868","0.0-3.0-0.196","20211015","171","1356","","","","","","","","[188.2927]","[188.2927]","[""u"",""i""]","[""""]","null","true","out","i","NO","","1","out","","","","188.2927","learning","4.66","","","","","","","","","","","","","","","","","","","","","","","",""
"","learn_trial","categorize-lines","203","902138","0.0-3.0-0.197","20211015","171","1244","","","","","","","","[213.0308]","[213.0308]","[""u"",""i""]","[""""]","null","true","in","u","YES","","1","in","","","","213.0308","learning","7.19","","","","","","","","","","","","","","","","","","","","","","","",""
"","learn_trial","categorize-lines","204","905170","0.0-3.0-0.198","20211015","171","1004","","","","","","","","[219.6805]","[219.6805]","[""u"",""i""]","[""""]","null","true","in","u","YES","","1","in","","","","219.6805","learning","7.82","","","","","","","","","","","","","","","","","","","","","","","",""
"","learn_trial","categorize-lines","205","910180","0.0-3.0-0.199","20211015","171","980","","","","","","","","[274.8213]","[274.8213]","[""u"",""i""]","[""""]","null","true","out","u","YES","","0","out","","","","274.8213","learning","12.41","","","","","","","","","","","","","","","","","","","","","","","",""
"","transfer_instructions","instructions","206","920828","0.0-4.0-0.0","20211015","171","10646","","","","","","[{""page_index"":0,""viewing_time"":2654},{""page_index"":1,""viewing_time"":7992}]","","","","","","","","","","","","","","","","","","","","","","","","","","","","","","","","","","","","","","","","","","",""
"","transfer_trial","categorize-lines","207","927940","0.0-5.0-0.0","20211015","171","6036","","","","","","","","[235.555,286.3185]","[286.3185,235.555]","[""j"",""k""]","[""J"",""K""]","null","false","null","j","","286.3185","0","null","235.555","","","","transfer","","13.25","286.3185","9.25","235.555","","","","","235.555","286.3185","0","9.25","13.25","0","attraction","binary","equal_chance_2_JND","right","left","both","2","equal","target",""
"","transfer_trial","categorize-lines","208","933724","0.0-5.0-0.1","20211015","171","4712","","","","","","","","[272.6843,224.3381,203.4812]","[272.6843,203.4812,224.3381]","[""j"",""k"",""l""]","[""J"",""K"",""L""]","272.6843","false","null","l","","224.3381","0","null","203.4812","224.3381","","","transfer","","8.25","224.3381","12.25","272.6843","6.25","203.4812","272.6843","12.25","272.6843","224.3381","203.4812","12.25","8.25","6.25","attraction","trinary","easy","left","right","competitor","1","right","target",""
"","transfer_trial","categorize-lines","209","939756","0.0-5.0-0.2","20211015","171","4960","","","","","","","","[247.3327,272.6843,224.3381]","[247.3327,224.3381,272.6843]","[""j"",""k"",""l""]","[""J"",""K"",""L""]","null","false","null","l","","272.6843","0","null","224.3381","272.6843","","","transfer","","10.25","247.3327","12.25","272.6843","8.25","224.3381","","","247.3327","272.6843","224.3381","10.25","12.25","8.25","attraction","trinary","equal_chance_1_JND","left","right","both","1","equal","competitor",""
"","transfer_trial","categorize-lines","210","942892","0.0-5.0-0.3","20211015","171","2064","","","","","","","","[235.555,286.3185,315.6662]","[315.6662,235.555,286.3185]","[""j"",""k"",""l""]","[""J"",""K"",""L""]","null","false","null","j","","315.6662","0","null","235.555","286.3185","","","transfer","","13.25","286.3185","9.25","235.555","15.25","315.6662","","","235.555","286.3185","315.6662","9.25","13.25","15.25","attraction","trinary","equal_chance_2_JND","right","left","both","2","equal","decoy",""
"","transfer_trial","categorize-lines","211","946708","0.0-5.0-0.4","20211015","171","2746","","","","","","","","[247.3327,300.6345]","[247.3327,300.6345]","[""j"",""k""]","[""J"",""K""]","247.3327","false","null","j","","247.3327","1","null","300.6345","","","","transfer","","10.25","247.3327","14.25","300.6345","","","247.3327","10.25","247.3327","300.6345","0","10.25","14.25","0","attraction","binary","easy","left","right","target","1","left","target",""
"","transfer_trial","categorize-lines","212","949036","0.0-5.0-0.5","20211015","171","1256","","","","","","","","[272.6843,235.555,213.6553]","[272.6843,235.555,213.6553]","[""j"",""k"",""l""]","[""J"",""K"",""L""]","272.6843","false","null","l","","213.6553","0","null","235.555","213.6553","","","transfer","","9.25","235.555","12.25","272.6843","7.25","213.6553","272.6843","12.25","272.6843","235.555","213.6553","12.25","9.25","7.25","attraction","trinary","difficult","left","right","competitor","1","right","decoy",""
"","transfer_trial","categorize-lines","213","951268","0.0-5.0-0.6","20211015","171","1160","","","","","","","","[247.3327,286.3185,315.6662]","[286.3185,247.3327,315.6662]","[""j"",""k"",""l""]","[""J"",""K"",""L""]","247.3327","false","null","j","","286.3185","0","null","247.3327","315.6662","","","transfer","","13.25","286.3185","10.25","247.3327","15.25","315.6662","247.3327","10.25","247.3327","286.3185","315.6662","10.25","13.25","15.25","attraction","trinary","difficult","right","left","competitor","1","left","target",""
"","transfer_trial","categorize-lines","214","953924","0.0-5.0-0.7","20211015","171","1586","","","","","","","","[230.8978,283.8988]","[283.8988,230.8978]","[""j"",""k""]","[""J"",""K""]","230.8978","false","null","j","","283.8988","0","null","230.8978","","","","transfer","","","","","","","","230.8978","8.8407","230.8978","283.8988","0","8.8407","13.0761","0","filler","binary","","","","","2.4093","left","NA",""
"","transfer_trial","categorize-lines","215","957876","0.0-5.0-0.8","20211015","171","2880","","","","","","","","[247.3327,272.6843,300.6345]","[247.3327,300.6345,272.6843]","[""j"",""k"",""l""]","[""J"",""K"",""L""]","null","false","null","k","","300.6345","0","null","300.6345","272.6843","","","transfer","","12.25","272.6843","10.25","247.3327","14.25","300.6345","","","247.3327","272.6843","300.6345","10.25","12.25","14.25","attraction","trinary","equal_chance_1_JND","right","left","both","1","equal","decoy",""
"","transfer_trial","categorize-lines","216","961148","0.0-5.0-0.9","20211015","171","2202","","","","","","","","[272.6843,224.3381]","[224.3381,272.6843]","[""j"",""k""]","[""J"",""K""]","272.6843","false","null","k","","272.6843","1","null","272.6843","","","","transfer","","8.25","224.3381","12.25","272.6843","","","272.6843","12.25","272.6843","224.3381","0","12.25","8.25","0","attraction","binary","easy","left","right","competitor","1","right","competitor",""
"","transfer_trial","categorize-lines","217","963924","0.0-5.0-0.10","20211015","171","1704","","","","","","","","[247.3327,272.6843]","[247.3327,272.6843]","[""j"",""k""]","[""J"",""K""]","null","false","null","j","","247.3327","0","null","272.6843","","","","transfer","","10.25","247.3327","12.25","272.6843","","","","","247.3327","272.6843","0","10.25","12.25","0","attraction","binary","equal_chance_1_JND","left","right","both","1","equal","target",""
"","transfer_trial","categorize-lines","218","967268","0.0-5.0-0.11","20211015","171","2272","","","","","","","","[272.6843,224.3381,300.6345]","[300.6345,224.3381,272.6843]","[""j"",""k"",""l""]","[""J"",""K"",""L""]","272.6843","false","null","j","","300.6345","0","null","224.3381","272.6843","","","transfer","","12.25","272.6843","8.25","224.3381","14.25","300.6345","272.6843","12.25","272.6843","224.3381","300.6345","12.25","8.25","14.25","attraction","trinary","easy","right","left","target","1","right","decoy",""
"","transfer_trial","categorize-lines","219","970828","0.0-5.0-0.12","20211015","171","2490","","","","","","","","[341.3932,233.7879]","[341.3932,233.7879]","[""j"",""k""]","[""J"",""K""]","341.3932","false","null","k","","233.7879","0","null","233.7879","","","","transfer","","","","","","","","341.3932","16.8558","341.3932","233.7879","0","16.8558","9.0957","0","filler","binary","","","","","5.6058","right","NA",""
"","transfer_trial","categorize-lines","220","973948","0.0-5.0-0.13","20211015","171","2050","","","","","","","","[247.3327,272.6843,224.3381]","[247.3327,224.3381,272.6843]","[""j"",""k"",""l""]","[""J"",""K"",""L""]","null","false","null","l","","272.6843","0","null","224.3381","272.6843","","","transfer","","10.25","247.3327","12.25","272.6843","8.25","224.3381","","","247.3327","272.6843","224.3381","10.25","12.25","8.25","attraction","trinary","equal_chance_1_JND","left","right","both","1","equal","competitor",""
"","transfer_trial","categorize-lines","221","977676","0.0-5.0-0.14","20211015","171","2658","","","","","","","","[247.3327,300.6345,331.4495]","[331.4495,300.6345,247.3327]","[""j"",""k"",""l""]","[""J"",""K"",""L""]","247.3327","false","null","j","","331.4495","0","null","300.6345","247.3327","","","transfer","","14.25","300.6345","10.25","247.3327","16.25","331.4495","247.3327","10.25","247.3327","300.6345","331.4495","10.25","14.25","16.25","attraction","trinary","easy","right","left","competitor","1","left","decoy",""
"","transfer_trial","categorize-lines","222","984460","0.0-5.0-0.15","20211015","171","5714","","","","","","","","[281.7339,200.4552,191.4422]","[281.7339,200.4552,191.4422]","[""j"",""k"",""l""]","[""J"",""K"",""L""]","281.7339","false","null","k","","200.4552","0","null","200.4552","191.4422","","","transfer","","","","","","","","281.7339","12.9192","281.7339","200.4552","191.4422","12.9192","5.9429","5","filler","trinary","","","","","1.6692","right","NA",""
"","transfer_trial","categorize-lines","223","987756","0.0-5.0-0.16","20211015","171","2228","","","","","","","","[247.3327,272.6843,300.6345]","[300.6345,272.6843,247.3327]","[""j"",""k"",""l""]","[""J"",""K"",""L""]","null","false","null","j","","300.6345","0","null","272.6843","247.3327","","","transfer","","12.25","272.6843","10.25","247.3327","14.25","300.6345","","","247.3327","272.6843","300.6345","10.25","12.25","14.25","attraction","trinary","equal_chance_1_JND","right","left","both","1","equal","decoy",""
"","transfer_trial","categorize-lines","224","990236","0.0-5.0-0.17","20211015","171","1410","","","","","","","","[247.3327,300.6345]","[247.3327,300.6345]","[""j"",""k""]","[""J"",""K""]","247.3327","false","null","j","","247.3327","1","null","300.6345","","","","transfer","","10.25","247.3327","14.25","300.6345","","","247.3327","10.25","247.3327","300.6345","0","10.25","14.25","0","attraction","binary","easy","left","right","target","1","left","target",""
"","transfer_trial","categorize-lines","225","993316","0.0-5.0-0.18","20211015","171","2008","","","","","","","","[274.234,201.1364]","[274.234,201.1364]","[""j"",""k""]","[""J"",""K""]","274.234","false","null","j","","274.234","1","null","201.1364","","","","transfer","","","","","","","","274.234","12.3661","274.234","201.1364","0","12.3661","6.0124","0","filler","binary","","","","","1.1161","right","NA",""
"","transfer_trial","categorize-lines","226","995532","0.0-5.0-0.19","20211015","171","1144","","","","","","","","[386.139,312.1544,417.8944]","[417.8944,312.1544,386.139]","[""j"",""k"",""l""]","[""J"",""K"",""L""]","386.139","false","null","k","","312.1544","0","null","312.1544","386.139","","","transfer","","","","","","","","386.139","19.3802","386.139","312.1544","417.8944","19.3802","15.0207","21","filler","trinary","","","","","8.1302","right","NA",""
"","transfer_trial","categorize-lines","227","998612","0.0-5.0-0.20","20211015","171","2008","","","","","","","","[272.6843,235.555,213.6553]","[235.555,272.6843,213.6553]","[""j"",""k"",""l""]","[""J"",""K"",""L""]","272.6843","false","null","k","","272.6843","1","null","272.6843","213.6553","","","transfer","","9.25","235.555","12.25","272.6843","7.25","213.6553","272.6843","12.25","272.6843","235.555","213.6553","12.25","9.25","7.25","attraction","trinary","difficult","left","right","competitor","1","right","competitor",""
"","transfer_trial","categorize-lines","228","1001556","0.0-5.0-0.21","20211015","171","1872","","","","","","","","[247.3327,300.6345,224.3381]","[224.3381,247.3327,300.6345]","[""j"",""k"",""l""]","[""J"",""K"",""L""]","247.3327","false","null","j","","224.3381","0","null","247.3327","300.6345","","","transfer","","10.25","247.3327","14.25","300.6345","8.25","224.3381","247.3327","10.25","247.3327","300.6345","224.3381","10.25","14.25","8.25","attraction","trinary","easy","left","right","target","1","left","decoy",""
"","transfer_trial","categorize-lines","229","1003788","0.0-5.0-0.22","20211015","171","1160","","","","","","","","[235.555,286.3185]","[235.555,286.3185]","[""j"",""k""]","[""J"",""K""]","null","false","null","j","","235.555","0","null","286.3185","","","","transfer","","9.25","235.555","13.25","286.3185","","","","","235.555","286.3185","0","9.25","13.25","0","attraction","binary","equal_chance_2_JND","left","right","both","2","equal","target",""
"","transfer_trial","categorize-lines","230","1009428","0.0-5.0-0.23","20211015","171","4570","","","","","","","","[247.3327,272.6843,224.3381]","[272.6843,247.3327,224.3381]","[""j"",""k"",""l""]","[""J"",""K"",""L""]","null","false","null","l","","224.3381","0","null","247.3327","224.3381","","","transfer","","10.25","247.3327","12.25","272.6843","8.25","224.3381","","","247.3327","272.6843","224.3381","10.25","12.25","8.25","attraction","trinary","equal_chance_1_JND","left","right","both","1","equal","decoy",""
"","transfer_trial","categorize-lines","231","1012324","0.0-5.0-0.24","20211015","171","1824","","","","","","","","[235.555,286.3185,315.6662]","[315.6662,235.555,286.3185]","[""j"",""k"",""l""]","[""J"",""K"",""L""]","null","false","null","j","","315.6662","0","null","235.555","286.3185","","","transfer","","13.25","286.3185","9.25","235.555","15.25","315.6662","","","235.555","286.3185","315.6662","9.25","13.25","15.25","attraction","trinary","equal_chance_2_JND","right","left","both","2","equal","decoy",""
"","transfer_trial","categorize-lines","232","1014708","0.0-5.0-0.25","20211015","171","1312","","","","","","","","[235.555,286.3185,315.6662]","[235.555,315.6662,286.3185]","[""j"",""k"",""l""]","[""J"",""K"",""L""]","null","false","null","j","","235.555","0","null","315.6662","286.3185","","","transfer","","13.25","286.3185","9.25","235.555","15.25","315.6662","","","235.555","286.3185","315.6662","9.25","13.25","15.25","attraction","trinary","equal_chance_2_JND","right","left","both","2","equal","competitor",""
"","transfer_trial","categorize-lines","233","1016916","0.0-5.0-0.26","20211015","171","1138","","","","","","","","[247.3327,300.6345,224.3381]","[300.6345,224.3381,247.3327]","[""j"",""k"",""l""]","[""J"",""K"",""L""]","247.3327","false","null","l","","247.3327","1","null","224.3381","247.3327","","","transfer","","10.25","247.3327","14.25","300.6345","8.25","224.3381","247.3327","10.25","247.3327","300.6345","224.3381","10.25","14.25","8.25","attraction","trinary","easy","left","right","target","1","left","target",""
"","transfer_trial","categorize-lines","234","1019012","0.0-5.0-0.27","20211015","171","1024","","","","","","","","[235.555,286.3185]","[235.555,286.3185]","[""j"",""k""]","[""J"",""K""]","null","false","null","j","","235.555","0","null","286.3185","","","","transfer","","13.25","286.3185","9.25","235.555","","","","","235.555","286.3185","0","9.25","13.25","0","attraction","binary","equal_chance_2_JND","right","left","both","2","equal","competitor",""
"","transfer_trial","categorize-lines","235","1022820","0.0-5.0-0.28","20211015","171","2736","","","","","","","","[272.6843,235.555]","[272.6843,235.555]","[""j"",""k""]","[""J"",""K""]","272.6843","false","null","k","","235.555","0","null","235.555","","","","transfer","","9.25","235.555","12.25","272.6843","","","272.6843","12.25","272.6843","235.555","0","12.25","9.25","0","attraction","binary","difficult","left","right","competitor","1","right","target",""
"","transfer_trial","categorize-lines","236","1025084","0.0-5.0-0.29","20211015","171","1192","","","","","","","","[247.3327,286.3185]","[247.3327,286.3185]","[""j"",""k""]","[""J"",""K""]","247.3327","false","null","j","","247.3327","1","null","286.3185","","","","transfer","","13.25","286.3185","10.25","247.3327","","","247.3327","10.25","247.3327","286.3185","0","10.25","13.25","0","attraction","binary","difficult","right","left","competitor","1","left","competitor",""
"","transfer_trial","categorize-lines","237","1028236","0.0-5.0-0.30","20211015","171","2082","","","","","","","","[167.4275,266.5615]","[167.4275,266.5615]","[""j"",""k""]","[""J"",""K""]","167.4275","false","null","k","","266.5615","0","null","266.5615","","","","transfer","","","","","","","","167.4275","2.2528","167.4275","266.5615","0","2.2528","11.7845","0","filler","binary","","","","","8.9972","left","NA",""
"","transfer_trial","categorize-lines","238","1030876","0.0-5.0-0.31","20211015","171","1568","","","","","","","","[235.555,286.3185,213.6553]","[286.3185,213.6553,235.555]","[""j"",""k"",""l""]","[""J"",""K"",""L""]","null","false","null","j","","286.3185","0","null","213.6553","235.555","","","transfer","","9.25","235.555","13.25","286.3185","7.25","213.6553","","","235.555","286.3185","213.6553","9.25","13.25","7.25","attraction","trinary","equal_chance_2_JND","left","right","both","2","equal","competitor",""
"","transfer_trial","categorize-lines","239","1034180","0.0-5.0-0.32","20211015","171","2232","","","","","","","","[272.6843,224.3381]","[272.6843,224.3381]","[""j"",""k""]","[""J"",""K""]","272.6843","false","null","k","","224.3381","0","null","224.3381","","","","transfer","","12.25","272.6843","8.25","224.3381","","","272.6843","12.25","272.6843","224.3381","0","12.25","8.25","0","attraction","binary","easy","right","left","target","1","right","competitor",""
"","transfer_trial","categorize-lines","240","1037308","0.0-5.0-0.33","20211015","171","2058","","","","","","","","[272.6843,224.3381,300.6345]","[272.6843,300.6345,224.3381]","[""j"",""k"",""l""]","[""J"",""K"",""L""]","272.6843","false","null","k","","300.6345","0","null","300.6345","224.3381","","","transfer","","12.25","272.6843","8.25","224.3381","14.25","300.6345","272.6843","12.25","272.6843","224.3381","300.6345","12.25","8.25","14.25","attraction","trinary","easy","right","left","target","1","right","decoy",""
"","transfer_trial","categorize-lines","241","1039812","0.0-5.0-0.34","20211015","171","1432","","","","","","","","[247.3327,286.3185,224.3381]","[286.3185,247.3327,224.3381]","[""j"",""k"",""l""]","[""J"",""K"",""L""]","247.3327","false","null","l","","224.3381","0","null","247.3327","224.3381","","","transfer","","10.25","247.3327","13.25","286.3185","8.25","224.3381","247.3327","10.25","247.3327","286.3185","224.3381","10.25","13.25","8.25","attraction","trinary","difficult","left","right","target","1","left","decoy",""
"","transfer_trial","categorize-lines","242","1041908","0.0-5.0-0.35","20211015","171","1026","","","","","","","","[247.3327,300.6345]","[247.3327,300.6345]","[""j"",""k""]","[""J"",""K""]","247.3327","false","null","j","","247.3327","1","null","300.6345","","","","transfer","","10.25","247.3327","14.25","300.6345","","","247.3327","10.25","247.3327","300.6345","0","10.25","14.25","0","attraction","binary","easy","left","right","target","1","left","target",""
"","transfer_trial","categorize-lines","243","1044316","0.0-5.0-0.36","20211015","171","1336","","","","","","","","[272.6843,235.555,213.6553]","[235.555,213.6553,272.6843]","[""j"",""k"",""l""]","[""J"",""K"",""L""]","272.6843","false","null","k","","213.6553","0","null","213.6553","272.6843","","","transfer","","9.25","235.555","12.25","272.6843","7.25","213.6553","272.6843","12.25","272.6843","235.555","213.6553","12.25","9.25","7.25","attraction","trinary","difficult","left","right","competitor","1","right","decoy",""
"","transfer_trial","categorize-lines","244","1046316","0.0-5.0-0.37","20211015","171","926","","","","","","","","[247.3327,286.3185,315.6662]","[286.3185,247.3327,315.6662]","[""j"",""k"",""l""]","[""J"",""K"",""L""]","247.3327","false","null","j","","286.3185","0","null","247.3327","315.6662","","","transfer","","13.25","286.3185","10.25","247.3327","15.25","315.6662","247.3327","10.25","247.3327","286.3185","315.6662","10.25","13.25","15.25","attraction","trinary","difficult","right","left","competitor","1","left","target",""
"","transfer_trial","categorize-lines","245","1048268","0.0-5.0-0.38","20211015","171","880","","","","","","","","[247.3327,286.3185]","[247.3327,286.3185]","[""j"",""k""]","[""J"",""K""]","247.3327","false","null","j","","247.3327","1","null","286.3185","","","","transfer","","10.25","247.3327","13.25","286.3185","","","247.3327","10.25","247.3327","286.3185","0","10.25","13.25","0","attraction","binary","difficult","left","right","target","1","left","target",""
"","transfer_trial","categorize-lines","246","1050604","0.0-5.0-0.39","20211015","171","1260","","","","","","","","[328.3209,169.4252,256.5509]","[256.5509,169.4252,328.3209]","[""j"",""k"",""l""]","[""J"",""K"",""L""]","328.3209","false","null","l","","328.3209","1","null","169.4252","328.3209","","","transfer","","","","","","","","328.3209","16.0556","328.3209","169.4252","256.5509","16.0556","2.4959","11","filler","trinary","","","","","4.8056","right","NA",""
"","transfer_trial","categorize-lines","247","1052716","0.0-5.0-0.40","20211015","171","1040","","","","","","","","[272.6843,235.555]","[272.6843,235.555]","[""j"",""k""]","[""J"",""K""]","272.6843","false","null","j","","272.6843","1","null","235.555","","","","transfer","","12.25","272.6843","9.25","235.555","","","272.6843","12.25","272.6843","235.555","0","12.25","9.25","0","attraction","binary","difficult","right","left","target","1","right","target",""
"","transfer_trial","categorize-lines","248","1055516","0.0-5.0-0.41","20211015","171","1728","","","","","","","","[247.3327,286.3185,315.6662]","[315.6662,286.3185,247.3327]","[""j"",""k"",""l""]","[""J"",""K"",""L""]","247.3327","false","null","k","","286.3185","0","null","286.3185","247.3327","","","transfer","","13.25","286.3185","10.25","247.3327","15.25","315.6662","247.3327","10.25","247.3327","286.3185","315.6662","10.25","13.25","15.25","attraction","trinary","difficult","right","left","competitor","1","left","target",""
"","transfer_trial","categorize-lines","249","1057516","0.0-5.0-0.42","20211015","171","928","","","","","","","","[272.6843,235.555,300.6345]","[272.6843,235.555,300.6345]","[""j"",""k"",""l""]","[""J"",""K"",""L""]","272.6843","false","null","k","","235.555","0","null","235.555","300.6345","","","transfer","","12.25","272.6843","9.25","235.555","14.25","300.6345","272.6843","12.25","272.6843","235.555","300.6345","12.25","9.25","14.25","attraction","trinary","difficult","right","left","target","1","right","competitor",""
"","transfer_trial","categorize-lines","250","1059548","0.0-5.0-0.43","20211015","171","960","","","","","","","","[247.3327,272.6843,300.6345]","[300.6345,247.3327,272.6843]","[""j"",""k"",""l""]","[""J"",""K"",""L""]","null","false","null","j","","300.6345","0","null","247.3327","272.6843","","","transfer","","12.25","272.6843","10.25","247.3327","14.25","300.6345","","","247.3327","272.6843","300.6345","10.25","12.25","14.25","attraction","trinary","equal_chance_1_JND","right","left","both","1","equal","decoy",""
"","transfer_trial","categorize-lines","251","1062484","0.0-5.0-0.44","20211015","171","1864","","","","","","","","[272.6843,224.3381]","[272.6843,224.3381]","[""j"",""k""]","[""J"",""K""]","272.6843","false","null","k","","224.3381","0","null","224.3381","","","","transfer","","8.25","224.3381","12.25","272.6843","","","272.6843","12.25","272.6843","224.3381","0","12.25","8.25","0","attraction","binary","easy","left","right","competitor","1","right","target",""
"","transfer_trial","categorize-lines","252","1064276","0.0-5.0-0.45","20211015","171","720","","","","","","","","[247.3327,286.3185]","[247.3327,286.3185]","[""j"",""k""]","[""J"",""K""]","247.3327","false","null","j","","247.3327","1","null","286.3185","","","","transfer","","10.25","247.3327","13.25","286.3185","","","247.3327","10.25","247.3327","286.3185","0","10.25","13.25","0","attraction","binary","difficult","left","right","target","1","left","target",""
"","transfer_trial","categorize-lines","253","1066628","0.0-5.0-0.46","20211015","171","1280","","","","","","","","[256.5345,203.5786]","[203.5786,256.5345]","[""j"",""k""]","[""J"",""K""]","256.5345","false","null","j","","203.5786","0","null","256.5345","","","","transfer","","","","","","","","256.5345","10.9987","256.5345","203.5786","0","10.9987","6.2598","0","filler","binary","","","","","0.2513","left","NA",""
"","transfer_trial","categorize-lines","254","1068684","0.0-5.0-0.47","20211015","171","986","","","","","","","","[235.555,286.3185,213.6553]","[213.6553,235.555,286.3185]","[""j"",""k"",""l""]","[""J"",""K"",""L""]","null","false","null","j","","213.6553","0","null","235.555","286.3185","","","transfer","","9.25","235.555","13.25","286.3185","7.25","213.6553","","","235.555","286.3185","213.6553","9.25","13.25","7.25","attraction","trinary","equal_chance_2_JND","left","right","both","2","equal","decoy",""
"","transfer_trial","categorize-lines","255","1071356","0.0-5.0-0.48","20211015","171","1600","","","","","","","","[247.3327,286.3185]","[247.3327,286.3185]","[""j"",""k""]","[""J"",""K""]","247.3327","false","null","j","","247.3327","1","null","286.3185","","","","transfer","","10.25","247.3327","13.25","286.3185","","","247.3327","10.25","247.3327","286.3185","0","10.25","13.25","0","attraction","binary","difficult","left","right","target","1","left","target",""
"","transfer_trial","categorize-lines","256","1073580","0.0-5.0-0.49","20211015","171","1150","","","","","","","","[247.3327,286.3185,224.3381]","[224.3381,286.3185,247.3327]","[""j"",""k"",""l""]","[""J"",""K"",""L""]","247.3327","false","null","l","","247.3327","1","null","286.3185","247.3327","","","transfer","","10.25","247.3327","13.25","286.3185","8.25","224.3381","247.3327","10.25","247.3327","286.3185","224.3381","10.25","13.25","8.25","attraction","trinary","difficult","left","right","target","1","left","target",""
"","transfer_trial","categorize-lines","257","1075620","0.0-5.0-0.50","20211015","171","968","","","","","","","","[235.555,286.3185]","[235.555,286.3185]","[""j"",""k""]","[""J"",""K""]","null","false","null","j","","235.555","0","null","286.3185","","","","transfer","","9.25","235.555","13.25","286.3185","","","","","235.555","286.3185","0","9.25","13.25","0","attraction","binary","equal_chance_2_JND","left","right","both","2","equal","target",""
"","transfer_trial","categorize-lines","258","1078780","0.0-5.0-0.51","20211015","171","2088","","","","","","","","[247.3327,272.6843]","[247.3327,272.6843]","[""j"",""k""]","[""J"",""K""]","null","false","null","j","","247.3327","0","null","272.6843","","","","transfer","","10.25","247.3327","12.25","272.6843","","","","","247.3327","272.6843","0","10.25","12.25","0","attraction","binary","equal_chance_1_JND","left","right","both","1","equal","target",""
"","transfer_trial","categorize-lines","259","1082330","0.0-5.0-0.52","20211015","171","2480","","","","","","","","[180.2735,344.178,360.9929]","[360.9929,344.178,180.2735]","[""j"",""k"",""l""]","[""J"",""K"",""L""]","180.2735","false","null","j","","360.9929","0","null","344.178","180.2735","","","transfer","","","","","","","","180.2735","3.768","180.2735","344.178","360.9929","3.768","17.0224","18","filler","trinary","","","","","7.482","left","NA",""
"","transfer_trial","categorize-lines","260","1085730","0.0-5.0-0.53","20211015","171","2330","","","","","","","","[272.6843,224.3381]","[224.3381,272.6843]","[""j"",""k""]","[""J"",""K""]","272.6843","false","null","k","","272.6843","1","null","272.6843","","","","transfer","","12.25","272.6843","8.25","224.3381","","","272.6843","12.25","272.6843","224.3381","0","12.25","8.25","0","attraction","binary","easy","right","left","target","1","right","target",""
"","transfer_trial","categorize-lines","261","1087786","0.0-5.0-0.54","20211015","171","986","","","","","","","","[247.3327,272.6843]","[247.3327,272.6843]","[""j"",""k""]","[""J"",""K""]","null","false","null","j","","247.3327","0","null","272.6843","","","","transfer","","12.25","272.6843","10.25","247.3327","","","","","247.3327","272.6843","0","10.25","12.25","0","attraction","binary","equal_chance_1_JND","right","left","both","1","equal","competitor",""
"","transfer_trial","categorize-lines","262","1090620","0.0-5.0-0.55","20211015","171","1762","","","","","","","","[247.3327,286.3185]","[286.3185,247.3327]","[""j"",""k""]","[""J"",""K""]","247.3327","false","null","j","","286.3185","0","null","247.3327","","","","transfer","","13.25","286.3185","10.25","247.3327","","","247.3327","10.25","247.3327","286.3185","0","10.25","13.25","0","attraction","binary","difficult","right","left","competitor","1","left","target",""
"","transfer_trial","categorize-lines","263","1097300","0.0-5.0-0.56","20211015","171","5606","","","","","","","","[225.2208,219.0756]","[219.0756,225.2208]","[""j"",""k""]","[""J"",""K""]","225.2208","false","null","k","","225.2208","1","null","225.2208","","","","transfer","","","","","","","","225.2208","8.3305","225.2208","219.0756","0","8.3305","7.7635","0","filler","binary","","","","","2.9195","left","NA",""
"","transfer_trial","categorize-lines","264","1099570","0.0-5.0-0.57","20211015","171","1200","","","","","","","","[247.3327,300.6345]","[247.3327,300.6345]","[""j"",""k""]","[""J"",""K""]","247.3327","false","null","j","","247.3327","1","null","300.6345","","","","transfer","","14.25","300.6345","10.25","247.3327","","","247.3327","10.25","247.3327","300.6345","0","10.25","14.25","0","attraction","binary","easy","right","left","competitor","1","left","competitor",""
"","transfer_trial","categorize-lines","265","1102340","0.0-5.0-0.58","20211015","171","1696","","","","","","","","[227.6639,153.6208,379.0425]","[227.6639,153.6208,379.0425]","[""j"",""k"",""l""]","[""J"",""K"",""L""]","227.6639","false","null","j","","227.6639","1","null","153.6208","379.0425","","","transfer","","","","","","","","227.6639","8.5516","227.6639","153.6208","379.0425","8.5516","0.4889","19","filler","trinary","","","","","2.6984","left","NA",""
"","transfer_trial","categorize-lines","266","1104860","0.0-5.0-0.59","20211015","171","1450","","","","","","","","[272.6843,224.3381]","[224.3381,272.6843]","[""j"",""k""]","[""J"",""K""]","272.6843","false","null","k","","272.6843","1","null","272.6843","","","","transfer","","12.25","272.6843","8.25","224.3381","","","272.6843","12.25","272.6843","224.3381","0","12.25","8.25","0","attraction","binary","easy","right","left","target","1","right","target",""
"","transfer_trial","categorize-lines","267","1106666","0.0-5.0-0.60","20211015","171","736","","","","","","","","[263.5487,191.6791]","[263.5487,191.6791]","[""j"",""k""]","[""J"",""K""]","263.5487","false","null","j","","263.5487","1","null","191.6791","","","","transfer","","","","","","","","263.5487","11.5516","263.5487","191.6791","0","11.5516","5.0253","0","filler","binary","","","","","0.3016","right","NA",""
"","transfer_trial","categorize-lines","268","1109500","0.0-5.0-0.61","20211015","171","1762","","","","","","","","[272.6843,235.555]","[272.6843,235.555]","[""j"",""k""]","[""J"",""K""]","272.6843","false","null","k","","235.555","0","null","235.555","","","","transfer","","9.25","235.555","12.25","272.6843","","","272.6843","12.25","272.6843","235.555","0","12.25","9.25","0","attraction","binary","difficult","left","right","competitor","1","right","target",""
"","transfer_trial","categorize-lines","269","1112684","0.0-5.0-0.62","20211015","171","2104","","","","","","","","[272.6843,224.3381,203.4812]","[224.3381,203.4812,272.6843]","[""j"",""k"",""l""]","[""J"",""K"",""L""]","272.6843","false","null","k","","203.4812","0","null","203.4812","272.6843","","","transfer","","8.25","224.3381","12.25","272.6843","6.25","203.4812","272.6843","12.25","272.6843","224.3381","203.4812","12.25","8.25","6.25","attraction","trinary","easy","left","right","competitor","1","right","decoy",""
"","transfer_trial","categorize-lines","270","1115004","0.0-5.0-0.63","20211015","171","1246","","","","","","","","[247.3327,300.6345,331.4495]","[247.3327,300.6345,331.4495]","[""j"",""k"",""l""]","[""J"",""K"",""L""]","247.3327","false","null","j","","247.3327","1","null","300.6345","331.4495","","","transfer","","14.25","300.6345","10.25","247.3327","16.25","331.4495","247.3327","10.25","247.3327","300.6345","331.4495","10.25","14.25","16.25","attraction","trinary","easy","right","left","competitor","1","left","competitor",""
"","transfer_trial","categorize-lines","271","1117324","0.0-5.0-0.64","20211015","171","1246","","","","","","","","[272.6843,224.3381,300.6345]","[224.3381,272.6843,300.6345]","[""j"",""k"",""l""]","[""J"",""K"",""L""]","272.6843","false","null","k","","272.6843","1","null","272.6843","300.6345","","","transfer","","12.25","272.6843","8.25","224.3381","14.25","300.6345","272.6843","12.25","272.6843","224.3381","300.6345","12.25","8.25","14.25","attraction","trinary","easy","right","left","target","1","right","target",""
"","transfer_trial","categorize-lines","272","1120340","0.0-5.0-0.65","20211015","171","1942","","","","","","","","[272.6843,235.555]","[272.6843,235.555]","[""j"",""k""]","[""J"",""K""]","272.6843","false","null","k","","235.555","0","null","235.555","","","","transfer","","12.25","272.6843","9.25","235.555","","","272.6843","12.25","272.6843","235.555","0","12.25","9.25","0","attraction","binary","difficult","right","left","target","1","right","competitor",""
"","transfer_trial","categorize-lines","273","1122314","0.0-5.0-0.66","20211015","171","904","","","","","","","","[235.555,286.3185]","[286.3185,235.555]","[""j"",""k""]","[""J"",""K""]","null","false","null","j","","286.3185","0","null","235.555","","","","transfer","","13.25","286.3185","9.25","235.555","","","","","235.555","286.3185","0","9.25","13.25","0","attraction","binary","equal_chance_2_JND","right","left","both","2","equal","target",""
"","transfer_trial","categorize-lines","274","1125020","0.0-5.0-0.67","20211015","171","1632","","","","","","","","[295.8017,288.9036,327.4312]","[288.9036,327.4312,295.8017]","[""j"",""k"",""l""]","[""J"",""K"",""L""]","295.8017","false","null","k","","327.4312","0","null","327.4312","295.8017","","","transfer","","","","","","","","295.8017","13.9178","295.8017","288.9036","327.4312","13.9178","13.4342","16","filler","trinary","","","","","2.6678","right","NA",""
"","transfer_trial","categorize-lines","275","1127300","0.0-5.0-0.68","20211015","171","1208","","","","","","","","[272.6843,224.3381,203.4812]","[224.3381,272.6843,203.4812]","[""j"",""k"",""l""]","[""J"",""K"",""L""]","272.6843","false","null","j","","224.3381","0","null","272.6843","203.4812","","","transfer","","8.25","224.3381","12.25","272.6843","6.25","203.4812","272.6843","12.25","272.6843","224.3381","203.4812","12.25","8.25","6.25","attraction","trinary","easy","left","right","competitor","1","right","target",""
"","transfer_trial","categorize-lines","276","1130012","0.0-5.0-0.69","20211015","171","1638","","","","","","","","[247.3327,286.3185,224.3381]","[247.3327,286.3185,224.3381]","[""j"",""k"",""l""]","[""J"",""K"",""L""]","247.3327","false","null","l","","224.3381","0","null","286.3185","224.3381","","","transfer","","10.25","247.3327","13.25","286.3185","8.25","224.3381","247.3327","10.25","247.3327","286.3185","224.3381","10.25","13.25","8.25","attraction","trinary","difficult","left","right","target","1","left","decoy",""
