"success","screen_id","trial_type","trial_index","time_elapsed","internal_node_id","date","sub_n","rt","response","timeout","failed_images","failed_audio","failed_video","view_history","stim","line_lens","line_lens_order","choices","stim_names","corr_ans","give_fb","in_cat","key_choice","yn_choice","choice","correct","fb_in_cat","stim_1_in_order","stim_2_in_order","stim_3_in_order","line_length","cat_trial_type","jnds","T_psy","T_phys","C_psy","C_phys","D_psy","D_phys","corr_choice","correct_psy","stim_1","stim_2","stim_3","stim_1_psy","stim_2_psy","stim_3_psy","transfer_trial_type","trial_choice_set","difficulty_level","target_side","competitor_side","tc_correct","correct_dist_to_mean","side_correct","attr_choice","stimulus"
"true","enter-fullscreen-mode","fullscreen","0","2852","0.0-0.0","20211008","135","","","","","","","","","","","","","","","","","","","","","","","","","","","","","","","","","","","","","","","","","","","","","","","","","",""
"","enter-sub-number","survey-html-form","1","9716","0.0-1.0","20211008","135","6846","{""response"":""135""}","","","","","","","","","","","","","","","","","","","","","","","","","","","","","","","","","","","","","","","","","","","","","","","",""
"true","","preload","2","9738","0.0-2.0-0.0","20211008","135","","","false","[]","[]","[]","","","","","","","","","","","","","","","","","","","","","","","","","","","","","","","","","","","","","","","","","","","",""
"","instructions","instructions","3","72228","0.0-2.0-1.0","20211008","135","62486","","","","","","[{""page_index"":0,""viewing_time"":5710},{""page_index"":1,""viewing_time"":6416},{""page_index"":2,""viewing_time"":12920},{""page_index"":3,""viewing_time"":25126},{""page_index"":4,""viewing_time"":5336},{""page_index"":5,""viewing_time"":2008},{""page_index"":6,""viewing_time"":4970}]","","","","","","","","","","","","","","","","","","","","","","","","","","","","","","","","","","","","","","","","","","",""
"","demo-lines","draw-demo-lines","4","132246","0.0-2.0-2.0","20211008","135","","","","","","","","lines","","","","","","","","","","","","","","","","","","","","","","","","","","","","","","","","","","","","","","","","","",""
"","click-to-begin-the-experiment","instructions","5","133786","0.0-2.0-3.0","20211008","135","1538","","","","","","[{""page_index"":0,""viewing_time"":1538}]","","","","","","","","","","","","","","","","","","","","","","","","","","","","","","","","","","","","","","","","","","",""
"","learn_trial","categorize-lines","6","141750","0.0-3.0-0.0","20211008","135","3926","","","","","","","","[309.2634]","[309.2634]","[""u"",""i""]","[""""]","null","true","out","u","YES","","0","out","","","","309.2634","learning","14.83","","","","","","","","","","","","","","","","","","","","","","","",""
"","learn_trial","categorize-lines","7","147268","0.0-3.0-0.1","20211008","135","1488","","","","","","","","[414.4426]","[414.4426]","[""u"",""i""]","[""""]","null","true","out","u","YES","","0","out","","","","414.4426","learning","20.83","","","","","","","","","","","","","","","","","","","","","","","",""
"","learn_trial","categorize-lines","8","152460","0.0-3.0-0.2","20211008","135","1162","","","","","","","","[219.1453]","[219.1453]","[""u"",""i""]","[""""]","null","true","in","i","NO","","0","in","","","","219.1453","learning","7.77","","","","","","","","","","","","","","","","","","","","","","","",""
"","learn_trial","categorize-lines","9","156118","0.0-3.0-0.3","20211008","135","1624","","","","","","","","[325.361]","[325.361]","[""u"",""i""]","[""""]","null","true","out","i","NO","","1","out","","","","325.361","learning","15.87","","","","","","","","","","","","","","","","","","","","","","","",""
"","learn_trial","categorize-lines","10","161318","0.0-3.0-0.4","20211008","135","1170","","","","","","","","[289.5496]","[289.5496]","[""u"",""i""]","[""""]","null","true","in","i","NO","","0","in","","","","289.5496","learning","13.48","","","","","","","","","","","","","","","","","","","","","","","",""
"","learn_trial","categorize-lines","11","166414","0.0-3.0-0.5","20211008","135","1066","","","","","","","","[189.3983]","[189.3983]","[""u"",""i""]","[""""]","null","true","in","i","NO","","0","in","","","","189.3983","learning","4.78","","","","","","","","","","","","","","","","","","","","","","","",""
"","learn_trial","categorize-lines","12","169508","0.0-3.0-0.6","20211008","135","1064","","","","","","","","[287.8593]","[287.8593]","[""u"",""i""]","[""""]","null","true","in","u","YES","","1","in","","","","287.8593","learning","13.36","","","","","","","","","","","","","","","","","","","","","","","",""
"","learn_trial","categorize-lines","13","174620","0.0-3.0-0.7","20211008","135","1084","","","","","","","","[335.8447]","[335.8447]","[""u"",""i""]","[""""]","null","true","out","u","YES","","0","out","","","","335.8447","learning","16.52","","","","","","","","","","","","","","","","","","","","","","","",""
"","learn_trial","categorize-lines","14","177526","0.0-3.0-0.8","20211008","135","876","","","","","","","","[235.0957]","[235.0957]","[""u"",""i""]","[""""]","null","true","in","u","YES","","1","in","","","","235.0957","learning","9.21","","","","","","","","","","","","","","","","","","","","","","","",""
"","learn_trial","categorize-lines","15","180374","0.0-3.0-0.9","20211008","135","816","","","","","","","","[316.5916]","[316.5916]","[""u"",""i""]","[""""]","null","true","out","i","NO","","1","out","","","","316.5916","learning","15.31","","","","","","","","","","","","","","","","","","","","","","","",""
"","learn_trial","categorize-lines","16","183354","0.0-3.0-0.10","20211008","135","944","","","","","","","","[158.6569]","[158.6569]","[""u"",""i""]","[""""]","null","true","out","i","NO","","1","out","","","","158.6569","learning","1.15","","","","","","","","","","","","","","","","","","","","","","","",""
"","learn_trial","categorize-lines","17","188292","0.0-3.0-0.11","20211008","135","910","","","","","","","","[223.4641]","[223.4641]","[""u"",""i""]","[""""]","null","true","out","u","YES","","0","out","","","","223.4641","learning","8.17","","","","","","","","","","","","","","","","","","","","","","","",""
"","learn_trial","categorize-lines","18","193156","0.0-3.0-0.12","20211008","135","836","","","","","","","","[205.4765]","[205.4765]","[""u"",""i""]","[""""]","null","true","in","i","NO","","0","in","","","","205.4765","learning","6.45","","","","","","","","","","","","","","","","","","","","","","","",""
"","learn_trial","categorize-lines","19","195964","0.0-3.0-0.13","20211008","135","778","","","","","","","","[308.8111]","[308.8111]","[""u"",""i""]","[""""]","null","true","in","u","YES","","1","in","","","","308.8111","learning","14.8","","","","","","","","","","","","","","","","","","","","","","","",""
"","learn_trial","categorize-lines","20","198620","0.0-3.0-0.14","20211008","135","628","","","","","","","","[302.5474]","[302.5474]","[""u"",""i""]","[""""]","null","true","in","u","YES","","1","in","","","","302.5474","learning","14.38","","","","","","","","","","","","","","","","","","","","","","","",""
"","learn_trial","categorize-lines","21","203988","0.0-3.0-0.15","20211008","135","1338","","","","","","","","[217.0172]","[217.0172]","[""u"",""i""]","[""""]","null","true","out","u","YES","","0","out","","","","217.0172","learning","7.57","","","","","","","","","","","","","","","","","","","","","","","",""
"","learn_trial","categorize-lines","22","206516","0.0-3.0-0.16","20211008","135","500","","","","","","","","[306.8586]","[306.8586]","[""u"",""i""]","[""""]","null","true","in","u","YES","","1","in","","","","306.8586","learning","14.67","","","","","","","","","","","","","","","","","","","","","","","",""
"","learn_trial","categorize-lines","23","211460","0.0-3.0-0.17","20211008","135","912","","","","","","","","[383.8815]","[383.8815]","[""u"",""i""]","[""""]","null","true","out","u","YES","","0","out","","","","383.8815","learning","19.26","","","","","","","","","","","","","","","","","","","","","","","",""
"","learn_trial","categorize-lines","24","214420","0.0-3.0-0.18","20211008","135","932","","","","","","","","[427.3794]","[427.3794]","[""u"",""i""]","[""""]","null","true","out","i","NO","","1","out","","","","427.3794","learning","21.46","","","","","","","","","","","","","","","","","","","","","","","",""
"","learn_trial","categorize-lines","25","217724","0.0-3.0-0.19","20211008","135","1274","","","","","","","","[169.8728]","[169.8728]","[""u"",""i""]","[""""]","null","true","out","i","NO","","1","out","","","","169.8728","learning","2.55","","","","","","","","","","","","","","","","","","","","","","","",""
"","learn_trial","categorize-lines","26","220268","0.0-3.0-0.20","20211008","135","514","","","","","","","","[275.2239]","[275.2239]","[""u"",""i""]","[""""]","null","true","in","u","YES","","1","in","","","","275.2239","learning","12.44","","","","","","","","","","","","","","","","","","","","","","","",""
"","learn_trial","categorize-lines","27","223068","0.0-3.0-0.21","20211008","135","772","","","","","","","","[327.7509]","[327.7509]","[""u"",""i""]","[""""]","null","true","in","u","YES","","1","in","","","","327.7509","learning","16.02","","","","","","","","","","","","","","","","","","","","","","","",""
"","learn_trial","categorize-lines","28","228004","0.0-3.0-0.22","20211008","135","908","","","","","","","","[231.4537]","[231.4537]","[""u"",""i""]","[""""]","null","true","in","i","NO","","0","in","","","","231.4537","learning","8.89","","","","","","","","","","","","","","","","","","","","","","","",""
"","learn_trial","categorize-lines","29","232530","0.0-3.0-0.23","20211008","135","500","","","","","","","","[232.019]","[232.019]","[""u"",""i""]","[""""]","null","true","in","i","NO","","0","in","","","","232.019","learning","8.94","","","","","","","","","","","","","","","","","","","","","","","",""
"","learn_trial","categorize-lines","30","235300","0.0-3.0-0.24","20211008","135","742","","","","","","","","[223.5732]","[223.5732]","[""u"",""i""]","[""""]","null","true","in","u","YES","","1","in","","","","223.5732","learning","8.18","","","","","","","","","","","","","","","","","","","","","","","",""
"","learn_trial","categorize-lines","31","237996","0.0-3.0-0.25","20211008","135","668","","","","","","","","[242.6709]","[242.6709]","[""u"",""i""]","[""""]","null","true","in","u","YES","","1","in","","","","242.6709","learning","9.86","","","","","","","","","","","","","","","","","","","","","","","",""
"","learn_trial","categorize-lines","32","240548","0.0-3.0-0.26","20211008","135","522","","","","","","","","[243.7389]","[243.7389]","[""u"",""i""]","[""""]","null","true","in","u","YES","","1","in","","","","243.7389","learning","9.95","","","","","","","","","","","","","","","","","","","","","","","",""
"","learn_trial","categorize-lines","33","243372","0.0-3.0-0.27","20211008","135","796","","","","","","","","[179.6767]","[179.6767]","[""u"",""i""]","[""""]","null","true","out","i","NO","","1","out","","","","179.6767","learning","3.7","","","","","","","","","","","","","","","","","","","","","","","",""
"","learn_trial","categorize-lines","34","246204","0.0-3.0-0.28","20211008","135","804","","","","","","","","[235.555]","[235.555]","[""u"",""i""]","[""""]","null","true","in","u","YES","","1","in","","","","235.555","learning","9.25","","","","","","","","","","","","","","","","","","","","","","","",""
"","learn_trial","categorize-lines","35","249052","0.0-3.0-0.29","20211008","135","820","","","","","","","","[316.4372]","[316.4372]","[""u"",""i""]","[""""]","null","true","in","u","YES","","1","in","","","","316.4372","learning","15.3","","","","","","","","","","","","","","","","","","","","","","","",""
"","learn_trial","categorize-lines","36","251820","0.0-3.0-0.30","20211008","135","722","","","","","","","","[271.7546]","[271.7546]","[""u"",""i""]","[""""]","null","true","in","u","YES","","1","in","","","","271.7546","learning","12.18","","","","","","","","","","","","","","","","","","","","","","","",""
"","learn_trial","categorize-lines","37","256356","0.0-3.0-0.31","20211008","135","508","","","","","","","","[256.4258]","[256.4258]","[""u"",""i""]","[""""]","null","true","out","u","YES","","0","out","","","","256.4258","learning","10.99","","","","","","","","","","","","","","","","","","","","","","","",""
"","learn_trial","categorize-lines","38","258956","0.0-3.0-0.32","20211008","135","572","","","","","","","","[246.0089]","[246.0089]","[""u"",""i""]","[""""]","null","true","in","u","YES","","1","in","","","","246.0089","learning","10.14","","","","","","","","","","","","","","","","","","","","","","","",""
"","learn_trial","categorize-lines","39","263628","0.0-3.0-0.33","20211008","135","644","","","","","","","","[372.443]","[372.443]","[""u"",""i""]","[""""]","null","true","in","i","NO","","0","in","","","","372.443","learning","18.64","","","","","","","","","","","","","","","","","","","","","","","",""
"","learn_trial","categorize-lines","40","266484","0.0-3.0-0.34","20211008","135","828","","","","","","","","[264.3011]","[264.3011]","[""u"",""i""]","[""""]","null","true","in","u","YES","","1","in","","","","264.3011","learning","11.61","","","","","","","","","","","","","","","","","","","","","","","",""
"","learn_trial","categorize-lines","41","269244","0.0-3.0-0.35","20211008","135","730","","","","","","","","[224.886]","[224.886]","[""u"",""i""]","[""""]","null","true","in","u","YES","","1","in","","","","224.886","learning","8.3","","","","","","","","","","","","","","","","","","","","","","","",""
"","learn_trial","categorize-lines","42","273972","0.0-3.0-0.36","20211008","135","700","","","","","","","","[367.7482]","[367.7482]","[""u"",""i""]","[""""]","null","true","out","u","YES","","0","out","","","","367.7482","learning","18.38","","","","","","","","","","","","","","","","","","","","","","","",""
"","learn_trial","categorize-lines","43","276892","0.0-3.0-0.37","20211008","135","890","","","","","","","","[162.972]","[162.972]","[""u"",""i""]","[""""]","null","true","out","i","NO","","1","out","","","","162.972","learning","1.7","","","","","","","","","","","","","","","","","","","","","","","",""
"","learn_trial","categorize-lines","44","281828","0.0-3.0-0.38","20211008","135","908","","","","","","","","[391.0651]","[391.0651]","[""u"",""i""]","[""""]","null","true","out","u","YES","","0","out","","","","391.0651","learning","19.64","","","","","","","","","","","","","","","","","","","","","","","",""
"","learn_trial","categorize-lines","45","286236","0.0-3.0-0.39","20211008","135","380","","","","","","","","[212.3044]","[212.3044]","[""u"",""i""]","[""""]","null","true","in","i","NO","","0","in","","","","212.3044","learning","7.12","","","","","","","","","","","","","","","","","","","","","","","",""
"","learn_trial","categorize-lines","46","289108","0.0-3.0-0.40","20211008","135","844","","","","","","","","[226.3169]","[226.3169]","[""u"",""i""]","[""""]","null","true","out","i","NO","","1","out","","","","226.3169","learning","8.43","","","","","","","","","","","","","","","","","","","","","","","",""
"","learn_trial","categorize-lines","47","291876","0.0-3.0-0.41","20211008","135","740","","","","","","","","[226.0962]","[226.0962]","[""u"",""i""]","[""""]","null","true","in","u","YES","","1","in","","","","226.0962","learning","8.41","","","","","","","","","","","","","","","","","","","","","","","",""
"","learn_trial","categorize-lines","48","296260","0.0-3.0-0.42","20211008","135","356","","","","","","","","[170.787]","[170.787]","[""u"",""i""]","[""""]","null","true","out","u","YES","","0","out","","","","170.787","learning","2.66","","","","","","","","","","","","","","","","","","","","","","","",""
"","learn_trial","categorize-lines","49","299020","0.0-3.0-0.43","20211008","135","732","","","","","","","","[189.1213]","[189.1213]","[""u"",""i""]","[""""]","null","true","out","i","NO","","1","out","","","","189.1213","learning","4.75","","","","","","","","","","","","","","","","","","","","","","","",""
"","learn_trial","categorize-lines","50","301626","0.0-3.0-0.44","20211008","135","582","","","","","","","","[228.0906]","[228.0906]","[""u"",""i""]","[""""]","null","true","out","i","NO","","1","out","","","","228.0906","learning","8.59","","","","","","","","","","","","","","","","","","","","","","","",""
"","learn_trial","categorize-lines","51","304252","0.0-3.0-0.45","20211008","135","598","","","","","","","","[278.7375]","[278.7375]","[""u"",""i""]","[""""]","null","true","in","u","YES","","1","in","","","","278.7375","learning","12.7","","","","","","","","","","","","","","","","","","","","","","","",""
"","learn_trial","categorize-lines","52","307112","0.0-3.0-0.46","20211008","135","828","","","","","","","","[189.4907]","[189.4907]","[""u"",""i""]","[""""]","null","true","out","i","NO","","1","out","","","","189.4907","learning","4.79","","","","","","","","","","","","","","","","","","","","","","","",""
"","learn_trial","categorize-lines","53","309746","0.0-3.0-0.47","20211008","135","608","","","","","","","","[286.8779]","[286.8779]","[""u"",""i""]","[""""]","null","true","in","u","YES","","1","in","","","","286.8779","learning","13.29","","","","","","","","","","","","","","","","","","","","","","","",""
"","learn_trial","categorize-lines","54","312388","0.0-3.0-0.48","20211008","135","614","","","","","","","","[254.3077]","[254.3077]","[""u"",""i""]","[""""]","null","true","in","u","YES","","1","in","","","","254.3077","learning","10.82","","","","","","","","","","","","","","","","","","","","","","","",""
"","learn_trial","categorize-lines","55","315156","0.0-3.0-0.49","20211008","135","740","","","","","","","","[302.3998]","[302.3998]","[""u"",""i""]","[""""]","null","true","out","i","NO","","1","out","","","","302.3998","learning","14.37","","","","","","","","","","","","","","","","","","","","","","","",""
"","learn_trial","categorize-lines","56","317754","0.0-3.0-0.50","20211008","135","570","","","","","","","","[233.8373]","[233.8373]","[""u"",""i""]","[""""]","null","true","in","u","YES","","1","in","","","","233.8373","learning","9.1","","","","","","","","","","","","","","","","","","","","","","","",""
"","learn_trial","categorize-lines","57","320348","0.0-3.0-0.51","20211008","135","566","","","","","","","","[261.6069]","[261.6069]","[""u"",""i""]","[""""]","null","true","in","u","YES","","1","in","","","","261.6069","learning","11.4","","","","","","","","","","","","","","","","","","","","","","","",""
"","learn_trial","categorize-lines","58","322988","0.0-3.0-0.52","20211008","135","614","","","","","","","","[173.1362]","[173.1362]","[""u"",""i""]","[""""]","null","true","out","i","NO","","1","out","","","","173.1362","learning","2.94","","","","","","","","","","","","","","","","","","","","","","","",""
"","learn_trial","categorize-lines","59","325424","0.0-3.0-0.53","20211008","135","412","","","","","","","","[260.5878]","[260.5878]","[""u"",""i""]","[""""]","null","true","in","u","YES","","1","in","","","","260.5878","learning","11.32","","","","","","","","","","","","","","","","","","","","","","","",""
"","learn_trial","categorize-lines","60","328198","0.0-3.0-0.54","20211008","135","744","","","","","","","","[433.4695]","[433.4695]","[""u"",""i""]","[""""]","null","true","out","i","NO","","1","out","","","","433.4695","learning","21.75","","","","","","","","","","","","","","","","","","","","","","","",""
"","learn_trial","categorize-lines","61","332778","0.0-3.0-0.55","20211008","135","556","","","","","","","","[292.6743]","[292.6743]","[""u"",""i""]","[""""]","null","true","out","u","YES","","0","out","","","","292.6743","learning","13.7","","","","","","","","","","","","","","","","","","","","","","","",""
"","learn_trial","categorize-lines","62","337722","0.0-3.0-0.56","20211008","135","916","","","","","","","","[324.5682]","[324.5682]","[""u"",""i""]","[""""]","null","true","in","i","NO","","0","in","","","","324.5682","learning","15.82","","","","","","","","","","","","","","","","","","","","","","","",""
"","learn_trial","categorize-lines","63","342498","0.0-3.0-0.57","20211008","135","748","","","","","","","","[170.5372]","[170.5372]","[""u"",""i""]","[""""]","null","true","in","i","NO","","0","in","","","","170.5372","learning","2.63","","","","","","","","","","","","","","","","","","","","","","","",""
"","learn_trial","categorize-lines","64","345330","0.0-3.0-0.58","20211008","135","806","","","","","","","","[441.7966]","[441.7966]","[""u"",""i""]","[""""]","null","true","out","i","NO","","1","out","","","","441.7966","learning","22.14","","","","","","","","","","","","","","","","","","","","","","","",""
"","learn_trial","categorize-lines","65","350052","0.0-3.0-0.59","20211008","135","692","","","","","","","","[257.4286]","[257.4286]","[""u"",""i""]","[""""]","null","true","out","u","YES","","0","out","","","","257.4286","learning","11.07","","","","","","","","","","","","","","","","","","","","","","","",""
"","learn_trial","categorize-lines","66","352858","0.0-3.0-0.60","20211008","135","780","","","","","","","","[425.0919]","[425.0919]","[""u"",""i""]","[""""]","null","true","out","i","NO","","1","out","","","","425.0919","learning","21.35","","","","","","","","","","","","","","","","","","","","","","","",""
"","learn_trial","categorize-lines","67","357570","0.0-3.0-0.61","20211008","135","684","","","","","","","","[198.8682]","[198.8682]","[""u"",""i""]","[""""]","null","true","in","i","NO","","0","in","","","","198.8682","learning","5.78","","","","","","","","","","","","","","","","","","","","","","","",""
"","learn_trial","categorize-lines","68","360554","0.0-3.0-0.62","20211008","135","956","","","","","","","","[305.9616]","[305.9616]","[""u"",""i""]","[""""]","null","true","in","u","YES","","1","in","","","","305.9616","learning","14.61","","","","","","","","","","","","","","","","","","","","","","","",""
"","learn_trial","categorize-lines","69","365140","0.0-3.0-0.63","20211008","135","554","","","","","","","","[206.4815]","[206.4815]","[""u"",""i""]","[""""]","null","true","out","u","YES","","0","out","","","","206.4815","learning","6.55","","","","","","","","","","","","","","","","","","","","","","","",""
"","learn_trial","categorize-lines","70","367802","0.0-3.0-0.64","20211008","135","638","","","","","","","","[172.2094]","[172.2094]","[""u"",""i""]","[""""]","null","true","out","i","NO","","1","out","","","","172.2094","learning","2.83","","","","","","","","","","","","","","","","","","","","","","","",""
"","learn_trial","categorize-lines","71","370434","0.0-3.0-0.65","20211008","135","604","","","","","","","","[197.4181]","[197.4181]","[""u"",""i""]","[""""]","null","true","in","u","YES","","1","in","","","","197.4181","learning","5.63","","","","","","","","","","","","","","","","","","","","","","","",""
"","learn_trial","categorize-lines","72","375028","0.0-3.0-0.66","20211008","135","562","","","","","","","","[186.3733]","[186.3733]","[""u"",""i""]","[""""]","null","true","out","u","YES","","0","out","","","","186.3733","learning","4.45","","","","","","","","","","","","","","","","","","","","","","","",""
"","learn_trial","categorize-lines","73","377850","0.0-3.0-0.67","20211008","135","794","","","","","","","","[433.4695]","[433.4695]","[""u"",""i""]","[""""]","null","true","out","i","NO","","1","out","","","","433.4695","learning","21.75","","","","","","","","","","","","","","","","","","","","","","","",""
"","learn_trial","categorize-lines","74","382530","0.0-3.0-0.68","20211008","135","650","","","","","","","","[204.3767]","[204.3767]","[""u"",""i""]","[""""]","null","true","out","u","YES","","0","out","","","","204.3767","learning","6.34","","","","","","","","","","","","","","","","","","","","","","","",""
"","learn_trial","categorize-lines","75","387226","0.0-3.0-0.69","20211008","135","668","","","","","","","","[370.2688]","[370.2688]","[""u"",""i""]","[""""]","null","true","out","u","YES","","0","out","","","","370.2688","learning","18.52","","","","","","","","","","","","","","","","","","","","","","","",""
"","learn_trial","categorize-lines","76","391746","0.0-3.0-0.70","20211008","135","486","","","","","","","","[233.9515]","[233.9515]","[""u"",""i""]","[""""]","null","true","in","i","NO","","0","in","","","","233.9515","learning","9.11","","","","","","","","","","","","","","","","","","","","","","","",""
"","learn_trial","categorize-lines","77","396346","0.0-3.0-0.71","20211008","135","570","","","","","","","","[179.0641]","[179.0641]","[""u"",""i""]","[""""]","null","true","in","i","NO","","0","in","","","","179.0641","learning","3.63","","","","","","","","","","","","","","","","","","","","","","","",""
"","learn_trial","categorize-lines","78","399010","0.0-3.0-0.72","20211008","135","636","","","","","","","","[303.4343]","[303.4343]","[""u"",""i""]","[""""]","null","true","in","u","YES","","1","in","","","","303.4343","learning","14.44","","","","","","","","","","","","","","","","","","","","","","","",""
"","learn_trial","categorize-lines","79","403706","0.0-3.0-0.73","20211008","135","666","","","","","","","","[343.8027]","[343.8027]","[""u"",""i""]","[""""]","null","true","out","u","YES","","0","out","","","","343.8027","learning","17","","","","","","","","","","","","","","","","","","","","","","","",""
"","learn_trial","categorize-lines","80","406466","0.0-3.0-0.74","20211008","135","732","","","","","","","","[188.2927]","[188.2927]","[""u"",""i""]","[""""]","null","true","out","i","NO","","1","out","","","","188.2927","learning","4.66","","","","","","","","","","","","","","","","","","","","","","","",""
"","learn_trial","categorize-lines","81","409050","0.0-3.0-0.75","20211008","135","556","","","","","","","","[157.3464]","[157.3464]","[""u"",""i""]","[""""]","null","true","out","i","NO","","1","out","","","","157.3464","learning","0.98","","","","","","","","","","","","","","","","","","","","","","","",""
"","learn_trial","categorize-lines","82","411788","0.0-3.0-0.76","20211008","135","708","","","","","","","","[426.7543]","[426.7543]","[""u"",""i""]","[""""]","null","true","out","i","NO","","1","out","","","","426.7543","learning","21.43","","","","","","","","","","","","","","","","","","","","","","","",""
"","learn_trial","categorize-lines","83","416562","0.0-3.0-0.77","20211008","135","744","","","","","","","","[249.3927]","[249.3927]","[""u"",""i""]","[""""]","null","true","out","u","YES","","0","out","","","","249.3927","learning","10.42","","","","","","","","","","","","","","","","","","","","","","","",""
"","learn_trial","categorize-lines","84","419386","0.0-3.0-0.78","20211008","135","794","","","","","","","","[237.6328]","[237.6328]","[""u"",""i""]","[""""]","null","true","in","u","YES","","1","in","","","","237.6328","learning","9.43","","","","","","","","","","","","","","","","","","","","","","","",""
"","learn_trial","categorize-lines","85","422042","0.0-3.0-0.79","20211008","135","626","","","","","","","","[269.5099]","[269.5099]","[""u"",""i""]","[""""]","null","true","in","u","YES","","1","in","","","","269.5099","learning","12.01","","","","","","","","","","","","","","","","","","","","","","","",""
"","learn_trial","categorize-lines","86","424674","0.0-3.0-0.80","20211008","135","604","","","","","","","","[241.7256]","[241.7256]","[""u"",""i""]","[""""]","null","true","in","u","YES","","1","in","","","","241.7256","learning","9.78","","","","","","","","","","","","","","","","","","","","","","","",""
"","learn_trial","categorize-lines","87","429242","0.0-3.0-0.81","20211008","135","538","","","","","","","","[261.0969]","[261.0969]","[""u"",""i""]","[""""]","null","true","out","u","YES","","0","out","","","","261.0969","learning","11.36","","","","","","","","","","","","","","","","","","","","","","","",""
"","learn_trial","categorize-lines","88","433954","0.0-3.0-0.82","20211008","135","682","","","","","","","","[354.016]","[354.016]","[""u"",""i""]","[""""]","null","true","in","i","NO","","0","in","","","","354.016","learning","17.6","","","","","","","","","","","","","","","","","","","","","","","",""
"","learn_trial","categorize-lines","89","436674","0.0-3.0-0.83","20211008","135","692","","","","","","","","[153.0308]","[153.0308]","[""u"",""i""]","[""""]","null","true","out","i","NO","","1","out","","","","153.0308","learning","0.41","","","","","","","","","","","","","","","","","","","","","","","",""
"","learn_trial","categorize-lines","90","439290","0.0-3.0-0.84","20211008","135","588","","","","","","","","[260.715]","[260.715]","[""u"",""i""]","[""""]","null","true","in","u","YES","","1","in","","","","260.715","learning","11.33","","","","","","","","","","","","","","","","","","","","","","","",""
"","learn_trial","categorize-lines","91","444066","0.0-3.0-0.85","20211008","135","746","","","","","","","","[328.3911]","[328.3911]","[""u"",""i""]","[""""]","null","true","out","u","YES","","0","out","","","","328.3911","learning","16.06","","","","","","","","","","","","","","","","","","","","","","","",""
"","learn_trial","categorize-lines","92","448754","0.0-3.0-0.86","20211008","135","658","","","","","","","","[234.2942]","[234.2942]","[""u"",""i""]","[""""]","null","true","in","i","NO","","0","in","","","","234.2942","learning","9.14","","","","","","","","","","","","","","","","","","","","","","","",""
"","learn_trial","categorize-lines","93","451292","0.0-3.0-0.87","20211008","135","502","","","","","","","","[196.2656]","[196.2656]","[""u"",""i""]","[""""]","null","true","in","u","YES","","1","in","","","","196.2656","learning","5.51","","","","","","","","","","","","","","","","","","","","","","","",""
"","learn_trial","categorize-lines","94","453938","0.0-3.0-0.88","20211008","135","616","","","","","","","","[340.7966]","[340.7966]","[""u"",""i""]","[""""]","null","true","out","i","NO","","1","out","","","","340.7966","learning","16.82","","","","","","","","","","","","","","","","","","","","","","","",""
"","learn_trial","categorize-lines","95","458610","0.0-3.0-0.89","20211008","135","642","","","","","","","","[274.6873]","[274.6873]","[""u"",""i""]","[""""]","null","true","out","u","YES","","0","out","","","","274.6873","learning","12.4","","","","","","","","","","","","","","","","","","","","","","","",""
"","learn_trial","categorize-lines","96","463138","0.0-3.0-0.90","20211008","135","498","","","","","","","","[262.5019]","[262.5019]","[""u"",""i""]","[""""]","null","true","in","i","NO","","0","in","","","","262.5019","learning","11.47","","","","","","","","","","","","","","","","","","","","","","","",""
"","learn_trial","categorize-lines","97","465890","0.0-3.0-0.91","20211008","135","722","","","","","","","","[402.0934]","[402.0934]","[""u"",""i""]","[""""]","null","true","out","i","NO","","1","out","","","","402.0934","learning","20.21","","","","","","","","","","","","","","","","","","","","","","","",""
"","learn_trial","categorize-lines","98","470698","0.0-3.0-0.92","20211008","135","778","","","","","","","","[356.0948]","[356.0948]","[""u"",""i""]","[""""]","null","true","in","i","NO","","0","in","","","","356.0948","learning","17.72","","","","","","","","","","","","","","","","","","","","","","","",""
"","learn_trial","categorize-lines","99","475394","0.0-3.0-0.93","20211008","135","668","","","","","","","","[352.1211]","[352.1211]","[""u"",""i""]","[""""]","null","true","out","u","YES","","0","out","","","","352.1211","learning","17.49","","","","","","","","","","","","","","","","","","","","","","","",""
"","learn_trial","categorize-lines","100","480178","0.0-3.0-0.94","20211008","135","756","","","","","","","","[389.5417]","[389.5417]","[""u"",""i""]","[""""]","null","true","in","i","NO","","0","in","","","","389.5417","learning","19.56","","","","","","","","","","","","","","","","","","","","","","","",""
"","learn_trial","categorize-lines","101","484836","0.0-3.0-0.95","20211008","135","628","","","","","","","","[306.8586]","[306.8586]","[""u"",""i""]","[""""]","null","true","out","u","YES","","0","out","","","","306.8586","learning","14.67","","","","","","","","","","","","","","","","","","","","","","","",""
"","learn_trial","categorize-lines","102","489280","0.0-3.0-0.96","20211008","135","418","","","","","","","","[338.1466]","[338.1466]","[""u"",""i""]","[""""]","null","true","out","u","YES","","0","out","","","","338.1466","learning","16.66","","","","","","","","","","","","","","","","","","","","","","","",""
"","learn_trial","categorize-lines","103","492012","0.0-3.0-0.97","20211008","135","700","","","","","","","","[234.4085]","[234.4085]","[""u"",""i""]","[""""]","null","true","out","i","NO","","1","out","","","","234.4085","learning","9.15","","","","","","","","","","","","","","","","","","","","","","","",""
"","learn_trial","categorize-lines","104","496618","0.0-3.0-0.98","20211008","135","576","","","","","","","","[319.8521]","[319.8521]","[""u"",""i""]","[""""]","null","true","in","i","NO","","0","in","","","","319.8521","learning","15.52","","","","","","","","","","","","","","","","","","","","","","","",""
"","learn_trial","categorize-lines","105","499290","0.0-3.0-0.99","20211008","135","642","","","","","","","","[294.3929]","[294.3929]","[""u"",""i""]","[""""]","null","true","in","u","YES","","1","in","","","","294.3929","learning","13.82","","","","","","","","","","","","","","","","","","","","","","","",""
"","learn_trial","categorize-lines","106","502002","0.0-3.0-0.100","20211008","135","684","","","","","","","","[157.5]","[157.5]","[""u"",""i""]","[""""]","null","true","out","i","NO","","1","out","","","","157.5","learning","1","","","","","","","","","","","","","","","","","","","","","","","",""
"","learn_trial","categorize-lines","107","506746","0.0-3.0-0.101","20211008","135","716","","","","","","","","[351.4346]","[351.4346]","[""u"",""i""]","[""""]","null","true","in","i","NO","","0","in","","","","351.4346","learning","17.45","","","","","","","","","","","","","","","","","","","","","","","",""
"","learn_trial","categorize-lines","108","509266","0.0-3.0-0.102","20211008","135","492","","","","","","","","[228.6477]","[228.6477]","[""u"",""i""]","[""""]","null","true","in","u","YES","","1","in","","","","228.6477","learning","8.64","","","","","","","","","","","","","","","","","","","","","","","",""
"","learn_trial","categorize-lines","109","511954","0.0-3.0-0.103","20211008","135","660","","","","","","","","[278.0583]","[278.0583]","[""u"",""i""]","[""""]","null","true","in","u","YES","","1","in","","","","278.0583","learning","12.65","","","","","","","","","","","","","","","","","","","","","","","",""
"","learn_trial","categorize-lines","110","514522","0.0-3.0-0.104","20211008","135","540","","","","","","","","[354.5346]","[354.5346]","[""u"",""i""]","[""""]","null","true","in","u","YES","","1","in","","","","354.5346","learning","17.63","","","","","","","","","","","","","","","","","","","","","","","",""
"","learn_trial","categorize-lines","111","519130","0.0-3.0-0.105","20211008","135","580","","","","","","","","[219.1453]","[219.1453]","[""u"",""i""]","[""""]","null","true","in","i","NO","","0","in","","","","219.1453","learning","7.77","","","","","","","","","","","","","","","","","","","","","","","",""
"","learn_trial","categorize-lines","112","523778","0.0-3.0-0.106","20211008","135","620","","","","","","","","[204.9759]","[204.9759]","[""u"",""i""]","[""""]","null","true","in","i","NO","","0","in","","","","204.9759","learning","6.4","","","","","","","","","","","","","","","","","","","","","","","",""
"","learn_trial","categorize-lines","113","526578","0.0-3.0-0.107","20211008","135","772","","","","","","","","[219.6805]","[219.6805]","[""u"",""i""]","[""""]","null","true","in","u","YES","","1","in","","","","219.6805","learning","7.82","","","","","","","","","","","","","","","","","","","","","","","",""
"","learn_trial","categorize-lines","114","529048","0.0-3.0-0.108","20211008","135","442","","","","","","","","[235.4401]","[235.4401]","[""u"",""i""]","[""""]","null","true","in","u","YES","","1","in","","","","235.4401","learning","9.24","","","","","","","","","","","","","","","","","","","","","","","",""
"","learn_trial","categorize-lines","115","531496","0.0-3.0-0.109","20211008","135","420","","","","","","","","[260.715]","[260.715]","[""u"",""i""]","[""""]","null","true","in","u","YES","","1","in","","","","260.715","learning","11.33","","","","","","","","","","","","","","","","","","","","","","","",""
"","learn_trial","categorize-lines","116","535864","0.0-3.0-0.110","20211008","135","340","","","","","","","","[160.4473]","[160.4473]","[""u"",""i""]","[""""]","null","true","out","u","YES","","0","out","","","","160.4473","learning","1.38","","","","","","","","","","","","","","","","","","","","","","","",""
"","learn_trial","categorize-lines","117","541010","0.0-3.0-0.111","20211008","135","1116","","","","","","","","[177.9319]","[177.9319]","[""u"",""i""]","[""""]","null","true","out","u","YES","","0","out","","","","177.9319","learning","3.5","","","","","","","","","","","","","","","","","","","","","","","",""
"","learn_trial","categorize-lines","118","545682","0.0-3.0-0.112","20211008","135","644","","","","","","","","[381.2683]","[381.2683]","[""u"",""i""]","[""""]","null","true","out","u","YES","","0","out","","","","381.2683","learning","19.12","","","","","","","","","","","","","","","","","","","","","","","",""
"","learn_trial","categorize-lines","119","550346","0.0-3.0-0.113","20211008","135","632","","","","","","","","[367.2103]","[367.2103]","[""u"",""i""]","[""""]","null","true","out","u","YES","","0","out","","","","367.2103","learning","18.35","","","","","","","","","","","","","","","","","","","","","","","",""
"","learn_trial","categorize-lines","120","554784","0.0-3.0-0.114","20211008","135","410","","","","","","","","[286.1789]","[286.1789]","[""u"",""i""]","[""""]","null","true","in","i","NO","","0","in","","","","286.1789","learning","13.24","","","","","","","","","","","","","","","","","","","","","","","",""
"","learn_trial","categorize-lines","121","559538","0.0-3.0-0.115","20211008","135","726","","","","","","","","[214.9099]","[214.9099]","[""u"",""i""]","[""""]","null","true","out","u","YES","","0","out","","","","214.9099","learning","7.37","","","","","","","","","","","","","","","","","","","","","","","",""
"","learn_trial","categorize-lines","122","564186","0.0-3.0-0.116","20211008","135","620","","","","","","","","[213.0308]","[213.0308]","[""u"",""i""]","[""""]","null","true","in","i","NO","","0","in","","","","213.0308","learning","7.19","","","","","","","","","","","","","","","","","","","","","","","",""
"","learn_trial","categorize-lines","123","566802","0.0-3.0-0.117","20211008","135","588","","","","","","","","[259.5727]","[259.5727]","[""u"",""i""]","[""""]","null","true","in","u","YES","","1","in","","","","259.5727","learning","11.24","","","","","","","","","","","","","","","","","","","","","","","",""
"","learn_trial","categorize-lines","124","571450","0.0-3.0-0.118","20211008","135","622","","","","","","","","[243.0264]","[243.0264]","[""u"",""i""]","[""""]","null","true","out","u","YES","","0","out","","","","243.0264","learning","9.89","","","","","","","","","","","","","","","","","","","","","","","",""
"","learn_trial","categorize-lines","125","576002","0.0-3.0-0.119","20211008","135","524","","","","","","","","[288.4217]","[288.4217]","[""u"",""i""]","[""""]","null","true","in","i","NO","","0","in","","","","288.4217","learning","13.4","","","","","","","","","","","","","","","","","","","","","","","",""
"","learn_trial","categorize-lines","126","578480","0.0-3.0-0.120","20211008","135","452","","","","","","","","[314.8971]","[314.8971]","[""u"",""i""]","[""""]","null","true","in","u","YES","","1","in","","","","314.8971","learning","15.2","","","","","","","","","","","","","","","","","","","","","","","",""
"","learn_trial","categorize-lines","127","581082","0.0-3.0-0.121","20211008","135","572","","","","","","","","[292.2463]","[292.2463]","[""u"",""i""]","[""""]","null","true","in","u","YES","","1","in","","","","292.2463","learning","13.67","","","","","","","","","","","","","","","","","","","","","","","",""
"","learn_trial","categorize-lines","128","583528","0.0-3.0-0.122","20211008","135","418","","","","","","","","[258.5615]","[258.5615]","[""u"",""i""]","[""""]","null","true","in","u","YES","","1","in","","","","258.5615","learning","11.16","","","","","","","","","","","","","","","","","","","","","","","",""
"","learn_trial","categorize-lines","129","587984","0.0-3.0-0.123","20211008","135","430","","","","","","","","[255.801]","[255.801]","[""u"",""i""]","[""""]","null","true","out","u","YES","","0","out","","","","255.801","learning","10.94","","","","","","","","","","","","","","","","","","","","","","","",""
"","learn_trial","categorize-lines","130","590506","0.0-3.0-0.124","20211008","135","496","","","","","","","","[318.7615]","[318.7615]","[""u"",""i""]","[""""]","null","true","out","i","NO","","1","out","","","","318.7615","learning","15.45","","","","","","","","","","","","","","","","","","","","","","","",""
"","learn_trial","categorize-lines","131","593034","0.0-3.0-0.125","20211008","135","500","","","","","","","","[268.0673]","[268.0673]","[""u"",""i""]","[""""]","null","true","out","i","NO","","1","out","","","","268.0673","learning","11.9","","","","","","","","","","","","","","","","","","","","","","","",""
"","learn_trial","categorize-lines","132","597968","0.0-3.0-0.126","20211008","135","908","","","","","","","","[196.3614]","[196.3614]","[""u"",""i""]","[""""]","null","true","in","i","NO","","0","in","","","","196.3614","learning","5.52","","","","","","","","","","","","","","","","","","","","","","","",""
"","learn_trial","categorize-lines","133","602546","0.0-3.0-0.127","20211008","135","548","","","","","","","","[273.0837]","[273.0837]","[""u"",""i""]","[""""]","null","true","out","u","YES","","0","out","","","","273.0837","learning","12.28","","","","","","","","","","","","","","","","","","","","","","","",""
"","learn_trial","categorize-lines","134","604938","0.0-3.0-0.128","20211008","135","366","","","","","","","","[185.4662]","[185.4662]","[""u"",""i""]","[""""]","null","true","out","i","NO","","1","out","","","","185.4662","learning","4.35","","","","","","","","","","","","","","","","","","","","","","","",""
"","learn_trial","categorize-lines","135","609706","0.0-3.0-0.129","20211008","135","740","","","","","","","","[380.8964]","[380.8964]","[""u"",""i""]","[""""]","null","true","out","u","YES","","0","out","","","","380.8964","learning","19.1","","","","","","","","","","","","","","","","","","","","","","","",""
"","learn_trial","categorize-lines","136","614282","0.0-3.0-0.130","20211008","135","548","","","","","","","","[150.8808]","[150.8808]","[""u"",""i""]","[""""]","null","true","out","u","YES","","0","out","","","","150.8808","learning","0.12","","","","","","","","","","","","","","","","","","","","","","","",""
"","learn_trial","categorize-lines","137","618874","0.0-3.0-0.131","20211008","135","564","","","","","","","","[338.8071]","[338.8071]","[""u"",""i""]","[""""]","null","true","out","u","YES","","0","out","","","","338.8071","learning","16.7","","","","","","","","","","","","","","","","","","","","","","","",""
"","learn_trial","categorize-lines","138","621400","0.0-3.0-0.132","20211008","135","500","","","","","","","","[284.5082]","[284.5082]","[""u"",""i""]","[""""]","null","true","out","i","NO","","1","out","","","","284.5082","learning","13.12","","","","","","","","","","","","","","","","","","","","","","","",""
"","learn_trial","categorize-lines","139","625856","0.0-3.0-0.133","20211008","135","428","","","","","","","","[241.019]","[241.019]","[""u"",""i""]","[""""]","null","true","in","i","NO","","0","in","","","","241.019","learning","9.72","","","","","","","","","","","","","","","","","","","","","","","",""
"","learn_trial","categorize-lines","140","628472","0.0-3.0-0.134","20211008","135","588","","","","","","","","[204.8759]","[204.8759]","[""u"",""i""]","[""""]","null","true","out","i","NO","","1","out","","","","204.8759","learning","6.39","","","","","","","","","","","","","","","","","","","","","","","",""
"","learn_trial","categorize-lines","141","631208","0.0-3.0-0.135","20211008","135","708","","","","","","","","[304.3239]","[304.3239]","[""u"",""i""]","[""""]","null","true","in","u","YES","","1","in","","","","304.3239","learning","14.5","","","","","","","","","","","","","","","","","","","","","","","",""
"","learn_trial","categorize-lines","142","634112","0.0-3.0-0.136","20211008","135","876","","","","","","","","[431.9916]","[431.9916]","[""u"",""i""]","[""""]","null","true","out","i","NO","","1","out","","","","431.9916","learning","21.68","","","","","","","","","","","","","","","","","","","","","","","",""
"","learn_trial","categorize-lines","143","636858","0.0-3.0-0.137","20211008","135","716","","","","","","","","[258.8139]","[258.8139]","[""u"",""i""]","[""""]","null","true","in","u","YES","","1","in","","","","258.8139","learning","11.18","","","","","","","","","","","","","","","","","","","","","","","",""
"","learn_trial","categorize-lines","144","642090","0.0-3.0-0.138","20211008","135","1204","","","","","","","","[395.4783]","[395.4783]","[""u"",""i""]","[""""]","null","true","out","u","YES","","0","out","","","","395.4783","learning","19.87","","","","","","","","","","","","","","","","","","","","","","","",""
"","learn_trial","categorize-lines","145","646704","0.0-3.0-0.139","20211008","135","588","","","","","","","","[242.5526]","[242.5526]","[""u"",""i""]","[""""]","null","true","in","i","NO","","0","in","","","","242.5526","learning","9.85","","","","","","","","","","","","","","","","","","","","","","","",""
"","learn_trial","categorize-lines","146","651280","0.0-3.0-0.140","20211008","135","550","","","","","","","","[235.3252]","[235.3252]","[""u"",""i""]","[""""]","null","true","out","u","YES","","0","out","","","","235.3252","learning","9.23","","","","","","","","","","","","","","","","","","","","","","","",""
"","learn_trial","categorize-lines","147","655616","0.0-3.0-0.141","20211008","135","310","","","","","","","","[215.1197]","[215.1197]","[""u"",""i""]","[""""]","null","true","in","i","NO","","0","in","","","","215.1197","learning","7.39","","","","","","","","","","","","","","","","","","","","","","","",""
"","learn_trial","categorize-lines","148","657912","0.0-3.0-0.142","20211008","135","270","","","","","","","","[245.4095]","[245.4095]","[""u"",""i""]","[""""]","null","true","in","u","YES","","1","in","","","","245.4095","learning","10.09","","","","","","","","","","","","","","","","","","","","","","","",""
"","learn_trial","categorize-lines","149","663682","0.0-3.0-0.143","20211008","135","1740","","","","","","","","[302.2523]","[302.2523]","[""u"",""i""]","[""""]","null","true","out","u","YES","","0","out","","","","302.2523","learning","14.36","","","","","","","","","","","","","","","","","","","","","","","",""
"","learn_trial","categorize-lines","150","666242","0.0-3.0-0.144","20211008","135","532","","","","","","","","[183.2177]","[183.2177]","[""u"",""i""]","[""""]","null","true","out","i","NO","","1","out","","","","183.2177","learning","4.1","","","","","","","","","","","","","","","","","","","","","","","",""
"","learn_trial","categorize-lines","151","670864","0.0-3.0-0.145","20211008","135","596","","","","","","","","[286.0393]","[286.0393]","[""u"",""i""]","[""""]","null","true","in","i","NO","","0","in","","","","286.0393","learning","13.23","","","","","","","","","","","","","","","","","","","","","","","",""
"","learn_trial","categorize-lines","152","673200","0.0-3.0-0.146","20211008","135","308","","","","","","","","[248.5424]","[248.5424]","[""u"",""i""]","[""""]","null","true","in","u","YES","","1","in","","","","248.5424","learning","10.35","","","","","","","","","","","","","","","","","","","","","","","",""
"","learn_trial","categorize-lines","153","675664","0.0-3.0-0.147","20211008","135","434","","","","","","","","[270.9602]","[270.9602]","[""u"",""i""]","[""""]","null","true","in","u","YES","","1","in","","","","270.9602","learning","12.12","","","","","","","","","","","","","","","","","","","","","","","",""
"","learn_trial","categorize-lines","154","680058","0.0-3.0-0.148","20211008","135","362","","","","","","","","[155.8185]","[155.8185]","[""u"",""i""]","[""""]","null","true","out","u","YES","","0","out","","","","155.8185","learning","0.78","","","","","","","","","","","","","","","","","","","","","","","",""
"","learn_trial","categorize-lines","155","684808","0.0-3.0-0.149","20211008","135","724","","","","","","","","[282.5715]","[282.5715]","[""u"",""i""]","[""""]","null","true","out","u","YES","","0","out","","","","282.5715","learning","12.98","","","","","","","","","","","","","","","","","","","","","","","",""
"","learn_trial","categorize-lines","156","687440","0.0-3.0-0.150","20211008","135","606","","","","","","","","[196.841]","[196.841]","[""u"",""i""]","[""""]","null","true","out","i","NO","","1","out","","","","196.841","learning","5.57","","","","","","","","","","","","","","","","","","","","","","","",""
"","learn_trial","categorize-lines","157","690152","0.0-3.0-0.151","20211008","135","684","","","","","","","","[199.354]","[199.354]","[""u"",""i""]","[""""]","null","true","out","i","NO","","1","out","","","","199.354","learning","5.83","","","","","","","","","","","","","","","","","","","","","","","",""
"","learn_trial","categorize-lines","158","694712","0.0-3.0-0.152","20211008","135","532","","","","","","","","[215.1197]","[215.1197]","[""u"",""i""]","[""""]","null","true","in","i","NO","","0","in","","","","215.1197","learning","7.39","","","","","","","","","","","","","","","","","","","","","","","",""
"","learn_trial","categorize-lines","159","699082","0.0-3.0-0.153","20211008","135","340","","","","","","","","[188.2927]","[188.2927]","[""u"",""i""]","[""""]","null","true","out","u","YES","","0","out","","","","188.2927","learning","4.66","","","","","","","","","","","","","","","","","","","","","","","",""
"","learn_trial","categorize-lines","160","701536","0.0-3.0-0.154","20211008","135","428","","","","","","","","[228.4247]","[228.4247]","[""u"",""i""]","[""""]","null","true","out","i","NO","","1","out","","","","228.4247","learning","8.62","","","","","","","","","","","","","","","","","","","","","","","",""
"","learn_trial","categorize-lines","161","707296","0.0-3.0-0.155","20211008","135","1726","","","","","","","","[282.8474]","[282.8474]","[""u"",""i""]","[""""]","null","true","out","u","YES","","0","out","","","","282.8474","learning","13","","","","","","","","","","","","","","","","","","","","","","","",""
"","learn_trial","categorize-lines","162","709528","0.0-3.0-0.156","20211008","135","202","","","","","","","","[300.928]","[300.928]","[""u"",""i""]","[""""]","null","true","out","i","NO","","1","out","","","","300.928","learning","14.27","","","","","","","","","","","","","","","","","","","","","","","",""
"","learn_trial","categorize-lines","163","713320","0.0-3.0-0.157","20211008","135","1762","","","","","","","","[346.6662]","[346.6662]","[""u"",""i""]","[""""]","null","true","in","u","YES","","1","in","","","","346.6662","learning","17.17","","","","","","","","","","","","","","","","","","","","","","","",""
"","learn_trial","categorize-lines","164","715968","0.0-3.0-0.158","20211008","135","618","","","","","","","","[217.0172]","[217.0172]","[""u"",""i""]","[""""]","null","true","out","i","NO","","1","out","","","","217.0172","learning","7.57","","","","","","","","","","","","","","","","","","","","","","","",""
"","learn_trial","categorize-lines","165","720576","0.0-3.0-0.159","20211008","135","580","","","","","","","","[304.621]","[304.621]","[""u"",""i""]","[""""]","null","true","out","u","YES","","0","out","","","","304.621","learning","14.52","","","","","","","","","","","","","","","","","","","","","","","",""
"","learn_trial","categorize-lines","166","723098","0.0-3.0-0.160","20211008","135","490","","","","","","","","[351.2632]","[351.2632]","[""u"",""i""]","[""""]","null","true","out","i","NO","","1","out","","","","351.2632","learning","17.44","","","","","","","","","","","","","","","","","","","","","","","",""
"","learn_trial","categorize-lines","167","727880","0.0-3.0-0.161","20211008","135","754","","","","","","","","[186.2824]","[186.2824]","[""u"",""i""]","[""""]","null","true","in","i","NO","","0","in","","","","186.2824","learning","4.44","","","","","","","","","","","","","","","","","","","","","","","",""
"","learn_trial","categorize-lines","168","732760","0.0-3.0-0.162","20211008","135","850","","","","","","","","[244.931]","[244.931]","[""u"",""i""]","[""""]","null","true","out","u","YES","","0","out","","","","244.931","learning","10.05","","","","","","","","","","","","","","","","","","","","","","","",""
"","learn_trial","categorize-lines","169","735024","0.0-3.0-0.163","20211008","135","236","","","","","","","","[266.7626]","[266.7626]","[""u"",""i""]","[""""]","null","true","out","i","NO","","1","out","","","","266.7626","learning","11.8","","","","","","","","","","","","","","","","","","","","","","","",""
"","learn_trial","categorize-lines","170","739968","0.0-3.0-0.164","20211008","135","914","","","","","","","","[397.6065]","[397.6065]","[""u"",""i""]","[""""]","null","true","in","i","NO","","0","in","","","","397.6065","learning","19.98","","","","","","","","","","","","","","","","","","","","","","","",""
"","learn_trial","categorize-lines","171","744864","0.0-3.0-0.165","20211008","135","868","","","","","","","","[290.1153]","[290.1153]","[""u"",""i""]","[""""]","null","true","in","i","NO","","0","in","","","","290.1153","learning","13.52","","","","","","","","","","","","","","","","","","","","","","","",""
"","learn_trial","categorize-lines","172","749560","0.0-3.0-0.166","20211008","135","668","","","","","","","","[238.6785]","[238.6785]","[""u"",""i""]","[""""]","null","true","out","u","YES","","0","out","","","","238.6785","learning","9.52","","","","","","","","","","","","","","","","","","","","","","","",""
"","learn_trial","categorize-lines","173","752184","0.0-3.0-0.167","20211008","135","594","","","","","","","","[240.0801]","[240.0801]","[""u"",""i""]","[""""]","null","true","out","i","NO","","1","out","","","","240.0801","learning","9.64","","","","","","","","","","","","","","","","","","","","","","","",""
"","learn_trial","categorize-lines","174","756960","0.0-3.0-0.168","20211008","135","2748","","","","","","","","[268.8532]","[268.8532]","[""u"",""i""]","[""""]","null","true","in","u","YES","","1","in","","","","268.8532","learning","11.96","","","","","","","","","","","","","","","","","","","","","","","",""
"","learn_trial","categorize-lines","175","761520","0.0-3.0-0.169","20211008","135","532","","","","","","","","[274.8213]","[274.8213]","[""u"",""i""]","[""""]","null","true","out","u","YES","","0","out","","","","274.8213","learning","12.41","","","","","","","","","","","","","","","","","","","","","","","",""
"","learn_trial","categorize-lines","176","764464","0.0-3.0-0.170","20211008","135","916","","","","","","","","[414.0384]","[414.0384]","[""u"",""i""]","[""""]","null","true","out","i","NO","","1","out","","","","414.0384","learning","20.81","","","","","","","","","","","","","","","","","","","","","","","",""
"","learn_trial","categorize-lines","177","767242","0.0-3.0-0.171","20211008","135","748","","","","","","","","[281.4707]","[281.4707]","[""u"",""i""]","[""""]","null","true","in","u","YES","","1","in","","","","281.4707","learning","12.9","","","","","","","","","","","","","","","","","","","","","","","",""
"","learn_trial","categorize-lines","178","769784","0.0-3.0-0.172","20211008","135","514","","","","","","","","[315.3583]","[315.3583]","[""u"",""i""]","[""""]","null","true","out","i","NO","","1","out","","","","315.3583","learning","15.23","","","","","","","","","","","","","","","","","","","","","","","",""
"","learn_trial","categorize-lines","179","772328","0.0-3.0-0.173","20211008","135","516","","","","","","","","[223.5732]","[223.5732]","[""u"",""i""]","[""""]","null","true","in","u","YES","","1","in","","","","223.5732","learning","8.18","","","","","","","","","","","","","","","","","","","","","","","",""
"","learn_trial","categorize-lines","180","777272","0.0-3.0-0.174","20211008","135","916","","","","","","","","[356.0948]","[356.0948]","[""u"",""i""]","[""""]","null","true","in","i","NO","","0","in","","","","356.0948","learning","17.72","","","","","","","","","","","","","","","","","","","","","","","",""
"","learn_trial","categorize-lines","181","781904","0.0-3.0-0.175","20211008","135","604","","","","","","","","[251.8382]","[251.8382]","[""u"",""i""]","[""""]","null","true","in","i","NO","","0","in","","","","251.8382","learning","10.62","","","","","","","","","","","","","","","","","","","","","","","",""
"","learn_trial","categorize-lines","182","784616","0.0-3.0-0.176","20211008","135","684","","","","","","","","[211.2711]","[211.2711]","[""u"",""i""]","[""""]","null","true","out","i","NO","","1","out","","","","211.2711","learning","7.02","","","","","","","","","","","","","","","","","","","","","","","",""
"","learn_trial","categorize-lines","183","789328","0.0-3.0-0.177","20211008","135","682","","","","","","","","[193.6971]","[193.6971]","[""u"",""i""]","[""""]","null","true","in","i","NO","","0","in","","","","193.6971","learning","5.24","","","","","","","","","","","","","","","","","","","","","","","",""
"","learn_trial","categorize-lines","184","791882","0.0-3.0-0.178","20211008","135","522","","","","","","","","[259.5727]","[259.5727]","[""u"",""i""]","[""""]","null","true","in","u","YES","","1","in","","","","259.5727","learning","11.24","","","","","","","","","","","","","","","","","","","","","","","",""
"","learn_trial","categorize-lines","185","799856","0.0-3.0-0.179","20211008","135","3946","","","","","","","","[297.2797]","[297.2797]","[""u"",""i""]","[""""]","null","true","in","i","NO","","0","in","","","","297.2797","learning","14.02","","","","","","","","","","","","","","","","","","","","","","","",""
"","learn_trial","categorize-lines","186","804296","0.0-3.0-0.180","20211008","135","414","","","","","","","","[272.5513]","[272.5513]","[""u"",""i""]","[""""]","null","true","out","u","YES","","0","out","","","","272.5513","learning","12.24","","","","","","","","","","","","","","","","","","","","","","","",""
"","learn_trial","categorize-lines","187","816856","0.0-3.0-0.181","20211008","135","10532","","","","","","","","[176.8932]","[176.8932]","[""u"",""i""]","[""""]","null","true","out","i","NO","","1","out","","","","176.8932","learning","3.38","","","","","","","","","","","","","","","","","","","","","","","",""
"","learn_trial","categorize-lines","188","821400","0.0-3.0-0.182","20211008","135","516","","","","","","","","[225.3253]","[225.3253]","[""u"",""i""]","[""""]","null","true","in","i","NO","","0","in","","","","225.3253","learning","8.34","","","","","","","","","","","","","","","","","","","","","","","",""
"","learn_trial","categorize-lines","189","826062","0.0-3.0-0.183","20211008","135","636","","","","","","","","[214.2817]","[214.2817]","[""u"",""i""]","[""""]","null","true","out","u","YES","","0","out","","","","214.2817","learning","7.31","","","","","","","","","","","","","","","","","","","","","","","",""
"","learn_trial","categorize-lines","190","830856","0.0-3.0-0.184","20211008","135","2764","","","","","","","","[301.663]","[301.663]","[""u"",""i""]","[""""]","null","true","in","u","YES","","1","in","","","","301.663","learning","14.32","","","","","","","","","","","","","","","","","","","","","","","",""
"","learn_trial","categorize-lines","191","833432","0.0-3.0-0.185","20211008","135","548","","","","","","","","[440.9352]","[440.9352]","[""u"",""i""]","[""""]","null","true","out","i","NO","","1","out","","","","440.9352","learning","22.1","","","","","","","","","","","","","","","","","","","","","","","",""
"","learn_trial","categorize-lines","192","836120","0.0-3.0-0.186","20211008","135","660","","","","","","","","[242.9078]","[242.9078]","[""u"",""i""]","[""""]","null","true","in","u","YES","","1","in","","","","242.9078","learning","9.88","","","","","","","","","","","","","","","","","","","","","","","",""
"","learn_trial","categorize-lines","193","840888","0.0-3.0-0.187","20211008","135","740","","","","","","","","[319.0728]","[319.0728]","[""u"",""i""]","[""""]","null","true","in","i","NO","","0","in","","","","319.0728","learning","15.47","","","","","","","","","","","","","","","","","","","","","","","",""
"","learn_trial","categorize-lines","194","845584","0.0-3.0-0.188","20211008","135","668","","","","","","","","[259.6994]","[259.6994]","[""u"",""i""]","[""""]","null","true","in","i","NO","","0","in","","","","259.6994","learning","11.25","","","","","","","","","","","","","","","","","","","","","","","",""
"","learn_trial","categorize-lines","195","848262","0.0-3.0-0.189","20211008","135","648","","","","","","","","[280.511]","[280.511]","[""u"",""i""]","[""""]","null","true","in","u","YES","","1","in","","","","280.511","learning","12.83","","","","","","","","","","","","","","","","","","","","","","","",""
"","learn_trial","categorize-lines","196","854192","0.0-3.0-0.190","20211008","135","1902","","","","","","","","[197.1294]","[197.1294]","[""u"",""i""]","[""""]","null","true","out","u","YES","","0","out","","","","197.1294","learning","5.6","","","","","","","","","","","","","","","","","","","","","","","",""
"","learn_trial","categorize-lines","197","859216","0.0-3.0-0.191","20211008","135","996","","","","","","","","[269.773]","[269.773]","[""u"",""i""]","[""""]","null","true","in","i","NO","","0","in","","","","269.773","learning","12.03","","","","","","","","","","","","","","","","","","","","","","","",""
"","learn_trial","categorize-lines","198","863750","0.0-3.0-0.192","20211008","135","508","","","","","","","","[378.8576]","[378.8576]","[""u"",""i""]","[""""]","null","true","out","u","YES","","0","out","","","","378.8576","learning","18.99","","","","","","","","","","","","","","","","","","","","","","","",""
"","learn_trial","categorize-lines","199","867088","0.0-3.0-0.193","20211008","135","1308","","","","","","","","[219.6805]","[219.6805]","[""u"",""i""]","[""""]","null","true","in","u","YES","","1","in","","","","219.6805","learning","7.82","","","","","","","","","","","","","","","","","","","","","","","",""
"","learn_trial","categorize-lines","200","871640","0.0-3.0-0.194","20211008","135","524","","","","","","","","[348.1918]","[348.1918]","[""u"",""i""]","[""""]","null","true","out","u","YES","","0","out","","","","348.1918","learning","17.26","","","","","","","","","","","","","","","","","","","","","","","",""
"","learn_trial","categorize-lines","201","876528","0.0-3.0-0.195","20211008","135","860","","","","","","","","[315.0507]","[315.0507]","[""u"",""i""]","[""""]","null","true","in","i","NO","","0","in","","","","315.0507","learning","15.21","","","","","","","","","","","","","","","","","","","","","","","",""
"","learn_trial","categorize-lines","202","879478","0.0-3.0-0.196","20211008","135","916","","","","","","","","[160.7608]","[160.7608]","[""u"",""i""]","[""""]","null","true","out","i","NO","","1","out","","","","160.7608","learning","1.42","","","","","","","","","","","","","","","","","","","","","","","",""
"","learn_trial","categorize-lines","203","882336","0.0-3.0-0.197","20211008","135","830","","","","","","","","[242.9078]","[242.9078]","[""u"",""i""]","[""""]","null","true","in","u","YES","","1","in","","","","242.9078","learning","9.88","","","","","","","","","","","","","","","","","","","","","","","",""
"","learn_trial","categorize-lines","204","886848","0.0-3.0-0.198","20211008","135","484","","","","","","","","[215.6451]","[215.6451]","[""u"",""i""]","[""""]","null","true","out","u","YES","","0","out","","","","215.6451","learning","7.44","","","","","","","","","","","","","","","","","","","","","","","",""
"","learn_trial","categorize-lines","205","889504","0.0-3.0-0.199","20211008","135","628","","","","","","","","[160.2908]","[160.2908]","[""u"",""i""]","[""""]","null","true","out","i","NO","","1","out","","","","160.2908","learning","1.36","","","","","","","","","","","","","","","","","","","","","","","",""
"","transfer_instructions","instructions","206","900094","0.0-4.0-0.0","20211008","135","10590","","","","","","[{""page_index"":0,""viewing_time"":3550},{""page_index"":1,""viewing_time"":7040}]","","","","","","","","","","","","","","","","","","","","","","","","","","","","","","","","","","","","","","","","","","",""
"","transfer_trial","categorize-lines","207","907082","0.0-5.0-0.0","20211008","135","5912","","","","","","","","[235.555,286.3185]","[235.555,286.3185]","[""j"",""k""]","[""J"",""K""]","null","false","null","k","","286.3185","0","null","286.3185","","","","transfer","","9.25","235.555","13.25","286.3185","","","","","235.555","286.3185","0","9.25","13.25","0","attraction","binary","equal_chance_2_JND","left","right","both","2","equal","competitor",""
"","transfer_trial","categorize-lines","208","910960","0.0-5.0-0.1","20211008","135","2808","","","","","","","","[247.3327,286.3185,224.3381]","[286.3185,224.3381,247.3327]","[""j"",""k"",""l""]","[""J"",""K"",""L""]","247.3327","false","null","j","","286.3185","0","null","224.3381","247.3327","","","transfer","","10.25","247.3327","13.25","286.3185","8.25","224.3381","247.3327","10.25","247.3327","286.3185","224.3381","10.25","13.25","8.25","attraction","trinary","difficult","left","right","target","1","left","competitor",""
"","transfer_trial","categorize-lines","209","913472","0.0-5.0-0.2","20211008","135","1440","","","","","","","","[247.3327,272.6843]","[272.6843,247.3327]","[""j"",""k""]","[""J"",""K""]","null","false","null","k","","247.3327","0","null","247.3327","","","","transfer","","10.25","247.3327","12.25","272.6843","","","","","247.3327","272.6843","0","10.25","12.25","0","attraction","binary","equal_chance_1_JND","left","right","both","1","equal","target",""
"","transfer_trial","categorize-lines","210","917984","0.0-5.0-0.3","20211008","135","3440","","","","","","","","[247.3327,286.3185,315.6662]","[286.3185,315.6662,247.3327]","[""j"",""k"",""l""]","[""J"",""K"",""L""]","247.3327","false","null","k","","315.6662","0","null","315.6662","247.3327","","","transfer","","13.25","286.3185","10.25","247.3327","15.25","315.6662","247.3327","10.25","247.3327","286.3185","315.6662","10.25","13.25","15.25","attraction","trinary","difficult","right","left","competitor","1","left","decoy",""
"","transfer_trial","categorize-lines","211","923074","0.0-5.0-0.4","20211008","135","4018","","","","","","","","[239.0713,448.3953,269.3784]","[448.3953,269.3784,239.0713]","[""j"",""k"",""l""]","[""J"",""K"",""L""]","239.0713","false","null","l","","239.0713","1","null","269.3784","239.0713","","","transfer","","","","","","","","239.0713","9.5537","239.0713","448.3953","269.3784","9.5537","22.4439","12","filler","trinary","","","","","1.6963","left","NA",""
"","transfer_trial","categorize-lines","212","927320","0.0-5.0-0.5","20211008","135","3176","","","","","","","","[247.3327,272.6843,300.6345]","[247.3327,272.6843,300.6345]","[""j"",""k"",""l""]","[""J"",""K"",""L""]","null","false","null","k","","272.6843","0","null","272.6843","300.6345","","","transfer","","12.25","272.6843","10.25","247.3327","14.25","300.6345","","","247.3327","272.6843","300.6345","10.25","12.25","14.25","attraction","trinary","equal_chance_1_JND","right","left","both","1","equal","target",""
"","transfer_trial","categorize-lines","213","931232","0.0-5.0-0.6","20211008","135","2842","","","","","","","","[247.3327,272.6843,224.3381]","[247.3327,272.6843,224.3381]","[""j"",""k"",""l""]","[""J"",""K"",""L""]","null","false","null","j","","247.3327","0","null","272.6843","224.3381","","","transfer","","10.25","247.3327","12.25","272.6843","8.25","224.3381","","","247.3327","272.6843","224.3381","10.25","12.25","8.25","attraction","trinary","equal_chance_1_JND","left","right","both","1","equal","target",""
"","transfer_trial","categorize-lines","214","933824","0.0-5.0-0.7","20211008","135","1522","","","","","","","","[235.555,286.3185,315.6662]","[235.555,315.6662,286.3185]","[""j"",""k"",""l""]","[""J"",""K"",""L""]","null","false","null","k","","315.6662","0","null","315.6662","286.3185","","","transfer","","13.25","286.3185","9.25","235.555","15.25","315.6662","","","235.555","286.3185","315.6662","9.25","13.25","15.25","attraction","trinary","equal_chance_2_JND","right","left","both","2","equal","decoy",""
"","transfer_trial","categorize-lines","215","937888","0.0-5.0-0.8","20211008","135","2994","","","","","","","","[289.2816,392.1136]","[392.1136,289.2816]","[""j"",""k""]","[""J"",""K""]","289.2816","false","null","j","","392.1136","0","null","289.2816","","","","transfer","","","","","","","","289.2816","13.461","289.2816","392.1136","0","13.461","19.6949","0","filler","binary","","","","","2.211","right","NA",""
"","transfer_trial","categorize-lines","216","941352","0.0-5.0-0.9","20211008","135","2394","","","","","","","","[247.3327,272.6843,300.6345]","[272.6843,247.3327,300.6345]","[""j"",""k"",""l""]","[""J"",""K"",""L""]","null","false","null","k","","247.3327","0","null","247.3327","300.6345","","","transfer","","12.25","272.6843","10.25","247.3327","14.25","300.6345","","","247.3327","272.6843","300.6345","10.25","12.25","14.25","attraction","trinary","equal_chance_1_JND","right","left","both","1","equal","competitor",""
"","transfer_trial","categorize-lines","217","944640","0.0-5.0-0.10","20211008","135","2216","","","","","","","","[272.6843,224.3381,203.4812]","[224.3381,203.4812,272.6843]","[""j"",""k"",""l""]","[""J"",""K"",""L""]","272.6843","false","null","j","","224.3381","0","null","203.4812","272.6843","","","transfer","","8.25","224.3381","12.25","272.6843","6.25","203.4812","272.6843","12.25","272.6843","224.3381","203.4812","12.25","8.25","6.25","attraction","trinary","easy","left","right","competitor","1","right","target",""
"","transfer_trial","categorize-lines","218","947792","0.0-5.0-0.11","20211008","135","2082","","","","","","","","[262.3725,331.3835,157.5]","[331.3835,262.3725,157.5]","[""j"",""k"",""l""]","[""J"",""K"",""L""]","262.3725","false","null","j","","331.3835","0","null","262.3725","157.5","","","transfer","","","","","","","","262.3725","11.4599","262.3725","331.3835","157.5","11.4599","16.2459","1","filler","trinary","","","","","0.2099","right","NA",""
"","transfer_trial","categorize-lines","219","951624","0.0-5.0-0.12","20211008","135","2762","","","","","","","","[282.4293,184.8867,211.0651]","[282.4293,211.0651,184.8867]","[""j"",""k"",""l""]","[""J"",""K"",""L""]","282.4293","false","null","l","","184.8867","0","null","211.0651","184.8867","","","transfer","","","","","","","","282.4293","12.9697","282.4293","184.8867","211.0651","12.9697","4.2859","7","filler","trinary","","","","","1.7197","right","NA",""
"","transfer_trial","categorize-lines","220","954296","0.0-5.0-0.13","20211008","135","1602","","","","","","","","[263.5487,191.6791]","[263.5487,191.6791]","[""j"",""k""]","[""J"",""K""]","263.5487","false","null","j","","263.5487","1","null","191.6791","","","","transfer","","","","","","","","263.5487","11.5516","263.5487","191.6791","0","11.5516","5.0253","0","filler","binary","","","","","0.3016","right","NA",""
"","transfer_trial","categorize-lines","221","957488","0.0-5.0-0.14","20211008","135","2122","","","","","","","","[230.8978,283.8988]","[230.8978,283.8988]","[""j"",""k""]","[""J"",""K""]","230.8978","false","null","k","","283.8988","0","null","283.8988","","","","transfer","","","","","","","","230.8978","8.8407","230.8978","283.8988","0","8.8407","13.0761","0","filler","binary","","","","","2.4093","left","NA",""
"","transfer_trial","categorize-lines","222","961272","0.0-5.0-0.15","20211008","135","2712","","","","","","","","[238.2482,245.7076]","[245.7076,238.2482]","[""j"",""k""]","[""J"",""K""]","238.2482","false","null","k","","238.2482","1","null","238.2482","","","","transfer","","","","","","","","238.2482","9.483","238.2482","245.7076","0","9.483","10.1149","0","filler","binary","","","","","1.767","left","NA",""
"","transfer_trial","categorize-lines","223","965816","0.0-5.0-0.16","20211008","135","3472","","","","","","","","[289.9466,270.9946,182.3259]","[289.9466,270.9946,182.3259]","[""j"",""k"",""l""]","[""J"",""K"",""L""]","289.9466","false","null","j","","289.9466","1","null","270.9946","182.3259","","","transfer","","","","","","","","289.9466","13.5081","289.9466","270.9946","182.3259","13.5081","12.1226","4","filler","trinary","","","","","2.2581","right","NA",""
"","transfer_trial","categorize-lines","224","967752","0.0-5.0-0.17","20211008","135","864","","","","","","","","[247.3327,286.3185,224.3381]","[247.3327,286.3185,224.3381]","[""j"",""k"",""l""]","[""J"",""K"",""L""]","247.3327","false","null","k","","286.3185","0","null","286.3185","224.3381","","","transfer","","10.25","247.3327","13.25","286.3185","8.25","224.3381","247.3327","10.25","247.3327","286.3185","224.3381","10.25","13.25","8.25","attraction","trinary","difficult","left","right","target","1","left","competitor",""
"","transfer_trial","categorize-lines","225","969928","0.0-5.0-0.18","20211008","135","1108","","","","","","","","[272.6843,224.3381]","[224.3381,272.6843]","[""j"",""k""]","[""J"",""K""]","272.6843","false","null","k","","272.6843","1","null","272.6843","","","","transfer","","8.25","224.3381","12.25","272.6843","","","272.6843","12.25","272.6843","224.3381","0","12.25","8.25","0","attraction","binary","easy","left","right","competitor","1","right","competitor",""
"","transfer_trial","categorize-lines","226","972272","0.0-5.0-0.19","20211008","135","1274","","","","","","","","[235.555,286.3185]","[235.555,286.3185]","[""j"",""k""]","[""J"",""K""]","null","false","null","j","","235.555","0","null","286.3185","","","","transfer","","9.25","235.555","13.25","286.3185","","","","","235.555","286.3185","0","9.25","13.25","0","attraction","binary","equal_chance_2_JND","left","right","both","2","equal","target",""
"","transfer_trial","categorize-lines","227","977896","0.0-5.0-0.20","20211008","135","4550","","","","","","","","[272.6843,235.555,300.6345]","[300.6345,272.6843,235.555]","[""j"",""k"",""l""]","[""J"",""K"",""L""]","272.6843","false","null","j","","300.6345","0","null","272.6843","235.555","","","transfer","","12.25","272.6843","9.25","235.555","14.25","300.6345","272.6843","12.25","272.6843","235.555","300.6345","12.25","9.25","14.25","attraction","trinary","difficult","right","left","target","1","right","decoy",""
"","transfer_trial","categorize-lines","228","981512","0.0-5.0-0.21","20211008","135","2544","","","","","","","","[274.234,201.1364]","[201.1364,274.234]","[""j"",""k""]","[""J"",""K""]","274.234","false","null","j","","201.1364","0","null","274.234","","","","transfer","","","","","","","","274.234","12.3661","274.234","201.1364","0","12.3661","6.0124","0","filler","binary","","","","","1.1161","right","NA",""
"","transfer_trial","categorize-lines","229","986248","0.0-5.0-0.22","20211008","135","3664","","","","","","","","[247.3327,286.3185,224.3381]","[247.3327,224.3381,286.3185]","[""j"",""k"",""l""]","[""J"",""K"",""L""]","247.3327","false","null","l","","286.3185","0","null","224.3381","286.3185","","","transfer","","10.25","247.3327","13.25","286.3185","8.25","224.3381","247.3327","10.25","247.3327","286.3185","224.3381","10.25","13.25","8.25","attraction","trinary","difficult","left","right","target","1","left","competitor",""
"","transfer_trial","categorize-lines","230","989088","0.0-5.0-0.23","20211008","135","1768","","","","","","","","[272.6843,224.3381,300.6345]","[272.6843,224.3381,300.6345]","[""j"",""k"",""l""]","[""J"",""K"",""L""]","272.6843","false","null","j","","272.6843","1","null","224.3381","300.6345","","","transfer","","12.25","272.6843","8.25","224.3381","14.25","300.6345","272.6843","12.25","272.6843","224.3381","300.6345","12.25","8.25","14.25","attraction","trinary","easy","right","left","target","1","right","target",""
"","transfer_trial","categorize-lines","231","992584","0.0-5.0-0.24","20211008","135","2422","","","","","","","","[235.555,286.3185]","[286.3185,235.555]","[""j"",""k""]","[""J"",""K""]","null","false","null","j","","286.3185","0","null","235.555","","","","transfer","","13.25","286.3185","9.25","235.555","","","","","235.555","286.3185","0","9.25","13.25","0","attraction","binary","equal_chance_2_JND","right","left","both","2","equal","target",""
"","transfer_trial","categorize-lines","232","994952","0.0-5.0-0.25","20211008","135","1296","","","","","","","","[272.6843,224.3381]","[272.6843,224.3381]","[""j"",""k""]","[""J"",""K""]","272.6843","false","null","j","","272.6843","1","null","224.3381","","","","transfer","","12.25","272.6843","8.25","224.3381","","","272.6843","12.25","272.6843","224.3381","0","12.25","8.25","0","attraction","binary","easy","right","left","target","1","right","target",""
"","transfer_trial","categorize-lines","233","998160","0.0-5.0-0.26","20211008","135","2136","","","","","","","","[247.3327,300.6345,224.3381]","[224.3381,247.3327,300.6345]","[""j"",""k"",""l""]","[""J"",""K"",""L""]","247.3327","false","null","l","","300.6345","0","null","247.3327","300.6345","","","transfer","","10.25","247.3327","14.25","300.6345","8.25","224.3381","247.3327","10.25","247.3327","300.6345","224.3381","10.25","14.25","8.25","attraction","trinary","easy","left","right","target","1","left","competitor",""
"","transfer_trial","categorize-lines","234","1001368","0.0-5.0-0.27","20211008","135","2136","","","","","","","","[272.6843,235.555]","[235.555,272.6843]","[""j"",""k""]","[""J"",""K""]","272.6843","false","null","j","","235.555","0","null","272.6843","","","","transfer","","9.25","235.555","12.25","272.6843","","","272.6843","12.25","272.6843","235.555","0","12.25","9.25","0","attraction","binary","difficult","left","right","competitor","1","right","target",""
"","transfer_trial","categorize-lines","235","1003952","0.0-5.0-0.28","20211008","135","1512","","","","","","","","[272.6843,224.3381,300.6345]","[300.6345,224.3381,272.6843]","[""j"",""k"",""l""]","[""J"",""K"",""L""]","272.6843","false","null","j","","300.6345","0","null","224.3381","272.6843","","","transfer","","12.25","272.6843","8.25","224.3381","14.25","300.6345","272.6843","12.25","272.6843","224.3381","300.6345","12.25","8.25","14.25","attraction","trinary","easy","right","left","target","1","right","decoy",""
"","transfer_trial","categorize-lines","236","1007344","0.0-5.0-0.29","20211008","135","2318","","","","","","","","[225.2208,219.0756]","[219.0756,225.2208]","[""j"",""k""]","[""J"",""K""]","225.2208","false","null","j","","219.0756","0","null","225.2208","","","","transfer","","","","","","","","225.2208","8.3305","225.2208","219.0756","0","8.3305","7.7635","0","filler","binary","","","","","2.9195","left","NA",""
"","transfer_trial","categorize-lines","237","1010082","0.0-5.0-0.30","20211008","135","1670","","","","","","","","[272.6843,235.555]","[235.555,272.6843]","[""j"",""k""]","[""J"",""K""]","272.6843","false","null","j","","235.555","0","null","272.6843","","","","transfer","","9.25","235.555","12.25","272.6843","","","272.6843","12.25","272.6843","235.555","0","12.25","9.25","0","attraction","binary","difficult","left","right","competitor","1","right","target",""
"","transfer_trial","categorize-lines","238","1017240","0.0-5.0-0.31","20211008","135","6086","","","","","","","","[247.3327,272.6843,224.3381]","[272.6843,247.3327,224.3381]","[""j"",""k"",""l""]","[""J"",""K"",""L""]","null","false","null","j","","272.6843","0","null","247.3327","224.3381","","","transfer","","10.25","247.3327","12.25","272.6843","8.25","224.3381","","","247.3327","272.6843","224.3381","10.25","12.25","8.25","attraction","trinary","equal_chance_1_JND","left","right","both","1","equal","competitor",""
"","transfer_trial","categorize-lines","239","1019488","0.0-5.0-0.32","20211008","135","1176","","","","","","","","[247.3327,300.6345,331.4495]","[247.3327,300.6345,331.4495]","[""j"",""k"",""l""]","[""J"",""K"",""L""]","247.3327","false","null","k","","300.6345","0","null","300.6345","331.4495","","","transfer","","14.25","300.6345","10.25","247.3327","16.25","331.4495","247.3327","10.25","247.3327","300.6345","331.4495","10.25","14.25","16.25","attraction","trinary","easy","right","left","competitor","1","left","target",""
"","transfer_trial","categorize-lines","240","1023016","0.0-5.0-0.33","20211008","135","2458","","","","","","","","[247.3327,272.6843]","[272.6843,247.3327]","[""j"",""k""]","[""J"",""K""]","null","false","null","j","","272.6843","0","null","247.3327","","","","transfer","","12.25","272.6843","10.25","247.3327","","","","","247.3327","272.6843","0","10.25","12.25","0","attraction","binary","equal_chance_1_JND","right","left","both","1","equal","target",""
"","transfer_trial","categorize-lines","241","1028456","0.0-5.0-0.34","20211008","135","4370","","","","","","","","[272.6843,235.555]","[235.555,272.6843]","[""j"",""k""]","[""J"",""K""]","272.6843","false","null","j","","235.555","0","null","272.6843","","","","transfer","","12.25","272.6843","9.25","235.555","","","272.6843","12.25","272.6843","235.555","0","12.25","9.25","0","attraction","binary","difficult","right","left","target","1","right","competitor",""
"","transfer_trial","categorize-lines","242","1031288","0.0-5.0-0.35","20211008","135","1762","","","","","","","","[305.254,300.7485]","[300.7485,305.254]","[""j"",""k""]","[""J"",""K""]","305.254","false","null","k","","305.254","1","null","305.254","","","","transfer","","","","","","","","305.254","14.5625","305.254","300.7485","0","14.5625","14.2578","0","filler","binary","","","","","3.3125","right","NA",""
"","transfer_trial","categorize-lines","243","1033888","0.0-5.0-0.36","20211008","135","1530","","","","","","","","[247.3327,272.6843]","[272.6843,247.3327]","[""j"",""k""]","[""J"",""K""]","null","false","null","k","","247.3327","0","null","247.3327","","","","transfer","","12.25","272.6843","10.25","247.3327","","","","","247.3327","272.6843","0","10.25","12.25","0","attraction","binary","equal_chance_1_JND","right","left","both","1","equal","competitor",""
"","transfer_trial","categorize-lines","244","1038712","0.0-5.0-0.37","20211008","135","3752","","","","","","","","[235.555,286.3185,213.6553]","[213.6553,286.3185,235.555]","[""j"",""k"",""l""]","[""J"",""K"",""L""]","null","false","null","j","","213.6553","0","null","286.3185","235.555","","","transfer","","9.25","235.555","13.25","286.3185","7.25","213.6553","","","235.555","286.3185","213.6553","9.25","13.25","7.25","attraction","trinary","equal_chance_2_JND","left","right","both","2","equal","decoy",""
"","transfer_trial","categorize-lines","245","1042024","0.0-5.0-0.38","20211008","135","2240","","","","","","","","[247.3327,300.6345,224.3381]","[247.3327,224.3381,300.6345]","[""j"",""k"",""l""]","[""J"",""K"",""L""]","247.3327","false","null","k","","224.3381","0","null","224.3381","300.6345","","","transfer","","10.25","247.3327","14.25","300.6345","8.25","224.3381","247.3327","10.25","247.3327","300.6345","224.3381","10.25","14.25","8.25","attraction","trinary","easy","left","right","target","1","left","decoy",""
"","transfer_trial","categorize-lines","246","1043928","0.0-5.0-0.39","20211008","135","834","","","","","","","","[272.6843,235.555]","[272.6843,235.555]","[""j"",""k""]","[""J"",""K""]","272.6843","false","null","j","","272.6843","1","null","235.555","","","","transfer","","9.25","235.555","12.25","272.6843","","","272.6843","12.25","272.6843","235.555","0","12.25","9.25","0","attraction","binary","difficult","left","right","competitor","1","right","competitor",""
"","transfer_trial","categorize-lines","247","1045944","0.0-5.0-0.40","20211008","135","946","","","","","","","","[235.555,286.3185,213.6553]","[213.6553,235.555,286.3185]","[""j"",""k"",""l""]","[""J"",""K"",""L""]","null","false","null","k","","235.555","0","null","235.555","286.3185","","","transfer","","9.25","235.555","13.25","286.3185","7.25","213.6553","","","235.555","286.3185","213.6553","9.25","13.25","7.25","attraction","trinary","equal_chance_2_JND","left","right","both","2","equal","target",""
"","transfer_trial","categorize-lines","248","1048056","0.0-5.0-0.41","20211008","135","1042","","","","","","","","[247.3327,286.3185]","[247.3327,286.3185]","[""j"",""k""]","[""J"",""K""]","247.3327","false","null","k","","286.3185","0","null","286.3185","","","","transfer","","10.25","247.3327","13.25","286.3185","","","247.3327","10.25","247.3327","286.3185","0","10.25","13.25","0","attraction","binary","difficult","left","right","target","1","left","competitor",""
"","transfer_trial","categorize-lines","249","1049816","0.0-5.0-0.42","20211008","135","688","","","","","","","","[247.3327,272.6843,224.3381]","[272.6843,247.3327,224.3381]","[""j"",""k"",""l""]","[""J"",""K"",""L""]","null","false","null","k","","247.3327","0","null","247.3327","224.3381","","","transfer","","10.25","247.3327","12.25","272.6843","8.25","224.3381","","","247.3327","272.6843","224.3381","10.25","12.25","8.25","attraction","trinary","equal_chance_1_JND","left","right","both","1","equal","target",""
"","transfer_trial","categorize-lines","250","1051632","0.0-5.0-0.43","20211008","135","744","","","","","","","","[295.8017,288.9036,327.4312]","[295.8017,327.4312,288.9036]","[""j"",""k"",""l""]","[""J"",""K"",""L""]","295.8017","false","null","l","","288.9036","0","null","327.4312","288.9036","","","transfer","","","","","","","","295.8017","13.9178","295.8017","288.9036","327.4312","13.9178","13.4342","16","filler","trinary","","","","","2.6678","right","NA",""
"","transfer_trial","categorize-lines","251","1053792","0.0-5.0-0.44","20211008","135","1084","","","","","","","","[341.3932,233.7879]","[233.7879,341.3932]","[""j"",""k""]","[""J"",""K""]","341.3932","false","null","j","","233.7879","0","null","341.3932","","","","transfer","","","","","","","","341.3932","16.8558","341.3932","233.7879","0","16.8558","9.0957","0","filler","binary","","","","","5.6058","right","NA",""
"","transfer_trial","categorize-lines","252","1055520","0.0-5.0-0.45","20211008","135","656","","","","","","","","[272.6843,235.555]","[272.6843,235.555]","[""j"",""k""]","[""J"",""K""]","272.6843","false","null","k","","235.555","0","null","235.555","","","","transfer","","12.25","272.6843","9.25","235.555","","","272.6843","12.25","272.6843","235.555","0","12.25","9.25","0","attraction","binary","difficult","right","left","target","1","right","competitor",""
"","transfer_trial","categorize-lines","253","1057304","0.0-5.0-0.46","20211008","135","714","","","","","","","","[235.555,286.3185,315.6662]","[315.6662,235.555,286.3185]","[""j"",""k"",""l""]","[""J"",""K"",""L""]","null","false","null","j","","315.6662","0","null","235.555","286.3185","","","transfer","","13.25","286.3185","9.25","235.555","15.25","315.6662","","","235.555","286.3185","315.6662","9.25","13.25","15.25","attraction","trinary","equal_chance_2_JND","right","left","both","2","equal","decoy",""
"","transfer_trial","categorize-lines","254","1059912","0.0-5.0-0.47","20211008","135","1536","","","","","","","","[247.3327,286.3185]","[247.3327,286.3185]","[""j"",""k""]","[""J"",""K""]","247.3327","false","null","k","","286.3185","0","null","286.3185","","","","transfer","","13.25","286.3185","10.25","247.3327","","","247.3327","10.25","247.3327","286.3185","0","10.25","13.25","0","attraction","binary","difficult","right","left","competitor","1","left","target",""
"","transfer_trial","categorize-lines","255","1061928","0.0-5.0-0.48","20211008","135","946","","","","","","","","[227.6639,153.6208,379.0425]","[379.0425,227.6639,153.6208]","[""j"",""k"",""l""]","[""J"",""K"",""L""]","227.6639","false","null","l","","153.6208","0","null","227.6639","153.6208","","","transfer","","","","","","","","227.6639","8.5516","227.6639","153.6208","379.0425","8.5516","0.4889","19","filler","trinary","","","","","2.6984","left","NA",""
"","transfer_trial","categorize-lines","256","1063960","0.0-5.0-0.49","20211008","135","962","","","","","","","","[272.6843,224.3381]","[272.6843,224.3381]","[""j"",""k""]","[""J"",""K""]","272.6843","false","null","j","","272.6843","1","null","224.3381","","","","transfer","","8.25","224.3381","12.25","272.6843","","","272.6843","12.25","272.6843","224.3381","0","12.25","8.25","0","attraction","binary","easy","left","right","competitor","1","right","competitor",""
"","transfer_trial","categorize-lines","257","1066568","0.0-5.0-0.50","20211008","135","1536","","","","","","","","[247.3327,300.6345]","[300.6345,247.3327]","[""j"",""k""]","[""J"",""K""]","247.3327","false","null","k","","247.3327","1","null","247.3327","","","","transfer","","10.25","247.3327","14.25","300.6345","","","247.3327","10.25","247.3327","300.6345","0","10.25","14.25","0","attraction","binary","easy","left","right","target","1","left","target",""
"","transfer_trial","categorize-lines","258","1069504","0.0-5.0-0.51","20211008","135","1866","","","","","","","","[272.6843,235.555,213.6553]","[213.6553,235.555,272.6843]","[""j"",""k"",""l""]","[""J"",""K"",""L""]","272.6843","false","null","l","","272.6843","1","null","235.555","272.6843","","","transfer","","9.25","235.555","12.25","272.6843","7.25","213.6553","272.6843","12.25","272.6843","235.555","213.6553","12.25","9.25","7.25","attraction","trinary","difficult","left","right","competitor","1","right","competitor",""
"","transfer_trial","categorize-lines","259","1072432","0.0-5.0-0.52","20211008","135","1856","","","","","","","","[247.3327,300.6345]","[247.3327,300.6345]","[""j"",""k""]","[""J"",""K""]","247.3327","false","null","k","","300.6345","0","null","300.6345","","","","transfer","","14.25","300.6345","10.25","247.3327","","","247.3327","10.25","247.3327","300.6345","0","10.25","14.25","0","attraction","binary","easy","right","left","competitor","1","left","target",""
"","transfer_trial","categorize-lines","260","1074304","0.0-5.0-0.53","20211008","135","800","","","","","","","","[247.3327,300.6345,331.4495]","[300.6345,331.4495,247.3327]","[""j"",""k"",""l""]","[""J"",""K"",""L""]","247.3327","false","null","k","","331.4495","0","null","331.4495","247.3327","","","transfer","","14.25","300.6345","10.25","247.3327","16.25","331.4495","247.3327","10.25","247.3327","300.6345","331.4495","10.25","14.25","16.25","attraction","trinary","easy","right","left","competitor","1","left","decoy",""
"","transfer_trial","categorize-lines","261","1076296","0.0-5.0-0.54","20211008","135","920","","","","","","","","[167.4275,266.5615]","[266.5615,167.4275]","[""j"",""k""]","[""J"",""K""]","167.4275","false","null","k","","167.4275","1","null","167.4275","","","","transfer","","","","","","","","167.4275","2.2528","167.4275","266.5615","0","2.2528","11.7845","0","filler","binary","","","","","8.9972","left","NA",""
"","transfer_trial","categorize-lines","262","1079528","0.0-5.0-0.55","20211008","135","2162","","","","","","","","[235.555,286.3185]","[286.3185,235.555]","[""j"",""k""]","[""J"",""K""]","null","false","null","j","","286.3185","0","null","235.555","","","","transfer","","13.25","286.3185","9.25","235.555","","","","","235.555","286.3185","0","9.25","13.25","0","attraction","binary","equal_chance_2_JND","right","left","both","2","equal","target",""
"","transfer_trial","categorize-lines","263","1082680","0.0-5.0-0.56","20211008","135","2082","","","","","","","","[272.6843,235.555,213.6553]","[235.555,213.6553,272.6843]","[""j"",""k"",""l""]","[""J"",""K"",""L""]","272.6843","false","null","l","","272.6843","1","null","213.6553","272.6843","","","transfer","","9.25","235.555","12.25","272.6843","7.25","213.6553","272.6843","12.25","272.6843","235.555","213.6553","12.25","9.25","7.25","attraction","trinary","difficult","left","right","competitor","1","right","competitor",""
"","transfer_trial","categorize-lines","264","1084824","0.0-5.0-0.57","20211008","135","1072","","","","","","","","[272.6843,224.3381,203.4812]","[203.4812,224.3381,272.6843]","[""j"",""k"",""l""]","[""J"",""K"",""L""]","272.6843","false","null","k","","224.3381","0","null","224.3381","272.6843","","","transfer","","8.25","224.3381","12.25","272.6843","6.25","203.4812","272.6843","12.25","272.6843","224.3381","203.4812","12.25","8.25","6.25","attraction","trinary","easy","left","right","competitor","1","right","target",""
"","transfer_trial","categorize-lines","265","1086752","0.0-5.0-0.58","20211008","135","858","","","","","","","","[247.3327,300.6345,331.4495]","[247.3327,300.6345,331.4495]","[""j"",""k"",""l""]","[""J"",""K"",""L""]","247.3327","false","null","k","","300.6345","0","null","300.6345","331.4495","","","transfer","","14.25","300.6345","10.25","247.3327","16.25","331.4495","247.3327","10.25","247.3327","300.6345","331.4495","10.25","14.25","16.25","attraction","trinary","easy","right","left","competitor","1","left","target",""
"","transfer_trial","categorize-lines","266","1089952","0.0-5.0-0.59","20211008","135","2128","","","","","","","","[272.6843,224.3381]","[272.6843,224.3381]","[""j"",""k""]","[""J"",""K""]","272.6843","false","null","k","","224.3381","0","null","224.3381","","","","transfer","","12.25","272.6843","8.25","224.3381","","","272.6843","12.25","272.6843","224.3381","0","12.25","8.25","0","attraction","binary","easy","right","left","target","1","right","competitor",""
"","transfer_trial","categorize-lines","267","1092664","0.0-5.0-0.60","20211008","135","1642","","","","","","","","[272.6843,224.3381,203.4812]","[224.3381,272.6843,203.4812]","[""j"",""k"",""l""]","[""J"",""K"",""L""]","272.6843","false","null","j","","224.3381","0","null","272.6843","203.4812","","","transfer","","8.25","224.3381","12.25","272.6843","6.25","203.4812","272.6843","12.25","272.6843","224.3381","203.4812","12.25","8.25","6.25","attraction","trinary","easy","left","right","competitor","1","right","target",""
"","transfer_trial","categorize-lines","268","1095672","0.0-5.0-0.61","20211008","135","1938","","","","","","","","[247.3327,300.6345]","[300.6345,247.3327]","[""j"",""k""]","[""J"",""K""]","247.3327","false","null","k","","247.3327","1","null","247.3327","","","","transfer","","10.25","247.3327","14.25","300.6345","","","247.3327","10.25","247.3327","300.6345","0","10.25","14.25","0","attraction","binary","easy","left","right","target","1","left","target",""
"","transfer_trial","categorize-lines","269","1097560","0.0-5.0-0.62","20211008","135","818","","","","","","","","[247.3327,300.6345,224.3381]","[247.3327,300.6345,224.3381]","[""j"",""k"",""l""]","[""J"",""K"",""L""]","247.3327","false","null","j","","247.3327","1","null","300.6345","224.3381","","","transfer","","10.25","247.3327","14.25","300.6345","8.25","224.3381","247.3327","10.25","247.3327","300.6345","224.3381","10.25","14.25","8.25","attraction","trinary","easy","left","right","target","1","left","target",""
"","transfer_trial","categorize-lines","270","1099696","0.0-5.0-0.63","20211008","135","1066","","","","","","","","[247.3327,272.6843]","[272.6843,247.3327]","[""j"",""k""]","[""J"",""K""]","null","false","null","k","","247.3327","0","null","247.3327","","","","transfer","","10.25","247.3327","12.25","272.6843","","","","","247.3327","272.6843","0","10.25","12.25","0","attraction","binary","equal_chance_1_JND","left","right","both","1","equal","target",""
"","transfer_trial","categorize-lines","271","1101400","0.0-5.0-0.64","20211008","135","634","","","","","","","","[247.3327,300.6345]","[300.6345,247.3327]","[""j"",""k""]","[""J"",""K""]","247.3327","false","null","j","","300.6345","0","null","247.3327","","","","transfer","","14.25","300.6345","10.25","247.3327","","","247.3327","10.25","247.3327","300.6345","0","10.25","14.25","0","attraction","binary","easy","right","left","competitor","1","left","target",""
"","transfer_trial","categorize-lines","272","1103384","0.0-5.0-0.65","20211008","135","914","","","","","","","","[247.3327,300.6345]","[247.3327,300.6345]","[""j"",""k""]","[""J"",""K""]","247.3327","false","null","k","","300.6345","0","null","300.6345","","","","transfer","","14.25","300.6345","10.25","247.3327","","","247.3327","10.25","247.3327","300.6345","0","10.25","14.25","0","attraction","binary","easy","right","left","competitor","1","left","target",""
"","transfer_trial","categorize-lines","273","1105456","0.0-5.0-0.66","20211008","135","1002","","","","","","","","[247.3327,286.3185,315.6662]","[315.6662,247.3327,286.3185]","[""j"",""k"",""l""]","[""J"",""K"",""L""]","247.3327","false","null","k","","247.3327","1","null","247.3327","286.3185","","","transfer","","13.25","286.3185","10.25","247.3327","15.25","315.6662","247.3327","10.25","247.3327","286.3185","315.6662","10.25","13.25","15.25","attraction","trinary","difficult","right","left","competitor","1","left","competitor",""
"","transfer_trial","categorize-lines","274","1107416","0.0-5.0-0.67","20211008","135","890","","","","","","","","[247.3327,286.3185]","[247.3327,286.3185]","[""j"",""k""]","[""J"",""K""]","247.3327","false","null","k","","286.3185","0","null","286.3185","","","","transfer","","10.25","247.3327","13.25","286.3185","","","247.3327","10.25","247.3327","286.3185","0","10.25","13.25","0","attraction","binary","difficult","left","right","target","1","left","competitor",""
"","transfer_trial","categorize-lines","275","1109208","0.0-5.0-0.68","20211008","135","722","","","","","","","","[247.3327,286.3185,315.6662]","[286.3185,247.3327,315.6662]","[""j"",""k"",""l""]","[""J"",""K"",""L""]","247.3327","false","null","k","","247.3327","1","null","247.3327","315.6662","","","transfer","","13.25","286.3185","10.25","247.3327","15.25","315.6662","247.3327","10.25","247.3327","286.3185","315.6662","10.25","13.25","15.25","attraction","trinary","difficult","right","left","competitor","1","left","competitor",""
"","transfer_trial","categorize-lines","276","1110960","0.0-5.0-0.69","20211008","135","682","","","","","","","","[235.555,286.3185,315.6662]","[235.555,286.3185,315.6662]","[""j"",""k"",""l""]","[""J"",""K"",""L""]","null","false","null","l","","315.6662","0","null","286.3185","315.6662","","","transfer","","13.25","286.3185","9.25","235.555","15.25","315.6662","","","235.555","286.3185","315.6662","9.25","13.25","15.25","attraction","trinary","equal_chance_2_JND","right","left","both","2","equal","decoy",""
