"success","timeout","failed_images","failed_audio","failed_video","trial_type","trial_index","time_elapsed","internal_node_id","exp_name","date","time","angle_mean_in","radius_mean_in","angle_sd_in","radius_sd_in","angle_min_out","angle_max_out","radius_min_out","radius_max_out","sub_n","age","race","ethnicity","gender","exp_duration","rt","response","exp_trial_type","stimulus","view_history","screen_id","angle","radius","distribution","choice","correct","order","angle_a","radius_a","angle_b","radius_b","jkl_correct","transfer_trial_type","choice_set","abc_correct","tc_correct","tc_angle","tdc_a","tdc_b","tdc_c","pair","category_a","category_b","category_c","angle_c","radius_c","question_order"
"true","false","[]","[]","[]","preload","0","13","0.0-0.0","2d_cat_multi_stim_exp1","2022-4-13","14:0:19","25","75","3","9","10","40","30","120","37","20","[""White""]","No","Female","3122611","","","","","","","","","","","","","","","","","","","","","","","","","","","","","","","",""
"","","","","","survey-html-form","1","21259","0.0-1.0","2d_cat_multi_stim_exp1","2022-4-13","14:0:19","25","75","3","9","10","40","30","120","37","20","[""White""]","No","Female","3122611","21236","{""response"":""37""}","enter-sub-number","","","","","","","","","","","","","","","","","","","","","","","","","","","","",""
"true","","","","","fullscreen","2","22965","0.0-2.0","2d_cat_multi_stim_exp1","2022-4-13","14:0:19","25","75","3","9","10","40","30","120","37","20","[""White""]","No","Female","3122611","","","","","","","","","","","","","","","","","","","","","","","","","","","","","","","",""
"","","","","","image-button-response","3","1229973","0.0-3.0","2d_cat_multi_stim_exp1","2022-4-13","14:0:19","25","75","3","9","10","40","30","120","37","20","[""White""]","No","Female","3122611","1206999","0","","consent.png","","","","","","","","","","","","","","","","","","","","","","","","","","","",""
"","","","","","html-button-response","4","1233068","0.0-4.0","2d_cat_multi_stim_exp1","2022-4-13","14:0:19","25","75","3","9","10","40","30","120","37","20","[""White""]","No","Female","3122611","3089","0","","<div style= ""font-size:25px;"" <p> <strong> Welcome to the experiment! </strong><br> <p style=""color:#8B0000; font-size:25px;""><strong> Please do NOT exit full screen until you are done with the experiment. </strong> </p><p style=""font-size:25px;color:#8B0000;""> <strong> The experiment will be canceled and your data will be lost <br> if you try to go back or refresh the page at any point during the experiment.</strong> </p><br><p> <strong> Thanks in advance for your contribution to our research! </strong></p>","","","","","","","","","","","","","","","","","","","","","","","","","","","",""
"","","","","","instructions","5","1255995","0.0-5.0","2d_cat_multi_stim_exp1","2022-4-13","14:0:19","25","75","3","9","10","40","30","120","37","20","[""White""]","No","Female","3122611","22923","","","","[{""page_index"":0,""viewing_time"":5827},{""page_index"":1,""viewing_time"":1359},{""page_index"":2,""viewing_time"":6929},{""page_index"":3,""viewing_time"":8807}]","instructions_1","","","","","","","","","","","","","","","","","","","","","","","","","",""
"","","","","","instructions","6","1258235","0.0-6.0","2d_cat_multi_stim_exp1","2022-4-13","14:0:19","25","75","3","9","10","40","30","120","37","20","[""White""]","No","Female","3122611","2237","","","","[{""page_index"":0,""viewing_time"":2236}]","Click to see the kinds of turtles that will appear in the study.","","","","","","","","","","","","","","","","","","","","","","","","","",""
"","","","","","canvas-keyboard-response","7","1273253","0.0-7.0","2d_cat_multi_stim_exp1","2022-4-13","14:0:19","25","75","3","9","10","40","30","120","37","20","[""White""]","No","Female","3122611","null","null","","","","demo_range","","","","","","","","","","","","","","","","","","","","","","","","","",""
"","","","","","instructions","8","1278652","0.0-8.0","2d_cat_multi_stim_exp1","2022-4-13","14:0:19","25","75","3","9","10","40","30","120","37","20","[""White""]","No","Female","3122611","4897","","","","[{""page_index"":0,""viewing_time"":4896}]","Click to see some turtles in the subspecies.","","","","","","","","","","","","","","","","","","","","","","","","","",""
"","","","","","canvas-keyboard-response","9","1293666","0.0-9.0","2d_cat_multi_stim_exp1","2022-4-13","14:0:19","25","75","3","9","10","40","30","120","37","20","[""White""]","No","Female","3122611","null","null","","","","demo_in","","","","","","","","","","","","","","","","","","","","","","","","","",""
"","","","","","instructions","10","1323172","0.0-10.0","2d_cat_multi_stim_exp1","2022-4-13","14:0:19","25","75","3","9","10","40","30","120","37","20","[""White""]","No","Female","3122611","29005","","","","[{""page_index"":0,""viewing_time"":6348},{""page_index"":1,""viewing_time"":14447},{""page_index"":2,""viewing_time"":8209}]","instructions_2","","","","","","","","","","","","","","","","","","","","","","","","","",""
"","","","","","instructions","11","1325132","0.0-11.0","2d_cat_multi_stim_exp1","2022-4-13","14:0:19","25","75","3","9","10","40","30","120","37","20","[""White""]","No","Female","3122611","1957","","","","[{""page_index"":0,""viewing_time"":1957}]","Click to begin the first phase of the experiment.","","","","","","","","","","","","","","","","","","","","","","","","","",""
"","","","","","canvas-keyboard-response","12","1325642","0.0-12.0-0.0","2d_cat_multi_stim_exp1","2022-4-13","14:0:19","25","75","3","9","10","40","30","120","37","20","[""White""]","No","Female","3122611","null","null","","","","fixation","","","","","","","","","","","","","","","","","","","","","","","","","",""
"","","","","","canvas-keyboard-response","13","1326154","0.0-12.0-1.0","2d_cat_multi_stim_exp1","2022-4-13","14:0:19","25","75","3","9","10","40","30","120","37","20","[""White""]","No","Female","3122611","null","null","","","","clear_screen","","","","","","","","","","","","","","","","","","","","","","","","","",""
"","","","","","canvas-keyboard-response","14","1329765","0.0-12.0-2.0","2d_cat_multi_stim_exp1","2022-4-13","14:0:19","25","75","3","9","10","40","30","120","37","20","[""White""]","No","Female","3122611","3595","u","learn","","","learn_trial","25","75","in","1","1","","","","","","","","","","","","","","","","","","","","",""
"","","","","","canvas-keyboard-response","15","1330274","0.0-12.0-3.0","2d_cat_multi_stim_exp1","2022-4-13","14:0:19","25","75","3","9","10","40","30","120","37","20","[""White""]","No","Female","3122611","null","null","learn_feedback","","","learn_feedback","25","75","in","","","","","","","","","","","","","","","","","","","","","","",""
"","","","","","canvas-keyboard-response","16","1330334","0.0-12.0-4.0","2d_cat_multi_stim_exp1","2022-4-13","14:0:19","25","75","3","9","10","40","30","120","37","20","[""White""]","No","Female","3122611","null","null","","","","clear_screen","","","","","","","","","","","","","","","","","","","","","","","","","",""
"","","","","","canvas-keyboard-response","17","1330846","0.0-12.0-0.1","2d_cat_multi_stim_exp1","2022-4-13","14:0:19","25","75","3","9","10","40","30","120","37","20","[""White""]","No","Female","3122611","null","null","","","","fixation","","","","","","","","","","","","","","","","","","","","","","","","","",""
"","","","","","canvas-keyboard-response","18","1331356","0.0-12.0-1.1","2d_cat_multi_stim_exp1","2022-4-13","14:0:19","25","75","3","9","10","40","30","120","37","20","[""White""]","No","Female","3122611","null","null","","","","clear_screen","","","","","","","","","","","","","","","","","","","","","","","","","",""
"","","","","","canvas-keyboard-response","19","1333747","0.0-12.0-2.1","2d_cat_multi_stim_exp1","2022-4-13","14:0:19","25","75","3","9","10","40","30","120","37","20","[""White""]","No","Female","3122611","2378","i","learn","","","learn_trial","36.6667","50","out","0","1","","","","","","","","","","","","","","","","","","","","",""
"","","","","","canvas-keyboard-response","20","1334256","0.0-12.0-3.1","2d_cat_multi_stim_exp1","2022-4-13","14:0:19","25","75","3","9","10","40","30","120","37","20","[""White""]","No","Female","3122611","null","null","learn_feedback","","","learn_feedback","36.6667","50","out","","","","","","","","","","","","","","","","","","","","","","",""
"","","","","","canvas-keyboard-response","21","1334318","0.0-12.0-4.1","2d_cat_multi_stim_exp1","2022-4-13","14:0:19","25","75","3","9","10","40","30","120","37","20","[""White""]","No","Female","3122611","null","null","","","","clear_screen","","","","","","","","","","","","","","","","","","","","","","","","","",""
"","","","","","canvas-keyboard-response","22","1334829","0.0-12.0-0.2","2d_cat_multi_stim_exp1","2022-4-13","14:0:19","25","75","3","9","10","40","30","120","37","20","[""White""]","No","Female","3122611","null","null","","","","fixation","","","","","","","","","","","","","","","","","","","","","","","","","",""
"","","","","","canvas-keyboard-response","23","1335338","0.0-12.0-1.2","2d_cat_multi_stim_exp1","2022-4-13","14:0:19","25","75","3","9","10","40","30","120","37","20","[""White""]","No","Female","3122611","null","null","","","","clear_screen","","","","","","","","","","","","","","","","","","","","","","","","","",""
"","","","","","canvas-keyboard-response","24","1337067","0.0-12.0-2.2","2d_cat_multi_stim_exp1","2022-4-13","14:0:19","25","75","3","9","10","40","30","120","37","20","[""White""]","No","Female","3122611","1721","i","learn","","","learn_trial","25","75","in","0","0","","","","","","","","","","","","","","","","","","","","",""
"","","","","","canvas-keyboard-response","25","1338077","0.0-12.0-3.2","2d_cat_multi_stim_exp1","2022-4-13","14:0:19","25","75","3","9","10","40","30","120","37","20","[""White""]","No","Female","3122611","null","null","learn_feedback","","","learn_feedback","25","75","in","","","","","","","","","","","","","","","","","","","","","","",""
"","","","","","canvas-keyboard-response","26","1338140","0.0-12.0-4.2","2d_cat_multi_stim_exp1","2022-4-13","14:0:19","25","75","3","9","10","40","30","120","37","20","[""White""]","No","Female","3122611","null","null","","","","clear_screen","","","","","","","","","","","","","","","","","","","","","","","","","",""
"","","","","","canvas-keyboard-response","27","1338651","0.0-12.0-0.3","2d_cat_multi_stim_exp1","2022-4-13","14:0:19","25","75","3","9","10","40","30","120","37","20","[""White""]","No","Female","3122611","null","null","","","","fixation","","","","","","","","","","","","","","","","","","","","","","","","","",""
"","","","","","canvas-keyboard-response","28","1339165","0.0-12.0-1.3","2d_cat_multi_stim_exp1","2022-4-13","14:0:19","25","75","3","9","10","40","30","120","37","20","[""White""]","No","Female","3122611","null","null","","","","clear_screen","","","","","","","","","","","","","","","","","","","","","","","","","",""
"","","","","","canvas-keyboard-response","29","1339907","0.0-12.0-2.3","2d_cat_multi_stim_exp1","2022-4-13","14:0:19","25","75","3","9","10","40","30","120","37","20","[""White""]","No","Female","3122611","731","u","learn","","","learn_trial","20","120","out","1","0","","","","","","","","","","","","","","","","","","","","",""
"","","","","","canvas-keyboard-response","30","1340917","0.0-12.0-3.3","2d_cat_multi_stim_exp1","2022-4-13","14:0:19","25","75","3","9","10","40","30","120","37","20","[""White""]","No","Female","3122611","null","null","learn_feedback","","","learn_feedback","20","120","out","","","","","","","","","","","","","","","","","","","","","","",""
"","","","","","canvas-keyboard-response","31","1340978","0.0-12.0-4.3","2d_cat_multi_stim_exp1","2022-4-13","14:0:19","25","75","3","9","10","40","30","120","37","20","[""White""]","No","Female","3122611","null","null","","","","clear_screen","","","","","","","","","","","","","","","","","","","","","","","","","",""
"","","","","","canvas-keyboard-response","32","1341486","0.0-12.0-0.4","2d_cat_multi_stim_exp1","2022-4-13","14:0:19","25","75","3","9","10","40","30","120","37","20","[""White""]","No","Female","3122611","null","null","","","","fixation","","","","","","","","","","","","","","","","","","","","","","","","","",""
"","","","","","canvas-keyboard-response","33","1341995","0.0-12.0-1.4","2d_cat_multi_stim_exp1","2022-4-13","14:0:19","25","75","3","9","10","40","30","120","37","20","[""White""]","No","Female","3122611","null","null","","","","clear_screen","","","","","","","","","","","","","","","","","","","","","","","","","",""
"","","","","","canvas-keyboard-response","34","1343995","0.0-12.0-2.4","2d_cat_multi_stim_exp1","2022-4-13","14:0:19","25","75","3","9","10","40","30","120","37","20","[""White""]","No","Female","3122611","1990","u","learn","","","learn_trial","33.3333","90","out","1","0","","","","","","","","","","","","","","","","","","","","",""
"","","","","","canvas-keyboard-response","35","1345007","0.0-12.0-3.4","2d_cat_multi_stim_exp1","2022-4-13","14:0:19","25","75","3","9","10","40","30","120","37","20","[""White""]","No","Female","3122611","null","null","learn_feedback","","","learn_feedback","33.3333","90","out","","","","","","","","","","","","","","","","","","","","","","",""
"","","","","","canvas-keyboard-response","36","1345070","0.0-12.0-4.4","2d_cat_multi_stim_exp1","2022-4-13","14:0:19","25","75","3","9","10","40","30","120","37","20","[""White""]","No","Female","3122611","null","null","","","","clear_screen","","","","","","","","","","","","","","","","","","","","","","","","","",""
"","","","","","canvas-keyboard-response","37","1345579","0.0-12.0-0.5","2d_cat_multi_stim_exp1","2022-4-13","14:0:19","25","75","3","9","10","40","30","120","37","20","[""White""]","No","Female","3122611","null","null","","","","fixation","","","","","","","","","","","","","","","","","","","","","","","","","",""
"","","","","","canvas-keyboard-response","38","1346090","0.0-12.0-1.5","2d_cat_multi_stim_exp1","2022-4-13","14:0:19","25","75","3","9","10","40","30","120","37","20","[""White""]","No","Female","3122611","null","null","","","","clear_screen","","","","","","","","","","","","","","","","","","","","","","","","","",""
"","","","","","canvas-keyboard-response","39","1349875","0.0-12.0-2.5","2d_cat_multi_stim_exp1","2022-4-13","14:0:19","25","75","3","9","10","40","30","120","37","20","[""White""]","No","Female","3122611","3772","u","learn","","","learn_trial","25","57","in","1","1","","","","","","","","","","","","","","","","","","","","",""
"","","","","","canvas-keyboard-response","40","1350384","0.0-12.0-3.5","2d_cat_multi_stim_exp1","2022-4-13","14:0:19","25","75","3","9","10","40","30","120","37","20","[""White""]","No","Female","3122611","null","null","learn_feedback","","","learn_feedback","25","57","in","","","","","","","","","","","","","","","","","","","","","","",""
"","","","","","canvas-keyboard-response","41","1350447","0.0-12.0-4.5","2d_cat_multi_stim_exp1","2022-4-13","14:0:19","25","75","3","9","10","40","30","120","37","20","[""White""]","No","Female","3122611","null","null","","","","clear_screen","","","","","","","","","","","","","","","","","","","","","","","","","",""
"","","","","","canvas-keyboard-response","42","1350955","0.0-12.0-0.6","2d_cat_multi_stim_exp1","2022-4-13","14:0:19","25","75","3","9","10","40","30","120","37","20","[""White""]","No","Female","3122611","null","null","","","","fixation","","","","","","","","","","","","","","","","","","","","","","","","","",""
"","","","","","canvas-keyboard-response","43","1351467","0.0-12.0-1.6","2d_cat_multi_stim_exp1","2022-4-13","14:0:19","25","75","3","9","10","40","30","120","37","20","[""White""]","No","Female","3122611","null","null","","","","clear_screen","","","","","","","","","","","","","","","","","","","","","","","","","",""
"","","","","","canvas-keyboard-response","44","1355290","0.0-12.0-2.6","2d_cat_multi_stim_exp1","2022-4-13","14:0:19","25","75","3","9","10","40","30","120","37","20","[""White""]","No","Female","3122611","3814","i","learn","","","learn_trial","33.3333","70","out","0","1","","","","","","","","","","","","","","","","","","","","",""
"","","","","","canvas-keyboard-response","45","1355799","0.0-12.0-3.6","2d_cat_multi_stim_exp1","2022-4-13","14:0:19","25","75","3","9","10","40","30","120","37","20","[""White""]","No","Female","3122611","null","null","learn_feedback","","","learn_feedback","33.3333","70","out","","","","","","","","","","","","","","","","","","","","","","",""
"","","","","","canvas-keyboard-response","46","1355859","0.0-12.0-4.6","2d_cat_multi_stim_exp1","2022-4-13","14:0:19","25","75","3","9","10","40","30","120","37","20","[""White""]","No","Female","3122611","null","null","","","","clear_screen","","","","","","","","","","","","","","","","","","","","","","","","","",""
"","","","","","canvas-keyboard-response","47","1356368","0.0-12.0-0.7","2d_cat_multi_stim_exp1","2022-4-13","14:0:19","25","75","3","9","10","40","30","120","37","20","[""White""]","No","Female","3122611","null","null","","","","fixation","","","","","","","","","","","","","","","","","","","","","","","","","",""
"","","","","","canvas-keyboard-response","48","1356881","0.0-12.0-1.7","2d_cat_multi_stim_exp1","2022-4-13","14:0:19","25","75","3","9","10","40","30","120","37","20","[""White""]","No","Female","3122611","null","null","","","","clear_screen","","","","","","","","","","","","","","","","","","","","","","","","","",""
"","","","","","canvas-keyboard-response","49","1358610","0.0-12.0-2.7","2d_cat_multi_stim_exp1","2022-4-13","14:0:19","25","75","3","9","10","40","30","120","37","20","[""White""]","No","Female","3122611","1718","i","learn","","","learn_trial","22.9268","81.5052","in","0","0","","","","","","","","","","","","","","","","","","","","",""
"","","","","","canvas-keyboard-response","50","1359621","0.0-12.0-3.7","2d_cat_multi_stim_exp1","2022-4-13","14:0:19","25","75","3","9","10","40","30","120","37","20","[""White""]","No","Female","3122611","null","null","learn_feedback","","","learn_feedback","22.9268","81.5052","in","","","","","","","","","","","","","","","","","","","","","","",""
"","","","","","canvas-keyboard-response","51","1359682","0.0-12.0-4.7","2d_cat_multi_stim_exp1","2022-4-13","14:0:19","25","75","3","9","10","40","30","120","37","20","[""White""]","No","Female","3122611","null","null","","","","clear_screen","","","","","","","","","","","","","","","","","","","","","","","","","",""
"","","","","","canvas-keyboard-response","52","1360190","0.0-12.0-0.8","2d_cat_multi_stim_exp1","2022-4-13","14:0:19","25","75","3","9","10","40","30","120","37","20","[""White""]","No","Female","3122611","null","null","","","","fixation","","","","","","","","","","","","","","","","","","","","","","","","","",""
"","","","","","canvas-keyboard-response","53","1360699","0.0-12.0-1.8","2d_cat_multi_stim_exp1","2022-4-13","14:0:19","25","75","3","9","10","40","30","120","37","20","[""White""]","No","Female","3122611","null","null","","","","clear_screen","","","","","","","","","","","","","","","","","","","","","","","","","",""
"","","","","","canvas-keyboard-response","54","1363419","0.0-12.0-2.8","2d_cat_multi_stim_exp1","2022-4-13","14:0:19","25","75","3","9","10","40","30","120","37","20","[""White""]","No","Female","3122611","2712","i","learn","","","learn_trial","25","75","in","0","0","","","","","","","","","","","","","","","","","","","","",""
"","","","","","canvas-keyboard-response","55","1364432","0.0-12.0-3.8","2d_cat_multi_stim_exp1","2022-4-13","14:0:19","25","75","3","9","10","40","30","120","37","20","[""White""]","No","Female","3122611","null","null","learn_feedback","","","learn_feedback","25","75","in","","","","","","","","","","","","","","","","","","","","","","",""
"","","","","","canvas-keyboard-response","56","1364491","0.0-12.0-4.8","2d_cat_multi_stim_exp1","2022-4-13","14:0:19","25","75","3","9","10","40","30","120","37","20","[""White""]","No","Female","3122611","null","null","","","","clear_screen","","","","","","","","","","","","","","","","","","","","","","","","","",""
"","","","","","canvas-keyboard-response","57","1365000","0.0-12.0-0.9","2d_cat_multi_stim_exp1","2022-4-13","14:0:19","25","75","3","9","10","40","30","120","37","20","[""White""]","No","Female","3122611","null","null","","","","fixation","","","","","","","","","","","","","","","","","","","","","","","","","",""
"","","","","","canvas-keyboard-response","58","1365513","0.0-12.0-1.9","2d_cat_multi_stim_exp1","2022-4-13","14:0:19","25","75","3","9","10","40","30","120","37","20","[""White""]","No","Female","3122611","null","null","","","","clear_screen","","","","","","","","","","","","","","","","","","","","","","","","","",""
"","","","","","canvas-keyboard-response","59","1368226","0.0-12.0-2.9","2d_cat_multi_stim_exp1","2022-4-13","14:0:19","25","75","3","9","10","40","30","120","37","20","[""White""]","No","Female","3122611","2703","u","learn","","","learn_trial","33.3333","110","out","1","0","","","","","","","","","","","","","","","","","","","","",""
"","","","","","canvas-keyboard-response","60","1369237","0.0-12.0-3.9","2d_cat_multi_stim_exp1","2022-4-13","14:0:19","25","75","3","9","10","40","30","120","37","20","[""White""]","No","Female","3122611","null","null","learn_feedback","","","learn_feedback","33.3333","110","out","","","","","","","","","","","","","","","","","","","","","","",""
"","","","","","canvas-keyboard-response","61","1369299","0.0-12.0-4.9","2d_cat_multi_stim_exp1","2022-4-13","14:0:19","25","75","3","9","10","40","30","120","37","20","[""White""]","No","Female","3122611","null","null","","","","clear_screen","","","","","","","","","","","","","","","","","","","","","","","","","",""
"","","","","","canvas-keyboard-response","62","1369811","0.0-12.0-0.10","2d_cat_multi_stim_exp1","2022-4-13","14:0:19","25","75","3","9","10","40","30","120","37","20","[""White""]","No","Female","3122611","null","null","","","","fixation","","","","","","","","","","","","","","","","","","","","","","","","","",""
"","","","","","canvas-keyboard-response","63","1370323","0.0-12.0-1.10","2d_cat_multi_stim_exp1","2022-4-13","14:0:19","25","75","3","9","10","40","30","120","37","20","[""White""]","No","Female","3122611","null","null","","","","clear_screen","","","","","","","","","","","","","","","","","","","","","","","","","",""
"","","","","","canvas-keyboard-response","64","1371444","0.0-12.0-2.10","2d_cat_multi_stim_exp1","2022-4-13","14:0:19","25","75","3","9","10","40","30","120","37","20","[""White""]","No","Female","3122611","1109","i","learn","","","learn_trial","22.1081","77.3943","in","0","0","","","","","","","","","","","","","","","","","","","","",""
"","","","","","canvas-keyboard-response","65","1372451","0.0-12.0-3.10","2d_cat_multi_stim_exp1","2022-4-13","14:0:19","25","75","3","9","10","40","30","120","37","20","[""White""]","No","Female","3122611","null","null","learn_feedback","","","learn_feedback","22.1081","77.3943","in","","","","","","","","","","","","","","","","","","","","","","",""
"","","","","","canvas-keyboard-response","66","1372511","0.0-12.0-4.10","2d_cat_multi_stim_exp1","2022-4-13","14:0:19","25","75","3","9","10","40","30","120","37","20","[""White""]","No","Female","3122611","null","null","","","","clear_screen","","","","","","","","","","","","","","","","","","","","","","","","","",""
"","","","","","canvas-keyboard-response","67","1373020","0.0-12.0-0.11","2d_cat_multi_stim_exp1","2022-4-13","14:0:19","25","75","3","9","10","40","30","120","37","20","[""White""]","No","Female","3122611","null","null","","","","fixation","","","","","","","","","","","","","","","","","","","","","","","","","",""
"","","","","","canvas-keyboard-response","68","1373536","0.0-12.0-1.11","2d_cat_multi_stim_exp1","2022-4-13","14:0:19","25","75","3","9","10","40","30","120","37","20","[""White""]","No","Female","3122611","null","null","","","","clear_screen","","","","","","","","","","","","","","","","","","","","","","","","","",""
"","","","","","canvas-keyboard-response","69","1377307","0.0-12.0-2.11","2d_cat_multi_stim_exp1","2022-4-13","14:0:19","25","75","3","9","10","40","30","120","37","20","[""White""]","No","Female","3122611","3764","i","learn","","","learn_trial","30","40","out","0","1","","","","","","","","","","","","","","","","","","","","",""
"","","","","","canvas-keyboard-response","70","1377819","0.0-12.0-3.11","2d_cat_multi_stim_exp1","2022-4-13","14:0:19","25","75","3","9","10","40","30","120","37","20","[""White""]","No","Female","3122611","null","null","learn_feedback","","","learn_feedback","30","40","out","","","","","","","","","","","","","","","","","","","","","","",""
"","","","","","canvas-keyboard-response","71","1377882","0.0-12.0-4.11","2d_cat_multi_stim_exp1","2022-4-13","14:0:19","25","75","3","9","10","40","30","120","37","20","[""White""]","No","Female","3122611","null","null","","","","clear_screen","","","","","","","","","","","","","","","","","","","","","","","","","",""
"","","","","","canvas-keyboard-response","72","1378392","0.0-12.0-0.12","2d_cat_multi_stim_exp1","2022-4-13","14:0:19","25","75","3","9","10","40","30","120","37","20","[""White""]","No","Female","3122611","null","null","","","","fixation","","","","","","","","","","","","","","","","","","","","","","","","","",""
"","","","","","canvas-keyboard-response","73","1378903","0.0-12.0-1.12","2d_cat_multi_stim_exp1","2022-4-13","14:0:19","25","75","3","9","10","40","30","120","37","20","[""White""]","No","Female","3122611","null","null","","","","clear_screen","","","","","","","","","","","","","","","","","","","","","","","","","",""
"","","","","","canvas-keyboard-response","74","1381691","0.0-12.0-2.12","2d_cat_multi_stim_exp1","2022-4-13","14:0:19","25","75","3","9","10","40","30","120","37","20","[""White""]","No","Female","3122611","2779","i","learn","","","learn_trial","40","60","out","0","1","","","","","","","","","","","","","","","","","","","","",""
"","","","","","canvas-keyboard-response","75","1382201","0.0-12.0-3.12","2d_cat_multi_stim_exp1","2022-4-13","14:0:19","25","75","3","9","10","40","30","120","37","20","[""White""]","No","Female","3122611","null","null","learn_feedback","","","learn_feedback","40","60","out","","","","","","","","","","","","","","","","","","","","","","",""
"","","","","","canvas-keyboard-response","76","1382262","0.0-12.0-4.12","2d_cat_multi_stim_exp1","2022-4-13","14:0:19","25","75","3","9","10","40","30","120","37","20","[""White""]","No","Female","3122611","null","null","","","","clear_screen","","","","","","","","","","","","","","","","","","","","","","","","","",""
"","","","","","canvas-keyboard-response","77","1382773","0.0-12.0-0.13","2d_cat_multi_stim_exp1","2022-4-13","14:0:19","25","75","3","9","10","40","30","120","37","20","[""White""]","No","Female","3122611","null","null","","","","fixation","","","","","","","","","","","","","","","","","","","","","","","","","",""
"","","","","","canvas-keyboard-response","78","1383285","0.0-12.0-1.13","2d_cat_multi_stim_exp1","2022-4-13","14:0:19","25","75","3","9","10","40","30","120","37","20","[""White""]","No","Female","3122611","null","null","","","","clear_screen","","","","","","","","","","","","","","","","","","","","","","","","","",""
"","","","","","canvas-keyboard-response","79","1384723","0.0-12.0-2.13","2d_cat_multi_stim_exp1","2022-4-13","14:0:19","25","75","3","9","10","40","30","120","37","20","[""White""]","No","Female","3122611","1429","u","learn","","","learn_trial","25","75","in","1","1","","","","","","","","","","","","","","","","","","","","",""
"","","","","","canvas-keyboard-response","80","1385233","0.0-12.0-3.13","2d_cat_multi_stim_exp1","2022-4-13","14:0:19","25","75","3","9","10","40","30","120","37","20","[""White""]","No","Female","3122611","null","null","learn_feedback","","","learn_feedback","25","75","in","","","","","","","","","","","","","","","","","","","","","","",""
"","","","","","canvas-keyboard-response","81","1385293","0.0-12.0-4.13","2d_cat_multi_stim_exp1","2022-4-13","14:0:19","25","75","3","9","10","40","30","120","37","20","[""White""]","No","Female","3122611","null","null","","","","clear_screen","","","","","","","","","","","","","","","","","","","","","","","","","",""
"","","","","","canvas-keyboard-response","82","1385801","0.0-12.0-0.14","2d_cat_multi_stim_exp1","2022-4-13","14:0:19","25","75","3","9","10","40","30","120","37","20","[""White""]","No","Female","3122611","null","null","","","","fixation","","","","","","","","","","","","","","","","","","","","","","","","","",""
"","","","","","canvas-keyboard-response","83","1386313","0.0-12.0-1.14","2d_cat_multi_stim_exp1","2022-4-13","14:0:19","25","75","3","9","10","40","30","120","37","20","[""White""]","No","Female","3122611","null","null","","","","clear_screen","","","","","","","","","","","","","","","","","","","","","","","","","",""
"","","","","","canvas-keyboard-response","84","1388236","0.0-12.0-2.14","2d_cat_multi_stim_exp1","2022-4-13","14:0:19","25","75","3","9","10","40","30","120","37","20","[""White""]","No","Female","3122611","1913","i","learn","","","learn_trial","30","100","out","0","1","","","","","","","","","","","","","","","","","","","","",""
"","","","","","canvas-keyboard-response","85","1388745","0.0-12.0-3.14","2d_cat_multi_stim_exp1","2022-4-13","14:0:19","25","75","3","9","10","40","30","120","37","20","[""White""]","No","Female","3122611","null","null","learn_feedback","","","learn_feedback","30","100","out","","","","","","","","","","","","","","","","","","","","","","",""
"","","","","","canvas-keyboard-response","86","1388801","0.0-12.0-4.14","2d_cat_multi_stim_exp1","2022-4-13","14:0:19","25","75","3","9","10","40","30","120","37","20","[""White""]","No","Female","3122611","null","null","","","","clear_screen","","","","","","","","","","","","","","","","","","","","","","","","","",""
"","","","","","canvas-keyboard-response","87","1389309","0.0-12.0-0.15","2d_cat_multi_stim_exp1","2022-4-13","14:0:19","25","75","3","9","10","40","30","120","37","20","[""White""]","No","Female","3122611","null","null","","","","fixation","","","","","","","","","","","","","","","","","","","","","","","","","",""
"","","","","","canvas-keyboard-response","88","1389820","0.0-12.0-1.15","2d_cat_multi_stim_exp1","2022-4-13","14:0:19","25","75","3","9","10","40","30","120","37","20","[""White""]","No","Female","3122611","null","null","","","","clear_screen","","","","","","","","","","","","","","","","","","","","","","","","","",""
"","","","","","canvas-keyboard-response","89","1391114","0.0-12.0-2.15","2d_cat_multi_stim_exp1","2022-4-13","14:0:19","25","75","3","9","10","40","30","120","37","20","[""White""]","No","Female","3122611","1285","u","learn","","","learn_trial","25.9271","83.5595","in","1","1","","","","","","","","","","","","","","","","","","","","",""
"","","","","","canvas-keyboard-response","90","1391625","0.0-12.0-3.15","2d_cat_multi_stim_exp1","2022-4-13","14:0:19","25","75","3","9","10","40","30","120","37","20","[""White""]","No","Female","3122611","null","null","learn_feedback","","","learn_feedback","25.9271","83.5595","in","","","","","","","","","","","","","","","","","","","","","","",""
"","","","","","canvas-keyboard-response","91","1391687","0.0-12.0-4.15","2d_cat_multi_stim_exp1","2022-4-13","14:0:19","25","75","3","9","10","40","30","120","37","20","[""White""]","No","Female","3122611","null","null","","","","clear_screen","","","","","","","","","","","","","","","","","","","","","","","","","",""
"","","","","","canvas-keyboard-response","92","1392196","0.0-12.0-0.16","2d_cat_multi_stim_exp1","2022-4-13","14:0:19","25","75","3","9","10","40","30","120","37","20","[""White""]","No","Female","3122611","null","null","","","","fixation","","","","","","","","","","","","","","","","","","","","","","","","","",""
"","","","","","canvas-keyboard-response","93","1392708","0.0-12.0-1.16","2d_cat_multi_stim_exp1","2022-4-13","14:0:19","25","75","3","9","10","40","30","120","37","20","[""White""]","No","Female","3122611","null","null","","","","clear_screen","","","","","","","","","","","","","","","","","","","","","","","","","",""
"","","","","","canvas-keyboard-response","94","1394748","0.0-12.0-2.16","2d_cat_multi_stim_exp1","2022-4-13","14:0:19","25","75","3","9","10","40","30","120","37","20","[""White""]","No","Female","3122611","2029","u","learn","","","learn_trial","25","75","in","1","1","","","","","","","","","","","","","","","","","","","","",""
"","","","","","canvas-keyboard-response","95","1395261","0.0-12.0-3.16","2d_cat_multi_stim_exp1","2022-4-13","14:0:19","25","75","3","9","10","40","30","120","37","20","[""White""]","No","Female","3122611","null","null","learn_feedback","","","learn_feedback","25","75","in","","","","","","","","","","","","","","","","","","","","","","",""
"","","","","","canvas-keyboard-response","96","1395322","0.0-12.0-4.16","2d_cat_multi_stim_exp1","2022-4-13","14:0:19","25","75","3","9","10","40","30","120","37","20","[""White""]","No","Female","3122611","null","null","","","","clear_screen","","","","","","","","","","","","","","","","","","","","","","","","","",""
"","","","","","canvas-keyboard-response","97","1395835","0.0-12.0-0.17","2d_cat_multi_stim_exp1","2022-4-13","14:0:19","25","75","3","9","10","40","30","120","37","20","[""White""]","No","Female","3122611","null","null","","","","fixation","","","","","","","","","","","","","","","","","","","","","","","","","",""
"","","","","","canvas-keyboard-response","98","1396346","0.0-12.0-1.17","2d_cat_multi_stim_exp1","2022-4-13","14:0:19","25","75","3","9","10","40","30","120","37","20","[""White""]","No","Female","3122611","null","null","","","","clear_screen","","","","","","","","","","","","","","","","","","","","","","","","","",""
"","","","","","canvas-keyboard-response","99","1397499","0.0-12.0-2.17","2d_cat_multi_stim_exp1","2022-4-13","14:0:19","25","75","3","9","10","40","30","120","37","20","[""White""]","No","Female","3122611","1139","u","learn","","","learn_trial","25.4027","66.0815","in","1","1","","","","","","","","","","","","","","","","","","","","",""
"","","","","","canvas-keyboard-response","100","1398007","0.0-12.0-3.17","2d_cat_multi_stim_exp1","2022-4-13","14:0:19","25","75","3","9","10","40","30","120","37","20","[""White""]","No","Female","3122611","null","null","learn_feedback","","","learn_feedback","25.4027","66.0815","in","","","","","","","","","","","","","","","","","","","","","","",""
"","","","","","canvas-keyboard-response","101","1398067","0.0-12.0-4.17","2d_cat_multi_stim_exp1","2022-4-13","14:0:19","25","75","3","9","10","40","30","120","37","20","[""White""]","No","Female","3122611","null","null","","","","clear_screen","","","","","","","","","","","","","","","","","","","","","","","","","",""
"","","","","","canvas-keyboard-response","102","1398576","0.0-12.0-0.18","2d_cat_multi_stim_exp1","2022-4-13","14:0:19","25","75","3","9","10","40","30","120","37","20","[""White""]","No","Female","3122611","null","null","","","","fixation","","","","","","","","","","","","","","","","","","","","","","","","","",""
"","","","","","canvas-keyboard-response","103","1399089","0.0-12.0-1.18","2d_cat_multi_stim_exp1","2022-4-13","14:0:19","25","75","3","9","10","40","30","120","37","20","[""White""]","No","Female","3122611","null","null","","","","clear_screen","","","","","","","","","","","","","","","","","","","","","","","","","",""
"","","","","","canvas-keyboard-response","104","1400572","0.0-12.0-2.18","2d_cat_multi_stim_exp1","2022-4-13","14:0:19","25","75","3","9","10","40","30","120","37","20","[""White""]","No","Female","3122611","1471","i","learn","","","learn_trial","20","30","out","0","1","","","","","","","","","","","","","","","","","","","","",""
"","","","","","canvas-keyboard-response","105","1401080","0.0-12.0-3.18","2d_cat_multi_stim_exp1","2022-4-13","14:0:19","25","75","3","9","10","40","30","120","37","20","[""White""]","No","Female","3122611","null","null","learn_feedback","","","learn_feedback","20","30","out","","","","","","","","","","","","","","","","","","","","","","",""
"","","","","","canvas-keyboard-response","106","1401141","0.0-12.0-4.18","2d_cat_multi_stim_exp1","2022-4-13","14:0:19","25","75","3","9","10","40","30","120","37","20","[""White""]","No","Female","3122611","null","null","","","","clear_screen","","","","","","","","","","","","","","","","","","","","","","","","","",""
"","","","","","canvas-keyboard-response","107","1401649","0.0-12.0-0.19","2d_cat_multi_stim_exp1","2022-4-13","14:0:19","25","75","3","9","10","40","30","120","37","20","[""White""]","No","Female","3122611","null","null","","","","fixation","","","","","","","","","","","","","","","","","","","","","","","","","",""
"","","","","","canvas-keyboard-response","108","1402162","0.0-12.0-1.19","2d_cat_multi_stim_exp1","2022-4-13","14:0:19","25","75","3","9","10","40","30","120","37","20","[""White""]","No","Female","3122611","null","null","","","","clear_screen","","","","","","","","","","","","","","","","","","","","","","","","","",""
"","","","","","canvas-keyboard-response","109","1403235","0.0-12.0-2.19","2d_cat_multi_stim_exp1","2022-4-13","14:0:19","25","75","3","9","10","40","30","120","37","20","[""White""]","No","Female","3122611","1065","i","learn","","","learn_trial","26.6667","120","out","0","1","","","","","","","","","","","","","","","","","","","","",""
"","","","","","canvas-keyboard-response","110","1403745","0.0-12.0-3.19","2d_cat_multi_stim_exp1","2022-4-13","14:0:19","25","75","3","9","10","40","30","120","37","20","[""White""]","No","Female","3122611","null","null","learn_feedback","","","learn_feedback","26.6667","120","out","","","","","","","","","","","","","","","","","","","","","","",""
"","","","","","canvas-keyboard-response","111","1403807","0.0-12.0-4.19","2d_cat_multi_stim_exp1","2022-4-13","14:0:19","25","75","3","9","10","40","30","120","37","20","[""White""]","No","Female","3122611","null","null","","","","clear_screen","","","","","","","","","","","","","","","","","","","","","","","","","",""
"","","","","","canvas-keyboard-response","112","1404316","0.0-12.0-0.20","2d_cat_multi_stim_exp1","2022-4-13","14:0:19","25","75","3","9","10","40","30","120","37","20","[""White""]","No","Female","3122611","null","null","","","","fixation","","","","","","","","","","","","","","","","","","","","","","","","","",""
"","","","","","canvas-keyboard-response","113","1404827","0.0-12.0-1.20","2d_cat_multi_stim_exp1","2022-4-13","14:0:19","25","75","3","9","10","40","30","120","37","20","[""White""]","No","Female","3122611","null","null","","","","clear_screen","","","","","","","","","","","","","","","","","","","","","","","","","",""
"","","","","","canvas-keyboard-response","114","1405444","0.0-12.0-2.20","2d_cat_multi_stim_exp1","2022-4-13","14:0:19","25","75","3","9","10","40","30","120","37","20","[""White""]","No","Female","3122611","605","u","learn","","","learn_trial","27.8087","71.8376","in","1","1","","","","","","","","","","","","","","","","","","","","",""
"","","","","","canvas-keyboard-response","115","1405952","0.0-12.0-3.20","2d_cat_multi_stim_exp1","2022-4-13","14:0:19","25","75","3","9","10","40","30","120","37","20","[""White""]","No","Female","3122611","null","null","learn_feedback","","","learn_feedback","27.8087","71.8376","in","","","","","","","","","","","","","","","","","","","","","","",""
"","","","","","canvas-keyboard-response","116","1406011","0.0-12.0-4.20","2d_cat_multi_stim_exp1","2022-4-13","14:0:19","25","75","3","9","10","40","30","120","37","20","[""White""]","No","Female","3122611","null","null","","","","clear_screen","","","","","","","","","","","","","","","","","","","","","","","","","",""
"","","","","","canvas-keyboard-response","117","1406522","0.0-12.0-0.21","2d_cat_multi_stim_exp1","2022-4-13","14:0:19","25","75","3","9","10","40","30","120","37","20","[""White""]","No","Female","3122611","null","null","","","","fixation","","","","","","","","","","","","","","","","","","","","","","","","","",""
"","","","","","canvas-keyboard-response","118","1407032","0.0-12.0-1.21","2d_cat_multi_stim_exp1","2022-4-13","14:0:19","25","75","3","9","10","40","30","120","37","20","[""White""]","No","Female","3122611","null","null","","","","clear_screen","","","","","","","","","","","","","","","","","","","","","","","","","",""
"","","","","","canvas-keyboard-response","119","1407979","0.0-12.0-2.21","2d_cat_multi_stim_exp1","2022-4-13","14:0:19","25","75","3","9","10","40","30","120","37","20","[""White""]","No","Female","3122611","935","u","learn","","","learn_trial","25","75","in","1","1","","","","","","","","","","","","","","","","","","","","",""
"","","","","","canvas-keyboard-response","120","1408489","0.0-12.0-3.21","2d_cat_multi_stim_exp1","2022-4-13","14:0:19","25","75","3","9","10","40","30","120","37","20","[""White""]","No","Female","3122611","null","null","learn_feedback","","","learn_feedback","25","75","in","","","","","","","","","","","","","","","","","","","","","","",""
"","","","","","canvas-keyboard-response","121","1408550","0.0-12.0-4.21","2d_cat_multi_stim_exp1","2022-4-13","14:0:19","25","75","3","9","10","40","30","120","37","20","[""White""]","No","Female","3122611","null","null","","","","clear_screen","","","","","","","","","","","","","","","","","","","","","","","","","",""
"","","","","","canvas-keyboard-response","122","1409059","0.0-12.0-0.22","2d_cat_multi_stim_exp1","2022-4-13","14:0:19","25","75","3","9","10","40","30","120","37","20","[""White""]","No","Female","3122611","null","null","","","","fixation","","","","","","","","","","","","","","","","","","","","","","","","","",""
"","","","","","canvas-keyboard-response","123","1409572","0.0-12.0-1.22","2d_cat_multi_stim_exp1","2022-4-13","14:0:19","25","75","3","9","10","40","30","120","37","20","[""White""]","No","Female","3122611","null","null","","","","clear_screen","","","","","","","","","","","","","","","","","","","","","","","","","",""
"","","","","","canvas-keyboard-response","124","1410827","0.0-12.0-2.22","2d_cat_multi_stim_exp1","2022-4-13","14:0:19","25","75","3","9","10","40","30","120","37","20","[""White""]","No","Female","3122611","1244","i","learn","","","learn_trial","36.6667","100","out","0","1","","","","","","","","","","","","","","","","","","","","",""
"","","","","","canvas-keyboard-response","125","1411340","0.0-12.0-3.22","2d_cat_multi_stim_exp1","2022-4-13","14:0:19","25","75","3","9","10","40","30","120","37","20","[""White""]","No","Female","3122611","null","null","learn_feedback","","","learn_feedback","36.6667","100","out","","","","","","","","","","","","","","","","","","","","","","",""
"","","","","","canvas-keyboard-response","126","1411399","0.0-12.0-4.22","2d_cat_multi_stim_exp1","2022-4-13","14:0:19","25","75","3","9","10","40","30","120","37","20","[""White""]","No","Female","3122611","null","null","","","","clear_screen","","","","","","","","","","","","","","","","","","","","","","","","","",""
"","","","","","canvas-keyboard-response","127","1411908","0.0-12.0-0.23","2d_cat_multi_stim_exp1","2022-4-13","14:0:19","25","75","3","9","10","40","30","120","37","20","[""White""]","No","Female","3122611","null","null","","","","fixation","","","","","","","","","","","","","","","","","","","","","","","","","",""
"","","","","","canvas-keyboard-response","128","1412422","0.0-12.0-1.23","2d_cat_multi_stim_exp1","2022-4-13","14:0:19","25","75","3","9","10","40","30","120","37","20","[""White""]","No","Female","3122611","null","null","","","","clear_screen","","","","","","","","","","","","","","","","","","","","","","","","","",""
"","","","","","canvas-keyboard-response","129","1413738","0.0-12.0-2.23","2d_cat_multi_stim_exp1","2022-4-13","14:0:19","25","75","3","9","10","40","30","120","37","20","[""White""]","No","Female","3122611","1307","i","learn","","","learn_trial","36.6667","30","out","0","1","","","","","","","","","","","","","","","","","","","","",""
"","","","","","canvas-keyboard-response","130","1414249","0.0-12.0-3.23","2d_cat_multi_stim_exp1","2022-4-13","14:0:19","25","75","3","9","10","40","30","120","37","20","[""White""]","No","Female","3122611","null","null","learn_feedback","","","learn_feedback","36.6667","30","out","","","","","","","","","","","","","","","","","","","","","","",""
"","","","","","canvas-keyboard-response","131","1414312","0.0-12.0-4.23","2d_cat_multi_stim_exp1","2022-4-13","14:0:19","25","75","3","9","10","40","30","120","37","20","[""White""]","No","Female","3122611","null","null","","","","clear_screen","","","","","","","","","","","","","","","","","","","","","","","","","",""
"","","","","","canvas-keyboard-response","132","1414821","0.0-12.0-0.24","2d_cat_multi_stim_exp1","2022-4-13","14:0:19","25","75","3","9","10","40","30","120","37","20","[""White""]","No","Female","3122611","null","null","","","","fixation","","","","","","","","","","","","","","","","","","","","","","","","","",""
"","","","","","canvas-keyboard-response","133","1415331","0.0-12.0-1.24","2d_cat_multi_stim_exp1","2022-4-13","14:0:19","25","75","3","9","10","40","30","120","37","20","[""White""]","No","Female","3122611","null","null","","","","clear_screen","","","","","","","","","","","","","","","","","","","","","","","","","",""
"","","","","","canvas-keyboard-response","134","1417491","0.0-12.0-2.24","2d_cat_multi_stim_exp1","2022-4-13","14:0:19","25","75","3","9","10","40","30","120","37","20","[""White""]","No","Female","3122611","2150","i","learn","","","learn_trial","33.3333","120","out","0","1","","","","","","","","","","","","","","","","","","","","",""
"","","","","","canvas-keyboard-response","135","1418003","0.0-12.0-3.24","2d_cat_multi_stim_exp1","2022-4-13","14:0:19","25","75","3","9","10","40","30","120","37","20","[""White""]","No","Female","3122611","null","null","learn_feedback","","","learn_feedback","33.3333","120","out","","","","","","","","","","","","","","","","","","","","","","",""
"","","","","","canvas-keyboard-response","136","1418062","0.0-12.0-4.24","2d_cat_multi_stim_exp1","2022-4-13","14:0:19","25","75","3","9","10","40","30","120","37","20","[""White""]","No","Female","3122611","null","null","","","","clear_screen","","","","","","","","","","","","","","","","","","","","","","","","","",""
"","","","","","canvas-keyboard-response","137","1418570","0.0-12.0-0.25","2d_cat_multi_stim_exp1","2022-4-13","14:0:19","25","75","3","9","10","40","30","120","37","20","[""White""]","No","Female","3122611","null","null","","","","fixation","","","","","","","","","","","","","","","","","","","","","","","","","",""
"","","","","","canvas-keyboard-response","138","1419082","0.0-12.0-1.25","2d_cat_multi_stim_exp1","2022-4-13","14:0:19","25","75","3","9","10","40","30","120","37","20","[""White""]","No","Female","3122611","null","null","","","","clear_screen","","","","","","","","","","","","","","","","","","","","","","","","","",""
"","","","","","canvas-keyboard-response","139","1419874","0.0-12.0-2.25","2d_cat_multi_stim_exp1","2022-4-13","14:0:19","25","75","3","9","10","40","30","120","37","20","[""White""]","No","Female","3122611","786","u","learn","","","learn_trial","23.3473","67.4888","in","1","1","","","","","","","","","","","","","","","","","","","","",""
"","","","","","canvas-keyboard-response","140","1420382","0.0-12.0-3.25","2d_cat_multi_stim_exp1","2022-4-13","14:0:19","25","75","3","9","10","40","30","120","37","20","[""White""]","No","Female","3122611","null","null","learn_feedback","","","learn_feedback","23.3473","67.4888","in","","","","","","","","","","","","","","","","","","","","","","",""
"","","","","","canvas-keyboard-response","141","1420444","0.0-12.0-4.25","2d_cat_multi_stim_exp1","2022-4-13","14:0:19","25","75","3","9","10","40","30","120","37","20","[""White""]","No","Female","3122611","null","null","","","","clear_screen","","","","","","","","","","","","","","","","","","","","","","","","","",""
"","","","","","canvas-keyboard-response","142","1420952","0.0-12.0-0.26","2d_cat_multi_stim_exp1","2022-4-13","14:0:19","25","75","3","9","10","40","30","120","37","20","[""White""]","No","Female","3122611","null","null","","","","fixation","","","","","","","","","","","","","","","","","","","","","","","","","",""
"","","","","","canvas-keyboard-response","143","1421463","0.0-12.0-1.26","2d_cat_multi_stim_exp1","2022-4-13","14:0:19","25","75","3","9","10","40","30","120","37","20","[""White""]","No","Female","3122611","null","null","","","","clear_screen","","","","","","","","","","","","","","","","","","","","","","","","","",""
"","","","","","canvas-keyboard-response","144","1423219","0.0-12.0-2.26","2d_cat_multi_stim_exp1","2022-4-13","14:0:19","25","75","3","9","10","40","30","120","37","20","[""White""]","No","Female","3122611","1747","u","learn","","","learn_trial","26.6667","50","out","1","0","","","","","","","","","","","","","","","","","","","","",""
"","","","","","canvas-keyboard-response","145","1424227","0.0-12.0-3.26","2d_cat_multi_stim_exp1","2022-4-13","14:0:19","25","75","3","9","10","40","30","120","37","20","[""White""]","No","Female","3122611","null","null","learn_feedback","","","learn_feedback","26.6667","50","out","","","","","","","","","","","","","","","","","","","","","","",""
"","","","","","canvas-keyboard-response","146","1424290","0.0-12.0-4.26","2d_cat_multi_stim_exp1","2022-4-13","14:0:19","25","75","3","9","10","40","30","120","37","20","[""White""]","No","Female","3122611","null","null","","","","clear_screen","","","","","","","","","","","","","","","","","","","","","","","","","",""
"","","","","","canvas-keyboard-response","147","1424797","0.0-12.0-0.27","2d_cat_multi_stim_exp1","2022-4-13","14:0:19","25","75","3","9","10","40","30","120","37","20","[""White""]","No","Female","3122611","null","null","","","","fixation","","","","","","","","","","","","","","","","","","","","","","","","","",""
"","","","","","canvas-keyboard-response","148","1425307","0.0-12.0-1.27","2d_cat_multi_stim_exp1","2022-4-13","14:0:19","25","75","3","9","10","40","30","120","37","20","[""White""]","No","Female","3122611","null","null","","","","clear_screen","","","","","","","","","","","","","","","","","","","","","","","","","",""
"","","","","","canvas-keyboard-response","149","1426453","0.0-12.0-2.27","2d_cat_multi_stim_exp1","2022-4-13","14:0:19","25","75","3","9","10","40","30","120","37","20","[""White""]","No","Female","3122611","1136","i","learn","","","learn_trial","30","110","out","0","1","","","","","","","","","","","","","","","","","","","","",""
"","","","","","canvas-keyboard-response","150","1426963","0.0-12.0-3.27","2d_cat_multi_stim_exp1","2022-4-13","14:0:19","25","75","3","9","10","40","30","120","37","20","[""White""]","No","Female","3122611","null","null","learn_feedback","","","learn_feedback","30","110","out","","","","","","","","","","","","","","","","","","","","","","",""
"","","","","","canvas-keyboard-response","151","1427024","0.0-12.0-4.27","2d_cat_multi_stim_exp1","2022-4-13","14:0:19","25","75","3","9","10","40","30","120","37","20","[""White""]","No","Female","3122611","null","null","","","","clear_screen","","","","","","","","","","","","","","","","","","","","","","","","","",""
"","","","","","canvas-keyboard-response","152","1427535","0.0-12.0-0.28","2d_cat_multi_stim_exp1","2022-4-13","14:0:19","25","75","3","9","10","40","30","120","37","20","[""White""]","No","Female","3122611","null","null","","","","fixation","","","","","","","","","","","","","","","","","","","","","","","","","",""
"","","","","","canvas-keyboard-response","153","1428047","0.0-12.0-1.28","2d_cat_multi_stim_exp1","2022-4-13","14:0:19","25","75","3","9","10","40","30","120","37","20","[""White""]","No","Female","3122611","null","null","","","","clear_screen","","","","","","","","","","","","","","","","","","","","","","","","","",""
"","","","","","canvas-keyboard-response","154","1428795","0.0-12.0-2.28","2d_cat_multi_stim_exp1","2022-4-13","14:0:19","25","75","3","9","10","40","30","120","37","20","[""White""]","No","Female","3122611","737","u","learn","","","learn_trial","25","93","in","1","1","","","","","","","","","","","","","","","","","","","","",""
"","","","","","canvas-keyboard-response","155","1429304","0.0-12.0-3.28","2d_cat_multi_stim_exp1","2022-4-13","14:0:19","25","75","3","9","10","40","30","120","37","20","[""White""]","No","Female","3122611","null","null","learn_feedback","","","learn_feedback","25","93","in","","","","","","","","","","","","","","","","","","","","","","",""
"","","","","","canvas-keyboard-response","156","1429367","0.0-12.0-4.28","2d_cat_multi_stim_exp1","2022-4-13","14:0:19","25","75","3","9","10","40","30","120","37","20","[""White""]","No","Female","3122611","null","null","","","","clear_screen","","","","","","","","","","","","","","","","","","","","","","","","","",""
"","","","","","canvas-keyboard-response","157","1429874","0.0-12.0-0.29","2d_cat_multi_stim_exp1","2022-4-13","14:0:19","25","75","3","9","10","40","30","120","37","20","[""White""]","No","Female","3122611","null","null","","","","fixation","","","","","","","","","","","","","","","","","","","","","","","","","",""
"","","","","","canvas-keyboard-response","158","1430384","0.0-12.0-1.29","2d_cat_multi_stim_exp1","2022-4-13","14:0:19","25","75","3","9","10","40","30","120","37","20","[""White""]","No","Female","3122611","null","null","","","","clear_screen","","","","","","","","","","","","","","","","","","","","","","","","","",""
"","","","","","canvas-keyboard-response","159","1431515","0.0-12.0-2.29","2d_cat_multi_stim_exp1","2022-4-13","14:0:19","25","75","3","9","10","40","30","120","37","20","[""White""]","No","Female","3122611","1122","i","learn","","","learn_trial","13.3333","30","out","0","1","","","","","","","","","","","","","","","","","","","","",""
"","","","","","canvas-keyboard-response","160","1432025","0.0-12.0-3.29","2d_cat_multi_stim_exp1","2022-4-13","14:0:19","25","75","3","9","10","40","30","120","37","20","[""White""]","No","Female","3122611","null","null","learn_feedback","","","learn_feedback","13.3333","30","out","","","","","","","","","","","","","","","","","","","","","","",""
"","","","","","canvas-keyboard-response","161","1432084","0.0-12.0-4.29","2d_cat_multi_stim_exp1","2022-4-13","14:0:19","25","75","3","9","10","40","30","120","37","20","[""White""]","No","Female","3122611","null","null","","","","clear_screen","","","","","","","","","","","","","","","","","","","","","","","","","",""
"","","","","","canvas-keyboard-response","162","1432595","0.0-12.0-0.30","2d_cat_multi_stim_exp1","2022-4-13","14:0:19","25","75","3","9","10","40","30","120","37","20","[""White""]","No","Female","3122611","null","null","","","","fixation","","","","","","","","","","","","","","","","","","","","","","","","","",""
"","","","","","canvas-keyboard-response","163","1433106","0.0-12.0-1.30","2d_cat_multi_stim_exp1","2022-4-13","14:0:19","25","75","3","9","10","40","30","120","37","20","[""White""]","No","Female","3122611","null","null","","","","clear_screen","","","","","","","","","","","","","","","","","","","","","","","","","",""
"","","","","","canvas-keyboard-response","164","1433842","0.0-12.0-2.30","2d_cat_multi_stim_exp1","2022-4-13","14:0:19","25","75","3","9","10","40","30","120","37","20","[""White""]","No","Female","3122611","729","u","learn","","","learn_trial","25","75","in","1","1","","","","","","","","","","","","","","","","","","","","",""
"","","","","","canvas-keyboard-response","165","1434351","0.0-12.0-3.30","2d_cat_multi_stim_exp1","2022-4-13","14:0:19","25","75","3","9","10","40","30","120","37","20","[""White""]","No","Female","3122611","null","null","learn_feedback","","","learn_feedback","25","75","in","","","","","","","","","","","","","","","","","","","","","","",""
"","","","","","canvas-keyboard-response","166","1434411","0.0-12.0-4.30","2d_cat_multi_stim_exp1","2022-4-13","14:0:19","25","75","3","9","10","40","30","120","37","20","[""White""]","No","Female","3122611","null","null","","","","clear_screen","","","","","","","","","","","","","","","","","","","","","","","","","",""
"","","","","","canvas-keyboard-response","167","1434919","0.0-12.0-0.31","2d_cat_multi_stim_exp1","2022-4-13","14:0:19","25","75","3","9","10","40","30","120","37","20","[""White""]","No","Female","3122611","null","null","","","","fixation","","","","","","","","","","","","","","","","","","","","","","","","","",""
"","","","","","canvas-keyboard-response","168","1435431","0.0-12.0-1.31","2d_cat_multi_stim_exp1","2022-4-13","14:0:19","25","75","3","9","10","40","30","120","37","20","[""White""]","No","Female","3122611","null","null","","","","clear_screen","","","","","","","","","","","","","","","","","","","","","","","","","",""
"","","","","","canvas-keyboard-response","169","1436427","0.0-12.0-2.31","2d_cat_multi_stim_exp1","2022-4-13","14:0:19","25","75","3","9","10","40","30","120","37","20","[""White""]","No","Female","3122611","988","u","learn","","","learn_trial","25","75","in","1","1","","","","","","","","","","","","","","","","","","","","",""
"","","","","","canvas-keyboard-response","170","1436937","0.0-12.0-3.31","2d_cat_multi_stim_exp1","2022-4-13","14:0:19","25","75","3","9","10","40","30","120","37","20","[""White""]","No","Female","3122611","null","null","learn_feedback","","","learn_feedback","25","75","in","","","","","","","","","","","","","","","","","","","","","","",""
"","","","","","canvas-keyboard-response","171","1436998","0.0-12.0-4.31","2d_cat_multi_stim_exp1","2022-4-13","14:0:19","25","75","3","9","10","40","30","120","37","20","[""White""]","No","Female","3122611","null","null","","","","clear_screen","","","","","","","","","","","","","","","","","","","","","","","","","",""
"","","","","","canvas-keyboard-response","172","1437507","0.0-12.0-0.32","2d_cat_multi_stim_exp1","2022-4-13","14:0:19","25","75","3","9","10","40","30","120","37","20","[""White""]","No","Female","3122611","null","null","","","","fixation","","","","","","","","","","","","","","","","","","","","","","","","","",""
"","","","","","canvas-keyboard-response","173","1438018","0.0-12.0-1.32","2d_cat_multi_stim_exp1","2022-4-13","14:0:19","25","75","3","9","10","40","30","120","37","20","[""White""]","No","Female","3122611","null","null","","","","clear_screen","","","","","","","","","","","","","","","","","","","","","","","","","",""
"","","","","","canvas-keyboard-response","174","1439018","0.0-12.0-2.32","2d_cat_multi_stim_exp1","2022-4-13","14:0:19","25","75","3","9","10","40","30","120","37","20","[""White""]","No","Female","3122611","991","i","learn","","","learn_trial","40","90","out","0","1","","","","","","","","","","","","","","","","","","","","",""
"","","","","","canvas-keyboard-response","175","1439527","0.0-12.0-3.32","2d_cat_multi_stim_exp1","2022-4-13","14:0:19","25","75","3","9","10","40","30","120","37","20","[""White""]","No","Female","3122611","null","null","learn_feedback","","","learn_feedback","40","90","out","","","","","","","","","","","","","","","","","","","","","","",""
"","","","","","canvas-keyboard-response","176","1439589","0.0-12.0-4.32","2d_cat_multi_stim_exp1","2022-4-13","14:0:19","25","75","3","9","10","40","30","120","37","20","[""White""]","No","Female","3122611","null","null","","","","clear_screen","","","","","","","","","","","","","","","","","","","","","","","","","",""
"","","","","","canvas-keyboard-response","177","1440101","0.0-12.0-0.33","2d_cat_multi_stim_exp1","2022-4-13","14:0:19","25","75","3","9","10","40","30","120","37","20","[""White""]","No","Female","3122611","null","null","","","","fixation","","","","","","","","","","","","","","","","","","","","","","","","","",""
"","","","","","canvas-keyboard-response","178","1440610","0.0-12.0-1.33","2d_cat_multi_stim_exp1","2022-4-13","14:0:19","25","75","3","9","10","40","30","120","37","20","[""White""]","No","Female","3122611","null","null","","","","clear_screen","","","","","","","","","","","","","","","","","","","","","","","","","",""
"","","","","","canvas-keyboard-response","179","1445122","0.0-12.0-2.33","2d_cat_multi_stim_exp1","2022-4-13","14:0:19","25","75","3","9","10","40","30","120","37","20","[""White""]","No","Female","3122611","4500","u","learn","","","learn_trial","16.6667","50","out","1","0","","","","","","","","","","","","","","","","","","","","",""
"","","","","","canvas-keyboard-response","180","1446136","0.0-12.0-3.33","2d_cat_multi_stim_exp1","2022-4-13","14:0:19","25","75","3","9","10","40","30","120","37","20","[""White""]","No","Female","3122611","null","null","learn_feedback","","","learn_feedback","16.6667","50","out","","","","","","","","","","","","","","","","","","","","","","",""
"","","","","","canvas-keyboard-response","181","1446198","0.0-12.0-4.33","2d_cat_multi_stim_exp1","2022-4-13","14:0:19","25","75","3","9","10","40","30","120","37","20","[""White""]","No","Female","3122611","null","null","","","","clear_screen","","","","","","","","","","","","","","","","","","","","","","","","","",""
"","","","","","canvas-keyboard-response","182","1446707","0.0-12.0-0.34","2d_cat_multi_stim_exp1","2022-4-13","14:0:19","25","75","3","9","10","40","30","120","37","20","[""White""]","No","Female","3122611","null","null","","","","fixation","","","","","","","","","","","","","","","","","","","","","","","","","",""
"","","","","","canvas-keyboard-response","183","1447221","0.0-12.0-1.34","2d_cat_multi_stim_exp1","2022-4-13","14:0:19","25","75","3","9","10","40","30","120","37","20","[""White""]","No","Female","3122611","null","null","","","","clear_screen","","","","","","","","","","","","","","","","","","","","","","","","","",""
"","","","","","canvas-keyboard-response","184","1449235","0.0-12.0-2.34","2d_cat_multi_stim_exp1","2022-4-13","14:0:19","25","75","3","9","10","40","30","120","37","20","[""White""]","No","Female","3122611","2001","i","learn","","","learn_trial","33.3333","30","out","0","1","","","","","","","","","","","","","","","","","","","","",""
"","","","","","canvas-keyboard-response","185","1449744","0.0-12.0-3.34","2d_cat_multi_stim_exp1","2022-4-13","14:0:19","25","75","3","9","10","40","30","120","37","20","[""White""]","No","Female","3122611","null","null","learn_feedback","","","learn_feedback","33.3333","30","out","","","","","","","","","","","","","","","","","","","","","","",""
"","","","","","canvas-keyboard-response","186","1449803","0.0-12.0-4.34","2d_cat_multi_stim_exp1","2022-4-13","14:0:19","25","75","3","9","10","40","30","120","37","20","[""White""]","No","Female","3122611","null","null","","","","clear_screen","","","","","","","","","","","","","","","","","","","","","","","","","",""
"","","","","","canvas-keyboard-response","187","1450315","0.0-12.0-0.35","2d_cat_multi_stim_exp1","2022-4-13","14:0:19","25","75","3","9","10","40","30","120","37","20","[""White""]","No","Female","3122611","null","null","","","","fixation","","","","","","","","","","","","","","","","","","","","","","","","","",""
"","","","","","canvas-keyboard-response","188","1450825","0.0-12.0-1.35","2d_cat_multi_stim_exp1","2022-4-13","14:0:19","25","75","3","9","10","40","30","120","37","20","[""White""]","No","Female","3122611","null","null","","","","clear_screen","","","","","","","","","","","","","","","","","","","","","","","","","",""
"","","","","","canvas-keyboard-response","189","1453210","0.0-12.0-2.35","2d_cat_multi_stim_exp1","2022-4-13","14:0:19","25","75","3","9","10","40","30","120","37","20","[""White""]","No","Female","3122611","2374","i","learn","","","learn_trial","16.6667","110","out","0","1","","","","","","","","","","","","","","","","","","","","",""
"","","","","","canvas-keyboard-response","190","1453722","0.0-12.0-3.35","2d_cat_multi_stim_exp1","2022-4-13","14:0:19","25","75","3","9","10","40","30","120","37","20","[""White""]","No","Female","3122611","null","null","learn_feedback","","","learn_feedback","16.6667","110","out","","","","","","","","","","","","","","","","","","","","","","",""
"","","","","","canvas-keyboard-response","191","1453783","0.0-12.0-4.35","2d_cat_multi_stim_exp1","2022-4-13","14:0:19","25","75","3","9","10","40","30","120","37","20","[""White""]","No","Female","3122611","null","null","","","","clear_screen","","","","","","","","","","","","","","","","","","","","","","","","","",""
"","","","","","canvas-keyboard-response","192","1454294","0.0-12.0-0.36","2d_cat_multi_stim_exp1","2022-4-13","14:0:19","25","75","3","9","10","40","30","120","37","20","[""White""]","No","Female","3122611","null","null","","","","fixation","","","","","","","","","","","","","","","","","","","","","","","","","",""
"","","","","","canvas-keyboard-response","193","1454807","0.0-12.0-1.36","2d_cat_multi_stim_exp1","2022-4-13","14:0:19","25","75","3","9","10","40","30","120","37","20","[""White""]","No","Female","3122611","null","null","","","","clear_screen","","","","","","","","","","","","","","","","","","","","","","","","","",""
"","","","","","canvas-keyboard-response","194","1455874","0.0-12.0-2.36","2d_cat_multi_stim_exp1","2022-4-13","14:0:19","25","75","3","9","10","40","30","120","37","20","[""White""]","No","Female","3122611","1059","u","learn","","","learn_trial","29.2426","87.7279","in","1","1","","","","","","","","","","","","","","","","","","","","",""
"","","","","","canvas-keyboard-response","195","1456382","0.0-12.0-3.36","2d_cat_multi_stim_exp1","2022-4-13","14:0:19","25","75","3","9","10","40","30","120","37","20","[""White""]","No","Female","3122611","null","null","learn_feedback","","","learn_feedback","29.2426","87.7279","in","","","","","","","","","","","","","","","","","","","","","","",""
"","","","","","canvas-keyboard-response","196","1456443","0.0-12.0-4.36","2d_cat_multi_stim_exp1","2022-4-13","14:0:19","25","75","3","9","10","40","30","120","37","20","[""White""]","No","Female","3122611","null","null","","","","clear_screen","","","","","","","","","","","","","","","","","","","","","","","","","",""
"","","","","","canvas-keyboard-response","197","1456951","0.0-12.0-0.37","2d_cat_multi_stim_exp1","2022-4-13","14:0:19","25","75","3","9","10","40","30","120","37","20","[""White""]","No","Female","3122611","null","null","","","","fixation","","","","","","","","","","","","","","","","","","","","","","","","","",""
"","","","","","canvas-keyboard-response","198","1457462","0.0-12.0-1.37","2d_cat_multi_stim_exp1","2022-4-13","14:0:19","25","75","3","9","10","40","30","120","37","20","[""White""]","No","Female","3122611","null","null","","","","clear_screen","","","","","","","","","","","","","","","","","","","","","","","","","",""
"","","","","","canvas-keyboard-response","199","1458220","0.0-12.0-2.37","2d_cat_multi_stim_exp1","2022-4-13","14:0:19","25","75","3","9","10","40","30","120","37","20","[""White""]","No","Female","3122611","747","u","learn","","","learn_trial","25","75","in","1","1","","","","","","","","","","","","","","","","","","","","",""
"","","","","","canvas-keyboard-response","200","1458731","0.0-12.0-3.37","2d_cat_multi_stim_exp1","2022-4-13","14:0:19","25","75","3","9","10","40","30","120","37","20","[""White""]","No","Female","3122611","null","null","learn_feedback","","","learn_feedback","25","75","in","","","","","","","","","","","","","","","","","","","","","","",""
"","","","","","canvas-keyboard-response","201","1458795","0.0-12.0-4.37","2d_cat_multi_stim_exp1","2022-4-13","14:0:19","25","75","3","9","10","40","30","120","37","20","[""White""]","No","Female","3122611","null","null","","","","clear_screen","","","","","","","","","","","","","","","","","","","","","","","","","",""
"","","","","","canvas-keyboard-response","202","1459305","0.0-12.0-0.38","2d_cat_multi_stim_exp1","2022-4-13","14:0:19","25","75","3","9","10","40","30","120","37","20","[""White""]","No","Female","3122611","null","null","","","","fixation","","","","","","","","","","","","","","","","","","","","","","","","","",""
"","","","","","canvas-keyboard-response","203","1459818","0.0-12.0-1.38","2d_cat_multi_stim_exp1","2022-4-13","14:0:19","25","75","3","9","10","40","30","120","37","20","[""White""]","No","Female","3122611","null","null","","","","clear_screen","","","","","","","","","","","","","","","","","","","","","","","","","",""
"","","","","","canvas-keyboard-response","204","1460531","0.0-12.0-2.38","2d_cat_multi_stim_exp1","2022-4-13","14:0:19","25","75","3","9","10","40","30","120","37","20","[""White""]","No","Female","3122611","704","i","learn","","","learn_trial","16.6667","40","out","0","1","","","","","","","","","","","","","","","","","","","","",""
"","","","","","canvas-keyboard-response","205","1461040","0.0-12.0-3.38","2d_cat_multi_stim_exp1","2022-4-13","14:0:19","25","75","3","9","10","40","30","120","37","20","[""White""]","No","Female","3122611","null","null","learn_feedback","","","learn_feedback","16.6667","40","out","","","","","","","","","","","","","","","","","","","","","","",""
"","","","","","canvas-keyboard-response","206","1461100","0.0-12.0-4.38","2d_cat_multi_stim_exp1","2022-4-13","14:0:19","25","75","3","9","10","40","30","120","37","20","[""White""]","No","Female","3122611","null","null","","","","clear_screen","","","","","","","","","","","","","","","","","","","","","","","","","",""
"","","","","","canvas-keyboard-response","207","1461611","0.0-12.0-0.39","2d_cat_multi_stim_exp1","2022-4-13","14:0:19","25","75","3","9","10","40","30","120","37","20","[""White""]","No","Female","3122611","null","null","","","","fixation","","","","","","","","","","","","","","","","","","","","","","","","","",""
"","","","","","canvas-keyboard-response","208","1462121","0.0-12.0-1.39","2d_cat_multi_stim_exp1","2022-4-13","14:0:19","25","75","3","9","10","40","30","120","37","20","[""White""]","No","Female","3122611","null","null","","","","clear_screen","","","","","","","","","","","","","","","","","","","","","","","","","",""
"","","","","","canvas-keyboard-response","209","1462796","0.0-12.0-2.39","2d_cat_multi_stim_exp1","2022-4-13","14:0:19","25","75","3","9","10","40","30","120","37","20","[""White""]","No","Female","3122611","664","i","learn","","","learn_trial","26.6667","30","out","0","1","","","","","","","","","","","","","","","","","","","","",""
"","","","","","canvas-keyboard-response","210","1463309","0.0-12.0-3.39","2d_cat_multi_stim_exp1","2022-4-13","14:0:19","25","75","3","9","10","40","30","120","37","20","[""White""]","No","Female","3122611","null","null","learn_feedback","","","learn_feedback","26.6667","30","out","","","","","","","","","","","","","","","","","","","","","","",""
"","","","","","canvas-keyboard-response","211","1463368","0.0-12.0-4.39","2d_cat_multi_stim_exp1","2022-4-13","14:0:19","25","75","3","9","10","40","30","120","37","20","[""White""]","No","Female","3122611","null","null","","","","clear_screen","","","","","","","","","","","","","","","","","","","","","","","","","",""
"","","","","","canvas-keyboard-response","212","1463877","0.0-12.0-0.40","2d_cat_multi_stim_exp1","2022-4-13","14:0:19","25","75","3","9","10","40","30","120","37","20","[""White""]","No","Female","3122611","null","null","","","","fixation","","","","","","","","","","","","","","","","","","","","","","","","","",""
"","","","","","canvas-keyboard-response","213","1464386","0.0-12.0-1.40","2d_cat_multi_stim_exp1","2022-4-13","14:0:19","25","75","3","9","10","40","30","120","37","20","[""White""]","No","Female","3122611","null","null","","","","clear_screen","","","","","","","","","","","","","","","","","","","","","","","","","",""
"","","","","","canvas-keyboard-response","214","1465043","0.0-12.0-2.40","2d_cat_multi_stim_exp1","2022-4-13","14:0:19","25","75","3","9","10","40","30","120","37","20","[""White""]","No","Female","3122611","650","u","learn","","","learn_trial","40","70","out","1","0","","","","","","","","","","","","","","","","","","","","",""
"","","","","","canvas-keyboard-response","215","1466053","0.0-12.0-3.40","2d_cat_multi_stim_exp1","2022-4-13","14:0:19","25","75","3","9","10","40","30","120","37","20","[""White""]","No","Female","3122611","null","null","learn_feedback","","","learn_feedback","40","70","out","","","","","","","","","","","","","","","","","","","","","","",""
"","","","","","canvas-keyboard-response","216","1466116","0.0-12.0-4.40","2d_cat_multi_stim_exp1","2022-4-13","14:0:19","25","75","3","9","10","40","30","120","37","20","[""White""]","No","Female","3122611","null","null","","","","clear_screen","","","","","","","","","","","","","","","","","","","","","","","","","",""
"","","","","","canvas-keyboard-response","217","1466625","0.0-12.0-0.41","2d_cat_multi_stim_exp1","2022-4-13","14:0:19","25","75","3","9","10","40","30","120","37","20","[""White""]","No","Female","3122611","null","null","","","","fixation","","","","","","","","","","","","","","","","","","","","","","","","","",""
"","","","","","canvas-keyboard-response","218","1467136","0.0-12.0-1.41","2d_cat_multi_stim_exp1","2022-4-13","14:0:19","25","75","3","9","10","40","30","120","37","20","[""White""]","No","Female","3122611","null","null","","","","clear_screen","","","","","","","","","","","","","","","","","","","","","","","","","",""
"","","","","","canvas-keyboard-response","219","1468107","0.0-12.0-2.41","2d_cat_multi_stim_exp1","2022-4-13","14:0:19","25","75","3","9","10","40","30","120","37","20","[""White""]","No","Female","3122611","962","u","learn","","","learn_trial","25","75","in","1","1","","","","","","","","","","","","","","","","","","","","",""
"","","","","","canvas-keyboard-response","220","1468617","0.0-12.0-3.41","2d_cat_multi_stim_exp1","2022-4-13","14:0:19","25","75","3","9","10","40","30","120","37","20","[""White""]","No","Female","3122611","null","null","learn_feedback","","","learn_feedback","25","75","in","","","","","","","","","","","","","","","","","","","","","","",""
"","","","","","canvas-keyboard-response","221","1468679","0.0-12.0-4.41","2d_cat_multi_stim_exp1","2022-4-13","14:0:19","25","75","3","9","10","40","30","120","37","20","[""White""]","No","Female","3122611","null","null","","","","clear_screen","","","","","","","","","","","","","","","","","","","","","","","","","",""
"","","","","","canvas-keyboard-response","222","1469188","0.0-12.0-0.42","2d_cat_multi_stim_exp1","2022-4-13","14:0:19","25","75","3","9","10","40","30","120","37","20","[""White""]","No","Female","3122611","null","null","","","","fixation","","","","","","","","","","","","","","","","","","","","","","","","","",""
"","","","","","canvas-keyboard-response","223","1469699","0.0-12.0-1.42","2d_cat_multi_stim_exp1","2022-4-13","14:0:19","25","75","3","9","10","40","30","120","37","20","[""White""]","No","Female","3122611","null","null","","","","clear_screen","","","","","","","","","","","","","","","","","","","","","","","","","",""
"","","","","","canvas-keyboard-response","224","1471419","0.0-12.0-2.42","2d_cat_multi_stim_exp1","2022-4-13","14:0:19","25","75","3","9","10","40","30","120","37","20","[""White""]","No","Female","3122611","1709","i","learn","","","learn_trial","13.3333","40","out","0","1","","","","","","","","","","","","","","","","","","","","",""
"","","","","","canvas-keyboard-response","225","1471927","0.0-12.0-3.42","2d_cat_multi_stim_exp1","2022-4-13","14:0:19","25","75","3","9","10","40","30","120","37","20","[""White""]","No","Female","3122611","null","null","learn_feedback","","","learn_feedback","13.3333","40","out","","","","","","","","","","","","","","","","","","","","","","",""
"","","","","","canvas-keyboard-response","226","1471984","0.0-12.0-4.42","2d_cat_multi_stim_exp1","2022-4-13","14:0:19","25","75","3","9","10","40","30","120","37","20","[""White""]","No","Female","3122611","null","null","","","","clear_screen","","","","","","","","","","","","","","","","","","","","","","","","","",""
"","","","","","canvas-keyboard-response","227","1472496","0.0-12.0-0.43","2d_cat_multi_stim_exp1","2022-4-13","14:0:19","25","75","3","9","10","40","30","120","37","20","[""White""]","No","Female","3122611","null","null","","","","fixation","","","","","","","","","","","","","","","","","","","","","","","","","",""
"","","","","","canvas-keyboard-response","228","1473007","0.0-12.0-1.43","2d_cat_multi_stim_exp1","2022-4-13","14:0:19","25","75","3","9","10","40","30","120","37","20","[""White""]","No","Female","3122611","null","null","","","","clear_screen","","","","","","","","","","","","","","","","","","","","","","","","","",""
"","","","","","canvas-keyboard-response","229","1474962","0.0-12.0-2.43","2d_cat_multi_stim_exp1","2022-4-13","14:0:19","25","75","3","9","10","40","30","120","37","20","[""White""]","No","Female","3122611","1945","u","learn","","","learn_trial","25","75","in","1","1","","","","","","","","","","","","","","","","","","","","",""
"","","","","","canvas-keyboard-response","230","1475476","0.0-12.0-3.43","2d_cat_multi_stim_exp1","2022-4-13","14:0:19","25","75","3","9","10","40","30","120","37","20","[""White""]","No","Female","3122611","null","null","learn_feedback","","","learn_feedback","25","75","in","","","","","","","","","","","","","","","","","","","","","","",""
"","","","","","canvas-keyboard-response","231","1475535","0.0-12.0-4.43","2d_cat_multi_stim_exp1","2022-4-13","14:0:19","25","75","3","9","10","40","30","120","37","20","[""White""]","No","Female","3122611","null","null","","","","clear_screen","","","","","","","","","","","","","","","","","","","","","","","","","",""
"","","","","","canvas-keyboard-response","232","1476044","0.0-12.0-0.44","2d_cat_multi_stim_exp1","2022-4-13","14:0:19","25","75","3","9","10","40","30","120","37","20","[""White""]","No","Female","3122611","null","null","","","","fixation","","","","","","","","","","","","","","","","","","","","","","","","","",""
"","","","","","canvas-keyboard-response","233","1476557","0.0-12.0-1.44","2d_cat_multi_stim_exp1","2022-4-13","14:0:19","25","75","3","9","10","40","30","120","37","20","[""White""]","No","Female","3122611","null","null","","","","clear_screen","","","","","","","","","","","","","","","","","","","","","","","","","",""
"","","","","","canvas-keyboard-response","234","1478211","0.0-12.0-2.44","2d_cat_multi_stim_exp1","2022-4-13","14:0:19","25","75","3","9","10","40","30","120","37","20","[""White""]","No","Female","3122611","1645","u","learn","","","learn_trial","25","75","in","1","1","","","","","","","","","","","","","","","","","","","","",""
"","","","","","canvas-keyboard-response","235","1478721","0.0-12.0-3.44","2d_cat_multi_stim_exp1","2022-4-13","14:0:19","25","75","3","9","10","40","30","120","37","20","[""White""]","No","Female","3122611","null","null","learn_feedback","","","learn_feedback","25","75","in","","","","","","","","","","","","","","","","","","","","","","",""
"","","","","","canvas-keyboard-response","236","1478783","0.0-12.0-4.44","2d_cat_multi_stim_exp1","2022-4-13","14:0:19","25","75","3","9","10","40","30","120","37","20","[""White""]","No","Female","3122611","null","null","","","","clear_screen","","","","","","","","","","","","","","","","","","","","","","","","","",""
"","","","","","canvas-keyboard-response","237","1479291","0.0-12.0-0.45","2d_cat_multi_stim_exp1","2022-4-13","14:0:19","25","75","3","9","10","40","30","120","37","20","[""White""]","No","Female","3122611","null","null","","","","fixation","","","","","","","","","","","","","","","","","","","","","","","","","",""
"","","","","","canvas-keyboard-response","238","1479801","0.0-12.0-1.45","2d_cat_multi_stim_exp1","2022-4-13","14:0:19","25","75","3","9","10","40","30","120","37","20","[""White""]","No","Female","3122611","null","null","","","","clear_screen","","","","","","","","","","","","","","","","","","","","","","","","","",""
"","","","","","canvas-keyboard-response","239","1480755","0.0-12.0-2.45","2d_cat_multi_stim_exp1","2022-4-13","14:0:19","25","75","3","9","10","40","30","120","37","20","[""White""]","No","Female","3122611","946","u","learn","","","learn_trial","23.3333","80","out","1","0","","","","","","","","","","","","","","","","","","","","",""
"","","","","","canvas-keyboard-response","240","1481765","0.0-12.0-3.45","2d_cat_multi_stim_exp1","2022-4-13","14:0:19","25","75","3","9","10","40","30","120","37","20","[""White""]","No","Female","3122611","null","null","learn_feedback","","","learn_feedback","23.3333","80","out","","","","","","","","","","","","","","","","","","","","","","",""
"","","","","","canvas-keyboard-response","241","1481825","0.0-12.0-4.45","2d_cat_multi_stim_exp1","2022-4-13","14:0:19","25","75","3","9","10","40","30","120","37","20","[""White""]","No","Female","3122611","null","null","","","","clear_screen","","","","","","","","","","","","","","","","","","","","","","","","","",""
"","","","","","canvas-keyboard-response","242","1482332","0.0-12.0-0.46","2d_cat_multi_stim_exp1","2022-4-13","14:0:19","25","75","3","9","10","40","30","120","37","20","[""White""]","No","Female","3122611","null","null","","","","fixation","","","","","","","","","","","","","","","","","","","","","","","","","",""
"","","","","","canvas-keyboard-response","243","1482844","0.0-12.0-1.46","2d_cat_multi_stim_exp1","2022-4-13","14:0:19","25","75","3","9","10","40","30","120","37","20","[""White""]","No","Female","3122611","null","null","","","","clear_screen","","","","","","","","","","","","","","","","","","","","","","","","","",""
"","","","","","canvas-keyboard-response","244","1483859","0.0-12.0-2.46","2d_cat_multi_stim_exp1","2022-4-13","14:0:19","25","75","3","9","10","40","30","120","37","20","[""White""]","No","Female","3122611","1005","u","learn","","","learn_trial","25","75","in","1","1","","","","","","","","","","","","","","","","","","","","",""
"","","","","","canvas-keyboard-response","245","1484371","0.0-12.0-3.46","2d_cat_multi_stim_exp1","2022-4-13","14:0:19","25","75","3","9","10","40","30","120","37","20","[""White""]","No","Female","3122611","null","null","learn_feedback","","","learn_feedback","25","75","in","","","","","","","","","","","","","","","","","","","","","","",""
"","","","","","canvas-keyboard-response","246","1484430","0.0-12.0-4.46","2d_cat_multi_stim_exp1","2022-4-13","14:0:19","25","75","3","9","10","40","30","120","37","20","[""White""]","No","Female","3122611","null","null","","","","clear_screen","","","","","","","","","","","","","","","","","","","","","","","","","",""
"","","","","","canvas-keyboard-response","247","1484941","0.0-12.0-0.47","2d_cat_multi_stim_exp1","2022-4-13","14:0:19","25","75","3","9","10","40","30","120","37","20","[""White""]","No","Female","3122611","null","null","","","","fixation","","","","","","","","","","","","","","","","","","","","","","","","","",""
"","","","","","canvas-keyboard-response","248","1485454","0.0-12.0-1.47","2d_cat_multi_stim_exp1","2022-4-13","14:0:19","25","75","3","9","10","40","30","120","37","20","[""White""]","No","Female","3122611","null","null","","","","clear_screen","","","","","","","","","","","","","","","","","","","","","","","","","",""
"","","","","","canvas-keyboard-response","249","1486196","0.0-12.0-2.47","2d_cat_multi_stim_exp1","2022-4-13","14:0:19","25","75","3","9","10","40","30","120","37","20","[""White""]","No","Female","3122611","729","u","learn","","","learn_trial","19","75","in","1","1","","","","","","","","","","","","","","","","","","","","",""
"","","","","","canvas-keyboard-response","250","1486703","0.0-12.0-3.47","2d_cat_multi_stim_exp1","2022-4-13","14:0:19","25","75","3","9","10","40","30","120","37","20","[""White""]","No","Female","3122611","null","null","learn_feedback","","","learn_feedback","19","75","in","","","","","","","","","","","","","","","","","","","","","","",""
"","","","","","canvas-keyboard-response","251","1486762","0.0-12.0-4.47","2d_cat_multi_stim_exp1","2022-4-13","14:0:19","25","75","3","9","10","40","30","120","37","20","[""White""]","No","Female","3122611","null","null","","","","clear_screen","","","","","","","","","","","","","","","","","","","","","","","","","",""
"","","","","","canvas-keyboard-response","252","1487270","0.0-12.0-0.48","2d_cat_multi_stim_exp1","2022-4-13","14:0:19","25","75","3","9","10","40","30","120","37","20","[""White""]","No","Female","3122611","null","null","","","","fixation","","","","","","","","","","","","","","","","","","","","","","","","","",""
"","","","","","canvas-keyboard-response","253","1487780","0.0-12.0-1.48","2d_cat_multi_stim_exp1","2022-4-13","14:0:19","25","75","3","9","10","40","30","120","37","20","[""White""]","No","Female","3122611","null","null","","","","clear_screen","","","","","","","","","","","","","","","","","","","","","","","","","",""
"","","","","","canvas-keyboard-response","254","1488450","0.0-12.0-2.48","2d_cat_multi_stim_exp1","2022-4-13","14:0:19","25","75","3","9","10","40","30","120","37","20","[""White""]","No","Female","3122611","661","i","learn","","","learn_trial","25","75","in","0","0","","","","","","","","","","","","","","","","","","","","",""
"","","","","","canvas-keyboard-response","255","1489461","0.0-12.0-3.48","2d_cat_multi_stim_exp1","2022-4-13","14:0:19","25","75","3","9","10","40","30","120","37","20","[""White""]","No","Female","3122611","null","null","learn_feedback","","","learn_feedback","25","75","in","","","","","","","","","","","","","","","","","","","","","","",""
"","","","","","canvas-keyboard-response","256","1489524","0.0-12.0-4.48","2d_cat_multi_stim_exp1","2022-4-13","14:0:19","25","75","3","9","10","40","30","120","37","20","[""White""]","No","Female","3122611","null","null","","","","clear_screen","","","","","","","","","","","","","","","","","","","","","","","","","",""
"","","","","","canvas-keyboard-response","257","1490027","0.0-12.0-0.49","2d_cat_multi_stim_exp1","2022-4-13","14:0:19","25","75","3","9","10","40","30","120","37","20","[""White""]","No","Female","3122611","null","null","","","","fixation","","","","","","","","","","","","","","","","","","","","","","","","","",""
"","","","","","canvas-keyboard-response","258","1490540","0.0-12.0-1.49","2d_cat_multi_stim_exp1","2022-4-13","14:0:19","25","75","3","9","10","40","30","120","37","20","[""White""]","No","Female","3122611","null","null","","","","clear_screen","","","","","","","","","","","","","","","","","","","","","","","","","",""
"","","","","","canvas-keyboard-response","259","1491346","0.0-12.0-2.49","2d_cat_multi_stim_exp1","2022-4-13","14:0:19","25","75","3","9","10","40","30","120","37","20","[""White""]","No","Female","3122611","798","u","learn","","","learn_trial","23.8209","83.2757","in","1","1","","","","","","","","","","","","","","","","","","","","",""
"","","","","","canvas-keyboard-response","260","1491856","0.0-12.0-3.49","2d_cat_multi_stim_exp1","2022-4-13","14:0:19","25","75","3","9","10","40","30","120","37","20","[""White""]","No","Female","3122611","null","null","learn_feedback","","","learn_feedback","23.8209","83.2757","in","","","","","","","","","","","","","","","","","","","","","","",""
"","","","","","canvas-keyboard-response","261","1491915","0.0-12.0-4.49","2d_cat_multi_stim_exp1","2022-4-13","14:0:19","25","75","3","9","10","40","30","120","37","20","[""White""]","No","Female","3122611","null","null","","","","clear_screen","","","","","","","","","","","","","","","","","","","","","","","","","",""
"","","","","","canvas-keyboard-response","262","1492425","0.0-12.0-0.50","2d_cat_multi_stim_exp1","2022-4-13","14:0:19","25","75","3","9","10","40","30","120","37","20","[""White""]","No","Female","3122611","null","null","","","","fixation","","","","","","","","","","","","","","","","","","","","","","","","","",""
"","","","","","canvas-keyboard-response","263","1492935","0.0-12.0-1.50","2d_cat_multi_stim_exp1","2022-4-13","14:0:19","25","75","3","9","10","40","30","120","37","20","[""White""]","No","Female","3122611","null","null","","","","clear_screen","","","","","","","","","","","","","","","","","","","","","","","","","",""
"","","","","","canvas-keyboard-response","264","1493723","0.0-12.0-2.50","2d_cat_multi_stim_exp1","2022-4-13","14:0:19","25","75","3","9","10","40","30","120","37","20","[""White""]","No","Female","3122611","773","u","learn","","","learn_trial","26.6667","90","out","1","0","","","","","","","","","","","","","","","","","","","","",""
"","","","","","canvas-keyboard-response","265","1494733","0.0-12.0-3.50","2d_cat_multi_stim_exp1","2022-4-13","14:0:19","25","75","3","9","10","40","30","120","37","20","[""White""]","No","Female","3122611","null","null","learn_feedback","","","learn_feedback","26.6667","90","out","","","","","","","","","","","","","","","","","","","","","","",""
"","","","","","canvas-keyboard-response","266","1494795","0.0-12.0-4.50","2d_cat_multi_stim_exp1","2022-4-13","14:0:19","25","75","3","9","10","40","30","120","37","20","[""White""]","No","Female","3122611","null","null","","","","clear_screen","","","","","","","","","","","","","","","","","","","","","","","","","",""
"","","","","","canvas-keyboard-response","267","1495300","0.0-12.0-0.51","2d_cat_multi_stim_exp1","2022-4-13","14:0:19","25","75","3","9","10","40","30","120","37","20","[""White""]","No","Female","3122611","null","null","","","","fixation","","","","","","","","","","","","","","","","","","","","","","","","","",""
"","","","","","canvas-keyboard-response","268","1495811","0.0-12.0-1.51","2d_cat_multi_stim_exp1","2022-4-13","14:0:19","25","75","3","9","10","40","30","120","37","20","[""White""]","No","Female","3122611","null","null","","","","clear_screen","","","","","","","","","","","","","","","","","","","","","","","","","",""
"","","","","","canvas-keyboard-response","269","1496779","0.0-12.0-2.51","2d_cat_multi_stim_exp1","2022-4-13","14:0:19","25","75","3","9","10","40","30","120","37","20","[""White""]","No","Female","3122611","959","i","learn","","","learn_trial","29.2426","62.2721","in","0","0","","","","","","","","","","","","","","","","","","","","",""
"","","","","","canvas-keyboard-response","270","1497789","0.0-12.0-3.51","2d_cat_multi_stim_exp1","2022-4-13","14:0:19","25","75","3","9","10","40","30","120","37","20","[""White""]","No","Female","3122611","null","null","learn_feedback","","","learn_feedback","29.2426","62.2721","in","","","","","","","","","","","","","","","","","","","","","","",""
"","","","","","canvas-keyboard-response","271","1497853","0.0-12.0-4.51","2d_cat_multi_stim_exp1","2022-4-13","14:0:19","25","75","3","9","10","40","30","120","37","20","[""White""]","No","Female","3122611","null","null","","","","clear_screen","","","","","","","","","","","","","","","","","","","","","","","","","",""
"","","","","","canvas-keyboard-response","272","1498360","0.0-12.0-0.52","2d_cat_multi_stim_exp1","2022-4-13","14:0:19","25","75","3","9","10","40","30","120","37","20","[""White""]","No","Female","3122611","null","null","","","","fixation","","","","","","","","","","","","","","","","","","","","","","","","","",""
"","","","","","canvas-keyboard-response","273","1498870","0.0-12.0-1.52","2d_cat_multi_stim_exp1","2022-4-13","14:0:19","25","75","3","9","10","40","30","120","37","20","[""White""]","No","Female","3122611","null","null","","","","clear_screen","","","","","","","","","","","","","","","","","","","","","","","","","",""
"","","","","","canvas-keyboard-response","274","1499970","0.0-12.0-2.52","2d_cat_multi_stim_exp1","2022-4-13","14:0:19","25","75","3","9","10","40","30","120","37","20","[""White""]","No","Female","3122611","1089","i","learn","","","learn_trial","40","110","out","0","1","","","","","","","","","","","","","","","","","","","","",""
"","","","","","canvas-keyboard-response","275","1500481","0.0-12.0-3.52","2d_cat_multi_stim_exp1","2022-4-13","14:0:19","25","75","3","9","10","40","30","120","37","20","[""White""]","No","Female","3122611","null","null","learn_feedback","","","learn_feedback","40","110","out","","","","","","","","","","","","","","","","","","","","","","",""
"","","","","","canvas-keyboard-response","276","1500542","0.0-12.0-4.52","2d_cat_multi_stim_exp1","2022-4-13","14:0:19","25","75","3","9","10","40","30","120","37","20","[""White""]","No","Female","3122611","null","null","","","","clear_screen","","","","","","","","","","","","","","","","","","","","","","","","","",""
"","","","","","canvas-keyboard-response","277","1501051","0.0-12.0-0.53","2d_cat_multi_stim_exp1","2022-4-13","14:0:19","25","75","3","9","10","40","30","120","37","20","[""White""]","No","Female","3122611","null","null","","","","fixation","","","","","","","","","","","","","","","","","","","","","","","","","",""
"","","","","","canvas-keyboard-response","278","1501564","0.0-12.0-1.53","2d_cat_multi_stim_exp1","2022-4-13","14:0:19","25","75","3","9","10","40","30","120","37","20","[""White""]","No","Female","3122611","null","null","","","","clear_screen","","","","","","","","","","","","","","","","","","","","","","","","","",""
"","","","","","canvas-keyboard-response","279","1503979","0.0-12.0-2.53","2d_cat_multi_stim_exp1","2022-4-13","14:0:19","25","75","3","9","10","40","30","120","37","20","[""White""]","No","Female","3122611","2405","u","learn","","","learn_trial","25","75","in","1","1","","","","","","","","","","","","","","","","","","","","",""
"","","","","","canvas-keyboard-response","280","1504486","0.0-12.0-3.53","2d_cat_multi_stim_exp1","2022-4-13","14:0:19","25","75","3","9","10","40","30","120","37","20","[""White""]","No","Female","3122611","null","null","learn_feedback","","","learn_feedback","25","75","in","","","","","","","","","","","","","","","","","","","","","","",""
"","","","","","canvas-keyboard-response","281","1504547","0.0-12.0-4.53","2d_cat_multi_stim_exp1","2022-4-13","14:0:19","25","75","3","9","10","40","30","120","37","20","[""White""]","No","Female","3122611","null","null","","","","clear_screen","","","","","","","","","","","","","","","","","","","","","","","","","",""
"","","","","","canvas-keyboard-response","282","1505055","0.0-12.0-0.54","2d_cat_multi_stim_exp1","2022-4-13","14:0:19","25","75","3","9","10","40","30","120","37","20","[""White""]","No","Female","3122611","null","null","","","","fixation","","","","","","","","","","","","","","","","","","","","","","","","","",""
"","","","","","canvas-keyboard-response","283","1505568","0.0-12.0-1.54","2d_cat_multi_stim_exp1","2022-4-13","14:0:19","25","75","3","9","10","40","30","120","37","20","[""White""]","No","Female","3122611","null","null","","","","clear_screen","","","","","","","","","","","","","","","","","","","","","","","","","",""
"","","","","","canvas-keyboard-response","284","1506572","0.0-12.0-2.54","2d_cat_multi_stim_exp1","2022-4-13","14:0:19","25","75","3","9","10","40","30","120","37","20","[""White""]","No","Female","3122611","994","i","learn","","","learn_trial","16.6667","100","out","0","1","","","","","","","","","","","","","","","","","","","","",""
"","","","","","canvas-keyboard-response","285","1507082","0.0-12.0-3.54","2d_cat_multi_stim_exp1","2022-4-13","14:0:19","25","75","3","9","10","40","30","120","37","20","[""White""]","No","Female","3122611","null","null","learn_feedback","","","learn_feedback","16.6667","100","out","","","","","","","","","","","","","","","","","","","","","","",""
"","","","","","canvas-keyboard-response","286","1507142","0.0-12.0-4.54","2d_cat_multi_stim_exp1","2022-4-13","14:0:19","25","75","3","9","10","40","30","120","37","20","[""White""]","No","Female","3122611","null","null","","","","clear_screen","","","","","","","","","","","","","","","","","","","","","","","","","",""
"","","","","","canvas-keyboard-response","287","1507653","0.0-12.0-0.55","2d_cat_multi_stim_exp1","2022-4-13","14:0:19","25","75","3","9","10","40","30","120","37","20","[""White""]","No","Female","3122611","null","null","","","","fixation","","","","","","","","","","","","","","","","","","","","","","","","","",""
"","","","","","canvas-keyboard-response","288","1508166","0.0-12.0-1.55","2d_cat_multi_stim_exp1","2022-4-13","14:0:19","25","75","3","9","10","40","30","120","37","20","[""White""]","No","Female","3122611","null","null","","","","clear_screen","","","","","","","","","","","","","","","","","","","","","","","","","",""
"","","","","","canvas-keyboard-response","289","1509707","0.0-12.0-2.55","2d_cat_multi_stim_exp1","2022-4-13","14:0:19","25","75","3","9","10","40","30","120","37","20","[""White""]","No","Female","3122611","1531","i","learn","","","learn_trial","10","50","out","0","1","","","","","","","","","","","","","","","","","","","","",""
"","","","","","canvas-keyboard-response","290","1510214","0.0-12.0-3.55","2d_cat_multi_stim_exp1","2022-4-13","14:0:19","25","75","3","9","10","40","30","120","37","20","[""White""]","No","Female","3122611","null","null","learn_feedback","","","learn_feedback","10","50","out","","","","","","","","","","","","","","","","","","","","","","",""
"","","","","","canvas-keyboard-response","291","1510276","0.0-12.0-4.55","2d_cat_multi_stim_exp1","2022-4-13","14:0:19","25","75","3","9","10","40","30","120","37","20","[""White""]","No","Female","3122611","null","null","","","","clear_screen","","","","","","","","","","","","","","","","","","","","","","","","","",""
"","","","","","canvas-keyboard-response","292","1510787","0.0-12.0-0.56","2d_cat_multi_stim_exp1","2022-4-13","14:0:19","25","75","3","9","10","40","30","120","37","20","[""White""]","No","Female","3122611","null","null","","","","fixation","","","","","","","","","","","","","","","","","","","","","","","","","",""
"","","","","","canvas-keyboard-response","293","1511298","0.0-12.0-1.56","2d_cat_multi_stim_exp1","2022-4-13","14:0:19","25","75","3","9","10","40","30","120","37","20","[""White""]","No","Female","3122611","null","null","","","","clear_screen","","","","","","","","","","","","","","","","","","","","","","","","","",""
"","","","","","canvas-keyboard-response","294","1513443","0.0-12.0-2.56","2d_cat_multi_stim_exp1","2022-4-13","14:0:19","25","75","3","9","10","40","30","120","37","20","[""White""]","No","Female","3122611","2134","u","learn","","","learn_trial","25","75","in","1","1","","","","","","","","","","","","","","","","","","","","",""
"","","","","","canvas-keyboard-response","295","1513957","0.0-12.0-3.56","2d_cat_multi_stim_exp1","2022-4-13","14:0:19","25","75","3","9","10","40","30","120","37","20","[""White""]","No","Female","3122611","null","null","learn_feedback","","","learn_feedback","25","75","in","","","","","","","","","","","","","","","","","","","","","","",""
"","","","","","canvas-keyboard-response","296","1514021","0.0-12.0-4.56","2d_cat_multi_stim_exp1","2022-4-13","14:0:19","25","75","3","9","10","40","30","120","37","20","[""White""]","No","Female","3122611","null","null","","","","clear_screen","","","","","","","","","","","","","","","","","","","","","","","","","",""
