success,timeout,failed_images,failed_audio,failed_video,trial_type,trial_index,time_elapsed,internal_node_id,exp_name,date,time,angle_mean_in,radius_mean_in,angle_sd_in,radius_sd_in,angle_min_out,angle_max_out,radius_min_out,radius_max_out,sub_n,age,race,ethnicity,gender,exp_duration,rt,response,exp_trial_type,stimulus,view_history,screen_id,angle,radius,distribution,choice,correct,order,angle_a,radius_a,angle_b,radius_b,angle_c,radius_c,jkl_correct,transfer_trial_type,choice_set,abc_correct,tc_correct,tc_angle,tdc_a,tdc_b,tdc_c,pair,category_a,category_b,category_c,question_order
true,false,[],[],[],preload,0,112,0.0-0.0,2d_cat_multi_stim_exp1,2022-4-25,12:41:20,25,75,3,9,10,40,30,120,555,19,"[""White""]",No,Female,1983959,,,,,,,,,,,,,,,,,,,,,,,,,,,,,,,,
,,,,,survey-html-form,1,141616,0.0-1.0,2d_cat_multi_stim_exp1,2022-4-25,12:41:20,25,75,3,9,10,40,30,120,555,19,"[""White""]",No,Female,1983959,141461,"{""response"":""54""}",enter-sub-number,,,,,,,,,,,,,,,,,,,,,,,,,,,,,
true,,,,,fullscreen,2,146419,0.0-2.0,2d_cat_multi_stim_exp1,2022-4-25,12:41:20,25,75,3,9,10,40,30,120,555,19,"[""White""]",No,Female,1983959,,,,,,,,,,,,,,,,,,,,,,,,,,,,,,,,
,,,,,image-button-response,3,175760,0.0-3.0,2d_cat_multi_stim_exp1,2022-4-25,12:41:20,25,75,3,9,10,40,30,120,555,19,"[""White""]",No,Female,1983959,29334,0,,consent.png,,,,,,,,,,,,,,,,,,,,,,,,,,,,
,,,,,html-button-response,4,178578,0.0-4.0,2d_cat_multi_stim_exp1,2022-4-25,12:41:20,25,75,3,9,10,40,30,120,555,19,"[""White""]",No,Female,1983959,2813,0,,"<div style= ""font-size:25px;"" <p> <strong> Welcome to the experiment! </strong><br> <p style=""color:#8B0000; font-size:25px;""><strong> Please do NOT exit full screen until you are done with the experiment. </strong> </p><p style=""font-size:25px;color:#8B0000;""> <strong> The experiment will be canceled and your data will be lost <br> if you try to go back or refresh the page at any point during the experiment.</strong> </p><br><p> <strong> Thanks in advance for your contribution to our research! </strong></p>",,,,,,,,,,,,,,,,,,,,,,,,,,,,
,,,,,instructions,5,203802,0.0-5.0,2d_cat_multi_stim_exp1,2022-4-25,12:41:20,25,75,3,9,10,40,30,120,555,19,"[""White""]",No,Female,1983959,25221,,,,"[{""page_index"":0,""viewing_time"":4262},{""page_index"":1,""viewing_time"":2926},{""page_index"":2,""viewing_time"":7256},{""page_index"":3,""viewing_time"":10777}]",instructions_1,,,,,,,,,,,,,,,,,,,,,,,,,,
,,,,,instructions,6,205274,0.0-6.0,2d_cat_multi_stim_exp1,2022-4-25,12:41:20,25,75,3,9,10,40,30,120,555,19,"[""White""]",No,Female,1983959,1467,,,,"[{""page_index"":0,""viewing_time"":1466}]",Click to see the kinds of turtles that will appear in the study.,,,,,,,,,,,,,,,,,,,,,,,,,,
,,,,,canvas-keyboard-response,7,220314,0.0-7.0,2d_cat_multi_stim_exp1,2022-4-25,12:41:20,25,75,3,9,10,40,30,120,555,19,"[""White""]",No,Female,1983959,null,null,,,,demo_range,,,,,,,,,,,,,,,,,,,,,,,,,,
,,,,,instructions,8,222281,0.0-8.0,2d_cat_multi_stim_exp1,2022-4-25,12:41:20,25,75,3,9,10,40,30,120,555,19,"[""White""]",No,Female,1983959,1467,,,,"[{""page_index"":0,""viewing_time"":1467}]",Click to see some turtles in the subspecies.,,,,,,,,,,,,,,,,,,,,,,,,,,
,,,,,canvas-keyboard-response,9,237300,0.0-9.0,2d_cat_multi_stim_exp1,2022-4-25,12:41:20,25,75,3,9,10,40,30,120,555,19,"[""White""]",No,Female,1983959,null,null,,,,demo_in,,,,,,,,,,,,,,,,,,,,,,,,,,
,,,,,instructions,10,259530,0.0-10.0,2d_cat_multi_stim_exp1,2022-4-25,12:41:20,25,75,3,9,10,40,30,120,555,19,"[""White""]",No,Female,1983959,21729,,,,"[{""page_index"":0,""viewing_time"":4928},{""page_index"":1,""viewing_time"":12480},{""page_index"":2,""viewing_time"":4320}]",instructions_2,,,,,,,,,,,,,,,,,,,,,,,,,,
,,,,,instructions,11,260634,0.0-11.0,2d_cat_multi_stim_exp1,2022-4-25,12:41:20,25,75,3,9,10,40,30,120,555,19,"[""White""]",No,Female,1983959,1100,,,,"[{""page_index"":0,""viewing_time"":1100}]",Click to begin the first phase of the experiment.,,,,,,,,,,,,,,,,,,,,,,,,,,
,,,,,canvas-keyboard-response,12,261143,0.0-12.0-0.0,2d_cat_multi_stim_exp1,2022-4-25,12:41:20,25,75,3,9,10,40,30,120,555,19,"[""White""]",No,Female,1983959,null,null,,,,fixation,,,,,,,,,,,,,,,,,,,,,,,,,,
,,,,,canvas-keyboard-response,13,261658,0.0-12.0-1.0,2d_cat_multi_stim_exp1,2022-4-25,12:41:20,25,75,3,9,10,40,30,120,555,19,"[""White""]",No,Female,1983959,null,null,,,,clear_screen,,,,,,,,,,,,,,,,,,,,,,,,,,
,,,,,canvas-keyboard-response,14,264754,0.0-12.0-2.0,2d_cat_multi_stim_exp1,2022-4-25,12:41:20,25,75,3,9,10,40,30,120,555,19,"[""White""]",No,Female,1983959,3087,u,learn,,,learn_trial,25,75,in,1,1,,,,,,,,,,,,,,,,,,,,,
,,,,,canvas-keyboard-response,15,265266,0.0-12.0-3.0,2d_cat_multi_stim_exp1,2022-4-25,12:41:20,25,75,3,9,10,40,30,120,555,19,"[""White""]",No,Female,1983959,null,null,learn_feedback,,,learn_feedback,25,75,in,,,,,,,,,,,,,,,,,,,,,,,
,,,,,canvas-keyboard-response,16,265330,0.0-12.0-4.0,2d_cat_multi_stim_exp1,2022-4-25,12:41:20,25,75,3,9,10,40,30,120,555,19,"[""White""]",No,Female,1983959,null,null,,,,clear_screen,,,,,,,,,,,,,,,,,,,,,,,,,,
,,,,,canvas-keyboard-response,17,265841,0.0-12.0-0.1,2d_cat_multi_stim_exp1,2022-4-25,12:41:20,25,75,3,9,10,40,30,120,555,19,"[""White""]",No,Female,1983959,null,null,,,,fixation,,,,,,,,,,,,,,,,,,,,,,,,,,
,,,,,canvas-keyboard-response,18,266356,0.0-12.0-1.1,2d_cat_multi_stim_exp1,2022-4-25,12:41:20,25,75,3,9,10,40,30,120,555,19,"[""White""]",No,Female,1983959,null,null,,,,clear_screen,,,,,,,,,,,,,,,,,,,,,,,,,,
,,,,,canvas-keyboard-response,19,267178,0.0-12.0-2.1,2d_cat_multi_stim_exp1,2022-4-25,12:41:20,25,75,3,9,10,40,30,120,555,19,"[""White""]",No,Female,1983959,812,u,learn,,,learn_trial,25,75,in,1,1,,,,,,,,,,,,,,,,,,,,,
,,,,,canvas-keyboard-response,20,267691,0.0-12.0-3.1,2d_cat_multi_stim_exp1,2022-4-25,12:41:20,25,75,3,9,10,40,30,120,555,19,"[""White""]",No,Female,1983959,null,null,learn_feedback,,,learn_feedback,25,75,in,,,,,,,,,,,,,,,,,,,,,,,
,,,,,canvas-keyboard-response,21,267750,0.0-12.0-4.1,2d_cat_multi_stim_exp1,2022-4-25,12:41:20,25,75,3,9,10,40,30,120,555,19,"[""White""]",No,Female,1983959,null,null,,,,clear_screen,,,,,,,,,,,,,,,,,,,,,,,,,,
,,,,,canvas-keyboard-response,22,268259,0.0-12.0-0.2,2d_cat_multi_stim_exp1,2022-4-25,12:41:20,25,75,3,9,10,40,30,120,555,19,"[""White""]",No,Female,1983959,null,null,,,,fixation,,,,,,,,,,,,,,,,,,,,,,,,,,
,,,,,canvas-keyboard-response,23,268774,0.0-12.0-1.2,2d_cat_multi_stim_exp1,2022-4-25,12:41:20,25,75,3,9,10,40,30,120,555,19,"[""White""]",No,Female,1983959,null,null,,,,clear_screen,,,,,,,,,,,,,,,,,,,,,,,,,,
,,,,,canvas-keyboard-response,24,269562,0.0-12.0-2.2,2d_cat_multi_stim_exp1,2022-4-25,12:41:20,25,75,3,9,10,40,30,120,555,19,"[""White""]",No,Female,1983959,777,i,learn,,,learn_trial,13.3333,90,out,0,1,,,,,,,,,,,,,,,,,,,,,
,,,,,canvas-keyboard-response,25,270073,0.0-12.0-3.2,2d_cat_multi_stim_exp1,2022-4-25,12:41:20,25,75,3,9,10,40,30,120,555,19,"[""White""]",No,Female,1983959,null,null,learn_feedback,,,learn_feedback,13.3333,90,out,,,,,,,,,,,,,,,,,,,,,,,
,,,,,canvas-keyboard-response,26,270132,0.0-12.0-4.2,2d_cat_multi_stim_exp1,2022-4-25,12:41:20,25,75,3,9,10,40,30,120,555,19,"[""White""]",No,Female,1983959,null,null,,,,clear_screen,,,,,,,,,,,,,,,,,,,,,,,,,,
,,,,,canvas-keyboard-response,27,270642,0.0-12.0-0.3,2d_cat_multi_stim_exp1,2022-4-25,12:41:20,25,75,3,9,10,40,30,120,555,19,"[""White""]",No,Female,1983959,null,null,,,,fixation,,,,,,,,,,,,,,,,,,,,,,,,,,
,,,,,canvas-keyboard-response,28,271153,0.0-12.0-1.3,2d_cat_multi_stim_exp1,2022-4-25,12:41:20,25,75,3,9,10,40,30,120,555,19,"[""White""]",No,Female,1983959,null,null,,,,clear_screen,,,,,,,,,,,,,,,,,,,,,,,,,,
,,,,,canvas-keyboard-response,29,273866,0.0-12.0-2.3,2d_cat_multi_stim_exp1,2022-4-25,12:41:20,25,75,3,9,10,40,30,120,555,19,"[""White""]",No,Female,1983959,2704,u,learn,,,learn_trial,13.3333,40,out,1,0,,,,,,,,,,,,,,,,,,,,,
,,,,,canvas-keyboard-response,30,274878,0.0-12.0-3.3,2d_cat_multi_stim_exp1,2022-4-25,12:41:20,25,75,3,9,10,40,30,120,555,19,"[""White""]",No,Female,1983959,null,null,learn_feedback,,,learn_feedback,13.3333,40,out,,,,,,,,,,,,,,,,,,,,,,,
,,,,,canvas-keyboard-response,31,274941,0.0-12.0-4.3,2d_cat_multi_stim_exp1,2022-4-25,12:41:20,25,75,3,9,10,40,30,120,555,19,"[""White""]",No,Female,1983959,null,null,,,,clear_screen,,,,,,,,,,,,,,,,,,,,,,,,,,
,,,,,canvas-keyboard-response,32,275447,0.0-12.0-0.4,2d_cat_multi_stim_exp1,2022-4-25,12:41:20,25,75,3,9,10,40,30,120,555,19,"[""White""]",No,Female,1983959,null,null,,,,fixation,,,,,,,,,,,,,,,,,,,,,,,,,,
,,,,,canvas-keyboard-response,33,275961,0.0-12.0-1.4,2d_cat_multi_stim_exp1,2022-4-25,12:41:20,25,75,3,9,10,40,30,120,555,19,"[""White""]",No,Female,1983959,null,null,,,,clear_screen,,,,,,,,,,,,,,,,,,,,,,,,,,
,,,,,canvas-keyboard-response,34,276706,0.0-12.0-2.4,2d_cat_multi_stim_exp1,2022-4-25,12:41:20,25,75,3,9,10,40,30,120,555,19,"[""White""]",No,Female,1983959,737,u,learn,,,learn_trial,25,75,in,1,1,,,,,,,,,,,,,,,,,,,,,
,,,,,canvas-keyboard-response,35,277217,0.0-12.0-3.4,2d_cat_multi_stim_exp1,2022-4-25,12:41:20,25,75,3,9,10,40,30,120,555,19,"[""White""]",No,Female,1983959,null,null,learn_feedback,,,learn_feedback,25,75,in,,,,,,,,,,,,,,,,,,,,,,,
,,,,,canvas-keyboard-response,36,277276,0.0-12.0-4.4,2d_cat_multi_stim_exp1,2022-4-25,12:41:20,25,75,3,9,10,40,30,120,555,19,"[""White""]",No,Female,1983959,null,null,,,,clear_screen,,,,,,,,,,,,,,,,,,,,,,,,,,
,,,,,canvas-keyboard-response,37,277785,0.0-12.0-0.5,2d_cat_multi_stim_exp1,2022-4-25,12:41:20,25,75,3,9,10,40,30,120,555,19,"[""White""]",No,Female,1983959,null,null,,,,fixation,,,,,,,,,,,,,,,,,,,,,,,,,,
,,,,,canvas-keyboard-response,38,278294,0.0-12.0-1.5,2d_cat_multi_stim_exp1,2022-4-25,12:41:20,25,75,3,9,10,40,30,120,555,19,"[""White""]",No,Female,1983959,null,null,,,,clear_screen,,,,,,,,,,,,,,,,,,,,,,,,,,
,,,,,canvas-keyboard-response,39,279130,0.0-12.0-2.5,2d_cat_multi_stim_exp1,2022-4-25,12:41:20,25,75,3,9,10,40,30,120,555,19,"[""White""]",No,Female,1983959,825,i,learn,,,learn_trial,10,90,out,0,1,,,,,,,,,,,,,,,,,,,,,
,,,,,canvas-keyboard-response,40,279638,0.0-12.0-3.5,2d_cat_multi_stim_exp1,2022-4-25,12:41:20,25,75,3,9,10,40,30,120,555,19,"[""White""]",No,Female,1983959,null,null,learn_feedback,,,learn_feedback,10,90,out,,,,,,,,,,,,,,,,,,,,,,,
,,,,,canvas-keyboard-response,41,279697,0.0-12.0-4.5,2d_cat_multi_stim_exp1,2022-4-25,12:41:20,25,75,3,9,10,40,30,120,555,19,"[""White""]",No,Female,1983959,null,null,,,,clear_screen,,,,,,,,,,,,,,,,,,,,,,,,,,
,,,,,canvas-keyboard-response,42,280207,0.0-12.0-0.6,2d_cat_multi_stim_exp1,2022-4-25,12:41:20,25,75,3,9,10,40,30,120,555,19,"[""White""]",No,Female,1983959,null,null,,,,fixation,,,,,,,,,,,,,,,,,,,,,,,,,,
,,,,,canvas-keyboard-response,43,280718,0.0-12.0-1.6,2d_cat_multi_stim_exp1,2022-4-25,12:41:20,25,75,3,9,10,40,30,120,555,19,"[""White""]",No,Female,1983959,null,null,,,,clear_screen,,,,,,,,,,,,,,,,,,,,,,,,,,
,,,,,canvas-keyboard-response,44,282409,0.0-12.0-2.6,2d_cat_multi_stim_exp1,2022-4-25,12:41:20,25,75,3,9,10,40,30,120,555,19,"[""White""]",No,Female,1983959,1682,i,learn,,,learn_trial,26.6667,60,out,0,1,,,,,,,,,,,,,,,,,,,,,
,,,,,canvas-keyboard-response,45,282921,0.0-12.0-3.6,2d_cat_multi_stim_exp1,2022-4-25,12:41:20,25,75,3,9,10,40,30,120,555,19,"[""White""]",No,Female,1983959,null,null,learn_feedback,,,learn_feedback,26.6667,60,out,,,,,,,,,,,,,,,,,,,,,,,
,,,,,canvas-keyboard-response,46,282984,0.0-12.0-4.6,2d_cat_multi_stim_exp1,2022-4-25,12:41:20,25,75,3,9,10,40,30,120,555,19,"[""White""]",No,Female,1983959,null,null,,,,clear_screen,,,,,,,,,,,,,,,,,,,,,,,,,,
,,,,,canvas-keyboard-response,47,283491,0.0-12.0-0.7,2d_cat_multi_stim_exp1,2022-4-25,12:41:20,25,75,3,9,10,40,30,120,555,19,"[""White""]",No,Female,1983959,null,null,,,,fixation,,,,,,,,,,,,,,,,,,,,,,,,,,
,,,,,canvas-keyboard-response,48,284001,0.0-12.0-1.7,2d_cat_multi_stim_exp1,2022-4-25,12:41:20,25,75,3,9,10,40,30,120,555,19,"[""White""]",No,Female,1983959,null,null,,,,clear_screen,,,,,,,,,,,,,,,,,,,,,,,,,,
,,,,,canvas-keyboard-response,49,285049,0.0-12.0-2.7,2d_cat_multi_stim_exp1,2022-4-25,12:41:20,25,75,3,9,10,40,30,120,555,19,"[""White""]",No,Female,1983959,1040,u,learn,,,learn_trial,20,50,out,1,0,,,,,,,,,,,,,,,,,,,,,
,,,,,canvas-keyboard-response,50,286059,0.0-12.0-3.7,2d_cat_multi_stim_exp1,2022-4-25,12:41:20,25,75,3,9,10,40,30,120,555,19,"[""White""]",No,Female,1983959,null,null,learn_feedback,,,learn_feedback,20,50,out,,,,,,,,,,,,,,,,,,,,,,,
,,,,,canvas-keyboard-response,51,286116,0.0-12.0-4.7,2d_cat_multi_stim_exp1,2022-4-25,12:41:20,25,75,3,9,10,40,30,120,555,19,"[""White""]",No,Female,1983959,null,null,,,,clear_screen,,,,,,,,,,,,,,,,,,,,,,,,,,
,,,,,canvas-keyboard-response,52,286627,0.0-12.0-0.8,2d_cat_multi_stim_exp1,2022-4-25,12:41:20,25,75,3,9,10,40,30,120,555,19,"[""White""]",No,Female,1983959,null,null,,,,fixation,,,,,,,,,,,,,,,,,,,,,,,,,,
,,,,,canvas-keyboard-response,53,287138,0.0-12.0-1.8,2d_cat_multi_stim_exp1,2022-4-25,12:41:20,25,75,3,9,10,40,30,120,555,19,"[""White""]",No,Female,1983959,null,null,,,,clear_screen,,,,,,,,,,,,,,,,,,,,,,,,,,
,,,,,canvas-keyboard-response,54,289273,0.0-12.0-2.8,2d_cat_multi_stim_exp1,2022-4-25,12:41:20,25,75,3,9,10,40,30,120,555,19,"[""White""]",No,Female,1983959,2126,u,learn,,,learn_trial,30,70,out,1,0,,,,,,,,,,,,,,,,,,,,,
,,,,,canvas-keyboard-response,55,290282,0.0-12.0-3.8,2d_cat_multi_stim_exp1,2022-4-25,12:41:20,25,75,3,9,10,40,30,120,555,19,"[""White""]",No,Female,1983959,null,null,learn_feedback,,,learn_feedback,30,70,out,,,,,,,,,,,,,,,,,,,,,,,
,,,,,canvas-keyboard-response,56,290342,0.0-12.0-4.8,2d_cat_multi_stim_exp1,2022-4-25,12:41:20,25,75,3,9,10,40,30,120,555,19,"[""White""]",No,Female,1983959,null,null,,,,clear_screen,,,,,,,,,,,,,,,,,,,,,,,,,,
,,,,,canvas-keyboard-response,57,290852,0.0-12.0-0.9,2d_cat_multi_stim_exp1,2022-4-25,12:41:20,25,75,3,9,10,40,30,120,555,19,"[""White""]",No,Female,1983959,null,null,,,,fixation,,,,,,,,,,,,,,,,,,,,,,,,,,
,,,,,canvas-keyboard-response,58,291362,0.0-12.0-1.9,2d_cat_multi_stim_exp1,2022-4-25,12:41:20,25,75,3,9,10,40,30,120,555,19,"[""White""]",No,Female,1983959,null,null,,,,clear_screen,,,,,,,,,,,,,,,,,,,,,,,,,,
,,,,,canvas-keyboard-response,59,292201,0.0-12.0-2.9,2d_cat_multi_stim_exp1,2022-4-25,12:41:20,25,75,3,9,10,40,30,120,555,19,"[""White""]",No,Female,1983959,830,u,learn,,,learn_trial,25,75,in,1,1,,,,,,,,,,,,,,,,,,,,,
,,,,,canvas-keyboard-response,60,292709,0.0-12.0-3.9,2d_cat_multi_stim_exp1,2022-4-25,12:41:20,25,75,3,9,10,40,30,120,555,19,"[""White""]",No,Female,1983959,null,null,learn_feedback,,,learn_feedback,25,75,in,,,,,,,,,,,,,,,,,,,,,,,
,,,,,canvas-keyboard-response,61,292771,0.0-12.0-4.9,2d_cat_multi_stim_exp1,2022-4-25,12:41:20,25,75,3,9,10,40,30,120,555,19,"[""White""]",No,Female,1983959,null,null,,,,clear_screen,,,,,,,,,,,,,,,,,,,,,,,,,,
,,,,,canvas-keyboard-response,62,293280,0.0-12.0-0.10,2d_cat_multi_stim_exp1,2022-4-25,12:41:20,25,75,3,9,10,40,30,120,555,19,"[""White""]",No,Female,1983959,null,null,,,,fixation,,,,,,,,,,,,,,,,,,,,,,,,,,
,,,,,canvas-keyboard-response,63,293794,0.0-12.0-1.10,2d_cat_multi_stim_exp1,2022-4-25,12:41:20,25,75,3,9,10,40,30,120,555,19,"[""White""]",No,Female,1983959,null,null,,,,clear_screen,,,,,,,,,,,,,,,,,,,,,,,,,,
,,,,,canvas-keyboard-response,64,294530,0.0-12.0-2.10,2d_cat_multi_stim_exp1,2022-4-25,12:41:20,25,75,3,9,10,40,30,120,555,19,"[""White""]",No,Female,1983959,725,i,learn,,,learn_trial,36.6667,70,out,0,1,,,,,,,,,,,,,,,,,,,,,
,,,,,canvas-keyboard-response,65,295038,0.0-12.0-3.10,2d_cat_multi_stim_exp1,2022-4-25,12:41:20,25,75,3,9,10,40,30,120,555,19,"[""White""]",No,Female,1983959,null,null,learn_feedback,,,learn_feedback,36.6667,70,out,,,,,,,,,,,,,,,,,,,,,,,
,,,,,canvas-keyboard-response,66,295102,0.0-12.0-4.10,2d_cat_multi_stim_exp1,2022-4-25,12:41:20,25,75,3,9,10,40,30,120,555,19,"[""White""]",No,Female,1983959,null,null,,,,clear_screen,,,,,,,,,,,,,,,,,,,,,,,,,,
,,,,,canvas-keyboard-response,67,295609,0.0-12.0-0.11,2d_cat_multi_stim_exp1,2022-4-25,12:41:20,25,75,3,9,10,40,30,120,555,19,"[""White""]",No,Female,1983959,null,null,,,,fixation,,,,,,,,,,,,,,,,,,,,,,,,,,
,,,,,canvas-keyboard-response,68,296119,0.0-12.0-1.11,2d_cat_multi_stim_exp1,2022-4-25,12:41:20,25,75,3,9,10,40,30,120,555,19,"[""White""]",No,Female,1983959,null,null,,,,clear_screen,,,,,,,,,,,,,,,,,,,,,,,,,,
,,,,,canvas-keyboard-response,69,296794,0.0-12.0-2.11,2d_cat_multi_stim_exp1,2022-4-25,12:41:20,25,75,3,9,10,40,30,120,555,19,"[""White""]",No,Female,1983959,666,i,learn,,,learn_trial,13.3333,100,out,0,1,,,,,,,,,,,,,,,,,,,,,
,,,,,canvas-keyboard-response,70,297301,0.0-12.0-3.11,2d_cat_multi_stim_exp1,2022-4-25,12:41:20,25,75,3,9,10,40,30,120,555,19,"[""White""]",No,Female,1983959,null,null,learn_feedback,,,learn_feedback,13.3333,100,out,,,,,,,,,,,,,,,,,,,,,,,
,,,,,canvas-keyboard-response,71,297363,0.0-12.0-4.11,2d_cat_multi_stim_exp1,2022-4-25,12:41:20,25,75,3,9,10,40,30,120,555,19,"[""White""]",No,Female,1983959,null,null,,,,clear_screen,,,,,,,,,,,,,,,,,,,,,,,,,,
,,,,,canvas-keyboard-response,72,297873,0.0-12.0-0.12,2d_cat_multi_stim_exp1,2022-4-25,12:41:20,25,75,3,9,10,40,30,120,555,19,"[""White""]",No,Female,1983959,null,null,,,,fixation,,,,,,,,,,,,,,,,,,,,,,,,,,
,,,,,canvas-keyboard-response,73,298384,0.0-12.0-1.12,2d_cat_multi_stim_exp1,2022-4-25,12:41:20,25,75,3,9,10,40,30,120,555,19,"[""White""]",No,Female,1983959,null,null,,,,clear_screen,,,,,,,,,,,,,,,,,,,,,,,,,,
,,,,,canvas-keyboard-response,74,299288,0.0-12.0-2.12,2d_cat_multi_stim_exp1,2022-4-25,12:41:20,25,75,3,9,10,40,30,120,555,19,"[""White""]",No,Female,1983959,901,u,learn,,,learn_trial,25,75,in,1,1,,,,,,,,,,,,,,,,,,,,,
,,,,,canvas-keyboard-response,75,299800,0.0-12.0-3.12,2d_cat_multi_stim_exp1,2022-4-25,12:41:20,25,75,3,9,10,40,30,120,555,19,"[""White""]",No,Female,1983959,null,null,learn_feedback,,,learn_feedback,25,75,in,,,,,,,,,,,,,,,,,,,,,,,
,,,,,canvas-keyboard-response,76,299862,0.0-12.0-4.12,2d_cat_multi_stim_exp1,2022-4-25,12:41:20,25,75,3,9,10,40,30,120,555,19,"[""White""]",No,Female,1983959,null,null,,,,clear_screen,,,,,,,,,,,,,,,,,,,,,,,,,,
,,,,,canvas-keyboard-response,77,300370,0.0-12.0-0.13,2d_cat_multi_stim_exp1,2022-4-25,12:41:20,25,75,3,9,10,40,30,120,555,19,"[""White""]",No,Female,1983959,null,null,,,,fixation,,,,,,,,,,,,,,,,,,,,,,,,,,
,,,,,canvas-keyboard-response,78,300884,0.0-12.0-1.13,2d_cat_multi_stim_exp1,2022-4-25,12:41:20,25,75,3,9,10,40,30,120,555,19,"[""White""]",No,Female,1983959,null,null,,,,clear_screen,,,,,,,,,,,,,,,,,,,,,,,,,,
,,,,,canvas-keyboard-response,79,302457,0.0-12.0-2.13,2d_cat_multi_stim_exp1,2022-4-25,12:41:20,25,75,3,9,10,40,30,120,555,19,"[""White""]",No,Female,1983959,1563,i,learn,,,learn_trial,30,80,out,0,1,,,,,,,,,,,,,,,,,,,,,
,,,,,canvas-keyboard-response,80,302970,0.0-12.0-3.13,2d_cat_multi_stim_exp1,2022-4-25,12:41:20,25,75,3,9,10,40,30,120,555,19,"[""White""]",No,Female,1983959,null,null,learn_feedback,,,learn_feedback,30,80,out,,,,,,,,,,,,,,,,,,,,,,,
,,,,,canvas-keyboard-response,81,303031,0.0-12.0-4.13,2d_cat_multi_stim_exp1,2022-4-25,12:41:20,25,75,3,9,10,40,30,120,555,19,"[""White""]",No,Female,1983959,null,null,,,,clear_screen,,,,,,,,,,,,,,,,,,,,,,,,,,
,,,,,canvas-keyboard-response,82,303540,0.0-12.0-0.14,2d_cat_multi_stim_exp1,2022-4-25,12:41:20,25,75,3,9,10,40,30,120,555,19,"[""White""]",No,Female,1983959,null,null,,,,fixation,,,,,,,,,,,,,,,,,,,,,,,,,,
,,,,,canvas-keyboard-response,83,304054,0.0-12.0-1.14,2d_cat_multi_stim_exp1,2022-4-25,12:41:20,25,75,3,9,10,40,30,120,555,19,"[""White""]",No,Female,1983959,null,null,,,,clear_screen,,,,,,,,,,,,,,,,,,,,,,,,,,
,,,,,canvas-keyboard-response,84,305281,0.0-12.0-2.14,2d_cat_multi_stim_exp1,2022-4-25,12:41:20,25,75,3,9,10,40,30,120,555,19,"[""White""]",No,Female,1983959,1215,i,learn,,,learn_trial,33.3333,110,out,0,1,,,,,,,,,,,,,,,,,,,,,
,,,,,canvas-keyboard-response,85,305788,0.0-12.0-3.14,2d_cat_multi_stim_exp1,2022-4-25,12:41:20,25,75,3,9,10,40,30,120,555,19,"[""White""]",No,Female,1983959,null,null,learn_feedback,,,learn_feedback,33.3333,110,out,,,,,,,,,,,,,,,,,,,,,,,
,,,,,canvas-keyboard-response,86,305848,0.0-12.0-4.14,2d_cat_multi_stim_exp1,2022-4-25,12:41:20,25,75,3,9,10,40,30,120,555,19,"[""White""]",No,Female,1983959,null,null,,,,clear_screen,,,,,,,,,,,,,,,,,,,,,,,,,,
,,,,,canvas-keyboard-response,87,306359,0.0-12.0-0.15,2d_cat_multi_stim_exp1,2022-4-25,12:41:20,25,75,3,9,10,40,30,120,555,19,"[""White""]",No,Female,1983959,null,null,,,,fixation,,,,,,,,,,,,,,,,,,,,,,,,,,
,,,,,canvas-keyboard-response,88,306873,0.0-12.0-1.15,2d_cat_multi_stim_exp1,2022-4-25,12:41:20,25,75,3,9,10,40,30,120,555,19,"[""White""]",No,Female,1983959,null,null,,,,clear_screen,,,,,,,,,,,,,,,,,,,,,,,,,,
,,,,,canvas-keyboard-response,89,307786,0.0-12.0-2.15,2d_cat_multi_stim_exp1,2022-4-25,12:41:20,25,75,3,9,10,40,30,120,555,19,"[""White""]",No,Female,1983959,903,i,learn,,,learn_trial,33.3333,80,out,0,1,,,,,,,,,,,,,,,,,,,,,
,,,,,canvas-keyboard-response,90,308297,0.0-12.0-3.15,2d_cat_multi_stim_exp1,2022-4-25,12:41:20,25,75,3,9,10,40,30,120,555,19,"[""White""]",No,Female,1983959,null,null,learn_feedback,,,learn_feedback,33.3333,80,out,,,,,,,,,,,,,,,,,,,,,,,
,,,,,canvas-keyboard-response,91,308356,0.0-12.0-4.15,2d_cat_multi_stim_exp1,2022-4-25,12:41:20,25,75,3,9,10,40,30,120,555,19,"[""White""]",No,Female,1983959,null,null,,,,clear_screen,,,,,,,,,,,,,,,,,,,,,,,,,,
,,,,,canvas-keyboard-response,92,308865,0.0-12.0-0.16,2d_cat_multi_stim_exp1,2022-4-25,12:41:20,25,75,3,9,10,40,30,120,555,19,"[""White""]",No,Female,1983959,null,null,,,,fixation,,,,,,,,,,,,,,,,,,,,,,,,,,
,,,,,canvas-keyboard-response,93,309373,0.0-12.0-1.16,2d_cat_multi_stim_exp1,2022-4-25,12:41:20,25,75,3,9,10,40,30,120,555,19,"[""White""]",No,Female,1983959,null,null,,,,clear_screen,,,,,,,,,,,,,,,,,,,,,,,,,,
,,,,,canvas-keyboard-response,94,310241,0.0-12.0-2.16,2d_cat_multi_stim_exp1,2022-4-25,12:41:20,25,75,3,9,10,40,30,120,555,19,"[""White""]",No,Female,1983959,856,i,learn,,,learn_trial,10,100,out,0,1,,,,,,,,,,,,,,,,,,,,,
,,,,,canvas-keyboard-response,95,310750,0.0-12.0-3.16,2d_cat_multi_stim_exp1,2022-4-25,12:41:20,25,75,3,9,10,40,30,120,555,19,"[""White""]",No,Female,1983959,null,null,learn_feedback,,,learn_feedback,10,100,out,,,,,,,,,,,,,,,,,,,,,,,
,,,,,canvas-keyboard-response,96,310813,0.0-12.0-4.16,2d_cat_multi_stim_exp1,2022-4-25,12:41:20,25,75,3,9,10,40,30,120,555,19,"[""White""]",No,Female,1983959,null,null,,,,clear_screen,,,,,,,,,,,,,,,,,,,,,,,,,,
,,,,,canvas-keyboard-response,97,311320,0.0-12.0-0.17,2d_cat_multi_stim_exp1,2022-4-25,12:41:20,25,75,3,9,10,40,30,120,555,19,"[""White""]",No,Female,1983959,null,null,,,,fixation,,,,,,,,,,,,,,,,,,,,,,,,,,
,,,,,canvas-keyboard-response,98,311831,0.0-12.0-1.17,2d_cat_multi_stim_exp1,2022-4-25,12:41:20,25,75,3,9,10,40,30,120,555,19,"[""White""]",No,Female,1983959,null,null,,,,clear_screen,,,,,,,,,,,,,,,,,,,,,,,,,,
,,,,,canvas-keyboard-response,99,312562,0.0-12.0-2.17,2d_cat_multi_stim_exp1,2022-4-25,12:41:20,25,75,3,9,10,40,30,120,555,19,"[""White""]",No,Female,1983959,720,i,learn,,,learn_trial,16.6667,110,out,0,1,,,,,,,,,,,,,,,,,,,,,
,,,,,canvas-keyboard-response,100,313073,0.0-12.0-3.17,2d_cat_multi_stim_exp1,2022-4-25,12:41:20,25,75,3,9,10,40,30,120,555,19,"[""White""]",No,Female,1983959,null,null,learn_feedback,,,learn_feedback,16.6667,110,out,,,,,,,,,,,,,,,,,,,,,,,
,,,,,canvas-keyboard-response,101,313134,0.0-12.0-4.17,2d_cat_multi_stim_exp1,2022-4-25,12:41:20,25,75,3,9,10,40,30,120,555,19,"[""White""]",No,Female,1983959,null,null,,,,clear_screen,,,,,,,,,,,,,,,,,,,,,,,,,,
,,,,,canvas-keyboard-response,102,313643,0.0-12.0-0.18,2d_cat_multi_stim_exp1,2022-4-25,12:41:20,25,75,3,9,10,40,30,120,555,19,"[""White""]",No,Female,1983959,null,null,,,,fixation,,,,,,,,,,,,,,,,,,,,,,,,,,
,,,,,canvas-keyboard-response,103,314157,0.0-12.0-1.18,2d_cat_multi_stim_exp1,2022-4-25,12:41:20,25,75,3,9,10,40,30,120,555,19,"[""White""]",No,Female,1983959,null,null,,,,clear_screen,,,,,,,,,,,,,,,,,,,,,,,,,,
,,,,,canvas-keyboard-response,104,314890,0.0-12.0-2.18,2d_cat_multi_stim_exp1,2022-4-25,12:41:20,25,75,3,9,10,40,30,120,555,19,"[""White""]",No,Female,1983959,723,i,learn,,,learn_trial,26.6667,110,out,0,1,,,,,,,,,,,,,,,,,,,,,
,,,,,canvas-keyboard-response,105,315399,0.0-12.0-3.18,2d_cat_multi_stim_exp1,2022-4-25,12:41:20,25,75,3,9,10,40,30,120,555,19,"[""White""]",No,Female,1983959,null,null,learn_feedback,,,learn_feedback,26.6667,110,out,,,,,,,,,,,,,,,,,,,,,,,
,,,,,canvas-keyboard-response,106,315459,0.0-12.0-4.18,2d_cat_multi_stim_exp1,2022-4-25,12:41:20,25,75,3,9,10,40,30,120,555,19,"[""White""]",No,Female,1983959,null,null,,,,clear_screen,,,,,,,,,,,,,,,,,,,,,,,,,,
,,,,,canvas-keyboard-response,107,315966,0.0-12.0-0.19,2d_cat_multi_stim_exp1,2022-4-25,12:41:20,25,75,3,9,10,40,30,120,555,19,"[""White""]",No,Female,1983959,null,null,,,,fixation,,,,,,,,,,,,,,,,,,,,,,,,,,
,,,,,canvas-keyboard-response,108,316476,0.0-12.0-1.19,2d_cat_multi_stim_exp1,2022-4-25,12:41:20,25,75,3,9,10,40,30,120,555,19,"[""White""]",No,Female,1983959,null,null,,,,clear_screen,,,,,,,,,,,,,,,,,,,,,,,,,,
,,,,,canvas-keyboard-response,109,317529,0.0-12.0-2.19,2d_cat_multi_stim_exp1,2022-4-25,12:41:20,25,75,3,9,10,40,30,120,555,19,"[""White""]",No,Female,1983959,1044,u,learn,,,learn_trial,25,75,in,1,1,,,,,,,,,,,,,,,,,,,,,
,,,,,canvas-keyboard-response,110,318037,0.0-12.0-3.19,2d_cat_multi_stim_exp1,2022-4-25,12:41:20,25,75,3,9,10,40,30,120,555,19,"[""White""]",No,Female,1983959,null,null,learn_feedback,,,learn_feedback,25,75,in,,,,,,,,,,,,,,,,,,,,,,,
,,,,,canvas-keyboard-response,111,318098,0.0-12.0-4.19,2d_cat_multi_stim_exp1,2022-4-25,12:41:20,25,75,3,9,10,40,30,120,555,19,"[""White""]",No,Female,1983959,null,null,,,,clear_screen,,,,,,,,,,,,,,,,,,,,,,,,,,
,,,,,canvas-keyboard-response,112,318608,0.0-12.0-0.20,2d_cat_multi_stim_exp1,2022-4-25,12:41:20,25,75,3,9,10,40,30,120,555,19,"[""White""]",No,Female,1983959,null,null,,,,fixation,,,,,,,,,,,,,,,,,,,,,,,,,,
,,,,,canvas-keyboard-response,113,319122,0.0-12.0-1.20,2d_cat_multi_stim_exp1,2022-4-25,12:41:20,25,75,3,9,10,40,30,120,555,19,"[""White""]",No,Female,1983959,null,null,,,,clear_screen,,,,,,,,,,,,,,,,,,,,,,,,,,
,,,,,canvas-keyboard-response,114,320114,0.0-12.0-2.20,2d_cat_multi_stim_exp1,2022-4-25,12:41:20,25,75,3,9,10,40,30,120,555,19,"[""White""]",No,Female,1983959,981,u,learn,,,learn_trial,25,75,in,1,1,,,,,,,,,,,,,,,,,,,,,
,,,,,canvas-keyboard-response,115,320625,0.0-12.0-3.20,2d_cat_multi_stim_exp1,2022-4-25,12:41:20,25,75,3,9,10,40,30,120,555,19,"[""White""]",No,Female,1983959,null,null,learn_feedback,,,learn_feedback,25,75,in,,,,,,,,,,,,,,,,,,,,,,,
,,,,,canvas-keyboard-response,116,320686,0.0-12.0-4.20,2d_cat_multi_stim_exp1,2022-4-25,12:41:20,25,75,3,9,10,40,30,120,555,19,"[""White""]",No,Female,1983959,null,null,,,,clear_screen,,,,,,,,,,,,,,,,,,,,,,,,,,
,,,,,canvas-keyboard-response,117,321194,0.0-12.0-0.21,2d_cat_multi_stim_exp1,2022-4-25,12:41:20,25,75,3,9,10,40,30,120,555,19,"[""White""]",No,Female,1983959,null,null,,,,fixation,,,,,,,,,,,,,,,,,,,,,,,,,,
,,,,,canvas-keyboard-response,118,321705,0.0-12.0-1.21,2d_cat_multi_stim_exp1,2022-4-25,12:41:20,25,75,3,9,10,40,30,120,555,19,"[""White""]",No,Female,1983959,null,null,,,,clear_screen,,,,,,,,,,,,,,,,,,,,,,,,,,
,,,,,canvas-keyboard-response,119,322482,0.0-12.0-2.21,2d_cat_multi_stim_exp1,2022-4-25,12:41:20,25,75,3,9,10,40,30,120,555,19,"[""White""]",No,Female,1983959,766,u,learn,,,learn_trial,25,75,in,1,1,,,,,,,,,,,,,,,,,,,,,
,,,,,canvas-keyboard-response,120,322993,0.0-12.0-3.21,2d_cat_multi_stim_exp1,2022-4-25,12:41:20,25,75,3,9,10,40,30,120,555,19,"[""White""]",No,Female,1983959,null,null,learn_feedback,,,learn_feedback,25,75,in,,,,,,,,,,,,,,,,,,,,,,,
,,,,,canvas-keyboard-response,121,323052,0.0-12.0-4.21,2d_cat_multi_stim_exp1,2022-4-25,12:41:20,25,75,3,9,10,40,30,120,555,19,"[""White""]",No,Female,1983959,null,null,,,,clear_screen,,,,,,,,,,,,,,,,,,,,,,,,,,
,,,,,canvas-keyboard-response,122,323560,0.0-12.0-0.22,2d_cat_multi_stim_exp1,2022-4-25,12:41:20,25,75,3,9,10,40,30,120,555,19,"[""White""]",No,Female,1983959,null,null,,,,fixation,,,,,,,,,,,,,,,,,,,,,,,,,,
,,,,,canvas-keyboard-response,123,324074,0.0-12.0-1.22,2d_cat_multi_stim_exp1,2022-4-25,12:41:20,25,75,3,9,10,40,30,120,555,19,"[""White""]",No,Female,1983959,null,null,,,,clear_screen,,,,,,,,,,,,,,,,,,,,,,,,,,
,,,,,canvas-keyboard-response,124,324890,0.0-12.0-2.22,2d_cat_multi_stim_exp1,2022-4-25,12:41:20,25,75,3,9,10,40,30,120,555,19,"[""White""]",No,Female,1983959,808,u,learn,,,learn_trial,25,75,in,1,1,,,,,,,,,,,,,,,,,,,,,
,,,,,canvas-keyboard-response,125,325398,0.0-12.0-3.22,2d_cat_multi_stim_exp1,2022-4-25,12:41:20,25,75,3,9,10,40,30,120,555,19,"[""White""]",No,Female,1983959,null,null,learn_feedback,,,learn_feedback,25,75,in,,,,,,,,,,,,,,,,,,,,,,,
,,,,,canvas-keyboard-response,126,325460,0.0-12.0-4.22,2d_cat_multi_stim_exp1,2022-4-25,12:41:20,25,75,3,9,10,40,30,120,555,19,"[""White""]",No,Female,1983959,null,null,,,,clear_screen,,,,,,,,,,,,,,,,,,,,,,,,,,
,,,,,canvas-keyboard-response,127,325968,0.0-12.0-0.23,2d_cat_multi_stim_exp1,2022-4-25,12:41:20,25,75,3,9,10,40,30,120,555,19,"[""White""]",No,Female,1983959,null,null,,,,fixation,,,,,,,,,,,,,,,,,,,,,,,,,,
,,,,,canvas-keyboard-response,128,326481,0.0-12.0-1.23,2d_cat_multi_stim_exp1,2022-4-25,12:41:20,25,75,3,9,10,40,30,120,555,19,"[""White""]",No,Female,1983959,null,null,,,,clear_screen,,,,,,,,,,,,,,,,,,,,,,,,,,
,,,,,canvas-keyboard-response,129,327146,0.0-12.0-2.23,2d_cat_multi_stim_exp1,2022-4-25,12:41:20,25,75,3,9,10,40,30,120,555,19,"[""White""]",No,Female,1983959,654,i,learn,,,learn_trial,16.6667,100,out,0,1,,,,,,,,,,,,,,,,,,,,,
,,,,,canvas-keyboard-response,130,327653,0.0-12.0-3.23,2d_cat_multi_stim_exp1,2022-4-25,12:41:20,25,75,3,9,10,40,30,120,555,19,"[""White""]",No,Female,1983959,null,null,learn_feedback,,,learn_feedback,16.6667,100,out,,,,,,,,,,,,,,,,,,,,,,,
,,,,,canvas-keyboard-response,131,327717,0.0-12.0-4.23,2d_cat_multi_stim_exp1,2022-4-25,12:41:20,25,75,3,9,10,40,30,120,555,19,"[""White""]",No,Female,1983959,null,null,,,,clear_screen,,,,,,,,,,,,,,,,,,,,,,,,,,
,,,,,canvas-keyboard-response,132,328227,0.0-12.0-0.24,2d_cat_multi_stim_exp1,2022-4-25,12:41:20,25,75,3,9,10,40,30,120,555,19,"[""White""]",No,Female,1983959,null,null,,,,fixation,,,,,,,,,,,,,,,,,,,,,,,,,,
,,,,,canvas-keyboard-response,133,328736,0.0-12.0-1.24,2d_cat_multi_stim_exp1,2022-4-25,12:41:20,25,75,3,9,10,40,30,120,555,19,"[""White""]",No,Female,1983959,null,null,,,,clear_screen,,,,,,,,,,,,,,,,,,,,,,,,,,
,,,,,canvas-keyboard-response,134,329697,0.0-12.0-2.24,2d_cat_multi_stim_exp1,2022-4-25,12:41:20,25,75,3,9,10,40,30,120,555,19,"[""White""]",No,Female,1983959,951,u,learn,,,learn_trial,25,75,in,1,1,,,,,,,,,,,,,,,,,,,,,
,,,,,canvas-keyboard-response,135,330208,0.0-12.0-3.24,2d_cat_multi_stim_exp1,2022-4-25,12:41:20,25,75,3,9,10,40,30,120,555,19,"[""White""]",No,Female,1983959,null,null,learn_feedback,,,learn_feedback,25,75,in,,,,,,,,,,,,,,,,,,,,,,,
,,,,,canvas-keyboard-response,136,330270,0.0-12.0-4.24,2d_cat_multi_stim_exp1,2022-4-25,12:41:20,25,75,3,9,10,40,30,120,555,19,"[""White""]",No,Female,1983959,null,null,,,,clear_screen,,,,,,,,,,,,,,,,,,,,,,,,,,
,,,,,canvas-keyboard-response,137,330778,0.0-12.0-0.25,2d_cat_multi_stim_exp1,2022-4-25,12:41:20,25,75,3,9,10,40,30,120,555,19,"[""White""]",No,Female,1983959,null,null,,,,fixation,,,,,,,,,,,,,,,,,,,,,,,,,,
,,,,,canvas-keyboard-response,138,331289,0.0-12.0-1.25,2d_cat_multi_stim_exp1,2022-4-25,12:41:20,25,75,3,9,10,40,30,120,555,19,"[""White""]",No,Female,1983959,null,null,,,,clear_screen,,,,,,,,,,,,,,,,,,,,,,,,,,
,,,,,canvas-keyboard-response,139,331969,0.0-12.0-2.25,2d_cat_multi_stim_exp1,2022-4-25,12:41:20,25,75,3,9,10,40,30,120,555,19,"[""White""]",No,Female,1983959,670,u,learn,,,learn_trial,22.1081,72.6057,in,1,1,,,,,,,,,,,,,,,,,,,,,
,,,,,canvas-keyboard-response,140,332480,0.0-12.0-3.25,2d_cat_multi_stim_exp1,2022-4-25,12:41:20,25,75,3,9,10,40,30,120,555,19,"[""White""]",No,Female,1983959,null,null,learn_feedback,,,learn_feedback,22.1081,72.6057,in,,,,,,,,,,,,,,,,,,,,,,,
,,,,,canvas-keyboard-response,141,332539,0.0-12.0-4.25,2d_cat_multi_stim_exp1,2022-4-25,12:41:20,25,75,3,9,10,40,30,120,555,19,"[""White""]",No,Female,1983959,null,null,,,,clear_screen,,,,,,,,,,,,,,,,,,,,,,,,,,
,,,,,canvas-keyboard-response,142,333048,0.0-12.0-0.26,2d_cat_multi_stim_exp1,2022-4-25,12:41:20,25,75,3,9,10,40,30,120,555,19,"[""White""]",No,Female,1983959,null,null,,,,fixation,,,,,,,,,,,,,,,,,,,,,,,,,,
,,,,,canvas-keyboard-response,143,333558,0.0-12.0-1.26,2d_cat_multi_stim_exp1,2022-4-25,12:41:20,25,75,3,9,10,40,30,120,555,19,"[""White""]",No,Female,1983959,null,null,,,,clear_screen,,,,,,,,,,,,,,,,,,,,,,,,,,
,,,,,canvas-keyboard-response,144,334425,0.0-12.0-2.26,2d_cat_multi_stim_exp1,2022-4-25,12:41:20,25,75,3,9,10,40,30,120,555,19,"[""White""]",No,Female,1983959,855,u,learn,,,learn_trial,25,75,in,1,1,,,,,,,,,,,,,,,,,,,,,
,,,,,canvas-keyboard-response,145,334934,0.0-12.0-3.26,2d_cat_multi_stim_exp1,2022-4-25,12:41:20,25,75,3,9,10,40,30,120,555,19,"[""White""]",No,Female,1983959,null,null,learn_feedback,,,learn_feedback,25,75,in,,,,,,,,,,,,,,,,,,,,,,,
,,,,,canvas-keyboard-response,146,334997,0.0-12.0-4.26,2d_cat_multi_stim_exp1,2022-4-25,12:41:20,25,75,3,9,10,40,30,120,555,19,"[""White""]",No,Female,1983959,null,null,,,,clear_screen,,,,,,,,,,,,,,,,,,,,,,,,,,
,,,,,canvas-keyboard-response,147,335506,0.0-12.0-0.27,2d_cat_multi_stim_exp1,2022-4-25,12:41:20,25,75,3,9,10,40,30,120,555,19,"[""White""]",No,Female,1983959,null,null,,,,fixation,,,,,,,,,,,,,,,,,,,,,,,,,,
,,,,,canvas-keyboard-response,148,336016,0.0-12.0-1.27,2d_cat_multi_stim_exp1,2022-4-25,12:41:20,25,75,3,9,10,40,30,120,555,19,"[""White""]",No,Female,1983959,null,null,,,,clear_screen,,,,,,,,,,,,,,,,,,,,,,,,,,
,,,,,canvas-keyboard-response,149,337257,0.0-12.0-2.27,2d_cat_multi_stim_exp1,2022-4-25,12:41:20,25,75,3,9,10,40,30,120,555,19,"[""White""]",No,Female,1983959,1232,u,learn,,,learn_trial,33.3333,90,out,1,0,,,,,,,,,,,,,,,,,,,,,
,,,,,canvas-keyboard-response,150,338267,0.0-12.0-3.27,2d_cat_multi_stim_exp1,2022-4-25,12:41:20,25,75,3,9,10,40,30,120,555,19,"[""White""]",No,Female,1983959,null,null,learn_feedback,,,learn_feedback,33.3333,90,out,,,,,,,,,,,,,,,,,,,,,,,
,,,,,canvas-keyboard-response,151,338327,0.0-12.0-4.27,2d_cat_multi_stim_exp1,2022-4-25,12:41:20,25,75,3,9,10,40,30,120,555,19,"[""White""]",No,Female,1983959,null,null,,,,clear_screen,,,,,,,,,,,,,,,,,,,,,,,,,,
,,,,,canvas-keyboard-response,152,338840,0.0-12.0-0.28,2d_cat_multi_stim_exp1,2022-4-25,12:41:20,25,75,3,9,10,40,30,120,555,19,"[""White""]",No,Female,1983959,null,null,,,,fixation,,,,,,,,,,,,,,,,,,,,,,,,,,
,,,,,canvas-keyboard-response,153,339348,0.0-12.0-1.28,2d_cat_multi_stim_exp1,2022-4-25,12:41:20,25,75,3,9,10,40,30,120,555,19,"[""White""]",No,Female,1983959,null,null,,,,clear_screen,,,,,,,,,,,,,,,,,,,,,,,,,,
,,,,,canvas-keyboard-response,154,340138,0.0-12.0-2.28,2d_cat_multi_stim_exp1,2022-4-25,12:41:20,25,75,3,9,10,40,30,120,555,19,"[""White""]",No,Female,1983959,778,u,learn,,,learn_trial,26.6667,100,out,1,0,,,,,,,,,,,,,,,,,,,,,
,,,,,canvas-keyboard-response,155,341148,0.0-12.0-3.28,2d_cat_multi_stim_exp1,2022-4-25,12:41:20,25,75,3,9,10,40,30,120,555,19,"[""White""]",No,Female,1983959,null,null,learn_feedback,,,learn_feedback,26.6667,100,out,,,,,,,,,,,,,,,,,,,,,,,
,,,,,canvas-keyboard-response,156,341207,0.0-12.0-4.28,2d_cat_multi_stim_exp1,2022-4-25,12:41:20,25,75,3,9,10,40,30,120,555,19,"[""White""]",No,Female,1983959,null,null,,,,clear_screen,,,,,,,,,,,,,,,,,,,,,,,,,,
,,,,,canvas-keyboard-response,157,341716,0.0-12.0-0.29,2d_cat_multi_stim_exp1,2022-4-25,12:41:20,25,75,3,9,10,40,30,120,555,19,"[""White""]",No,Female,1983959,null,null,,,,fixation,,,,,,,,,,,,,,,,,,,,,,,,,,
,,,,,canvas-keyboard-response,158,342228,0.0-12.0-1.29,2d_cat_multi_stim_exp1,2022-4-25,12:41:20,25,75,3,9,10,40,30,120,555,19,"[""White""]",No,Female,1983959,null,null,,,,clear_screen,,,,,,,,,,,,,,,,,,,,,,,,,,
,,,,,canvas-keyboard-response,159,342978,0.0-12.0-2.29,2d_cat_multi_stim_exp1,2022-4-25,12:41:20,25,75,3,9,10,40,30,120,555,19,"[""White""]",No,Female,1983959,739,u,learn,,,learn_trial,22.2971,78.905,in,1,1,,,,,,,,,,,,,,,,,,,,,
,,,,,canvas-keyboard-response,160,343487,0.0-12.0-3.29,2d_cat_multi_stim_exp1,2022-4-25,12:41:20,25,75,3,9,10,40,30,120,555,19,"[""White""]",No,Female,1983959,null,null,learn_feedback,,,learn_feedback,22.2971,78.905,in,,,,,,,,,,,,,,,,,,,,,,,
,,,,,canvas-keyboard-response,161,343550,0.0-12.0-4.29,2d_cat_multi_stim_exp1,2022-4-25,12:41:20,25,75,3,9,10,40,30,120,555,19,"[""White""]",No,Female,1983959,null,null,,,,clear_screen,,,,,,,,,,,,,,,,,,,,,,,,,,
,,,,,canvas-keyboard-response,162,344059,0.0-12.0-0.30,2d_cat_multi_stim_exp1,2022-4-25,12:41:20,25,75,3,9,10,40,30,120,555,19,"[""White""]",No,Female,1983959,null,null,,,,fixation,,,,,,,,,,,,,,,,,,,,,,,,,,
,,,,,canvas-keyboard-response,163,344572,0.0-12.0-1.30,2d_cat_multi_stim_exp1,2022-4-25,12:41:20,25,75,3,9,10,40,30,120,555,19,"[""White""]",No,Female,1983959,null,null,,,,clear_screen,,,,,,,,,,,,,,,,,,,,,,,,,,
,,,,,canvas-keyboard-response,164,345554,0.0-12.0-2.30,2d_cat_multi_stim_exp1,2022-4-25,12:41:20,25,75,3,9,10,40,30,120,555,19,"[""White""]",No,Female,1983959,971,u,learn,,,learn_trial,25,75,in,1,1,,,,,,,,,,,,,,,,,,,,,
,,,,,canvas-keyboard-response,165,346062,0.0-12.0-3.30,2d_cat_multi_stim_exp1,2022-4-25,12:41:20,25,75,3,9,10,40,30,120,555,19,"[""White""]",No,Female,1983959,null,null,learn_feedback,,,learn_feedback,25,75,in,,,,,,,,,,,,,,,,,,,,,,,
,,,,,canvas-keyboard-response,166,346123,0.0-12.0-4.30,2d_cat_multi_stim_exp1,2022-4-25,12:41:20,25,75,3,9,10,40,30,120,555,19,"[""White""]",No,Female,1983959,null,null,,,,clear_screen,,,,,,,,,,,,,,,,,,,,,,,,,,
,,,,,canvas-keyboard-response,167,346631,0.0-12.0-0.31,2d_cat_multi_stim_exp1,2022-4-25,12:41:20,25,75,3,9,10,40,30,120,555,19,"[""White""]",No,Female,1983959,null,null,,,,fixation,,,,,,,,,,,,,,,,,,,,,,,,,,
,,,,,canvas-keyboard-response,168,347144,0.0-12.0-1.31,2d_cat_multi_stim_exp1,2022-4-25,12:41:20,25,75,3,9,10,40,30,120,555,19,"[""White""]",No,Female,1983959,null,null,,,,clear_screen,,,,,,,,,,,,,,,,,,,,,,,,,,
,,,,,canvas-keyboard-response,169,347803,0.0-12.0-2.31,2d_cat_multi_stim_exp1,2022-4-25,12:41:20,25,75,3,9,10,40,30,120,555,19,"[""White""]",No,Female,1983959,648,i,learn,,,learn_trial,16.6667,90,out,0,1,,,,,,,,,,,,,,,,,,,,,
,,,,,canvas-keyboard-response,170,348311,0.0-12.0-3.31,2d_cat_multi_stim_exp1,2022-4-25,12:41:20,25,75,3,9,10,40,30,120,555,19,"[""White""]",No,Female,1983959,null,null,learn_feedback,,,learn_feedback,16.6667,90,out,,,,,,,,,,,,,,,,,,,,,,,
,,,,,canvas-keyboard-response,171,348374,0.0-12.0-4.31,2d_cat_multi_stim_exp1,2022-4-25,12:41:20,25,75,3,9,10,40,30,120,555,19,"[""White""]",No,Female,1983959,null,null,,,,clear_screen,,,,,,,,,,,,,,,,,,,,,,,,,,
,,,,,canvas-keyboard-response,172,348883,0.0-12.0-0.32,2d_cat_multi_stim_exp1,2022-4-25,12:41:20,25,75,3,9,10,40,30,120,555,19,"[""White""]",No,Female,1983959,null,null,,,,fixation,,,,,,,,,,,,,,,,,,,,,,,,,,
,,,,,canvas-keyboard-response,173,349391,0.0-12.0-1.32,2d_cat_multi_stim_exp1,2022-4-25,12:41:20,25,75,3,9,10,40,30,120,555,19,"[""White""]",No,Female,1983959,null,null,,,,clear_screen,,,,,,,,,,,,,,,,,,,,,,,,,,
,,,,,canvas-keyboard-response,174,350474,0.0-12.0-2.32,2d_cat_multi_stim_exp1,2022-4-25,12:41:20,25,75,3,9,10,40,30,120,555,19,"[""White""]",No,Female,1983959,1072,i,learn,,,learn_trial,20.7574,62.2721,in,0,0,,,,,,,,,,,,,,,,,,,,,
,,,,,canvas-keyboard-response,175,351483,0.0-12.0-3.32,2d_cat_multi_stim_exp1,2022-4-25,12:41:20,25,75,3,9,10,40,30,120,555,19,"[""White""]",No,Female,1983959,null,null,learn_feedback,,,learn_feedback,20.7574,62.2721,in,,,,,,,,,,,,,,,,,,,,,,,
,,,,,canvas-keyboard-response,176,351542,0.0-12.0-4.32,2d_cat_multi_stim_exp1,2022-4-25,12:41:20,25,75,3,9,10,40,30,120,555,19,"[""White""]",No,Female,1983959,null,null,,,,clear_screen,,,,,,,,,,,,,,,,,,,,,,,,,,
,,,,,canvas-keyboard-response,177,352052,0.0-12.0-0.33,2d_cat_multi_stim_exp1,2022-4-25,12:41:20,25,75,3,9,10,40,30,120,555,19,"[""White""]",No,Female,1983959,null,null,,,,fixation,,,,,,,,,,,,,,,,,,,,,,,,,,
,,,,,canvas-keyboard-response,178,352566,0.0-12.0-1.33,2d_cat_multi_stim_exp1,2022-4-25,12:41:20,25,75,3,9,10,40,30,120,555,19,"[""White""]",No,Female,1983959,null,null,,,,clear_screen,,,,,,,,,,,,,,,,,,,,,,,,,,
,,,,,canvas-keyboard-response,179,353690,0.0-12.0-2.33,2d_cat_multi_stim_exp1,2022-4-25,12:41:20,25,75,3,9,10,40,30,120,555,19,"[""White""]",No,Female,1983959,1113,u,learn,,,learn_trial,27.8087,78.1624,in,1,1,,,,,,,,,,,,,,,,,,,,,
,,,,,canvas-keyboard-response,180,354203,0.0-12.0-3.33,2d_cat_multi_stim_exp1,2022-4-25,12:41:20,25,75,3,9,10,40,30,120,555,19,"[""White""]",No,Female,1983959,null,null,learn_feedback,,,learn_feedback,27.8087,78.1624,in,,,,,,,,,,,,,,,,,,,,,,,
,,,,,canvas-keyboard-response,181,354265,0.0-12.0-4.33,2d_cat_multi_stim_exp1,2022-4-25,12:41:20,25,75,3,9,10,40,30,120,555,19,"[""White""]",No,Female,1983959,null,null,,,,clear_screen,,,,,,,,,,,,,,,,,,,,,,,,,,
,,,,,canvas-keyboard-response,182,354776,0.0-12.0-0.34,2d_cat_multi_stim_exp1,2022-4-25,12:41:20,25,75,3,9,10,40,30,120,555,19,"[""White""]",No,Female,1983959,null,null,,,,fixation,,,,,,,,,,,,,,,,,,,,,,,,,,
,,,,,canvas-keyboard-response,183,355290,0.0-12.0-1.34,2d_cat_multi_stim_exp1,2022-4-25,12:41:20,25,75,3,9,10,40,30,120,555,19,"[""White""]",No,Female,1983959,null,null,,,,clear_screen,,,,,,,,,,,,,,,,,,,,,,,,,,
,,,,,canvas-keyboard-response,184,356202,0.0-12.0-2.34,2d_cat_multi_stim_exp1,2022-4-25,12:41:20,25,75,3,9,10,40,30,120,555,19,"[""White""]",No,Female,1983959,902,i,learn,,,learn_trial,33.3333,30,out,0,1,,,,,,,,,,,,,,,,,,,,,
,,,,,canvas-keyboard-response,185,356714,0.0-12.0-3.34,2d_cat_multi_stim_exp1,2022-4-25,12:41:20,25,75,3,9,10,40,30,120,555,19,"[""White""]",No,Female,1983959,null,null,learn_feedback,,,learn_feedback,33.3333,30,out,,,,,,,,,,,,,,,,,,,,,,,
,,,,,canvas-keyboard-response,186,356777,0.0-12.0-4.34,2d_cat_multi_stim_exp1,2022-4-25,12:41:20,25,75,3,9,10,40,30,120,555,19,"[""White""]",No,Female,1983959,null,null,,,,clear_screen,,,,,,,,,,,,,,,,,,,,,,,,,,
,,,,,canvas-keyboard-response,187,357286,0.0-12.0-0.35,2d_cat_multi_stim_exp1,2022-4-25,12:41:20,25,75,3,9,10,40,30,120,555,19,"[""White""]",No,Female,1983959,null,null,,,,fixation,,,,,,,,,,,,,,,,,,,,,,,,,,
,,,,,canvas-keyboard-response,188,357801,0.0-12.0-1.35,2d_cat_multi_stim_exp1,2022-4-25,12:41:20,25,75,3,9,10,40,30,120,555,19,"[""White""]",No,Female,1983959,null,null,,,,clear_screen,,,,,,,,,,,,,,,,,,,,,,,,,,
,,,,,canvas-keyboard-response,189,358777,0.0-12.0-2.35,2d_cat_multi_stim_exp1,2022-4-25,12:41:20,25,75,3,9,10,40,30,120,555,19,"[""White""]",No,Female,1983959,966,i,learn,,,learn_trial,16.6667,30,out,0,1,,,,,,,,,,,,,,,,,,,,,
,,,,,canvas-keyboard-response,190,359289,0.0-12.0-3.35,2d_cat_multi_stim_exp1,2022-4-25,12:41:20,25,75,3,9,10,40,30,120,555,19,"[""White""]",No,Female,1983959,null,null,learn_feedback,,,learn_feedback,16.6667,30,out,,,,,,,,,,,,,,,,,,,,,,,
,,,,,canvas-keyboard-response,191,359350,0.0-12.0-4.35,2d_cat_multi_stim_exp1,2022-4-25,12:41:20,25,75,3,9,10,40,30,120,555,19,"[""White""]",No,Female,1983959,null,null,,,,clear_screen,,,,,,,,,,,,,,,,,,,,,,,,,,
,,,,,canvas-keyboard-response,192,359859,0.0-12.0-0.36,2d_cat_multi_stim_exp1,2022-4-25,12:41:20,25,75,3,9,10,40,30,120,555,19,"[""White""]",No,Female,1983959,null,null,,,,fixation,,,,,,,,,,,,,,,,,,,,,,,,,,
,,,,,canvas-keyboard-response,193,360371,0.0-12.0-1.36,2d_cat_multi_stim_exp1,2022-4-25,12:41:20,25,75,3,9,10,40,30,120,555,19,"[""White""]",No,Female,1983959,null,null,,,,clear_screen,,,,,,,,,,,,,,,,,,,,,,,,,,
,,,,,canvas-keyboard-response,194,361690,0.0-12.0-2.36,2d_cat_multi_stim_exp1,2022-4-25,12:41:20,25,75,3,9,10,40,30,120,555,19,"[""White""]",No,Female,1983959,1307,i,learn,,,learn_trial,33.3333,70,out,0,1,,,,,,,,,,,,,,,,,,,,,
,,,,,canvas-keyboard-response,195,362199,0.0-12.0-3.36,2d_cat_multi_stim_exp1,2022-4-25,12:41:20,25,75,3,9,10,40,30,120,555,19,"[""White""]",No,Female,1983959,null,null,learn_feedback,,,learn_feedback,33.3333,70,out,,,,,,,,,,,,,,,,,,,,,,,
,,,,,canvas-keyboard-response,196,362261,0.0-12.0-4.36,2d_cat_multi_stim_exp1,2022-4-25,12:41:20,25,75,3,9,10,40,30,120,555,19,"[""White""]",No,Female,1983959,null,null,,,,clear_screen,,,,,,,,,,,,,,,,,,,,,,,,,,
,,,,,canvas-keyboard-response,197,362771,0.0-12.0-0.37,2d_cat_multi_stim_exp1,2022-4-25,12:41:20,25,75,3,9,10,40,30,120,555,19,"[""White""]",No,Female,1983959,null,null,,,,fixation,,,,,,,,,,,,,,,,,,,,,,,,,,
,,,,,canvas-keyboard-response,198,363283,0.0-12.0-1.37,2d_cat_multi_stim_exp1,2022-4-25,12:41:20,25,75,3,9,10,40,30,120,555,19,"[""White""]",No,Female,1983959,null,null,,,,clear_screen,,,,,,,,,,,,,,,,,,,,,,,,,,
,,,,,canvas-keyboard-response,199,365490,0.0-12.0-2.37,2d_cat_multi_stim_exp1,2022-4-25,12:41:20,25,75,3,9,10,40,30,120,555,19,"[""White""]",No,Female,1983959,2197,i,learn,,,learn_trial,25.9271,83.5595,in,0,0,,,,,,,,,,,,,,,,,,,,,
,,,,,canvas-keyboard-response,200,366497,0.0-12.0-3.37,2d_cat_multi_stim_exp1,2022-4-25,12:41:20,25,75,3,9,10,40,30,120,555,19,"[""White""]",No,Female,1983959,null,null,learn_feedback,,,learn_feedback,25.9271,83.5595,in,,,,,,,,,,,,,,,,,,,,,,,
,,,,,canvas-keyboard-response,201,366557,0.0-12.0-4.37,2d_cat_multi_stim_exp1,2022-4-25,12:41:20,25,75,3,9,10,40,30,120,555,19,"[""White""]",No,Female,1983959,null,null,,,,clear_screen,,,,,,,,,,,,,,,,,,,,,,,,,,
,,,,,canvas-keyboard-response,202,367066,0.0-12.0-0.38,2d_cat_multi_stim_exp1,2022-4-25,12:41:20,25,75,3,9,10,40,30,120,555,19,"[""White""]",No,Female,1983959,null,null,,,,fixation,,,,,,,,,,,,,,,,,,,,,,,,,,
,,,,,canvas-keyboard-response,203,367574,0.0-12.0-1.38,2d_cat_multi_stim_exp1,2022-4-25,12:41:20,25,75,3,9,10,40,30,120,555,19,"[""White""]",No,Female,1983959,null,null,,,,clear_screen,,,,,,,,,,,,,,,,,,,,,,,,,,
,,,,,canvas-keyboard-response,204,368153,0.0-12.0-2.38,2d_cat_multi_stim_exp1,2022-4-25,12:41:20,25,75,3,9,10,40,30,120,555,19,"[""White""]",No,Female,1983959,568,i,learn,,,learn_trial,20,40,out,0,1,,,,,,,,,,,,,,,,,,,,,
,,,,,canvas-keyboard-response,205,368662,0.0-12.0-3.38,2d_cat_multi_stim_exp1,2022-4-25,12:41:20,25,75,3,9,10,40,30,120,555,19,"[""White""]",No,Female,1983959,null,null,learn_feedback,,,learn_feedback,20,40,out,,,,,,,,,,,,,,,,,,,,,,,
,,,,,canvas-keyboard-response,206,368726,0.0-12.0-4.38,2d_cat_multi_stim_exp1,2022-4-25,12:41:20,25,75,3,9,10,40,30,120,555,19,"[""White""]",No,Female,1983959,null,null,,,,clear_screen,,,,,,,,,,,,,,,,,,,,,,,,,,
,,,,,canvas-keyboard-response,207,369236,0.0-12.0-0.39,2d_cat_multi_stim_exp1,2022-4-25,12:41:20,25,75,3,9,10,40,30,120,555,19,"[""White""]",No,Female,1983959,null,null,,,,fixation,,,,,,,,,,,,,,,,,,,,,,,,,,
,,,,,canvas-keyboard-response,208,369747,0.0-12.0-1.39,2d_cat_multi_stim_exp1,2022-4-25,12:41:20,25,75,3,9,10,40,30,120,555,19,"[""White""]",No,Female,1983959,null,null,,,,clear_screen,,,,,,,,,,,,,,,,,,,,,,,,,,
,,,,,canvas-keyboard-response,209,370377,0.0-12.0-2.39,2d_cat_multi_stim_exp1,2022-4-25,12:41:20,25,75,3,9,10,40,30,120,555,19,"[""White""]",No,Female,1983959,622,i,learn,,,learn_trial,16.6667,50,out,0,1,,,,,,,,,,,,,,,,,,,,,
,,,,,canvas-keyboard-response,210,370887,0.0-12.0-3.39,2d_cat_multi_stim_exp1,2022-4-25,12:41:20,25,75,3,9,10,40,30,120,555,19,"[""White""]",No,Female,1983959,null,null,learn_feedback,,,learn_feedback,16.6667,50,out,,,,,,,,,,,,,,,,,,,,,,,
,,,,,canvas-keyboard-response,211,370947,0.0-12.0-4.39,2d_cat_multi_stim_exp1,2022-4-25,12:41:20,25,75,3,9,10,40,30,120,555,19,"[""White""]",No,Female,1983959,null,null,,,,clear_screen,,,,,,,,,,,,,,,,,,,,,,,,,,
,,,,,canvas-keyboard-response,212,371460,0.0-12.0-0.40,2d_cat_multi_stim_exp1,2022-4-25,12:41:20,25,75,3,9,10,40,30,120,555,19,"[""White""]",No,Female,1983959,null,null,,,,fixation,,,,,,,,,,,,,,,,,,,,,,,,,,
,,,,,canvas-keyboard-response,213,371978,0.0-12.0-1.40,2d_cat_multi_stim_exp1,2022-4-25,12:41:20,25,75,3,9,10,40,30,120,555,19,"[""White""]",No,Female,1983959,null,null,,,,clear_screen,,,,,,,,,,,,,,,,,,,,,,,,,,
,,,,,canvas-keyboard-response,214,372921,0.0-12.0-2.40,2d_cat_multi_stim_exp1,2022-4-25,12:41:20,25,75,3,9,10,40,30,120,555,19,"[""White""]",No,Female,1983959,933,u,learn,,,learn_trial,25,75,in,1,1,,,,,,,,,,,,,,,,,,,,,
,,,,,canvas-keyboard-response,215,373431,0.0-12.0-3.40,2d_cat_multi_stim_exp1,2022-4-25,12:41:20,25,75,3,9,10,40,30,120,555,19,"[""White""]",No,Female,1983959,null,null,learn_feedback,,,learn_feedback,25,75,in,,,,,,,,,,,,,,,,,,,,,,,
,,,,,canvas-keyboard-response,216,373491,0.0-12.0-4.40,2d_cat_multi_stim_exp1,2022-4-25,12:41:20,25,75,3,9,10,40,30,120,555,19,"[""White""]",No,Female,1983959,null,null,,,,clear_screen,,,,,,,,,,,,,,,,,,,,,,,,,,
,,,,,canvas-keyboard-response,217,374000,0.0-12.0-0.41,2d_cat_multi_stim_exp1,2022-4-25,12:41:20,25,75,3,9,10,40,30,120,555,19,"[""White""]",No,Female,1983959,null,null,,,,fixation,,,,,,,,,,,,,,,,,,,,,,,,,,
,,,,,canvas-keyboard-response,218,374510,0.0-12.0-1.41,2d_cat_multi_stim_exp1,2022-4-25,12:41:20,25,75,3,9,10,40,30,120,555,19,"[""White""]",No,Female,1983959,null,null,,,,clear_screen,,,,,,,,,,,,,,,,,,,,,,,,,,
,,,,,canvas-keyboard-response,219,375441,0.0-12.0-2.41,2d_cat_multi_stim_exp1,2022-4-25,12:41:20,25,75,3,9,10,40,30,120,555,19,"[""White""]",No,Female,1983959,919,u,learn,,,learn_trial,25,75,in,1,1,,,,,,,,,,,,,,,,,,,,,
,,,,,canvas-keyboard-response,220,375950,0.0-12.0-3.41,2d_cat_multi_stim_exp1,2022-4-25,12:41:20,25,75,3,9,10,40,30,120,555,19,"[""White""]",No,Female,1983959,null,null,learn_feedback,,,learn_feedback,25,75,in,,,,,,,,,,,,,,,,,,,,,,,
,,,,,canvas-keyboard-response,221,376008,0.0-12.0-4.41,2d_cat_multi_stim_exp1,2022-4-25,12:41:20,25,75,3,9,10,40,30,120,555,19,"[""White""]",No,Female,1983959,null,null,,,,clear_screen,,,,,,,,,,,,,,,,,,,,,,,,,,
,,,,,canvas-keyboard-response,222,376519,0.0-12.0-0.42,2d_cat_multi_stim_exp1,2022-4-25,12:41:20,25,75,3,9,10,40,30,120,555,19,"[""White""]",No,Female,1983959,null,null,,,,fixation,,,,,,,,,,,,,,,,,,,,,,,,,,
,,,,,canvas-keyboard-response,223,377029,0.0-12.0-1.42,2d_cat_multi_stim_exp1,2022-4-25,12:41:20,25,75,3,9,10,40,30,120,555,19,"[""White""]",No,Female,1983959,null,null,,,,clear_screen,,,,,,,,,,,,,,,,,,,,,,,,,,
,,,,,canvas-keyboard-response,224,377625,0.0-12.0-2.42,2d_cat_multi_stim_exp1,2022-4-25,12:41:20,25,75,3,9,10,40,30,120,555,19,"[""White""]",No,Female,1983959,584,i,learn,,,learn_trial,10,50,out,0,1,,,,,,,,,,,,,,,,,,,,,
,,,,,canvas-keyboard-response,225,378137,0.0-12.0-3.42,2d_cat_multi_stim_exp1,2022-4-25,12:41:20,25,75,3,9,10,40,30,120,555,19,"[""White""]",No,Female,1983959,null,null,learn_feedback,,,learn_feedback,10,50,out,,,,,,,,,,,,,,,,,,,,,,,
,,,,,canvas-keyboard-response,226,378196,0.0-12.0-4.42,2d_cat_multi_stim_exp1,2022-4-25,12:41:20,25,75,3,9,10,40,30,120,555,19,"[""White""]",No,Female,1983959,null,null,,,,clear_screen,,,,,,,,,,,,,,,,,,,,,,,,,,
,,,,,canvas-keyboard-response,227,378707,0.0-12.0-0.43,2d_cat_multi_stim_exp1,2022-4-25,12:41:20,25,75,3,9,10,40,30,120,555,19,"[""White""]",No,Female,1983959,null,null,,,,fixation,,,,,,,,,,,,,,,,,,,,,,,,,,
,,,,,canvas-keyboard-response,228,379221,0.0-12.0-1.43,2d_cat_multi_stim_exp1,2022-4-25,12:41:20,25,75,3,9,10,40,30,120,555,19,"[""White""]",No,Female,1983959,null,null,,,,clear_screen,,,,,,,,,,,,,,,,,,,,,,,,,,
,,,,,canvas-keyboard-response,229,380289,0.0-12.0-2.43,2d_cat_multi_stim_exp1,2022-4-25,12:41:20,25,75,3,9,10,40,30,120,555,19,"[""White""]",No,Female,1983959,1057,i,learn,,,learn_trial,13.3333,50,out,0,1,,,,,,,,,,,,,,,,,,,,,
,,,,,canvas-keyboard-response,230,380803,0.0-12.0-3.43,2d_cat_multi_stim_exp1,2022-4-25,12:41:20,25,75,3,9,10,40,30,120,555,19,"[""White""]",No,Female,1983959,null,null,learn_feedback,,,learn_feedback,13.3333,50,out,,,,,,,,,,,,,,,,,,,,,,,
,,,,,canvas-keyboard-response,231,380867,0.0-12.0-4.43,2d_cat_multi_stim_exp1,2022-4-25,12:41:20,25,75,3,9,10,40,30,120,555,19,"[""White""]",No,Female,1983959,null,null,,,,clear_screen,,,,,,,,,,,,,,,,,,,,,,,,,,
,,,,,canvas-keyboard-response,232,381374,0.0-12.0-0.44,2d_cat_multi_stim_exp1,2022-4-25,12:41:20,25,75,3,9,10,40,30,120,555,19,"[""White""]",No,Female,1983959,null,null,,,,fixation,,,,,,,,,,,,,,,,,,,,,,,,,,
,,,,,canvas-keyboard-response,233,381886,0.0-12.0-1.44,2d_cat_multi_stim_exp1,2022-4-25,12:41:20,25,75,3,9,10,40,30,120,555,19,"[""White""]",No,Female,1983959,null,null,,,,clear_screen,,,,,,,,,,,,,,,,,,,,,,,,,,
,,,,,canvas-keyboard-response,234,382898,0.0-12.0-2.44,2d_cat_multi_stim_exp1,2022-4-25,12:41:20,25,75,3,9,10,40,30,120,555,19,"[""White""]",No,Female,1983959,1002,i,learn,,,learn_trial,20,120,out,0,1,,,,,,,,,,,,,,,,,,,,,
,,,,,canvas-keyboard-response,235,383404,0.0-12.0-3.44,2d_cat_multi_stim_exp1,2022-4-25,12:41:20,25,75,3,9,10,40,30,120,555,19,"[""White""]",No,Female,1983959,null,null,learn_feedback,,,learn_feedback,20,120,out,,,,,,,,,,,,,,,,,,,,,,,
,,,,,canvas-keyboard-response,236,383466,0.0-12.0-4.44,2d_cat_multi_stim_exp1,2022-4-25,12:41:20,25,75,3,9,10,40,30,120,555,19,"[""White""]",No,Female,1983959,null,null,,,,clear_screen,,,,,,,,,,,,,,,,,,,,,,,,,,
,,,,,canvas-keyboard-response,237,383976,0.0-12.0-0.45,2d_cat_multi_stim_exp1,2022-4-25,12:41:20,25,75,3,9,10,40,30,120,555,19,"[""White""]",No,Female,1983959,null,null,,,,fixation,,,,,,,,,,,,,,,,,,,,,,,,,,
,,,,,canvas-keyboard-response,238,384485,0.0-12.0-1.45,2d_cat_multi_stim_exp1,2022-4-25,12:41:20,25,75,3,9,10,40,30,120,555,19,"[""White""]",No,Female,1983959,null,null,,,,clear_screen,,,,,,,,,,,,,,,,,,,,,,,,,,
,,,,,canvas-keyboard-response,239,385138,0.0-12.0-2.45,2d_cat_multi_stim_exp1,2022-4-25,12:41:20,25,75,3,9,10,40,30,120,555,19,"[""White""]",No,Female,1983959,642,u,learn,,,learn_trial,19,75,in,1,1,,,,,,,,,,,,,,,,,,,,,
,,,,,canvas-keyboard-response,240,385646,0.0-12.0-3.45,2d_cat_multi_stim_exp1,2022-4-25,12:41:20,25,75,3,9,10,40,30,120,555,19,"[""White""]",No,Female,1983959,null,null,learn_feedback,,,learn_feedback,19,75,in,,,,,,,,,,,,,,,,,,,,,,,
,,,,,canvas-keyboard-response,241,385708,0.0-12.0-4.45,2d_cat_multi_stim_exp1,2022-4-25,12:41:20,25,75,3,9,10,40,30,120,555,19,"[""White""]",No,Female,1983959,null,null,,,,clear_screen,,,,,,,,,,,,,,,,,,,,,,,,,,
,,,,,canvas-keyboard-response,242,386217,0.0-12.0-0.46,2d_cat_multi_stim_exp1,2022-4-25,12:41:20,25,75,3,9,10,40,30,120,555,19,"[""White""]",No,Female,1983959,null,null,,,,fixation,,,,,,,,,,,,,,,,,,,,,,,,,,
,,,,,canvas-keyboard-response,243,386731,0.0-12.0-1.46,2d_cat_multi_stim_exp1,2022-4-25,12:41:20,25,75,3,9,10,40,30,120,555,19,"[""White""]",No,Female,1983959,null,null,,,,clear_screen,,,,,,,,,,,,,,,,,,,,,,,,,,
,,,,,canvas-keyboard-response,244,389899,0.0-12.0-2.46,2d_cat_multi_stim_exp1,2022-4-25,12:41:20,25,75,3,9,10,40,30,120,555,19,"[""White""]",No,Female,1983959,3156,u,learn,,,learn_trial,20,70,out,1,0,,,,,,,,,,,,,,,,,,,,,
,,,,,canvas-keyboard-response,245,390914,0.0-12.0-3.46,2d_cat_multi_stim_exp1,2022-4-25,12:41:20,25,75,3,9,10,40,30,120,555,19,"[""White""]",No,Female,1983959,null,null,learn_feedback,,,learn_feedback,20,70,out,,,,,,,,,,,,,,,,,,,,,,,
,,,,,canvas-keyboard-response,246,390975,0.0-12.0-4.46,2d_cat_multi_stim_exp1,2022-4-25,12:41:20,25,75,3,9,10,40,30,120,555,19,"[""White""]",No,Female,1983959,null,null,,,,clear_screen,,,,,,,,,,,,,,,,,,,,,,,,,,
,,,,,canvas-keyboard-response,247,391488,0.0-12.0-0.47,2d_cat_multi_stim_exp1,2022-4-25,12:41:20,25,75,3,9,10,40,30,120,555,19,"[""White""]",No,Female,1983959,null,null,,,,fixation,,,,,,,,,,,,,,,,,,,,,,,,,,
,,,,,canvas-keyboard-response,248,392002,0.0-12.0-1.47,2d_cat_multi_stim_exp1,2022-4-25,12:41:20,25,75,3,9,10,40,30,120,555,19,"[""White""]",No,Female,1983959,null,null,,,,clear_screen,,,,,,,,,,,,,,,,,,,,,,,,,,
,,,,,canvas-keyboard-response,249,393034,0.0-12.0-2.47,2d_cat_multi_stim_exp1,2022-4-25,12:41:20,25,75,3,9,10,40,30,120,555,19,"[""White""]",No,Female,1983959,1021,u,learn,,,learn_trial,25,75,in,1,1,,,,,,,,,,,,,,,,,,,,,
,,,,,canvas-keyboard-response,250,393542,0.0-12.0-3.47,2d_cat_multi_stim_exp1,2022-4-25,12:41:20,25,75,3,9,10,40,30,120,555,19,"[""White""]",No,Female,1983959,null,null,learn_feedback,,,learn_feedback,25,75,in,,,,,,,,,,,,,,,,,,,,,,,
,,,,,canvas-keyboard-response,251,393600,0.0-12.0-4.47,2d_cat_multi_stim_exp1,2022-4-25,12:41:20,25,75,3,9,10,40,30,120,555,19,"[""White""]",No,Female,1983959,null,null,,,,clear_screen,,,,,,,,,,,,,,,,,,,,,,,,,,
,,,,,canvas-keyboard-response,252,394108,0.0-12.0-0.48,2d_cat_multi_stim_exp1,2022-4-25,12:41:20,25,75,3,9,10,40,30,120,555,19,"[""White""]",No,Female,1983959,null,null,,,,fixation,,,,,,,,,,,,,,,,,,,,,,,,,,
,,,,,canvas-keyboard-response,253,394618,0.0-12.0-1.48,2d_cat_multi_stim_exp1,2022-4-25,12:41:20,25,75,3,9,10,40,30,120,555,19,"[""White""]",No,Female,1983959,null,null,,,,clear_screen,,,,,,,,,,,,,,,,,,,,,,,,,,
,,,,,canvas-keyboard-response,254,395419,0.0-12.0-2.48,2d_cat_multi_stim_exp1,2022-4-25,12:41:20,25,75,3,9,10,40,30,120,555,19,"[""White""]",No,Female,1983959,789,u,learn,,,learn_trial,22.9268,81.5052,in,1,1,,,,,,,,,,,,,,,,,,,,,
,,,,,canvas-keyboard-response,255,395932,0.0-12.0-3.48,2d_cat_multi_stim_exp1,2022-4-25,12:41:20,25,75,3,9,10,40,30,120,555,19,"[""White""]",No,Female,1983959,null,null,learn_feedback,,,learn_feedback,22.9268,81.5052,in,,,,,,,,,,,,,,,,,,,,,,,
,,,,,canvas-keyboard-response,256,395991,0.0-12.0-4.48,2d_cat_multi_stim_exp1,2022-4-25,12:41:20,25,75,3,9,10,40,30,120,555,19,"[""White""]",No,Female,1983959,null,null,,,,clear_screen,,,,,,,,,,,,,,,,,,,,,,,,,,
,,,,,canvas-keyboard-response,257,396502,0.0-12.0-0.49,2d_cat_multi_stim_exp1,2022-4-25,12:41:20,25,75,3,9,10,40,30,120,555,19,"[""White""]",No,Female,1983959,null,null,,,,fixation,,,,,,,,,,,,,,,,,,,,,,,,,,
,,,,,canvas-keyboard-response,258,397012,0.0-12.0-1.49,2d_cat_multi_stim_exp1,2022-4-25,12:41:20,25,75,3,9,10,40,30,120,555,19,"[""White""]",No,Female,1983959,null,null,,,,clear_screen,,,,,,,,,,,,,,,,,,,,,,,,,,
,,,,,canvas-keyboard-response,259,397624,0.0-12.0-2.49,2d_cat_multi_stim_exp1,2022-4-25,12:41:20,25,75,3,9,10,40,30,120,555,19,"[""White""]",No,Female,1983959,603,i,learn,,,learn_trial,26.6667,120,out,0,1,,,,,,,,,,,,,,,,,,,,,
,,,,,canvas-keyboard-response,260,398134,0.0-12.0-3.49,2d_cat_multi_stim_exp1,2022-4-25,12:41:20,25,75,3,9,10,40,30,120,555,19,"[""White""]",No,Female,1983959,null,null,learn_feedback,,,learn_feedback,26.6667,120,out,,,,,,,,,,,,,,,,,,,,,,,
,,,,,canvas-keyboard-response,261,398196,0.0-12.0-4.49,2d_cat_multi_stim_exp1,2022-4-25,12:41:20,25,75,3,9,10,40,30,120,555,19,"[""White""]",No,Female,1983959,null,null,,,,clear_screen,,,,,,,,,,,,,,,,,,,,,,,,,,
,,,,,canvas-keyboard-response,262,398704,0.0-12.0-0.50,2d_cat_multi_stim_exp1,2022-4-25,12:41:20,25,75,3,9,10,40,30,120,555,19,"[""White""]",No,Female,1983959,null,null,,,,fixation,,,,,,,,,,,,,,,,,,,,,,,,,,
,,,,,canvas-keyboard-response,263,399217,0.0-12.0-1.50,2d_cat_multi_stim_exp1,2022-4-25,12:41:20,25,75,3,9,10,40,30,120,555,19,"[""White""]",No,Female,1983959,null,null,,,,clear_screen,,,,,,,,,,,,,,,,,,,,,,,,,,
,,,,,canvas-keyboard-response,264,400074,0.0-12.0-2.50,2d_cat_multi_stim_exp1,2022-4-25,12:41:20,25,75,3,9,10,40,30,120,555,19,"[""White""]",No,Female,1983959,849,u,learn,,,learn_trial,25,75,in,1,1,,,,,,,,,,,,,,,,,,,,,
,,,,,canvas-keyboard-response,265,400585,0.0-12.0-3.50,2d_cat_multi_stim_exp1,2022-4-25,12:41:20,25,75,3,9,10,40,30,120,555,19,"[""White""]",No,Female,1983959,null,null,learn_feedback,,,learn_feedback,25,75,in,,,,,,,,,,,,,,,,,,,,,,,
,,,,,canvas-keyboard-response,266,400646,0.0-12.0-4.50,2d_cat_multi_stim_exp1,2022-4-25,12:41:20,25,75,3,9,10,40,30,120,555,19,"[""White""]",No,Female,1983959,null,null,,,,clear_screen,,,,,,,,,,,,,,,,,,,,,,,,,,
,,,,,canvas-keyboard-response,267,401154,0.0-12.0-0.51,2d_cat_multi_stim_exp1,2022-4-25,12:41:20,25,75,3,9,10,40,30,120,555,19,"[""White""]",No,Female,1983959,null,null,,,,fixation,,,,,,,,,,,,,,,,,,,,,,,,,,
,,,,,canvas-keyboard-response,268,401665,0.0-12.0-1.51,2d_cat_multi_stim_exp1,2022-4-25,12:41:20,25,75,3,9,10,40,30,120,555,19,"[""White""]",No,Female,1983959,null,null,,,,clear_screen,,,,,,,,,,,,,,,,,,,,,,,,,,
,,,,,canvas-keyboard-response,269,402738,0.0-12.0-2.51,2d_cat_multi_stim_exp1,2022-4-25,12:41:20,25,75,3,9,10,40,30,120,555,19,"[""White""]",No,Female,1983959,1064,u,learn,,,learn_trial,25,75,in,1,1,,,,,,,,,,,,,,,,,,,,,
,,,,,canvas-keyboard-response,270,403249,0.0-12.0-3.51,2d_cat_multi_stim_exp1,2022-4-25,12:41:20,25,75,3,9,10,40,30,120,555,19,"[""White""]",No,Female,1983959,null,null,learn_feedback,,,learn_feedback,25,75,in,,,,,,,,,,,,,,,,,,,,,,,
,,,,,canvas-keyboard-response,271,403313,0.0-12.0-4.51,2d_cat_multi_stim_exp1,2022-4-25,12:41:20,25,75,3,9,10,40,30,120,555,19,"[""White""]",No,Female,1983959,null,null,,,,clear_screen,,,,,,,,,,,,,,,,,,,,,,,,,,
,,,,,canvas-keyboard-response,272,403823,0.0-12.0-0.52,2d_cat_multi_stim_exp1,2022-4-25,12:41:20,25,75,3,9,10,40,30,120,555,19,"[""White""]",No,Female,1983959,null,null,,,,fixation,,,,,,,,,,,,,,,,,,,,,,,,,,
,,,,,canvas-keyboard-response,273,404332,0.0-12.0-1.52,2d_cat_multi_stim_exp1,2022-4-25,12:41:20,25,75,3,9,10,40,30,120,555,19,"[""White""]",No,Female,1983959,null,null,,,,clear_screen,,,,,,,,,,,,,,,,,,,,,,,,,,
,,,,,canvas-keyboard-response,274,405105,0.0-12.0-2.52,2d_cat_multi_stim_exp1,2022-4-25,12:41:20,25,75,3,9,10,40,30,120,555,19,"[""White""]",No,Female,1983959,761,i,learn,,,learn_trial,40,70,out,0,1,,,,,,,,,,,,,,,,,,,,,
,,,,,canvas-keyboard-response,275,405614,0.0-12.0-3.52,2d_cat_multi_stim_exp1,2022-4-25,12:41:20,25,75,3,9,10,40,30,120,555,19,"[""White""]",No,Female,1983959,null,null,learn_feedback,,,learn_feedback,40,70,out,,,,,,,,,,,,,,,,,,,,,,,
,,,,,canvas-keyboard-response,276,405677,0.0-12.0-4.52,2d_cat_multi_stim_exp1,2022-4-25,12:41:20,25,75,3,9,10,40,30,120,555,19,"[""White""]",No,Female,1983959,null,null,,,,clear_screen,,,,,,,,,,,,,,,,,,,,,,,,,,
,,,,,canvas-keyboard-response,277,406185,0.0-12.0-0.53,2d_cat_multi_stim_exp1,2022-4-25,12:41:20,25,75,3,9,10,40,30,120,555,19,"[""White""]",No,Female,1983959,null,null,,,,fixation,,,,,,,,,,,,,,,,,,,,,,,,,,
,,,,,canvas-keyboard-response,278,406698,0.0-12.0-1.53,2d_cat_multi_stim_exp1,2022-4-25,12:41:20,25,75,3,9,10,40,30,120,555,19,"[""White""]",No,Female,1983959,null,null,,,,clear_screen,,,,,,,,,,,,,,,,,,,,,,,,,,
,,,,,canvas-keyboard-response,279,407586,0.0-12.0-2.53,2d_cat_multi_stim_exp1,2022-4-25,12:41:20,25,75,3,9,10,40,30,120,555,19,"[""White""]",No,Female,1983959,878,i,learn,,,learn_trial,30,60,out,0,1,,,,,,,,,,,,,,,,,,,,,
,,,,,canvas-keyboard-response,280,408094,0.0-12.0-3.53,2d_cat_multi_stim_exp1,2022-4-25,12:41:20,25,75,3,9,10,40,30,120,555,19,"[""White""]",No,Female,1983959,null,null,learn_feedback,,,learn_feedback,30,60,out,,,,,,,,,,,,,,,,,,,,,,,
,,,,,canvas-keyboard-response,281,408156,0.0-12.0-4.53,2d_cat_multi_stim_exp1,2022-4-25,12:41:20,25,75,3,9,10,40,30,120,555,19,"[""White""]",No,Female,1983959,null,null,,,,clear_screen,,,,,,,,,,,,,,,,,,,,,,,,,,
,,,,,canvas-keyboard-response,282,408667,0.0-12.0-0.54,2d_cat_multi_stim_exp1,2022-4-25,12:41:20,25,75,3,9,10,40,30,120,555,19,"[""White""]",No,Female,1983959,null,null,,,,fixation,,,,,,,,,,,,,,,,,,,,,,,,,,
,,,,,canvas-keyboard-response,283,409177,0.0-12.0-1.54,2d_cat_multi_stim_exp1,2022-4-25,12:41:20,25,75,3,9,10,40,30,120,555,19,"[""White""]",No,Female,1983959,null,null,,,,clear_screen,,,,,,,,,,,,,,,,,,,,,,,,,,
,,,,,canvas-keyboard-response,284,410769,0.0-12.0-2.54,2d_cat_multi_stim_exp1,2022-4-25,12:41:20,25,75,3,9,10,40,30,120,555,19,"[""White""]",No,Female,1983959,1584,i,learn,,,learn_trial,25,93,in,0,0,,,,,,,,,,,,,,,,,,,,,
,,,,,canvas-keyboard-response,285,411779,0.0-12.0-3.54,2d_cat_multi_stim_exp1,2022-4-25,12:41:20,25,75,3,9,10,40,30,120,555,19,"[""White""]",No,Female,1983959,null,null,learn_feedback,,,learn_feedback,25,93,in,,,,,,,,,,,,,,,,,,,,,,,
,,,,,canvas-keyboard-response,286,411839,0.0-12.0-4.54,2d_cat_multi_stim_exp1,2022-4-25,12:41:20,25,75,3,9,10,40,30,120,555,19,"[""White""]",No,Female,1983959,null,null,,,,clear_screen,,,,,,,,,,,,,,,,,,,,,,,,,,
,,,,,canvas-keyboard-response,287,412347,0.0-12.0-0.55,2d_cat_multi_stim_exp1,2022-4-25,12:41:20,25,75,3,9,10,40,30,120,555,19,"[""White""]",No,Female,1983959,null,null,,,,fixation,,,,,,,,,,,,,,,,,,,,,,,,,,
,,,,,canvas-keyboard-response,288,412861,0.0-12.0-1.55,2d_cat_multi_stim_exp1,2022-4-25,12:41:20,25,75,3,9,10,40,30,120,555,19,"[""White""]",No,Female,1983959,null,null,,,,clear_screen,,,,,,,,,,,,,,,,,,,,,,,,,,
,,,,,canvas-keyboard-response,289,414601,0.0-12.0-2.55,2d_cat_multi_stim_exp1,2022-4-25,12:41:20,25,75,3,9,10,40,30,120,555,19,"[""White""]",No,Female,1983959,1732,u,learn,,,learn_trial,25,75,in,1,1,,,,,,,,,,,,,,,,,,,,,
,,,,,canvas-keyboard-response,290,415111,0.0-12.0-3.55,2d_cat_multi_stim_exp1,2022-4-25,12:41:20,25,75,3,9,10,40,30,120,555,19,"[""White""]",No,Female,1983959,null,null,learn_feedback,,,learn_feedback,25,75,in,,,,,,,,,,,,,,,,,,,,,,,
,,,,,canvas-keyboard-response,291,415175,0.0-12.0-4.55,2d_cat_multi_stim_exp1,2022-4-25,12:41:20,25,75,3,9,10,40,30,120,555,19,"[""White""]",No,Female,1983959,null,null,,,,clear_screen,,,,,,,,,,,,,,,,,,,,,,,,,,
,,,,,canvas-keyboard-response,292,415684,0.0-12.0-0.56,2d_cat_multi_stim_exp1,2022-4-25,12:41:20,25,75,3,9,10,40,30,120,555,19,"[""White""]",No,Female,1983959,null,null,,,,fixation,,,,,,,,,,,,,,,,,,,,,,,,,,
,,,,,canvas-keyboard-response,293,416189,0.0-12.0-1.56,2d_cat_multi_stim_exp1,2022-4-25,12:41:20,25,75,3,9,10,40,30,120,555,19,"[""White""]",No,Female,1983959,null,null,,,,clear_screen,,,,,,,,,,,,,,,,,,,,,,,,,,
,,,,,canvas-keyboard-response,294,417322,0.0-12.0-2.56,2d_cat_multi_stim_exp1,2022-4-25,12:41:20,25,75,3,9,10,40,30,120,555,19,"[""White""]",No,Female,1983959,1125,u,learn,,,learn_trial,27.9518,73.393,in,1,1,,,,,,,,,,,,,,,,,,,,,
,,,,,canvas-keyboard-response,295,417829,0.0-12.0-3.56,2d_cat_multi_stim_exp1,2022-4-25,12:41:20,25,75,3,9,10,40,30,120,555,19,"[""White""]",No,Female,1983959,null,null,learn_feedback,,,learn_feedback,27.9518,73.393,in,,,,,,,,,,,,,,,,,,,,,,,
,,,,,canvas-keyboard-response,296,417892,0.0-12.0-4.56,2d_cat_multi_stim_exp1,2022-4-25,12:41:20,25,75,3,9,10,40,30,120,555,19,"[""White""]",No,Female,1983959,null,null,,,,clear_screen,,,,,,,,,,,,,,,,,,,,,,,,,,
,,,,,canvas-keyboard-response,297,418399,0.0-12.0-0.57,2d_cat_multi_stim_exp1,2022-4-25,12:41:20,25,75,3,9,10,40,30,120,555,19,"[""White""]",No,Female,1983959,null,null,,,,fixation,,,,,,,,,,,,,,,,,,,,,,,,,,
,,,,,canvas-keyboard-response,298,418909,0.0-12.0-1.57,2d_cat_multi_stim_exp1,2022-4-25,12:41:20,25,75,3,9,10,40,30,120,555,19,"[""White""]",No,Female,1983959,null,null,,,,clear_screen,,,,,,,,,,,,,,,,,,,,,,,,,,
,,,,,canvas-keyboard-response,299,420594,0.0-12.0-2.57,2d_cat_multi_stim_exp1,2022-4-25,12:41:20,25,75,3,9,10,40,30,120,555,19,"[""White""]",No,Female,1983959,1673,u,learn,,,learn_trial,22.5729,69.7099,in,1,1,,,,,,,,,,,,,,,,,,,,,
,,,,,canvas-keyboard-response,300,421104,0.0-12.0-3.57,2d_cat_multi_stim_exp1,2022-4-25,12:41:20,25,75,3,9,10,40,30,120,555,19,"[""White""]",No,Female,1983959,null,null,learn_feedback,,,learn_feedback,22.5729,69.7099,in,,,,,,,,,,,,,,,,,,,,,,,
,,,,,canvas-keyboard-response,301,421170,0.0-12.0-4.57,2d_cat_multi_stim_exp1,2022-4-25,12:41:20,25,75,3,9,10,40,30,120,555,19,"[""White""]",No,Female,1983959,null,null,,,,clear_screen,,,,,,,,,,,,,,,,,,,,,,,,,,
,,,,,canvas-keyboard-response,302,421680,0.0-12.0-0.58,2d_cat_multi_stim_exp1,2022-4-25,12:41:20,25,75,3,9,10,40,30,120,555,19,"[""White""]",No,Female,1983959,null,null,,,,fixation,,,,,,,,,,,,,,,,,,,,,,,,,,
,,,,,canvas-keyboard-response,303,422196,0.0-12.0-1.58,2d_cat_multi_stim_exp1,2022-4-25,12:41:20,25,75,3,9,10,40,30,120,555,19,"[""White""]",No,Female,1983959,null,null,,,,clear_screen,,,,,,,,,,,,,,,,,,,,,,,,,,
,,,,,canvas-keyboard-response,304,422841,0.0-12.0-2.58,2d_cat_multi_stim_exp1,2022-4-25,12:41:20,25,75,3,9,10,40,30,120,555,19,"[""White""]",No,Female,1983959,635,u,learn,,,learn_trial,25,75,in,1,1,,,,,,,,,,,,,,,,,,,,,
,,,,,canvas-keyboard-response,305,423353,0.0-12.0-3.58,2d_cat_multi_stim_exp1,2022-4-25,12:41:20,25,75,3,9,10,40,30,120,555,19,"[""White""]",No,Female,1983959,null,null,learn_feedback,,,learn_feedback,25,75,in,,,,,,,,,,,,,,,,,,,,,,,
,,,,,canvas-keyboard-response,306,423414,0.0-12.0-4.58,2d_cat_multi_stim_exp1,2022-4-25,12:41:20,25,75,3,9,10,40,30,120,555,19,"[""White""]",No,Female,1983959,null,null,,,,clear_screen,,,,,,,,,,,,,,,,,,,,,,,,,,
,,,,,canvas-keyboard-response,307,423923,0.0-12.0-0.59,2d_cat_multi_stim_exp1,2022-4-25,12:41:20,25,75,3,9,10,40,30,120,555,19,"[""White""]",No,Female,1983959,null,null,,,,fixation,,,,,,,,,,,,,,,,,,,,,,,,,,
,,,,,canvas-keyboard-response,308,424437,0.0-12.0-1.59,2d_cat_multi_stim_exp1,2022-4-25,12:41:20,25,75,3,9,10,40,30,120,555,19,"[""White""]",No,Female,1983959,null,null,,,,clear_screen,,,,,,,,,,,,,,,,,,,,,,,,,,
,,,,,canvas-keyboard-response,309,425242,0.0-12.0-2.59,2d_cat_multi_stim_exp1,2022-4-25,12:41:20,25,75,3,9,10,40,30,120,555,19,"[""White""]",No,Female,1983959,793,i,learn,,,learn_trial,25,57,in,0,0,,,,,,,,,,,,,,,,,,,,,
,,,,,canvas-keyboard-response,310,426253,0.0-12.0-3.59,2d_cat_multi_stim_exp1,2022-4-25,12:41:20,25,75,3,9,10,40,30,120,555,19,"[""White""]",No,Female,1983959,null,null,learn_feedback,,,learn_feedback,25,57,in,,,,,,,,,,,,,,,,,,,,,,,
,,,,,canvas-keyboard-response,311,426311,0.0-12.0-4.59,2d_cat_multi_stim_exp1,2022-4-25,12:41:20,25,75,3,9,10,40,30,120,555,19,"[""White""]",No,Female,1983959,null,null,,,,clear_screen,,,,,,,,,,,,,,,,,,,,,,,,,,
,,,,,canvas-keyboard-response,312,426816,0.0-12.0-0.60,2d_cat_multi_stim_exp1,2022-4-25,12:41:20,25,75,3,9,10,40,30,120,555,19,"[""White""]",No,Female,1983959,null,null,,,,fixation,,,,,,,,,,,,,,,,,,,,,,,,,,
,,,,,canvas-keyboard-response,313,427327,0.0-12.0-1.60,2d_cat_multi_stim_exp1,2022-4-25,12:41:20,25,75,3,9,10,40,30,120,555,19,"[""White""]",No,Female,1983959,null,null,,,,clear_screen,,,,,,,,,,,,,,,,,,,,,,,,,,
,,,,,canvas-keyboard-response,314,428145,0.0-12.0-2.60,2d_cat_multi_stim_exp1,2022-4-25,12:41:20,25,75,3,9,10,40,30,120,555,19,"[""White""]",No,Female,1983959,807,u,learn,,,learn_trial,25,75,in,1,1,,,,,,,,,,,,,,,,,,,,,
,,,,,canvas-keyboard-response,315,428657,0.0-12.0-3.60,2d_cat_multi_stim_exp1,2022-4-25,12:41:20,25,75,3,9,10,40,30,120,555,19,"[""White""]",No,Female,1983959,null,null,learn_feedback,,,learn_feedback,25,75,in,,,,,,,,,,,,,,,,,,,,,,,
,,,,,canvas-keyboard-response,316,428718,0.0-12.0-4.60,2d_cat_multi_stim_exp1,2022-4-25,12:41:20,25,75,3,9,10,40,30,120,555,19,"[""White""]",No,Female,1983959,null,null,,,,clear_screen,,,,,,,,,,,,,,,,,,,,,,,,,,
,,,,,canvas-keyboard-response,317,429227,0.0-12.0-0.61,2d_cat_multi_stim_exp1,2022-4-25,12:41:20,25,75,3,9,10,40,30,120,555,19,"[""White""]",No,Female,1983959,null,null,,,,fixation,,,,,,,,,,,,,,,,,,,,,,,,,,
,,,,,canvas-keyboard-response,318,429737,0.0-12.0-1.61,2d_cat_multi_stim_exp1,2022-4-25,12:41:20,25,75,3,9,10,40,30,120,555,19,"[""White""]",No,Female,1983959,null,null,,,,clear_screen,,,,,,,,,,,,,,,,,,,,,,,,,,
,,,,,canvas-keyboard-response,319,430682,0.0-12.0-2.61,2d_cat_multi_stim_exp1,2022-4-25,12:41:20,25,75,3,9,10,40,30,120,555,19,"[""White""]",No,Female,1983959,934,i,learn,,,learn_trial,40,40,out,0,1,,,,,,,,,,,,,,,,,,,,,
,,,,,canvas-keyboard-response,320,431193,0.0-12.0-3.61,2d_cat_multi_stim_exp1,2022-4-25,12:41:20,25,75,3,9,10,40,30,120,555,19,"[""White""]",No,Female,1983959,null,null,learn_feedback,,,learn_feedback,40,40,out,,,,,,,,,,,,,,,,,,,,,,,
,,,,,canvas-keyboard-response,321,431254,0.0-12.0-4.61,2d_cat_multi_stim_exp1,2022-4-25,12:41:20,25,75,3,9,10,40,30,120,555,19,"[""White""]",No,Female,1983959,null,null,,,,clear_screen,,,,,,,,,,,,,,,,,,,,,,,,,,
,,,,,canvas-keyboard-response,322,431762,0.0-12.0-0.62,2d_cat_multi_stim_exp1,2022-4-25,12:41:20,25,75,3,9,10,40,30,120,555,19,"[""White""]",No,Female,1983959,null,null,,,,fixation,,,,,,,,,,,,,,,,,,,,,,,,,,
,,,,,canvas-keyboard-response,323,432272,0.0-12.0-1.62,2d_cat_multi_stim_exp1,2022-4-25,12:41:20,25,75,3,9,10,40,30,120,555,19,"[""White""]",No,Female,1983959,null,null,,,,clear_screen,,,,,,,,,,,,,,,,,,,,,,,,,,
,,,,,canvas-keyboard-response,324,433257,0.0-12.0-2.62,2d_cat_multi_stim_exp1,2022-4-25,12:41:20,25,75,3,9,10,40,30,120,555,19,"[""White""]",No,Female,1983959,974,u,learn,,,learn_trial,25,75,in,1,1,,,,,,,,,,,,,,,,,,,,,
,,,,,canvas-keyboard-response,325,433769,0.0-12.0-3.62,2d_cat_multi_stim_exp1,2022-4-25,12:41:20,25,75,3,9,10,40,30,120,555,19,"[""White""]",No,Female,1983959,null,null,learn_feedback,,,learn_feedback,25,75,in,,,,,,,,,,,,,,,,,,,,,,,
,,,,,canvas-keyboard-response,326,433828,0.0-12.0-4.62,2d_cat_multi_stim_exp1,2022-4-25,12:41:20,25,75,3,9,10,40,30,120,555,19,"[""White""]",No,Female,1983959,null,null,,,,clear_screen,,,,,,,,,,,,,,,,,,,,,,,,,,
,,,,,canvas-keyboard-response,327,434338,0.0-12.0-0.63,2d_cat_multi_stim_exp1,2022-4-25,12:41:20,25,75,3,9,10,40,30,120,555,19,"[""White""]",No,Female,1983959,null,null,,,,fixation,,,,,,,,,,,,,,,,,,,,,,,,,,
,,,,,canvas-keyboard-response,328,434847,0.0-12.0-1.63,2d_cat_multi_stim_exp1,2022-4-25,12:41:20,25,75,3,9,10,40,30,120,555,19,"[""White""]",No,Female,1983959,null,null,,,,clear_screen,,,,,,,,,,,,,,,,,,,,,,,,,,
,,,,,canvas-keyboard-response,329,435752,0.0-12.0-2.63,2d_cat_multi_stim_exp1,2022-4-25,12:41:20,25,75,3,9,10,40,30,120,555,19,"[""White""]",No,Female,1983959,896,i,learn,,,learn_trial,23.3333,110,out,0,1,,,,,,,,,,,,,,,,,,,,,
,,,,,canvas-keyboard-response,330,436258,0.0-12.0-3.63,2d_cat_multi_stim_exp1,2022-4-25,12:41:20,25,75,3,9,10,40,30,120,555,19,"[""White""]",No,Female,1983959,null,null,learn_feedback,,,learn_feedback,23.3333,110,out,,,,,,,,,,,,,,,,,,,,,,,
,,,,,canvas-keyboard-response,331,436322,0.0-12.0-4.63,2d_cat_multi_stim_exp1,2022-4-25,12:41:20,25,75,3,9,10,40,30,120,555,19,"[""White""]",No,Female,1983959,null,null,,,,clear_screen,,,,,,,,,,,,,,,,,,,,,,,,,,
,,,,,canvas-keyboard-response,332,436832,0.0-12.0-0.64,2d_cat_multi_stim_exp1,2022-4-25,12:41:20,25,75,3,9,10,40,30,120,555,19,"[""White""]",No,Female,1983959,null,null,,,,fixation,,,,,,,,,,,,,,,,,,,,,,,,,,
,,,,,canvas-keyboard-response,333,437343,0.0-12.0-1.64,2d_cat_multi_stim_exp1,2022-4-25,12:41:20,25,75,3,9,10,40,30,120,555,19,"[""White""]",No,Female,1983959,null,null,,,,clear_screen,,,,,,,,,,,,,,,,,,,,,,,,,,
,,,,,canvas-keyboard-response,334,439433,0.0-12.0-2.64,2d_cat_multi_stim_exp1,2022-4-25,12:41:20,25,75,3,9,10,40,30,120,555,19,"[""White""]",No,Female,1983959,2082,i,learn,,,learn_trial,27.2592,69.0786,in,0,0,,,,,,,,,,,,,,,,,,,,,
,,,,,canvas-keyboard-response,335,440444,0.0-12.0-3.64,2d_cat_multi_stim_exp1,2022-4-25,12:41:20,25,75,3,9,10,40,30,120,555,19,"[""White""]",No,Female,1983959,null,null,learn_feedback,,,learn_feedback,27.2592,69.0786,in,,,,,,,,,,,,,,,,,,,,,,,
,,,,,canvas-keyboard-response,336,440504,0.0-12.0-4.64,2d_cat_multi_stim_exp1,2022-4-25,12:41:20,25,75,3,9,10,40,30,120,555,19,"[""White""]",No,Female,1983959,null,null,,,,clear_screen,,,,,,,,,,,,,,,,,,,,,,,,,,
,,,,,canvas-keyboard-response,337,441012,0.0-12.0-0.65,2d_cat_multi_stim_exp1,2022-4-25,12:41:20,25,75,3,9,10,40,30,120,555,19,"[""White""]",No,Female,1983959,null,null,,,,fixation,,,,,,,,,,,,,,,,,,,,,,,,,,
,,,,,canvas-keyboard-response,338,441525,0.0-12.0-1.65,2d_cat_multi_stim_exp1,2022-4-25,12:41:20,25,75,3,9,10,40,30,120,555,19,"[""White""]",No,Female,1983959,null,null,,,,clear_screen,,,,,,,,,,,,,,,,,,,,,,,,,,
,,,,,canvas-keyboard-response,339,442257,0.0-12.0-2.65,2d_cat_multi_stim_exp1,2022-4-25,12:41:20,25,75,3,9,10,40,30,120,555,19,"[""White""]",No,Female,1983959,720,u,learn,,,learn_trial,25,75,in,1,1,,,,,,,,,,,,,,,,,,,,,
,,,,,canvas-keyboard-response,340,442769,0.0-12.0-3.65,2d_cat_multi_stim_exp1,2022-4-25,12:41:20,25,75,3,9,10,40,30,120,555,19,"[""White""]",No,Female,1983959,null,null,learn_feedback,,,learn_feedback,25,75,in,,,,,,,,,,,,,,,,,,,,,,,
,,,,,canvas-keyboard-response,341,442829,0.0-12.0-4.65,2d_cat_multi_stim_exp1,2022-4-25,12:41:20,25,75,3,9,10,40,30,120,555,19,"[""White""]",No,Female,1983959,null,null,,,,clear_screen,,,,,,,,,,,,,,,,,,,,,,,,,,
,,,,,canvas-keyboard-response,342,443337,0.0-12.0-0.66,2d_cat_multi_stim_exp1,2022-4-25,12:41:20,25,75,3,9,10,40,30,120,555,19,"[""White""]",No,Female,1983959,null,null,,,,fixation,,,,,,,,,,,,,,,,,,,,,,,,,,
,,,,,canvas-keyboard-response,343,443847,0.0-12.0-1.66,2d_cat_multi_stim_exp1,2022-4-25,12:41:20,25,75,3,9,10,40,30,120,555,19,"[""White""]",No,Female,1983959,null,null,,,,clear_screen,,,,,,,,,,,,,,,,,,,,,,,,,,
,,,,,canvas-keyboard-response,344,444489,0.0-12.0-2.66,2d_cat_multi_stim_exp1,2022-4-25,12:41:20,25,75,3,9,10,40,30,120,555,19,"[""White""]",No,Female,1983959,635,u,learn,,,learn_trial,26.4216,82.9254,in,1,1,,,,,,,,,,,,,,,,,,,,,
,,,,,canvas-keyboard-response,345,445002,0.0-12.0-3.66,2d_cat_multi_stim_exp1,2022-4-25,12:41:20,25,75,3,9,10,40,30,120,555,19,"[""White""]",No,Female,1983959,null,null,learn_feedback,,,learn_feedback,26.4216,82.9254,in,,,,,,,,,,,,,,,,,,,,,,,
,,,,,canvas-keyboard-response,346,445063,0.0-12.0-4.66,2d_cat_multi_stim_exp1,2022-4-25,12:41:20,25,75,3,9,10,40,30,120,555,19,"[""White""]",No,Female,1983959,null,null,,,,clear_screen,,,,,,,,,,,,,,,,,,,,,,,,,,
,,,,,canvas-keyboard-response,347,445572,0.0-12.0-0.67,2d_cat_multi_stim_exp1,2022-4-25,12:41:20,25,75,3,9,10,40,30,120,555,19,"[""White""]",No,Female,1983959,null,null,,,,fixation,,,,,,,,,,,,,,,,,,,,,,,,,,
,,,,,canvas-keyboard-response,348,446083,0.0-12.0-1.67,2d_cat_multi_stim_exp1,2022-4-25,12:41:20,25,75,3,9,10,40,30,120,555,19,"[""White""]",No,Female,1983959,null,null,,,,clear_screen,,,,,,,,,,,,,,,,,,,,,,,,,,
,,,,,canvas-keyboard-response,349,446866,0.0-12.0-2.67,2d_cat_multi_stim_exp1,2022-4-25,12:41:20,25,75,3,9,10,40,30,120,555,19,"[""White""]",No,Female,1983959,773,u,learn,,,learn_trial,25,75,in,1,1,,,,,,,,,,,,,,,,,,,,,
,,,,,canvas-keyboard-response,350,447377,0.0-12.0-3.67,2d_cat_multi_stim_exp1,2022-4-25,12:41:20,25,75,3,9,10,40,30,120,555,19,"[""White""]",No,Female,1983959,null,null,learn_feedback,,,learn_feedback,25,75,in,,,,,,,,,,,,,,,,,,,,,,,
,,,,,canvas-keyboard-response,351,447438,0.0-12.0-4.67,2d_cat_multi_stim_exp1,2022-4-25,12:41:20,25,75,3,9,10,40,30,120,555,19,"[""White""]",No,Female,1983959,null,null,,,,clear_screen,,,,,,,,,,,,,,,,,,,,,,,,,,
,,,,,canvas-keyboard-response,352,447948,0.0-12.0-0.68,2d_cat_multi_stim_exp1,2022-4-25,12:41:20,25,75,3,9,10,40,30,120,555,19,"[""White""]",No,Female,1983959,null,null,,,,fixation,,,,,,,,,,,,,,,,,,,,,,,,,,
,,,,,canvas-keyboard-response,353,448462,0.0-12.0-1.68,2d_cat_multi_stim_exp1,2022-4-25,12:41:20,25,75,3,9,10,40,30,120,555,19,"[""White""]",No,Female,1983959,null,null,,,,clear_screen,,,,,,,,,,,,,,,,,,,,,,,,,,
,,,,,canvas-keyboard-response,354,449346,0.0-12.0-2.68,2d_cat_multi_stim_exp1,2022-4-25,12:41:20,25,75,3,9,10,40,30,120,555,19,"[""White""]",No,Female,1983959,874,i,learn,,,learn_trial,36.6667,30,out,0,1,,,,,,,,,,,,,,,,,,,,,
,,,,,canvas-keyboard-response,355,449857,0.0-12.0-3.68,2d_cat_multi_stim_exp1,2022-4-25,12:41:20,25,75,3,9,10,40,30,120,555,19,"[""White""]",No,Female,1983959,null,null,learn_feedback,,,learn_feedback,36.6667,30,out,,,,,,,,,,,,,,,,,,,,,,,
,,,,,canvas-keyboard-response,356,449920,0.0-12.0-4.68,2d_cat_multi_stim_exp1,2022-4-25,12:41:20,25,75,3,9,10,40,30,120,555,19,"[""White""]",No,Female,1983959,null,null,,,,clear_screen,,,,,,,,,,,,,,,,,,,,,,,,,,
,,,,,canvas-keyboard-response,357,450429,0.0-12.0-0.69,2d_cat_multi_stim_exp1,2022-4-25,12:41:20,25,75,3,9,10,40,30,120,555,19,"[""White""]",No,Female,1983959,null,null,,,,fixation,,,,,,,,,,,,,,,,,,,,,,,,,,
,,,,,canvas-keyboard-response,358,450939,0.0-12.0-1.69,2d_cat_multi_stim_exp1,2022-4-25,12:41:20,25,75,3,9,10,40,30,120,555,19,"[""White""]",No,Female,1983959,null,null,,,,clear_screen,,,,,,,,,,,,,,,,,,,,,,,,,,
,,,,,canvas-keyboard-response,359,452265,0.0-12.0-2.69,2d_cat_multi_stim_exp1,2022-4-25,12:41:20,25,75,3,9,10,40,30,120,555,19,"[""White""]",No,Female,1983959,1316,u,learn,,,learn_trial,27.5753,79.6161,in,1,1,,,,,,,,,,,,,,,,,,,,,
,,,,,canvas-keyboard-response,360,452776,0.0-12.0-3.69,2d_cat_multi_stim_exp1,2022-4-25,12:41:20,25,75,3,9,10,40,30,120,555,19,"[""White""]",No,Female,1983959,null,null,learn_feedback,,,learn_feedback,27.5753,79.6161,in,,,,,,,,,,,,,,,,,,,,,,,
,,,,,canvas-keyboard-response,361,452837,0.0-12.0-4.69,2d_cat_multi_stim_exp1,2022-4-25,12:41:20,25,75,3,9,10,40,30,120,555,19,"[""White""]",No,Female,1983959,null,null,,,,clear_screen,,,,,,,,,,,,,,,,,,,,,,,,,,
,,,,,canvas-keyboard-response,362,453345,0.0-12.0-0.70,2d_cat_multi_stim_exp1,2022-4-25,12:41:20,25,75,3,9,10,40,30,120,555,19,"[""White""]",No,Female,1983959,null,null,,,,fixation,,,,,,,,,,,,,,,,,,,,,,,,,,
,,,,,canvas-keyboard-response,363,453859,0.0-12.0-1.70,2d_cat_multi_stim_exp1,2022-4-25,12:41:20,25,75,3,9,10,40,30,120,555,19,"[""White""]",No,Female,1983959,null,null,,,,clear_screen,,,,,,,,,,,,,,,,,,,,,,,,,,
,,,,,canvas-keyboard-response,364,455650,0.0-12.0-2.70,2d_cat_multi_stim_exp1,2022-4-25,12:41:20,25,75,3,9,10,40,30,120,555,19,"[""White""]",No,Female,1983959,1777,u,learn,,,learn_trial,23.8209,83.2757,in,1,1,,,,,,,,,,,,,,,,,,,,,
,,,,,canvas-keyboard-response,365,456160,0.0-12.0-3.70,2d_cat_multi_stim_exp1,2022-4-25,12:41:20,25,75,3,9,10,40,30,120,555,19,"[""White""]",No,Female,1983959,null,null,learn_feedback,,,learn_feedback,23.8209,83.2757,in,,,,,,,,,,,,,,,,,,,,,,,
,,,,,canvas-keyboard-response,366,456225,0.0-12.0-4.70,2d_cat_multi_stim_exp1,2022-4-25,12:41:20,25,75,3,9,10,40,30,120,555,19,"[""White""]",No,Female,1983959,null,null,,,,clear_screen,,,,,,,,,,,,,,,,,,,,,,,,,,
,,,,,canvas-keyboard-response,367,456734,0.0-12.0-0.71,2d_cat_multi_stim_exp1,2022-4-25,12:41:20,25,75,3,9,10,40,30,120,555,19,"[""White""]",No,Female,1983959,null,null,,,,fixation,,,,,,,,,,,,,,,,,,,,,,,,,,
,,,,,canvas-keyboard-response,368,457249,0.0-12.0-1.71,2d_cat_multi_stim_exp1,2022-4-25,12:41:20,25,75,3,9,10,40,30,120,555,19,"[""White""]",No,Female,1983959,null,null,,,,clear_screen,,,,,,,,,,,,,,,,,,,,,,,,,,
,,,,,canvas-keyboard-response,369,458041,0.0-12.0-2.71,2d_cat_multi_stim_exp1,2022-4-25,12:41:20,25,75,3,9,10,40,30,120,555,19,"[""White""]",No,Female,1983959,784,u,learn,,,learn_trial,25,75,in,1,1,,,,,,,,,,,,,,,,,,,,,
,,,,,canvas-keyboard-response,370,458552,0.0-12.0-3.71,2d_cat_multi_stim_exp1,2022-4-25,12:41:20,25,75,3,9,10,40,30,120,555,19,"[""White""]",No,Female,1983959,null,null,learn_feedback,,,learn_feedback,25,75,in,,,,,,,,,,,,,,,,,,,,,,,
,,,,,canvas-keyboard-response,371,458614,0.0-12.0-4.71,2d_cat_multi_stim_exp1,2022-4-25,12:41:20,25,75,3,9,10,40,30,120,555,19,"[""White""]",No,Female,1983959,null,null,,,,clear_screen,,,,,,,,,,,,,,,,,,,,,,,,,,
,,,,,canvas-keyboard-response,372,459124,0.0-12.0-0.72,2d_cat_multi_stim_exp1,2022-4-25,12:41:20,25,75,3,9,10,40,30,120,555,19,"[""White""]",No,Female,1983959,null,null,,,,fixation,,,,,,,,,,,,,,,,,,,,,,,,,,
,,,,,canvas-keyboard-response,373,459641,0.0-12.0-1.72,2d_cat_multi_stim_exp1,2022-4-25,12:41:20,25,75,3,9,10,40,30,120,555,19,"[""White""]",No,Female,1983959,null,null,,,,clear_screen,,,,,,,,,,,,,,,,,,,,,,,,,,
,,,,,canvas-keyboard-response,374,461650,0.0-12.0-2.72,2d_cat_multi_stim_exp1,2022-4-25,12:41:20,25,75,3,9,10,40,30,120,555,19,"[""White""]",No,Female,1983959,1999,i,learn,,,learn_trial,36.6667,120,out,0,1,,,,,,,,,,,,,,,,,,,,,
,,,,,canvas-keyboard-response,375,462158,0.0-12.0-3.72,2d_cat_multi_stim_exp1,2022-4-25,12:41:20,25,75,3,9,10,40,30,120,555,19,"[""White""]",No,Female,1983959,null,null,learn_feedback,,,learn_feedback,36.6667,120,out,,,,,,,,,,,,,,,,,,,,,,,
,,,,,canvas-keyboard-response,376,462223,0.0-12.0-4.72,2d_cat_multi_stim_exp1,2022-4-25,12:41:20,25,75,3,9,10,40,30,120,555,19,"[""White""]",No,Female,1983959,null,null,,,,clear_screen,,,,,,,,,,,,,,,,,,,,,,,,,,
,,,,,canvas-keyboard-response,377,462732,0.0-12.0-0.73,2d_cat_multi_stim_exp1,2022-4-25,12:41:20,25,75,3,9,10,40,30,120,555,19,"[""White""]",No,Female,1983959,null,null,,,,fixation,,,,,,,,,,,,,,,,,,,,,,,,,,
,,,,,canvas-keyboard-response,378,463243,0.0-12.0-1.73,2d_cat_multi_stim_exp1,2022-4-25,12:41:20,25,75,3,9,10,40,30,120,555,19,"[""White""]",No,Female,1983959,null,null,,,,clear_screen,,,,,,,,,,,,,,,,,,,,,,,,,,
,,,,,canvas-keyboard-response,379,465185,0.0-12.0-2.73,2d_cat_multi_stim_exp1,2022-4-25,12:41:20,25,75,3,9,10,40,30,120,555,19,"[""White""]",No,Female,1983959,1931,i,learn,,,learn_trial,10,60,out,0,1,,,,,,,,,,,,,,,,,,,,,
,,,,,canvas-keyboard-response,380,465694,0.0-12.0-3.73,2d_cat_multi_stim_exp1,2022-4-25,12:41:20,25,75,3,9,10,40,30,120,555,19,"[""White""]",No,Female,1983959,null,null,learn_feedback,,,learn_feedback,10,60,out,,,,,,,,,,,,,,,,,,,,,,,
,,,,,canvas-keyboard-response,381,465755,0.0-12.0-4.73,2d_cat_multi_stim_exp1,2022-4-25,12:41:20,25,75,3,9,10,40,30,120,555,19,"[""White""]",No,Female,1983959,null,null,,,,clear_screen,,,,,,,,,,,,,,,,,,,,,,,,,,
,,,,,canvas-keyboard-response,382,466260,0.0-12.0-0.74,2d_cat_multi_stim_exp1,2022-4-25,12:41:20,25,75,3,9,10,40,30,120,555,19,"[""White""]",No,Female,1983959,null,null,,,,fixation,,,,,,,,,,,,,,,,,,,,,,,,,,
,,,,,canvas-keyboard-response,383,466774,0.0-12.0-1.74,2d_cat_multi_stim_exp1,2022-4-25,12:41:20,25,75,3,9,10,40,30,120,555,19,"[""White""]",No,Female,1983959,null,null,,,,clear_screen,,,,,,,,,,,,,,,,,,,,,,,,,,
,,,,,canvas-keyboard-response,384,467522,0.0-12.0-2.74,2d_cat_multi_stim_exp1,2022-4-25,12:41:20,25,75,3,9,10,40,30,120,555,19,"[""White""]",No,Female,1983959,738,i,learn,,,learn_trial,36.6667,40,out,0,1,,,,,,,,,,,,,,,,,,,,,
,,,,,canvas-keyboard-response,385,468036,0.0-12.0-3.74,2d_cat_multi_stim_exp1,2022-4-25,12:41:20,25,75,3,9,10,40,30,120,555,19,"[""White""]",No,Female,1983959,null,null,learn_feedback,,,learn_feedback,36.6667,40,out,,,,,,,,,,,,,,,,,,,,,,,
,,,,,canvas-keyboard-response,386,468096,0.0-12.0-4.74,2d_cat_multi_stim_exp1,2022-4-25,12:41:20,25,75,3,9,10,40,30,120,555,19,"[""White""]",No,Female,1983959,null,null,,,,clear_screen,,,,,,,,,,,,,,,,,,,,,,,,,,
,,,,,canvas-keyboard-response,387,468605,0.0-12.0-0.75,2d_cat_multi_stim_exp1,2022-4-25,12:41:20,25,75,3,9,10,40,30,120,555,19,"[""White""]",No,Female,1983959,null,null,,,,fixation,,,,,,,,,,,,,,,,,,,,,,,,,,
,,,,,canvas-keyboard-response,388,469118,0.0-12.0-1.75,2d_cat_multi_stim_exp1,2022-4-25,12:41:20,25,75,3,9,10,40,30,120,555,19,"[""White""]",No,Female,1983959,null,null,,,,clear_screen,,,,,,,,,,,,,,,,,,,,,,,,,,
,,,,,canvas-keyboard-response,389,469816,0.0-12.0-2.75,2d_cat_multi_stim_exp1,2022-4-25,12:41:20,25,75,3,9,10,40,30,120,555,19,"[""White""]",No,Female,1983959,686,i,learn,,,learn_trial,13.3333,110,out,0,1,,,,,,,,,,,,,,,,,,,,,
,,,,,canvas-keyboard-response,390,470323,0.0-12.0-3.75,2d_cat_multi_stim_exp1,2022-4-25,12:41:20,25,75,3,9,10,40,30,120,555,19,"[""White""]",No,Female,1983959,null,null,learn_feedback,,,learn_feedback,13.3333,110,out,,,,,,,,,,,,,,,,,,,,,,,
,,,,,canvas-keyboard-response,391,470387,0.0-12.0-4.75,2d_cat_multi_stim_exp1,2022-4-25,12:41:20,25,75,3,9,10,40,30,120,555,19,"[""White""]",No,Female,1983959,null,null,,,,clear_screen,,,,,,,,,,,,,,,,,,,,,,,,,,
,,,,,canvas-keyboard-response,392,470897,0.0-12.0-0.76,2d_cat_multi_stim_exp1,2022-4-25,12:41:20,25,75,3,9,10,40,30,120,555,19,"[""White""]",No,Female,1983959,null,null,,,,fixation,,,,,,,,,,,,,,,,,,,,,,,,,,
,,,,,canvas-keyboard-response,393,471408,0.0-12.0-1.76,2d_cat_multi_stim_exp1,2022-4-25,12:41:20,25,75,3,9,10,40,30,120,555,19,"[""White""]",No,Female,1983959,null,null,,,,clear_screen,,,,,,,,,,,,,,,,,,,,,,,,,,
,,,,,canvas-keyboard-response,394,472001,0.0-12.0-2.76,2d_cat_multi_stim_exp1,2022-4-25,12:41:20,25,75,3,9,10,40,30,120,555,19,"[""White""]",No,Female,1983959,581,i,learn,,,learn_trial,26.6667,40,out,0,1,,,,,,,,,,,,,,,,,,,,,
,,,,,canvas-keyboard-response,395,472512,0.0-12.0-3.76,2d_cat_multi_stim_exp1,2022-4-25,12:41:20,25,75,3,9,10,40,30,120,555,19,"[""White""]",No,Female,1983959,null,null,learn_feedback,,,learn_feedback,26.6667,40,out,,,,,,,,,,,,,,,,,,,,,,,
,,,,,canvas-keyboard-response,396,472571,0.0-12.0-4.76,2d_cat_multi_stim_exp1,2022-4-25,12:41:20,25,75,3,9,10,40,30,120,555,19,"[""White""]",No,Female,1983959,null,null,,,,clear_screen,,,,,,,,,,,,,,,,,,,,,,,,,,
,,,,,canvas-keyboard-response,397,473080,0.0-12.0-0.77,2d_cat_multi_stim_exp1,2022-4-25,12:41:20,25,75,3,9,10,40,30,120,555,19,"[""White""]",No,Female,1983959,null,null,,,,fixation,,,,,,,,,,,,,,,,,,,,,,,,,,
,,,,,canvas-keyboard-response,398,473591,0.0-12.0-1.77,2d_cat_multi_stim_exp1,2022-4-25,12:41:20,25,75,3,9,10,40,30,120,555,19,"[""White""]",No,Female,1983959,null,null,,,,clear_screen,,,,,,,,,,,,,,,,,,,,,,,,,,
,,,,,canvas-keyboard-response,399,474474,0.0-12.0-2.77,2d_cat_multi_stim_exp1,2022-4-25,12:41:20,25,75,3,9,10,40,30,120,555,19,"[""White""]",No,Female,1983959,872,i,learn,,,learn_trial,36.6667,110,out,0,1,,,,,,,,,,,,,,,,,,,,,
,,,,,canvas-keyboard-response,400,474985,0.0-12.0-3.77,2d_cat_multi_stim_exp1,2022-4-25,12:41:20,25,75,3,9,10,40,30,120,555,19,"[""White""]",No,Female,1983959,null,null,learn_feedback,,,learn_feedback,36.6667,110,out,,,,,,,,,,,,,,,,,,,,,,,
,,,,,canvas-keyboard-response,401,475047,0.0-12.0-4.77,2d_cat_multi_stim_exp1,2022-4-25,12:41:20,25,75,3,9,10,40,30,120,555,19,"[""White""]",No,Female,1983959,null,null,,,,clear_screen,,,,,,,,,,,,,,,,,,,,,,,,,,
,,,,,canvas-keyboard-response,402,475560,0.0-12.0-0.78,2d_cat_multi_stim_exp1,2022-4-25,12:41:20,25,75,3,9,10,40,30,120,555,19,"[""White""]",No,Female,1983959,null,null,,,,fixation,,,,,,,,,,,,,,,,,,,,,,,,,,
,,,,,canvas-keyboard-response,403,476073,0.0-12.0-1.78,2d_cat_multi_stim_exp1,2022-4-25,12:41:20,25,75,3,9,10,40,30,120,555,19,"[""White""]",No,Female,1983959,null,null,,,,clear_screen,,,,,,,,,,,,,,,,,,,,,,,,,,
,,,,,canvas-keyboard-response,404,476825,0.0-12.0-2.78,2d_cat_multi_stim_exp1,2022-4-25,12:41:20,25,75,3,9,10,40,30,120,555,19,"[""White""]",No,Female,1983959,742,i,learn,,,learn_trial,23.3333,120,out,0,1,,,,,,,,,,,,,,,,,,,,,
,,,,,canvas-keyboard-response,405,477334,0.0-12.0-3.78,2d_cat_multi_stim_exp1,2022-4-25,12:41:20,25,75,3,9,10,40,30,120,555,19,"[""White""]",No,Female,1983959,null,null,learn_feedback,,,learn_feedback,23.3333,120,out,,,,,,,,,,,,,,,,,,,,,,,
,,,,,canvas-keyboard-response,406,477396,0.0-12.0-4.78,2d_cat_multi_stim_exp1,2022-4-25,12:41:20,25,75,3,9,10,40,30,120,555,19,"[""White""]",No,Female,1983959,null,null,,,,clear_screen,,,,,,,,,,,,,,,,,,,,,,,,,,
,,,,,canvas-keyboard-response,407,477900,0.0-12.0-0.79,2d_cat_multi_stim_exp1,2022-4-25,12:41:20,25,75,3,9,10,40,30,120,555,19,"[""White""]",No,Female,1983959,null,null,,,,fixation,,,,,,,,,,,,,,,,,,,,,,,,,,
,,,,,canvas-keyboard-response,408,478414,0.0-12.0-1.79,2d_cat_multi_stim_exp1,2022-4-25,12:41:20,25,75,3,9,10,40,30,120,555,19,"[""White""]",No,Female,1983959,null,null,,,,clear_screen,,,,,,,,,,,,,,,,,,,,,,,,,,
,,,,,canvas-keyboard-response,409,481146,0.0-12.0-2.79,2d_cat_multi_stim_exp1,2022-4-25,12:41:20,25,75,3,9,10,40,30,120,555,19,"[""White""]",No,Female,1983959,2724,u,learn,,,learn_trial,25.4027,66.0815,in,1,1,,,,,,,,,,,,,,,,,,,,,
,,,,,canvas-keyboard-response,410,481655,0.0-12.0-3.79,2d_cat_multi_stim_exp1,2022-4-25,12:41:20,25,75,3,9,10,40,30,120,555,19,"[""White""]",No,Female,1983959,null,null,learn_feedback,,,learn_feedback,25.4027,66.0815,in,,,,,,,,,,,,,,,,,,,,,,,
,,,,,canvas-keyboard-response,411,481718,0.0-12.0-4.79,2d_cat_multi_stim_exp1,2022-4-25,12:41:20,25,75,3,9,10,40,30,120,555,19,"[""White""]",No,Female,1983959,null,null,,,,clear_screen,,,,,,,,,,,,,,,,,,,,,,,,,,
,,,,,canvas-keyboard-response,412,482227,0.0-12.0-0.80,2d_cat_multi_stim_exp1,2022-4-25,12:41:20,25,75,3,9,10,40,30,120,555,19,"[""White""]",No,Female,1983959,null,null,,,,fixation,,,,,,,,,,,,,,,,,,,,,,,,,,
,,,,,canvas-keyboard-response,413,482741,0.0-12.0-1.80,2d_cat_multi_stim_exp1,2022-4-25,12:41:20,25,75,3,9,10,40,30,120,555,19,"[""White""]",No,Female,1983959,null,null,,,,clear_screen,,,,,,,,,,,,,,,,,,,,,,,,,,
,,,,,canvas-keyboard-response,414,483530,0.0-12.0-2.80,2d_cat_multi_stim_exp1,2022-4-25,12:41:20,25,75,3,9,10,40,30,120,555,19,"[""White""]",No,Female,1983959,778,u,learn,,,learn_trial,25,75,in,1,1,,,,,,,,,,,,,,,,,,,,,
,,,,,canvas-keyboard-response,415,484040,0.0-12.0-3.80,2d_cat_multi_stim_exp1,2022-4-25,12:41:20,25,75,3,9,10,40,30,120,555,19,"[""White""]",No,Female,1983959,null,null,learn_feedback,,,learn_feedback,25,75,in,,,,,,,,,,,,,,,,,,,,,,,
,,,,,canvas-keyboard-response,416,484102,0.0-12.0-4.80,2d_cat_multi_stim_exp1,2022-4-25,12:41:20,25,75,3,9,10,40,30,120,555,19,"[""White""]",No,Female,1983959,null,null,,,,clear_screen,,,,,,,,,,,,,,,,,,,,,,,,,,
,,,,,canvas-keyboard-response,417,484612,0.0-12.0-0.81,2d_cat_multi_stim_exp1,2022-4-25,12:41:20,25,75,3,9,10,40,30,120,555,19,"[""White""]",No,Female,1983959,null,null,,,,fixation,,,,,,,,,,,,,,,,,,,,,,,,,,
,,,,,canvas-keyboard-response,418,485130,0.0-12.0-1.81,2d_cat_multi_stim_exp1,2022-4-25,12:41:20,25,75,3,9,10,40,30,120,555,19,"[""White""]",No,Female,1983959,null,null,,,,clear_screen,,,,,,,,,,,,,,,,,,,,,,,,,,
,,,,,canvas-keyboard-response,419,485658,0.0-12.0-2.81,2d_cat_multi_stim_exp1,2022-4-25,12:41:20,25,75,3,9,10,40,30,120,555,19,"[""White""]",No,Female,1983959,514,u,learn,,,learn_trial,26.6667,80,out,1,0,,,,,,,,,,,,,,,,,,,,,
,,,,,canvas-keyboard-response,420,486669,0.0-12.0-3.81,2d_cat_multi_stim_exp1,2022-4-25,12:41:20,25,75,3,9,10,40,30,120,555,19,"[""White""]",No,Female,1983959,null,null,learn_feedback,,,learn_feedback,26.6667,80,out,,,,,,,,,,,,,,,,,,,,,,,
,,,,,canvas-keyboard-response,421,486728,0.0-12.0-4.81,2d_cat_multi_stim_exp1,2022-4-25,12:41:20,25,75,3,9,10,40,30,120,555,19,"[""White""]",No,Female,1983959,null,null,,,,clear_screen,,,,,,,,,,,,,,,,,,,,,,,,,,
,,,,,canvas-keyboard-response,422,487238,0.0-12.0-0.82,2d_cat_multi_stim_exp1,2022-4-25,12:41:20,25,75,3,9,10,40,30,120,555,19,"[""White""]",No,Female,1983959,null,null,,,,fixation,,,,,,,,,,,,,,,,,,,,,,,,,,
,,,,,canvas-keyboard-response,423,487749,0.0-12.0-1.82,2d_cat_multi_stim_exp1,2022-4-25,12:41:20,25,75,3,9,10,40,30,120,555,19,"[""White""]",No,Female,1983959,null,null,,,,clear_screen,,,,,,,,,,,,,,,,,,,,,,,,,,
,,,,,canvas-keyboard-response,424,488433,0.0-12.0-2.82,2d_cat_multi_stim_exp1,2022-4-25,12:41:20,25,75,3,9,10,40,30,120,555,19,"[""White""]",No,Female,1983959,674,u,learn,,,learn_trial,25,75,in,1,1,,,,,,,,,,,,,,,,,,,,,
,,,,,canvas-keyboard-response,425,488942,0.0-12.0-3.82,2d_cat_multi_stim_exp1,2022-4-25,12:41:20,25,75,3,9,10,40,30,120,555,19,"[""White""]",No,Female,1983959,null,null,learn_feedback,,,learn_feedback,25,75,in,,,,,,,,,,,,,,,,,,,,,,,
,,,,,canvas-keyboard-response,426,489000,0.0-12.0-4.82,2d_cat_multi_stim_exp1,2022-4-25,12:41:20,25,75,3,9,10,40,30,120,555,19,"[""White""]",No,Female,1983959,null,null,,,,clear_screen,,,,,,,,,,,,,,,,,,,,,,,,,,
,,,,,canvas-keyboard-response,427,489509,0.0-12.0-0.83,2d_cat_multi_stim_exp1,2022-4-25,12:41:20,25,75,3,9,10,40,30,120,555,19,"[""White""]",No,Female,1983959,null,null,,,,fixation,,,,,,,,,,,,,,,,,,,,,,,,,,
,,,,,canvas-keyboard-response,428,490017,0.0-12.0-1.83,2d_cat_multi_stim_exp1,2022-4-25,12:41:20,25,75,3,9,10,40,30,120,555,19,"[""White""]",No,Female,1983959,null,null,,,,clear_screen,,,,,,,,,,,,,,,,,,,,,,,,,,
,,,,,canvas-keyboard-response,429,490770,0.0-12.0-2.83,2d_cat_multi_stim_exp1,2022-4-25,12:41:20,25,75,3,9,10,40,30,120,555,19,"[""White""]",No,Female,1983959,744,u,learn,,,learn_trial,25,75,in,1,1,,,,,,,,,,,,,,,,,,,,,
,,,,,canvas-keyboard-response,430,491278,0.0-12.0-3.83,2d_cat_multi_stim_exp1,2022-4-25,12:41:20,25,75,3,9,10,40,30,120,555,19,"[""White""]",No,Female,1983959,null,null,learn_feedback,,,learn_feedback,25,75,in,,,,,,,,,,,,,,,,,,,,,,,
,,,,,canvas-keyboard-response,431,491339,0.0-12.0-4.83,2d_cat_multi_stim_exp1,2022-4-25,12:41:20,25,75,3,9,10,40,30,120,555,19,"[""White""]",No,Female,1983959,null,null,,,,clear_screen,,,,,,,,,,,,,,,,,,,,,,,,,,
,,,,,canvas-keyboard-response,432,491848,0.0-12.0-0.84,2d_cat_multi_stim_exp1,2022-4-25,12:41:20,25,75,3,9,10,40,30,120,555,19,"[""White""]",No,Female,1983959,null,null,,,,fixation,,,,,,,,,,,,,,,,,,,,,,,,,,
,,,,,canvas-keyboard-response,433,492364,0.0-12.0-1.84,2d_cat_multi_stim_exp1,2022-4-25,12:41:20,25,75,3,9,10,40,30,120,555,19,"[""White""]",No,Female,1983959,null,null,,,,clear_screen,,,,,,,,,,,,,,,,,,,,,,,,,,
,,,,,canvas-keyboard-response,434,492985,0.0-12.0-2.84,2d_cat_multi_stim_exp1,2022-4-25,12:41:20,25,75,3,9,10,40,30,120,555,19,"[""White""]",No,Female,1983959,612,i,learn,,,learn_trial,40,60,out,0,1,,,,,,,,,,,,,,,,,,,,,
,,,,,canvas-keyboard-response,435,493498,0.0-12.0-3.84,2d_cat_multi_stim_exp1,2022-4-25,12:41:20,25,75,3,9,10,40,30,120,555,19,"[""White""]",No,Female,1983959,null,null,learn_feedback,,,learn_feedback,40,60,out,,,,,,,,,,,,,,,,,,,,,,,
,,,,,canvas-keyboard-response,436,493562,0.0-12.0-4.84,2d_cat_multi_stim_exp1,2022-4-25,12:41:20,25,75,3,9,10,40,30,120,555,19,"[""White""]",No,Female,1983959,null,null,,,,clear_screen,,,,,,,,,,,,,,,,,,,,,,,,,,
,,,,,canvas-keyboard-response,437,494069,0.0-12.0-0.85,2d_cat_multi_stim_exp1,2022-4-25,12:41:20,25,75,3,9,10,40,30,120,555,19,"[""White""]",No,Female,1983959,null,null,,,,fixation,,,,,,,,,,,,,,,,,,,,,,,,,,
,,,,,canvas-keyboard-response,438,494582,0.0-12.0-1.85,2d_cat_multi_stim_exp1,2022-4-25,12:41:20,25,75,3,9,10,40,30,120,555,19,"[""White""]",No,Female,1983959,null,null,,,,clear_screen,,,,,,,,,,,,,,,,,,,,,,,,,,
,,,,,canvas-keyboard-response,439,495330,0.0-12.0-2.85,2d_cat_multi_stim_exp1,2022-4-25,12:41:20,25,75,3,9,10,40,30,120,555,19,"[""White""]",No,Female,1983959,740,u,learn,,,learn_trial,25,75,in,1,1,,,,,,,,,,,,,,,,,,,,,
,,,,,canvas-keyboard-response,440,495841,0.0-12.0-3.85,2d_cat_multi_stim_exp1,2022-4-25,12:41:20,25,75,3,9,10,40,30,120,555,19,"[""White""]",No,Female,1983959,null,null,learn_feedback,,,learn_feedback,25,75,in,,,,,,,,,,,,,,,,,,,,,,,
,,,,,canvas-keyboard-response,441,495902,0.0-12.0-4.85,2d_cat_multi_stim_exp1,2022-4-25,12:41:20,25,75,3,9,10,40,30,120,555,19,"[""White""]",No,Female,1983959,null,null,,,,clear_screen,,,,,,,,,,,,,,,,,,,,,,,,,,
,,,,,canvas-keyboard-response,442,496411,0.0-12.0-0.86,2d_cat_multi_stim_exp1,2022-4-25,12:41:20,25,75,3,9,10,40,30,120,555,19,"[""White""]",No,Female,1983959,null,null,,,,fixation,,,,,,,,,,,,,,,,,,,,,,,,,,
,,,,,canvas-keyboard-response,443,496916,0.0-12.0-1.86,2d_cat_multi_stim_exp1,2022-4-25,12:41:20,25,75,3,9,10,40,30,120,555,19,"[""White""]",No,Female,1983959,null,null,,,,clear_screen,,,,,,,,,,,,,,,,,,,,,,,,,,
,,,,,canvas-keyboard-response,444,498017,0.0-12.0-2.86,2d_cat_multi_stim_exp1,2022-4-25,12:41:20,25,75,3,9,10,40,30,120,555,19,"[""White""]",No,Female,1983959,1091,i,learn,,,learn_trial,23.3333,90,out,0,1,,,,,,,,,,,,,,,,,,,,,
,,,,,canvas-keyboard-response,445,498530,0.0-12.0-3.86,2d_cat_multi_stim_exp1,2022-4-25,12:41:20,25,75,3,9,10,40,30,120,555,19,"[""White""]",No,Female,1983959,null,null,learn_feedback,,,learn_feedback,23.3333,90,out,,,,,,,,,,,,,,,,,,,,,,,
,,,,,canvas-keyboard-response,446,498593,0.0-12.0-4.86,2d_cat_multi_stim_exp1,2022-4-25,12:41:20,25,75,3,9,10,40,30,120,555,19,"[""White""]",No,Female,1983959,null,null,,,,clear_screen,,,,,,,,,,,,,,,,,,,,,,,,,,
,,,,,canvas-keyboard-response,447,499104,0.0-12.0-0.87,2d_cat_multi_stim_exp1,2022-4-25,12:41:20,25,75,3,9,10,40,30,120,555,19,"[""White""]",No,Female,1983959,null,null,,,,fixation,,,,,,,,,,,,,,,,,,,,,,,,,,
,,,,,canvas-keyboard-response,448,499613,0.0-12.0-1.87,2d_cat_multi_stim_exp1,2022-4-25,12:41:20,25,75,3,9,10,40,30,120,555,19,"[""White""]",No,Female,1983959,null,null,,,,clear_screen,,,,,,,,,,,,,,,,,,,,,,,,,,
,,,,,canvas-keyboard-response,449,500529,0.0-12.0-2.87,2d_cat_multi_stim_exp1,2022-4-25,12:41:20,25,75,3,9,10,40,30,120,555,19,"[""White""]",No,Female,1983959,902,u,learn,,,learn_trial,25,75,in,1,1,,,,,,,,,,,,,,,,,,,,,
,,,,,canvas-keyboard-response,450,501038,0.0-12.0-3.87,2d_cat_multi_stim_exp1,2022-4-25,12:41:20,25,75,3,9,10,40,30,120,555,19,"[""White""]",No,Female,1983959,null,null,learn_feedback,,,learn_feedback,25,75,in,,,,,,,,,,,,,,,,,,,,,,,
,,,,,canvas-keyboard-response,451,501097,0.0-12.0-4.87,2d_cat_multi_stim_exp1,2022-4-25,12:41:20,25,75,3,9,10,40,30,120,555,19,"[""White""]",No,Female,1983959,null,null,,,,clear_screen,,,,,,,,,,,,,,,,,,,,,,,,,,
,,,,,canvas-keyboard-response,452,501609,0.0-12.0-0.88,2d_cat_multi_stim_exp1,2022-4-25,12:41:20,25,75,3,9,10,40,30,120,555,19,"[""White""]",No,Female,1983959,null,null,,,,fixation,,,,,,,,,,,,,,,,,,,,,,,,,,
