"success","timeout","failed_images","failed_audio","failed_video","trial_type","trial_index","time_elapsed","internal_node_id","exp_name","date","time","angle_mean_in","radius_mean_in","angle_sd_in","radius_sd_in","angle_min_out","angle_max_out","radius_min_out","radius_max_out","sub_n","age","race","ethnicity","gender","exp_duration","rt","response","exp_trial_type","stimulus","view_history","screen_id","angle","radius","distribution","choice","correct","order","angle_a","radius_a","angle_b","radius_b","jkl_correct","transfer_trial_type","choice_set","abc_correct","tc_correct","tc_angle","tdc_a","tdc_b","tdc_c","pair","category_a","category_b","category_c","angle_c","radius_c","question_order"
"true","false","[]","[]","[]","preload","0","29","0.0-0.0","2d_cat_multi_stim_exp1","2022-5-3","16:3:33","25","75","3","9","10","40","30","120","85","21","[""Asian"",""White""]","No","Male","2938846","","","","","","","","","","","","","","","","","","","","","","","","","","","","","","","",""
"","","","","","survey-html-form","1","1602","0.0-1.0","2d_cat_multi_stim_exp1","2022-5-3","16:3:33","25","75","3","9","10","40","30","120","85","21","[""Asian"",""White""]","No","Male","2938846","1556","{""response"":""85""}","enter-sub-number","","","","","","","","","","","","","","","","","","","","","","","","","","","","",""
"true","","","","","fullscreen","2","3251","0.0-2.0","2d_cat_multi_stim_exp1","2022-5-3","16:3:33","25","75","3","9","10","40","30","120","85","21","[""Asian"",""White""]","No","Male","2938846","","","","","","","","","","","","","","","","","","","","","","","","","","","","","","","",""
"","","","","","image-button-response","3","718912","0.0-3.0","2d_cat_multi_stim_exp1","2022-5-3","16:3:33","25","75","3","9","10","40","30","120","85","21","[""Asian"",""White""]","No","Male","2938846","715653","0","","consent.png","","","","","","","","","","","","","","","","","","","","","","","","","","","",""
"","","","","","html-button-response","4","723039","0.0-4.0","2d_cat_multi_stim_exp1","2022-5-3","16:3:33","25","75","3","9","10","40","30","120","85","21","[""Asian"",""White""]","No","Male","2938846","4123","0","","<div style= ""font-size:25px;"" <p> <strong> Welcome to the experiment! </strong><br> <p style=""color:#8B0000; font-size:25px;""><strong> Please do NOT exit full screen until you are done with the experiment. </strong> </p><p style=""font-size:25px;color:#8B0000;""> <strong> The experiment will be canceled and your data will be lost <br> if you try to go back or refresh the page at any point during the experiment.</strong> </p><br><p> <strong> Thanks in advance for your contribution to our research! </strong></p>","","","","","","","","","","","","","","","","","","","","","","","","","","","",""
"","","","","","instructions","5","771855","0.0-5.0","2d_cat_multi_stim_exp1","2022-5-3","16:3:33","25","75","3","9","10","40","30","120","85","21","[""Asian"",""White""]","No","Male","2938846","48810","","","","[{""page_index"":0,""viewing_time"":4747},{""page_index"":1,""viewing_time"":2647},{""page_index"":2,""viewing_time"":27360},{""page_index"":3,""viewing_time"":14056}]","instructions_1","","","","","","","","","","","","","","","","","","","","","","","","","",""
"","","","","","instructions","6","772991","0.0-6.0","2d_cat_multi_stim_exp1","2022-5-3","16:3:33","25","75","3","9","10","40","30","120","85","21","[""Asian"",""White""]","No","Male","2938846","1133","","","","[{""page_index"":0,""viewing_time"":1133}]","Click to see the kinds of turtles that will appear in the study.","","","","","","","","","","","","","","","","","","","","","","","","","",""
"","","","","","canvas-keyboard-response","7","788017","0.0-7.0","2d_cat_multi_stim_exp1","2022-5-3","16:3:33","25","75","3","9","10","40","30","120","85","21","[""Asian"",""White""]","No","Male","2938846","null","null","","","","demo_range","","","","","","","","","","","","","","","","","","","","","","","","","",""
"","","","","","instructions","8","790358","0.0-8.0","2d_cat_multi_stim_exp1","2022-5-3","16:3:33","25","75","3","9","10","40","30","120","85","21","[""Asian"",""White""]","No","Male","2938846","1841","","","","[{""page_index"":0,""viewing_time"":1840}]","Click to see some turtles in the subspecies.","","","","","","","","","","","","","","","","","","","","","","","","","",""
"","","","","","canvas-keyboard-response","9","805377","0.0-9.0","2d_cat_multi_stim_exp1","2022-5-3","16:3:33","25","75","3","9","10","40","30","120","85","21","[""Asian"",""White""]","No","Male","2938846","null","null","","","","demo_in","","","","","","","","","","","","","","","","","","","","","","","","","",""
"","","","","","instructions","10","838566","0.0-10.0","2d_cat_multi_stim_exp1","2022-5-3","16:3:33","25","75","3","9","10","40","30","120","85","21","[""Asian"",""White""]","No","Male","2938846","32687","","","","[{""page_index"":0,""viewing_time"":4279},{""page_index"":1,""viewing_time"":22488},{""page_index"":2,""viewing_time"":1120},{""page_index"":1,""viewing_time"":1191},{""page_index"":2,""viewing_time"":3608}]","instructions_2","","","","","","","","","","","","","","","","","","","","","","","","","",""
"","","","","","instructions","11","839822","0.0-11.0","2d_cat_multi_stim_exp1","2022-5-3","16:3:33","25","75","3","9","10","40","30","120","85","21","[""Asian"",""White""]","No","Male","2938846","1253","","","","[{""page_index"":0,""viewing_time"":1253}]","Click to begin the first phase of the experiment.","","","","","","","","","","","","","","","","","","","","","","","","","",""
"","","","","","canvas-keyboard-response","12","840332","0.0-12.0-0.0","2d_cat_multi_stim_exp1","2022-5-3","16:3:33","25","75","3","9","10","40","30","120","85","21","[""Asian"",""White""]","No","Male","2938846","null","null","","","","fixation","","","","","","","","","","","","","","","","","","","","","","","","","",""
"","","","","","canvas-keyboard-response","13","840842","0.0-12.0-1.0","2d_cat_multi_stim_exp1","2022-5-3","16:3:33","25","75","3","9","10","40","30","120","85","21","[""Asian"",""White""]","No","Male","2938846","null","null","","","","clear_screen","","","","","","","","","","","","","","","","","","","","","","","","","",""
"","","","","","canvas-keyboard-response","14","844852","0.0-12.0-2.0","2d_cat_multi_stim_exp1","2022-5-3","16:3:33","25","75","3","9","10","40","30","120","85","21","[""Asian"",""White""]","No","Male","2938846","3998","u","learn","","","learn_trial","23.3473","82.5112","in","1","1","","","","","","","","","","","","","","","","","","","","",""
"","","","","","canvas-keyboard-response","15","845367","0.0-12.0-3.0","2d_cat_multi_stim_exp1","2022-5-3","16:3:33","25","75","3","9","10","40","30","120","85","21","[""Asian"",""White""]","No","Male","2938846","null","null","learn_feedback","","","learn_feedback","23.3473","82.5112","in","","","","","","","","","","","","","","","","","","","","","","",""
"","","","","","canvas-keyboard-response","16","845426","0.0-12.0-4.0","2d_cat_multi_stim_exp1","2022-5-3","16:3:33","25","75","3","9","10","40","30","120","85","21","[""Asian"",""White""]","No","Male","2938846","null","null","","","","clear_screen","","","","","","","","","","","","","","","","","","","","","","","","","",""
"","","","","","canvas-keyboard-response","17","845937","0.0-12.0-0.1","2d_cat_multi_stim_exp1","2022-5-3","16:3:33","25","75","3","9","10","40","30","120","85","21","[""Asian"",""White""]","No","Male","2938846","null","null","","","","fixation","","","","","","","","","","","","","","","","","","","","","","","","","",""
"","","","","","canvas-keyboard-response","18","846448","0.0-12.0-1.1","2d_cat_multi_stim_exp1","2022-5-3","16:3:33","25","75","3","9","10","40","30","120","85","21","[""Asian"",""White""]","No","Male","2938846","null","null","","","","clear_screen","","","","","","","","","","","","","","","","","","","","","","","","","",""
"","","","","","canvas-keyboard-response","19","849276","0.0-12.0-2.1","2d_cat_multi_stim_exp1","2022-5-3","16:3:33","25","75","3","9","10","40","30","120","85","21","[""Asian"",""White""]","No","Male","2938846","2817","i","learn","","","learn_trial","26.8705","82.0365","in","0","0","","","","","","","","","","","","","","","","","","","","",""
"","","","","","canvas-keyboard-response","20","850287","0.0-12.0-3.1","2d_cat_multi_stim_exp1","2022-5-3","16:3:33","25","75","3","9","10","40","30","120","85","21","[""Asian"",""White""]","No","Male","2938846","null","null","learn_feedback","","","learn_feedback","26.8705","82.0365","in","","","","","","","","","","","","","","","","","","","","","","",""
"","","","","","canvas-keyboard-response","21","850347","0.0-12.0-4.1","2d_cat_multi_stim_exp1","2022-5-3","16:3:33","25","75","3","9","10","40","30","120","85","21","[""Asian"",""White""]","No","Male","2938846","null","null","","","","clear_screen","","","","","","","","","","","","","","","","","","","","","","","","","",""
"","","","","","canvas-keyboard-response","22","850856","0.0-12.0-0.2","2d_cat_multi_stim_exp1","2022-5-3","16:3:33","25","75","3","9","10","40","30","120","85","21","[""Asian"",""White""]","No","Male","2938846","null","null","","","","fixation","","","","","","","","","","","","","","","","","","","","","","","","","",""
"","","","","","canvas-keyboard-response","23","851366","0.0-12.0-1.2","2d_cat_multi_stim_exp1","2022-5-3","16:3:33","25","75","3","9","10","40","30","120","85","21","[""Asian"",""White""]","No","Male","2938846","null","null","","","","clear_screen","","","","","","","","","","","","","","","","","","","","","","","","","",""
"","","","","","canvas-keyboard-response","24","852236","0.0-12.0-2.2","2d_cat_multi_stim_exp1","2022-5-3","16:3:33","25","75","3","9","10","40","30","120","85","21","[""Asian"",""White""]","No","Male","2938846","859","u","learn","","","learn_trial","30","120","out","1","0","","","","","","","","","","","","","","","","","","","","",""
"","","","","","canvas-keyboard-response","25","853247","0.0-12.0-3.2","2d_cat_multi_stim_exp1","2022-5-3","16:3:33","25","75","3","9","10","40","30","120","85","21","[""Asian"",""White""]","No","Male","2938846","null","null","learn_feedback","","","learn_feedback","30","120","out","","","","","","","","","","","","","","","","","","","","","","",""
"","","","","","canvas-keyboard-response","26","853307","0.0-12.0-4.2","2d_cat_multi_stim_exp1","2022-5-3","16:3:33","25","75","3","9","10","40","30","120","85","21","[""Asian"",""White""]","No","Male","2938846","null","null","","","","clear_screen","","","","","","","","","","","","","","","","","","","","","","","","","",""
"","","","","","canvas-keyboard-response","27","853816","0.0-12.0-0.3","2d_cat_multi_stim_exp1","2022-5-3","16:3:33","25","75","3","9","10","40","30","120","85","21","[""Asian"",""White""]","No","Male","2938846","null","null","","","","fixation","","","","","","","","","","","","","","","","","","","","","","","","","",""
"","","","","","canvas-keyboard-response","28","854327","0.0-12.0-1.3","2d_cat_multi_stim_exp1","2022-5-3","16:3:33","25","75","3","9","10","40","30","120","85","21","[""Asian"",""White""]","No","Male","2938846","null","null","","","","clear_screen","","","","","","","","","","","","","","","","","","","","","","","","","",""
"","","","","","canvas-keyboard-response","29","855412","0.0-12.0-2.3","2d_cat_multi_stim_exp1","2022-5-3","16:3:33","25","75","3","9","10","40","30","120","85","21","[""Asian"",""White""]","No","Male","2938846","1077","u","learn","","","learn_trial","20","80","out","1","0","","","","","","","","","","","","","","","","","","","","",""
"","","","","","canvas-keyboard-response","30","856426","0.0-12.0-3.3","2d_cat_multi_stim_exp1","2022-5-3","16:3:33","25","75","3","9","10","40","30","120","85","21","[""Asian"",""White""]","No","Male","2938846","null","null","learn_feedback","","","learn_feedback","20","80","out","","","","","","","","","","","","","","","","","","","","","","",""
"","","","","","canvas-keyboard-response","31","856485","0.0-12.0-4.3","2d_cat_multi_stim_exp1","2022-5-3","16:3:33","25","75","3","9","10","40","30","120","85","21","[""Asian"",""White""]","No","Male","2938846","null","null","","","","clear_screen","","","","","","","","","","","","","","","","","","","","","","","","","",""
"","","","","","canvas-keyboard-response","32","856996","0.0-12.0-0.4","2d_cat_multi_stim_exp1","2022-5-3","16:3:33","25","75","3","9","10","40","30","120","85","21","[""Asian"",""White""]","No","Male","2938846","null","null","","","","fixation","","","","","","","","","","","","","","","","","","","","","","","","","",""
"","","","","","canvas-keyboard-response","33","857504","0.0-12.0-1.4","2d_cat_multi_stim_exp1","2022-5-3","16:3:33","25","75","3","9","10","40","30","120","85","21","[""Asian"",""White""]","No","Male","2938846","null","null","","","","clear_screen","","","","","","","","","","","","","","","","","","","","","","","","","",""
"","","","","","canvas-keyboard-response","34","860108","0.0-12.0-2.4","2d_cat_multi_stim_exp1","2022-5-3","16:3:33","25","75","3","9","10","40","30","120","85","21","[""Asian"",""White""]","No","Male","2938846","2593","u","learn","","","learn_trial","23.3333","100","out","1","0","","","","","","","","","","","","","","","","","","","","",""
"","","","","","canvas-keyboard-response","35","861117","0.0-12.0-3.4","2d_cat_multi_stim_exp1","2022-5-3","16:3:33","25","75","3","9","10","40","30","120","85","21","[""Asian"",""White""]","No","Male","2938846","null","null","learn_feedback","","","learn_feedback","23.3333","100","out","","","","","","","","","","","","","","","","","","","","","","",""
"","","","","","canvas-keyboard-response","36","861176","0.0-12.0-4.4","2d_cat_multi_stim_exp1","2022-5-3","16:3:33","25","75","3","9","10","40","30","120","85","21","[""Asian"",""White""]","No","Male","2938846","null","null","","","","clear_screen","","","","","","","","","","","","","","","","","","","","","","","","","",""
"","","","","","canvas-keyboard-response","37","861685","0.0-12.0-0.5","2d_cat_multi_stim_exp1","2022-5-3","16:3:33","25","75","3","9","10","40","30","120","85","21","[""Asian"",""White""]","No","Male","2938846","null","null","","","","fixation","","","","","","","","","","","","","","","","","","","","","","","","","",""
"","","","","","canvas-keyboard-response","38","862195","0.0-12.0-1.5","2d_cat_multi_stim_exp1","2022-5-3","16:3:33","25","75","3","9","10","40","30","120","85","21","[""Asian"",""White""]","No","Male","2938846","null","null","","","","clear_screen","","","","","","","","","","","","","","","","","","","","","","","","","",""
"","","","","","canvas-keyboard-response","39","864676","0.0-12.0-2.5","2d_cat_multi_stim_exp1","2022-5-3","16:3:33","25","75","3","9","10","40","30","120","85","21","[""Asian"",""White""]","No","Male","2938846","2472","i","learn","","","learn_trial","25","75","in","0","0","","","","","","","","","","","","","","","","","","","","",""
"","","","","","canvas-keyboard-response","40","865686","0.0-12.0-3.5","2d_cat_multi_stim_exp1","2022-5-3","16:3:33","25","75","3","9","10","40","30","120","85","21","[""Asian"",""White""]","No","Male","2938846","null","null","learn_feedback","","","learn_feedback","25","75","in","","","","","","","","","","","","","","","","","","","","","","",""
"","","","","","canvas-keyboard-response","41","865744","0.0-12.0-4.5","2d_cat_multi_stim_exp1","2022-5-3","16:3:33","25","75","3","9","10","40","30","120","85","21","[""Asian"",""White""]","No","Male","2938846","null","null","","","","clear_screen","","","","","","","","","","","","","","","","","","","","","","","","","",""
"","","","","","canvas-keyboard-response","42","866253","0.0-12.0-0.6","2d_cat_multi_stim_exp1","2022-5-3","16:3:33","25","75","3","9","10","40","30","120","85","21","[""Asian"",""White""]","No","Male","2938846","null","null","","","","fixation","","","","","","","","","","","","","","","","","","","","","","","","","",""
"","","","","","canvas-keyboard-response","43","866762","0.0-12.0-1.6","2d_cat_multi_stim_exp1","2022-5-3","16:3:33","25","75","3","9","10","40","30","120","85","21","[""Asian"",""White""]","No","Male","2938846","null","null","","","","clear_screen","","","","","","","","","","","","","","","","","","","","","","","","","",""
"","","","","","canvas-keyboard-response","44","867892","0.0-12.0-2.6","2d_cat_multi_stim_exp1","2022-5-3","16:3:33","25","75","3","9","10","40","30","120","85","21","[""Asian"",""White""]","No","Male","2938846","1120","i","learn","","","learn_trial","26.6667","40","out","0","1","","","","","","","","","","","","","","","","","","","","",""
"","","","","","canvas-keyboard-response","45","868402","0.0-12.0-3.6","2d_cat_multi_stim_exp1","2022-5-3","16:3:33","25","75","3","9","10","40","30","120","85","21","[""Asian"",""White""]","No","Male","2938846","null","null","learn_feedback","","","learn_feedback","26.6667","40","out","","","","","","","","","","","","","","","","","","","","","","",""
"","","","","","canvas-keyboard-response","46","868462","0.0-12.0-4.6","2d_cat_multi_stim_exp1","2022-5-3","16:3:33","25","75","3","9","10","40","30","120","85","21","[""Asian"",""White""]","No","Male","2938846","null","null","","","","clear_screen","","","","","","","","","","","","","","","","","","","","","","","","","",""
"","","","","","canvas-keyboard-response","47","868971","0.0-12.0-0.7","2d_cat_multi_stim_exp1","2022-5-3","16:3:33","25","75","3","9","10","40","30","120","85","21","[""Asian"",""White""]","No","Male","2938846","null","null","","","","fixation","","","","","","","","","","","","","","","","","","","","","","","","","",""
"","","","","","canvas-keyboard-response","48","869481","0.0-12.0-1.7","2d_cat_multi_stim_exp1","2022-5-3","16:3:33","25","75","3","9","10","40","30","120","85","21","[""Asian"",""White""]","No","Male","2938846","null","null","","","","clear_screen","","","","","","","","","","","","","","","","","","","","","","","","","",""
"","","","","","canvas-keyboard-response","49","870515","0.0-12.0-2.7","2d_cat_multi_stim_exp1","2022-5-3","16:3:33","25","75","3","9","10","40","30","120","85","21","[""Asian"",""White""]","No","Male","2938846","1026","u","learn","","","learn_trial","25","75","in","1","1","","","","","","","","","","","","","","","","","","","","",""
"","","","","","canvas-keyboard-response","50","871026","0.0-12.0-3.7","2d_cat_multi_stim_exp1","2022-5-3","16:3:33","25","75","3","9","10","40","30","120","85","21","[""Asian"",""White""]","No","Male","2938846","null","null","learn_feedback","","","learn_feedback","25","75","in","","","","","","","","","","","","","","","","","","","","","","",""
"","","","","","canvas-keyboard-response","51","871085","0.0-12.0-4.7","2d_cat_multi_stim_exp1","2022-5-3","16:3:33","25","75","3","9","10","40","30","120","85","21","[""Asian"",""White""]","No","Male","2938846","null","null","","","","clear_screen","","","","","","","","","","","","","","","","","","","","","","","","","",""
"","","","","","canvas-keyboard-response","52","871593","0.0-12.0-0.8","2d_cat_multi_stim_exp1","2022-5-3","16:3:33","25","75","3","9","10","40","30","120","85","21","[""Asian"",""White""]","No","Male","2938846","null","null","","","","fixation","","","","","","","","","","","","","","","","","","","","","","","","","",""
"","","","","","canvas-keyboard-response","53","872103","0.0-12.0-1.8","2d_cat_multi_stim_exp1","2022-5-3","16:3:33","25","75","3","9","10","40","30","120","85","21","[""Asian"",""White""]","No","Male","2938846","null","null","","","","clear_screen","","","","","","","","","","","","","","","","","","","","","","","","","",""
"","","","","","canvas-keyboard-response","54","872900","0.0-12.0-2.8","2d_cat_multi_stim_exp1","2022-5-3","16:3:33","25","75","3","9","10","40","30","120","85","21","[""Asian"",""White""]","No","Male","2938846","787","i","learn","","","learn_trial","16.6667","50","out","0","1","","","","","","","","","","","","","","","","","","","","",""
"","","","","","canvas-keyboard-response","55","873409","0.0-12.0-3.8","2d_cat_multi_stim_exp1","2022-5-3","16:3:33","25","75","3","9","10","40","30","120","85","21","[""Asian"",""White""]","No","Male","2938846","null","null","learn_feedback","","","learn_feedback","16.6667","50","out","","","","","","","","","","","","","","","","","","","","","","",""
"","","","","","canvas-keyboard-response","56","873469","0.0-12.0-4.8","2d_cat_multi_stim_exp1","2022-5-3","16:3:33","25","75","3","9","10","40","30","120","85","21","[""Asian"",""White""]","No","Male","2938846","null","null","","","","clear_screen","","","","","","","","","","","","","","","","","","","","","","","","","",""
"","","","","","canvas-keyboard-response","57","873978","0.0-12.0-0.9","2d_cat_multi_stim_exp1","2022-5-3","16:3:33","25","75","3","9","10","40","30","120","85","21","[""Asian"",""White""]","No","Male","2938846","null","null","","","","fixation","","","","","","","","","","","","","","","","","","","","","","","","","",""
"","","","","","canvas-keyboard-response","58","874487","0.0-12.0-1.9","2d_cat_multi_stim_exp1","2022-5-3","16:3:33","25","75","3","9","10","40","30","120","85","21","[""Asian"",""White""]","No","Male","2938846","null","null","","","","clear_screen","","","","","","","","","","","","","","","","","","","","","","","","","",""
"","","","","","canvas-keyboard-response","59","875901","0.0-12.0-2.9","2d_cat_multi_stim_exp1","2022-5-3","16:3:33","25","75","3","9","10","40","30","120","85","21","[""Asian"",""White""]","No","Male","2938846","1402","i","learn","","","learn_trial","25","75","in","0","0","","","","","","","","","","","","","","","","","","","","",""
"","","","","","canvas-keyboard-response","60","876910","0.0-12.0-3.9","2d_cat_multi_stim_exp1","2022-5-3","16:3:33","25","75","3","9","10","40","30","120","85","21","[""Asian"",""White""]","No","Male","2938846","null","null","learn_feedback","","","learn_feedback","25","75","in","","","","","","","","","","","","","","","","","","","","","","",""
"","","","","","canvas-keyboard-response","61","876969","0.0-12.0-4.9","2d_cat_multi_stim_exp1","2022-5-3","16:3:33","25","75","3","9","10","40","30","120","85","21","[""Asian"",""White""]","No","Male","2938846","null","null","","","","clear_screen","","","","","","","","","","","","","","","","","","","","","","","","","",""
"","","","","","canvas-keyboard-response","62","877478","0.0-12.0-0.10","2d_cat_multi_stim_exp1","2022-5-3","16:3:33","25","75","3","9","10","40","30","120","85","21","[""Asian"",""White""]","No","Male","2938846","null","null","","","","fixation","","","","","","","","","","","","","","","","","","","","","","","","","",""
"","","","","","canvas-keyboard-response","63","877988","0.0-12.0-1.10","2d_cat_multi_stim_exp1","2022-5-3","16:3:33","25","75","3","9","10","40","30","120","85","21","[""Asian"",""White""]","No","Male","2938846","null","null","","","","clear_screen","","","","","","","","","","","","","","","","","","","","","","","","","",""
"","","","","","canvas-keyboard-response","64","878740","0.0-12.0-2.10","2d_cat_multi_stim_exp1","2022-5-3","16:3:33","25","75","3","9","10","40","30","120","85","21","[""Asian"",""White""]","No","Male","2938846","743","i","learn","","","learn_trial","36.6667","100","out","0","1","","","","","","","","","","","","","","","","","","","","",""
"","","","","","canvas-keyboard-response","65","879250","0.0-12.0-3.10","2d_cat_multi_stim_exp1","2022-5-3","16:3:33","25","75","3","9","10","40","30","120","85","21","[""Asian"",""White""]","No","Male","2938846","null","null","learn_feedback","","","learn_feedback","36.6667","100","out","","","","","","","","","","","","","","","","","","","","","","",""
"","","","","","canvas-keyboard-response","66","879308","0.0-12.0-4.10","2d_cat_multi_stim_exp1","2022-5-3","16:3:33","25","75","3","9","10","40","30","120","85","21","[""Asian"",""White""]","No","Male","2938846","null","null","","","","clear_screen","","","","","","","","","","","","","","","","","","","","","","","","","",""
"","","","","","canvas-keyboard-response","67","879817","0.0-12.0-0.11","2d_cat_multi_stim_exp1","2022-5-3","16:3:33","25","75","3","9","10","40","30","120","85","21","[""Asian"",""White""]","No","Male","2938846","null","null","","","","fixation","","","","","","","","","","","","","","","","","","","","","","","","","",""
"","","","","","canvas-keyboard-response","68","880326","0.0-12.0-1.11","2d_cat_multi_stim_exp1","2022-5-3","16:3:33","25","75","3","9","10","40","30","120","85","21","[""Asian"",""White""]","No","Male","2938846","null","null","","","","clear_screen","","","","","","","","","","","","","","","","","","","","","","","","","",""
"","","","","","canvas-keyboard-response","69","881004","0.0-12.0-2.11","2d_cat_multi_stim_exp1","2022-5-3","16:3:33","25","75","3","9","10","40","30","120","85","21","[""Asian"",""White""]","No","Male","2938846","668","i","learn","","","learn_trial","36.6667","30","out","0","1","","","","","","","","","","","","","","","","","","","","",""
"","","","","","canvas-keyboard-response","70","881514","0.0-12.0-3.11","2d_cat_multi_stim_exp1","2022-5-3","16:3:33","25","75","3","9","10","40","30","120","85","21","[""Asian"",""White""]","No","Male","2938846","null","null","learn_feedback","","","learn_feedback","36.6667","30","out","","","","","","","","","","","","","","","","","","","","","","",""
"","","","","","canvas-keyboard-response","71","881573","0.0-12.0-4.11","2d_cat_multi_stim_exp1","2022-5-3","16:3:33","25","75","3","9","10","40","30","120","85","21","[""Asian"",""White""]","No","Male","2938846","null","null","","","","clear_screen","","","","","","","","","","","","","","","","","","","","","","","","","",""
"","","","","","canvas-keyboard-response","72","882081","0.0-12.0-0.12","2d_cat_multi_stim_exp1","2022-5-3","16:3:33","25","75","3","9","10","40","30","120","85","21","[""Asian"",""White""]","No","Male","2938846","null","null","","","","fixation","","","","","","","","","","","","","","","","","","","","","","","","","",""
"","","","","","canvas-keyboard-response","73","882594","0.0-12.0-1.12","2d_cat_multi_stim_exp1","2022-5-3","16:3:33","25","75","3","9","10","40","30","120","85","21","[""Asian"",""White""]","No","Male","2938846","null","null","","","","clear_screen","","","","","","","","","","","","","","","","","","","","","","","","","",""
"","","","","","canvas-keyboard-response","74","883428","0.0-12.0-2.12","2d_cat_multi_stim_exp1","2022-5-3","16:3:33","25","75","3","9","10","40","30","120","85","21","[""Asian"",""White""]","No","Male","2938846","826","u","learn","","","learn_trial","22.2971","71.095","in","1","1","","","","","","","","","","","","","","","","","","","","",""
"","","","","","canvas-keyboard-response","75","883937","0.0-12.0-3.12","2d_cat_multi_stim_exp1","2022-5-3","16:3:33","25","75","3","9","10","40","30","120","85","21","[""Asian"",""White""]","No","Male","2938846","null","null","learn_feedback","","","learn_feedback","22.2971","71.095","in","","","","","","","","","","","","","","","","","","","","","","",""
"","","","","","canvas-keyboard-response","76","883996","0.0-12.0-4.12","2d_cat_multi_stim_exp1","2022-5-3","16:3:33","25","75","3","9","10","40","30","120","85","21","[""Asian"",""White""]","No","Male","2938846","null","null","","","","clear_screen","","","","","","","","","","","","","","","","","","","","","","","","","",""
"","","","","","canvas-keyboard-response","77","884505","0.0-12.0-0.13","2d_cat_multi_stim_exp1","2022-5-3","16:3:33","25","75","3","9","10","40","30","120","85","21","[""Asian"",""White""]","No","Male","2938846","null","null","","","","fixation","","","","","","","","","","","","","","","","","","","","","","","","","",""
"","","","","","canvas-keyboard-response","78","885014","0.0-12.0-1.13","2d_cat_multi_stim_exp1","2022-5-3","16:3:33","25","75","3","9","10","40","30","120","85","21","[""Asian"",""White""]","No","Male","2938846","null","null","","","","clear_screen","","","","","","","","","","","","","","","","","","","","","","","","","",""
"","","","","","canvas-keyboard-response","79","885540","0.0-12.0-2.13","2d_cat_multi_stim_exp1","2022-5-3","16:3:33","25","75","3","9","10","40","30","120","85","21","[""Asian"",""White""]","No","Male","2938846","515","u","learn","","","learn_trial","24.3324","66.2256","in","1","1","","","","","","","","","","","","","","","","","","","","",""
"","","","","","canvas-keyboard-response","80","886049","0.0-12.0-3.13","2d_cat_multi_stim_exp1","2022-5-3","16:3:33","25","75","3","9","10","40","30","120","85","21","[""Asian"",""White""]","No","Male","2938846","null","null","learn_feedback","","","learn_feedback","24.3324","66.2256","in","","","","","","","","","","","","","","","","","","","","","","",""
"","","","","","canvas-keyboard-response","81","886108","0.0-12.0-4.13","2d_cat_multi_stim_exp1","2022-5-3","16:3:33","25","75","3","9","10","40","30","120","85","21","[""Asian"",""White""]","No","Male","2938846","null","null","","","","clear_screen","","","","","","","","","","","","","","","","","","","","","","","","","",""
"","","","","","canvas-keyboard-response","82","886616","0.0-12.0-0.14","2d_cat_multi_stim_exp1","2022-5-3","16:3:33","25","75","3","9","10","40","30","120","85","21","[""Asian"",""White""]","No","Male","2938846","null","null","","","","fixation","","","","","","","","","","","","","","","","","","","","","","","","","",""
"","","","","","canvas-keyboard-response","83","887126","0.0-12.0-1.14","2d_cat_multi_stim_exp1","2022-5-3","16:3:33","25","75","3","9","10","40","30","120","85","21","[""Asian"",""White""]","No","Male","2938846","null","null","","","","clear_screen","","","","","","","","","","","","","","","","","","","","","","","","","",""
"","","","","","canvas-keyboard-response","84","887907","0.0-12.0-2.14","2d_cat_multi_stim_exp1","2022-5-3","16:3:33","25","75","3","9","10","40","30","120","85","21","[""Asian"",""White""]","No","Male","2938846","772","u","learn","","","learn_trial","25","75","in","1","1","","","","","","","","","","","","","","","","","","","","",""
"","","","","","canvas-keyboard-response","85","888416","0.0-12.0-3.14","2d_cat_multi_stim_exp1","2022-5-3","16:3:33","25","75","3","9","10","40","30","120","85","21","[""Asian"",""White""]","No","Male","2938846","null","null","learn_feedback","","","learn_feedback","25","75","in","","","","","","","","","","","","","","","","","","","","","","",""
"","","","","","canvas-keyboard-response","86","888474","0.0-12.0-4.14","2d_cat_multi_stim_exp1","2022-5-3","16:3:33","25","75","3","9","10","40","30","120","85","21","[""Asian"",""White""]","No","Male","2938846","null","null","","","","clear_screen","","","","","","","","","","","","","","","","","","","","","","","","","",""
"","","","","","canvas-keyboard-response","87","888984","0.0-12.0-0.15","2d_cat_multi_stim_exp1","2022-5-3","16:3:33","25","75","3","9","10","40","30","120","85","21","[""Asian"",""White""]","No","Male","2938846","null","null","","","","fixation","","","","","","","","","","","","","","","","","","","","","","","","","",""
"","","","","","canvas-keyboard-response","88","889495","0.0-12.0-1.15","2d_cat_multi_stim_exp1","2022-5-3","16:3:33","25","75","3","9","10","40","30","120","85","21","[""Asian"",""White""]","No","Male","2938846","null","null","","","","clear_screen","","","","","","","","","","","","","","","","","","","","","","","","","",""
"","","","","","canvas-keyboard-response","89","890229","0.0-12.0-2.15","2d_cat_multi_stim_exp1","2022-5-3","16:3:33","25","75","3","9","10","40","30","120","85","21","[""Asian"",""White""]","No","Male","2938846","720","i","learn","","","learn_trial","26.6667","100","out","0","1","","","","","","","","","","","","","","","","","","","","",""
"","","","","","canvas-keyboard-response","90","890740","0.0-12.0-3.15","2d_cat_multi_stim_exp1","2022-5-3","16:3:33","25","75","3","9","10","40","30","120","85","21","[""Asian"",""White""]","No","Male","2938846","null","null","learn_feedback","","","learn_feedback","26.6667","100","out","","","","","","","","","","","","","","","","","","","","","","",""
"","","","","","canvas-keyboard-response","91","890800","0.0-12.0-4.15","2d_cat_multi_stim_exp1","2022-5-3","16:3:33","25","75","3","9","10","40","30","120","85","21","[""Asian"",""White""]","No","Male","2938846","null","null","","","","clear_screen","","","","","","","","","","","","","","","","","","","","","","","","","",""
"","","","","","canvas-keyboard-response","92","891310","0.0-12.0-0.16","2d_cat_multi_stim_exp1","2022-5-3","16:3:33","25","75","3","9","10","40","30","120","85","21","[""Asian"",""White""]","No","Male","2938846","null","null","","","","fixation","","","","","","","","","","","","","","","","","","","","","","","","","",""
"","","","","","canvas-keyboard-response","93","891821","0.0-12.0-1.16","2d_cat_multi_stim_exp1","2022-5-3","16:3:33","25","75","3","9","10","40","30","120","85","21","[""Asian"",""White""]","No","Male","2938846","null","null","","","","clear_screen","","","","","","","","","","","","","","","","","","","","","","","","","",""
"","","","","","canvas-keyboard-response","94","892500","0.0-12.0-2.16","2d_cat_multi_stim_exp1","2022-5-3","16:3:33","25","75","3","9","10","40","30","120","85","21","[""Asian"",""White""]","No","Male","2938846","669","i","learn","","","learn_trial","16.6667","40","out","0","1","","","","","","","","","","","","","","","","","","","","",""
"","","","","","canvas-keyboard-response","95","893010","0.0-12.0-3.16","2d_cat_multi_stim_exp1","2022-5-3","16:3:33","25","75","3","9","10","40","30","120","85","21","[""Asian"",""White""]","No","Male","2938846","null","null","learn_feedback","","","learn_feedback","16.6667","40","out","","","","","","","","","","","","","","","","","","","","","","",""
"","","","","","canvas-keyboard-response","96","893069","0.0-12.0-4.16","2d_cat_multi_stim_exp1","2022-5-3","16:3:33","25","75","3","9","10","40","30","120","85","21","[""Asian"",""White""]","No","Male","2938846","null","null","","","","clear_screen","","","","","","","","","","","","","","","","","","","","","","","","","",""
"","","","","","canvas-keyboard-response","97","893578","0.0-12.0-0.17","2d_cat_multi_stim_exp1","2022-5-3","16:3:33","25","75","3","9","10","40","30","120","85","21","[""Asian"",""White""]","No","Male","2938846","null","null","","","","fixation","","","","","","","","","","","","","","","","","","","","","","","","","",""
"","","","","","canvas-keyboard-response","98","894088","0.0-12.0-1.17","2d_cat_multi_stim_exp1","2022-5-3","16:3:33","25","75","3","9","10","40","30","120","85","21","[""Asian"",""White""]","No","Male","2938846","null","null","","","","clear_screen","","","","","","","","","","","","","","","","","","","","","","","","","",""
"","","","","","canvas-keyboard-response","99","895996","0.0-12.0-2.17","2d_cat_multi_stim_exp1","2022-5-3","16:3:33","25","75","3","9","10","40","30","120","85","21","[""Asian"",""White""]","No","Male","2938846","1898","i","learn","","","learn_trial","13.3333","80","out","0","1","","","","","","","","","","","","","","","","","","","","",""
"","","","","","canvas-keyboard-response","100","896506","0.0-12.0-3.17","2d_cat_multi_stim_exp1","2022-5-3","16:3:33","25","75","3","9","10","40","30","120","85","21","[""Asian"",""White""]","No","Male","2938846","null","null","learn_feedback","","","learn_feedback","13.3333","80","out","","","","","","","","","","","","","","","","","","","","","","",""
"","","","","","canvas-keyboard-response","101","896566","0.0-12.0-4.17","2d_cat_multi_stim_exp1","2022-5-3","16:3:33","25","75","3","9","10","40","30","120","85","21","[""Asian"",""White""]","No","Male","2938846","null","null","","","","clear_screen","","","","","","","","","","","","","","","","","","","","","","","","","",""
"","","","","","canvas-keyboard-response","102","897076","0.0-12.0-0.18","2d_cat_multi_stim_exp1","2022-5-3","16:3:33","25","75","3","9","10","40","30","120","85","21","[""Asian"",""White""]","No","Male","2938846","null","null","","","","fixation","","","","","","","","","","","","","","","","","","","","","","","","","",""
"","","","","","canvas-keyboard-response","103","897585","0.0-12.0-1.18","2d_cat_multi_stim_exp1","2022-5-3","16:3:33","25","75","3","9","10","40","30","120","85","21","[""Asian"",""White""]","No","Male","2938846","null","null","","","","clear_screen","","","","","","","","","","","","","","","","","","","","","","","","","",""
"","","","","","canvas-keyboard-response","104","898211","0.0-12.0-2.18","2d_cat_multi_stim_exp1","2022-5-3","16:3:33","25","75","3","9","10","40","30","120","85","21","[""Asian"",""White""]","No","Male","2938846","616","u","learn","","","learn_trial","20","70","out","1","0","","","","","","","","","","","","","","","","","","","","",""
"","","","","","canvas-keyboard-response","105","899221","0.0-12.0-3.18","2d_cat_multi_stim_exp1","2022-5-3","16:3:33","25","75","3","9","10","40","30","120","85","21","[""Asian"",""White""]","No","Male","2938846","null","null","learn_feedback","","","learn_feedback","20","70","out","","","","","","","","","","","","","","","","","","","","","","",""
"","","","","","canvas-keyboard-response","106","899280","0.0-12.0-4.18","2d_cat_multi_stim_exp1","2022-5-3","16:3:33","25","75","3","9","10","40","30","120","85","21","[""Asian"",""White""]","No","Male","2938846","null","null","","","","clear_screen","","","","","","","","","","","","","","","","","","","","","","","","","",""
"","","","","","canvas-keyboard-response","107","899790","0.0-12.0-0.19","2d_cat_multi_stim_exp1","2022-5-3","16:3:33","25","75","3","9","10","40","30","120","85","21","[""Asian"",""White""]","No","Male","2938846","null","null","","","","fixation","","","","","","","","","","","","","","","","","","","","","","","","","",""
"","","","","","canvas-keyboard-response","108","900301","0.0-12.0-1.19","2d_cat_multi_stim_exp1","2022-5-3","16:3:33","25","75","3","9","10","40","30","120","85","21","[""Asian"",""White""]","No","Male","2938846","null","null","","","","clear_screen","","","","","","","","","","","","","","","","","","","","","","","","","",""
"","","","","","canvas-keyboard-response","109","901075","0.0-12.0-2.19","2d_cat_multi_stim_exp1","2022-5-3","16:3:33","25","75","3","9","10","40","30","120","85","21","[""Asian"",""White""]","No","Male","2938846","766","u","learn","","","learn_trial","27.8087","71.8376","in","1","1","","","","","","","","","","","","","","","","","","","","",""
"","","","","","canvas-keyboard-response","110","901585","0.0-12.0-3.19","2d_cat_multi_stim_exp1","2022-5-3","16:3:33","25","75","3","9","10","40","30","120","85","21","[""Asian"",""White""]","No","Male","2938846","null","null","learn_feedback","","","learn_feedback","27.8087","71.8376","in","","","","","","","","","","","","","","","","","","","","","","",""
"","","","","","canvas-keyboard-response","111","901644","0.0-12.0-4.19","2d_cat_multi_stim_exp1","2022-5-3","16:3:33","25","75","3","9","10","40","30","120","85","21","[""Asian"",""White""]","No","Male","2938846","null","null","","","","clear_screen","","","","","","","","","","","","","","","","","","","","","","","","","",""
"","","","","","canvas-keyboard-response","112","902153","0.0-12.0-0.20","2d_cat_multi_stim_exp1","2022-5-3","16:3:33","25","75","3","9","10","40","30","120","85","21","[""Asian"",""White""]","No","Male","2938846","null","null","","","","fixation","","","","","","","","","","","","","","","","","","","","","","","","","",""
"","","","","","canvas-keyboard-response","113","902662","0.0-12.0-1.20","2d_cat_multi_stim_exp1","2022-5-3","16:3:33","25","75","3","9","10","40","30","120","85","21","[""Asian"",""White""]","No","Male","2938846","null","null","","","","clear_screen","","","","","","","","","","","","","","","","","","","","","","","","","",""
"","","","","","canvas-keyboard-response","114","903387","0.0-12.0-2.20","2d_cat_multi_stim_exp1","2022-5-3","16:3:33","25","75","3","9","10","40","30","120","85","21","[""Asian"",""White""]","No","Male","2938846","716","u","learn","","","learn_trial","25","75","in","1","1","","","","","","","","","","","","","","","","","","","","",""
"","","","","","canvas-keyboard-response","115","903898","0.0-12.0-3.20","2d_cat_multi_stim_exp1","2022-5-3","16:3:33","25","75","3","9","10","40","30","120","85","21","[""Asian"",""White""]","No","Male","2938846","null","null","learn_feedback","","","learn_feedback","25","75","in","","","","","","","","","","","","","","","","","","","","","","",""
"","","","","","canvas-keyboard-response","116","903957","0.0-12.0-4.20","2d_cat_multi_stim_exp1","2022-5-3","16:3:33","25","75","3","9","10","40","30","120","85","21","[""Asian"",""White""]","No","Male","2938846","null","null","","","","clear_screen","","","","","","","","","","","","","","","","","","","","","","","","","",""
"","","","","","canvas-keyboard-response","117","904467","0.0-12.0-0.21","2d_cat_multi_stim_exp1","2022-5-3","16:3:33","25","75","3","9","10","40","30","120","85","21","[""Asian"",""White""]","No","Male","2938846","null","null","","","","fixation","","","","","","","","","","","","","","","","","","","","","","","","","",""
"","","","","","canvas-keyboard-response","118","904977","0.0-12.0-1.21","2d_cat_multi_stim_exp1","2022-5-3","16:3:33","25","75","3","9","10","40","30","120","85","21","[""Asian"",""White""]","No","Male","2938846","null","null","","","","clear_screen","","","","","","","","","","","","","","","","","","","","","","","","","",""
"","","","","","canvas-keyboard-response","119","905612","0.0-12.0-2.21","2d_cat_multi_stim_exp1","2022-5-3","16:3:33","25","75","3","9","10","40","30","120","85","21","[""Asian"",""White""]","No","Male","2938846","625","i","learn","","","learn_trial","13.3333","110","out","0","1","","","","","","","","","","","","","","","","","","","","",""
"","","","","","canvas-keyboard-response","120","906121","0.0-12.0-3.21","2d_cat_multi_stim_exp1","2022-5-3","16:3:33","25","75","3","9","10","40","30","120","85","21","[""Asian"",""White""]","No","Male","2938846","null","null","learn_feedback","","","learn_feedback","13.3333","110","out","","","","","","","","","","","","","","","","","","","","","","",""
"","","","","","canvas-keyboard-response","121","906180","0.0-12.0-4.21","2d_cat_multi_stim_exp1","2022-5-3","16:3:33","25","75","3","9","10","40","30","120","85","21","[""Asian"",""White""]","No","Male","2938846","null","null","","","","clear_screen","","","","","","","","","","","","","","","","","","","","","","","","","",""
"","","","","","canvas-keyboard-response","122","906690","0.0-12.0-0.22","2d_cat_multi_stim_exp1","2022-5-3","16:3:33","25","75","3","9","10","40","30","120","85","21","[""Asian"",""White""]","No","Male","2938846","null","null","","","","fixation","","","","","","","","","","","","","","","","","","","","","","","","","",""
"","","","","","canvas-keyboard-response","123","907199","0.0-12.0-1.22","2d_cat_multi_stim_exp1","2022-5-3","16:3:33","25","75","3","9","10","40","30","120","85","21","[""Asian"",""White""]","No","Male","2938846","null","null","","","","clear_screen","","","","","","","","","","","","","","","","","","","","","","","","","",""
"","","","","","canvas-keyboard-response","124","907731","0.0-12.0-2.22","2d_cat_multi_stim_exp1","2022-5-3","16:3:33","25","75","3","9","10","40","30","120","85","21","[""Asian"",""White""]","No","Male","2938846","522","u","learn","","","learn_trial","23.3333","50","out","1","0","","","","","","","","","","","","","","","","","","","","",""
"","","","","","canvas-keyboard-response","125","908744","0.0-12.0-3.22","2d_cat_multi_stim_exp1","2022-5-3","16:3:33","25","75","3","9","10","40","30","120","85","21","[""Asian"",""White""]","No","Male","2938846","null","null","learn_feedback","","","learn_feedback","23.3333","50","out","","","","","","","","","","","","","","","","","","","","","","",""
"","","","","","canvas-keyboard-response","126","908803","0.0-12.0-4.22","2d_cat_multi_stim_exp1","2022-5-3","16:3:33","25","75","3","9","10","40","30","120","85","21","[""Asian"",""White""]","No","Male","2938846","null","null","","","","clear_screen","","","","","","","","","","","","","","","","","","","","","","","","","",""
"","","","","","canvas-keyboard-response","127","909312","0.0-12.0-0.23","2d_cat_multi_stim_exp1","2022-5-3","16:3:33","25","75","3","9","10","40","30","120","85","21","[""Asian"",""White""]","No","Male","2938846","null","null","","","","fixation","","","","","","","","","","","","","","","","","","","","","","","","","",""
"","","","","","canvas-keyboard-response","128","909822","0.0-12.0-1.23","2d_cat_multi_stim_exp1","2022-5-3","16:3:33","25","75","3","9","10","40","30","120","85","21","[""Asian"",""White""]","No","Male","2938846","null","null","","","","clear_screen","","","","","","","","","","","","","","","","","","","","","","","","","",""
"","","","","","canvas-keyboard-response","129","910996","0.0-12.0-2.23","2d_cat_multi_stim_exp1","2022-5-3","16:3:33","25","75","3","9","10","40","30","120","85","21","[""Asian"",""White""]","No","Male","2938846","1165","i","learn","","","learn_trial","25","75","in","0","0","","","","","","","","","","","","","","","","","","","","",""
"","","","","","canvas-keyboard-response","130","912005","0.0-12.0-3.23","2d_cat_multi_stim_exp1","2022-5-3","16:3:33","25","75","3","9","10","40","30","120","85","21","[""Asian"",""White""]","No","Male","2938846","null","null","learn_feedback","","","learn_feedback","25","75","in","","","","","","","","","","","","","","","","","","","","","","",""
"","","","","","canvas-keyboard-response","131","912064","0.0-12.0-4.23","2d_cat_multi_stim_exp1","2022-5-3","16:3:33","25","75","3","9","10","40","30","120","85","21","[""Asian"",""White""]","No","Male","2938846","null","null","","","","clear_screen","","","","","","","","","","","","","","","","","","","","","","","","","",""
"","","","","","canvas-keyboard-response","132","912574","0.0-12.0-0.24","2d_cat_multi_stim_exp1","2022-5-3","16:3:33","25","75","3","9","10","40","30","120","85","21","[""Asian"",""White""]","No","Male","2938846","null","null","","","","fixation","","","","","","","","","","","","","","","","","","","","","","","","","",""
"","","","","","canvas-keyboard-response","133","913083","0.0-12.0-1.24","2d_cat_multi_stim_exp1","2022-5-3","16:3:33","25","75","3","9","10","40","30","120","85","21","[""Asian"",""White""]","No","Male","2938846","null","null","","","","clear_screen","","","","","","","","","","","","","","","","","","","","","","","","","",""
"","","","","","canvas-keyboard-response","134","913772","0.0-12.0-2.24","2d_cat_multi_stim_exp1","2022-5-3","16:3:33","25","75","3","9","10","40","30","120","85","21","[""Asian"",""White""]","No","Male","2938846","679","i","learn","","","learn_trial","20","120","out","0","1","","","","","","","","","","","","","","","","","","","","",""
"","","","","","canvas-keyboard-response","135","914281","0.0-12.0-3.24","2d_cat_multi_stim_exp1","2022-5-3","16:3:33","25","75","3","9","10","40","30","120","85","21","[""Asian"",""White""]","No","Male","2938846","null","null","learn_feedback","","","learn_feedback","20","120","out","","","","","","","","","","","","","","","","","","","","","","",""
"","","","","","canvas-keyboard-response","136","914340","0.0-12.0-4.24","2d_cat_multi_stim_exp1","2022-5-3","16:3:33","25","75","3","9","10","40","30","120","85","21","[""Asian"",""White""]","No","Male","2938846","null","null","","","","clear_screen","","","","","","","","","","","","","","","","","","","","","","","","","",""
"","","","","","canvas-keyboard-response","137","914849","0.0-12.0-0.25","2d_cat_multi_stim_exp1","2022-5-3","16:3:33","25","75","3","9","10","40","30","120","85","21","[""Asian"",""White""]","No","Male","2938846","null","null","","","","fixation","","","","","","","","","","","","","","","","","","","","","","","","","",""
"","","","","","canvas-keyboard-response","138","915358","0.0-12.0-1.25","2d_cat_multi_stim_exp1","2022-5-3","16:3:33","25","75","3","9","10","40","30","120","85","21","[""Asian"",""White""]","No","Male","2938846","null","null","","","","clear_screen","","","","","","","","","","","","","","","","","","","","","","","","","",""
"","","","","","canvas-keyboard-response","139","916668","0.0-12.0-2.25","2d_cat_multi_stim_exp1","2022-5-3","16:3:33","25","75","3","9","10","40","30","120","85","21","[""Asian"",""White""]","No","Male","2938846","1299","u","learn","","","learn_trial","20","90","out","1","0","","","","","","","","","","","","","","","","","","","","",""
"","","","","","canvas-keyboard-response","140","917681","0.0-12.0-3.25","2d_cat_multi_stim_exp1","2022-5-3","16:3:33","25","75","3","9","10","40","30","120","85","21","[""Asian"",""White""]","No","Male","2938846","null","null","learn_feedback","","","learn_feedback","20","90","out","","","","","","","","","","","","","","","","","","","","","","",""
"","","","","","canvas-keyboard-response","141","917740","0.0-12.0-4.25","2d_cat_multi_stim_exp1","2022-5-3","16:3:33","25","75","3","9","10","40","30","120","85","21","[""Asian"",""White""]","No","Male","2938846","null","null","","","","clear_screen","","","","","","","","","","","","","","","","","","","","","","","","","",""
"","","","","","canvas-keyboard-response","142","918249","0.0-12.0-0.26","2d_cat_multi_stim_exp1","2022-5-3","16:3:33","25","75","3","9","10","40","30","120","85","21","[""Asian"",""White""]","No","Male","2938846","null","null","","","","fixation","","","","","","","","","","","","","","","","","","","","","","","","","",""
"","","","","","canvas-keyboard-response","143","918759","0.0-12.0-1.26","2d_cat_multi_stim_exp1","2022-5-3","16:3:33","25","75","3","9","10","40","30","120","85","21","[""Asian"",""White""]","No","Male","2938846","null","null","","","","clear_screen","","","","","","","","","","","","","","","","","","","","","","","","","",""
"","","","","","canvas-keyboard-response","144","919291","0.0-12.0-2.26","2d_cat_multi_stim_exp1","2022-5-3","16:3:33","25","75","3","9","10","40","30","120","85","21","[""Asian"",""White""]","No","Male","2938846","523","u","learn","","","learn_trial","27.9518","73.393","in","1","1","","","","","","","","","","","","","","","","","","","","",""
"","","","","","canvas-keyboard-response","145","919802","0.0-12.0-3.26","2d_cat_multi_stim_exp1","2022-5-3","16:3:33","25","75","3","9","10","40","30","120","85","21","[""Asian"",""White""]","No","Male","2938846","null","null","learn_feedback","","","learn_feedback","27.9518","73.393","in","","","","","","","","","","","","","","","","","","","","","","",""
"","","","","","canvas-keyboard-response","146","919861","0.0-12.0-4.26","2d_cat_multi_stim_exp1","2022-5-3","16:3:33","25","75","3","9","10","40","30","120","85","21","[""Asian"",""White""]","No","Male","2938846","null","null","","","","clear_screen","","","","","","","","","","","","","","","","","","","","","","","","","",""
"","","","","","canvas-keyboard-response","147","920369","0.0-12.0-0.27","2d_cat_multi_stim_exp1","2022-5-3","16:3:33","25","75","3","9","10","40","30","120","85","21","[""Asian"",""White""]","No","Male","2938846","null","null","","","","fixation","","","","","","","","","","","","","","","","","","","","","","","","","",""
"","","","","","canvas-keyboard-response","148","920878","0.0-12.0-1.27","2d_cat_multi_stim_exp1","2022-5-3","16:3:33","25","75","3","9","10","40","30","120","85","21","[""Asian"",""White""]","No","Male","2938846","null","null","","","","clear_screen","","","","","","","","","","","","","","","","","","","","","","","","","",""
"","","","","","canvas-keyboard-response","149","921612","0.0-12.0-2.27","2d_cat_multi_stim_exp1","2022-5-3","16:3:33","25","75","3","9","10","40","30","120","85","21","[""Asian"",""White""]","No","Male","2938846","724","i","learn","","","learn_trial","36.6667","40","out","0","1","","","","","","","","","","","","","","","","","","","","",""
"","","","","","canvas-keyboard-response","150","922121","0.0-12.0-3.27","2d_cat_multi_stim_exp1","2022-5-3","16:3:33","25","75","3","9","10","40","30","120","85","21","[""Asian"",""White""]","No","Male","2938846","null","null","learn_feedback","","","learn_feedback","36.6667","40","out","","","","","","","","","","","","","","","","","","","","","","",""
"","","","","","canvas-keyboard-response","151","922181","0.0-12.0-4.27","2d_cat_multi_stim_exp1","2022-5-3","16:3:33","25","75","3","9","10","40","30","120","85","21","[""Asian"",""White""]","No","Male","2938846","null","null","","","","clear_screen","","","","","","","","","","","","","","","","","","","","","","","","","",""
"","","","","","canvas-keyboard-response","152","922691","0.0-12.0-0.28","2d_cat_multi_stim_exp1","2022-5-3","16:3:33","25","75","3","9","10","40","30","120","85","21","[""Asian"",""White""]","No","Male","2938846","null","null","","","","fixation","","","","","","","","","","","","","","","","","","","","","","","","","",""
"","","","","","canvas-keyboard-response","153","923200","0.0-12.0-1.28","2d_cat_multi_stim_exp1","2022-5-3","16:3:33","25","75","3","9","10","40","30","120","85","21","[""Asian"",""White""]","No","Male","2938846","null","null","","","","clear_screen","","","","","","","","","","","","","","","","","","","","","","","","","",""
"","","","","","canvas-keyboard-response","154","924756","0.0-12.0-2.28","2d_cat_multi_stim_exp1","2022-5-3","16:3:33","25","75","3","9","10","40","30","120","85","21","[""Asian"",""White""]","No","Male","2938846","1546","u","learn","","","learn_trial","26.6667","60","out","1","0","","","","","","","","","","","","","","","","","","","","",""
"","","","","","canvas-keyboard-response","155","925768","0.0-12.0-3.28","2d_cat_multi_stim_exp1","2022-5-3","16:3:33","25","75","3","9","10","40","30","120","85","21","[""Asian"",""White""]","No","Male","2938846","null","null","learn_feedback","","","learn_feedback","26.6667","60","out","","","","","","","","","","","","","","","","","","","","","","",""
"","","","","","canvas-keyboard-response","156","925826","0.0-12.0-4.28","2d_cat_multi_stim_exp1","2022-5-3","16:3:33","25","75","3","9","10","40","30","120","85","21","[""Asian"",""White""]","No","Male","2938846","null","null","","","","clear_screen","","","","","","","","","","","","","","","","","","","","","","","","","",""
"","","","","","canvas-keyboard-response","157","926336","0.0-12.0-0.29","2d_cat_multi_stim_exp1","2022-5-3","16:3:33","25","75","3","9","10","40","30","120","85","21","[""Asian"",""White""]","No","Male","2938846","null","null","","","","fixation","","","","","","","","","","","","","","","","","","","","","","","","","",""
"","","","","","canvas-keyboard-response","158","926847","0.0-12.0-1.29","2d_cat_multi_stim_exp1","2022-5-3","16:3:33","25","75","3","9","10","40","30","120","85","21","[""Asian"",""White""]","No","Male","2938846","null","null","","","","clear_screen","","","","","","","","","","","","","","","","","","","","","","","","","",""
"","","","","","canvas-keyboard-response","159","928163","0.0-12.0-2.29","2d_cat_multi_stim_exp1","2022-5-3","16:3:33","25","75","3","9","10","40","30","120","85","21","[""Asian"",""White""]","No","Male","2938846","1308","i","learn","","","learn_trial","23.3333","120","out","0","1","","","","","","","","","","","","","","","","","","","","",""
"","","","","","canvas-keyboard-response","160","928673","0.0-12.0-3.29","2d_cat_multi_stim_exp1","2022-5-3","16:3:33","25","75","3","9","10","40","30","120","85","21","[""Asian"",""White""]","No","Male","2938846","null","null","learn_feedback","","","learn_feedback","23.3333","120","out","","","","","","","","","","","","","","","","","","","","","","",""
"","","","","","canvas-keyboard-response","161","928732","0.0-12.0-4.29","2d_cat_multi_stim_exp1","2022-5-3","16:3:33","25","75","3","9","10","40","30","120","85","21","[""Asian"",""White""]","No","Male","2938846","null","null","","","","clear_screen","","","","","","","","","","","","","","","","","","","","","","","","","",""
"","","","","","canvas-keyboard-response","162","929241","0.0-12.0-0.30","2d_cat_multi_stim_exp1","2022-5-3","16:3:33","25","75","3","9","10","40","30","120","85","21","[""Asian"",""White""]","No","Male","2938846","null","null","","","","fixation","","","","","","","","","","","","","","","","","","","","","","","","","",""
"","","","","","canvas-keyboard-response","163","929750","0.0-12.0-1.30","2d_cat_multi_stim_exp1","2022-5-3","16:3:33","25","75","3","9","10","40","30","120","85","21","[""Asian"",""White""]","No","Male","2938846","null","null","","","","clear_screen","","","","","","","","","","","","","","","","","","","","","","","","","",""
"","","","","","canvas-keyboard-response","164","930387","0.0-12.0-2.30","2d_cat_multi_stim_exp1","2022-5-3","16:3:33","25","75","3","9","10","40","30","120","85","21","[""Asian"",""White""]","No","Male","2938846","628","i","learn","","","learn_trial","10","70","out","0","1","","","","","","","","","","","","","","","","","","","","",""
"","","","","","canvas-keyboard-response","165","930897","0.0-12.0-3.30","2d_cat_multi_stim_exp1","2022-5-3","16:3:33","25","75","3","9","10","40","30","120","85","21","[""Asian"",""White""]","No","Male","2938846","null","null","learn_feedback","","","learn_feedback","10","70","out","","","","","","","","","","","","","","","","","","","","","","",""
"","","","","","canvas-keyboard-response","166","930956","0.0-12.0-4.30","2d_cat_multi_stim_exp1","2022-5-3","16:3:33","25","75","3","9","10","40","30","120","85","21","[""Asian"",""White""]","No","Male","2938846","null","null","","","","clear_screen","","","","","","","","","","","","","","","","","","","","","","","","","",""
"","","","","","canvas-keyboard-response","167","931465","0.0-12.0-0.31","2d_cat_multi_stim_exp1","2022-5-3","16:3:33","25","75","3","9","10","40","30","120","85","21","[""Asian"",""White""]","No","Male","2938846","null","null","","","","fixation","","","","","","","","","","","","","","","","","","","","","","","","","",""
"","","","","","canvas-keyboard-response","168","931975","0.0-12.0-1.31","2d_cat_multi_stim_exp1","2022-5-3","16:3:33","25","75","3","9","10","40","30","120","85","21","[""Asian"",""White""]","No","Male","2938846","null","null","","","","clear_screen","","","","","","","","","","","","","","","","","","","","","","","","","",""
"","","","","","canvas-keyboard-response","169","934179","0.0-12.0-2.31","2d_cat_multi_stim_exp1","2022-5-3","16:3:33","25","75","3","9","10","40","30","120","85","21","[""Asian"",""White""]","No","Male","2938846","2195","i","learn","","","learn_trial","25","75","in","0","0","","","","","","","","","","","","","","","","","","","","",""
"","","","","","canvas-keyboard-response","170","935192","0.0-12.0-3.31","2d_cat_multi_stim_exp1","2022-5-3","16:3:33","25","75","3","9","10","40","30","120","85","21","[""Asian"",""White""]","No","Male","2938846","null","null","learn_feedback","","","learn_feedback","25","75","in","","","","","","","","","","","","","","","","","","","","","","",""
"","","","","","canvas-keyboard-response","171","935252","0.0-12.0-4.31","2d_cat_multi_stim_exp1","2022-5-3","16:3:33","25","75","3","9","10","40","30","120","85","21","[""Asian"",""White""]","No","Male","2938846","null","null","","","","clear_screen","","","","","","","","","","","","","","","","","","","","","","","","","",""
"","","","","","canvas-keyboard-response","172","935762","0.0-12.0-0.32","2d_cat_multi_stim_exp1","2022-5-3","16:3:33","25","75","3","9","10","40","30","120","85","21","[""Asian"",""White""]","No","Male","2938846","null","null","","","","fixation","","","","","","","","","","","","","","","","","","","","","","","","","",""
"","","","","","canvas-keyboard-response","173","936272","0.0-12.0-1.32","2d_cat_multi_stim_exp1","2022-5-3","16:3:33","25","75","3","9","10","40","30","120","85","21","[""Asian"",""White""]","No","Male","2938846","null","null","","","","clear_screen","","","","","","","","","","","","","","","","","","","","","","","","","",""
"","","","","","canvas-keyboard-response","174","938051","0.0-12.0-2.32","2d_cat_multi_stim_exp1","2022-5-3","16:3:33","25","75","3","9","10","40","30","120","85","21","[""Asian"",""White""]","No","Male","2938846","1769","u","learn","","","learn_trial","33.3333","100","out","1","0","","","","","","","","","","","","","","","","","","","","",""
"","","","","","canvas-keyboard-response","175","939061","0.0-12.0-3.32","2d_cat_multi_stim_exp1","2022-5-3","16:3:33","25","75","3","9","10","40","30","120","85","21","[""Asian"",""White""]","No","Male","2938846","null","null","learn_feedback","","","learn_feedback","33.3333","100","out","","","","","","","","","","","","","","","","","","","","","","",""
"","","","","","canvas-keyboard-response","176","939120","0.0-12.0-4.32","2d_cat_multi_stim_exp1","2022-5-3","16:3:33","25","75","3","9","10","40","30","120","85","21","[""Asian"",""White""]","No","Male","2938846","null","null","","","","clear_screen","","","","","","","","","","","","","","","","","","","","","","","","","",""
"","","","","","canvas-keyboard-response","177","939630","0.0-12.0-0.33","2d_cat_multi_stim_exp1","2022-5-3","16:3:33","25","75","3","9","10","40","30","120","85","21","[""Asian"",""White""]","No","Male","2938846","null","null","","","","fixation","","","","","","","","","","","","","","","","","","","","","","","","","",""
"","","","","","canvas-keyboard-response","178","940140","0.0-12.0-1.33","2d_cat_multi_stim_exp1","2022-5-3","16:3:33","25","75","3","9","10","40","30","120","85","21","[""Asian"",""White""]","No","Male","2938846","null","null","","","","clear_screen","","","","","","","","","","","","","","","","","","","","","","","","","",""
"","","","","","canvas-keyboard-response","179","940883","0.0-12.0-2.33","2d_cat_multi_stim_exp1","2022-5-3","16:3:33","25","75","3","9","10","40","30","120","85","21","[""Asian"",""White""]","No","Male","2938846","733","u","learn","","","learn_trial","22.1081","77.3943","in","1","1","","","","","","","","","","","","","","","","","","","","",""
"","","","","","canvas-keyboard-response","180","941392","0.0-12.0-3.33","2d_cat_multi_stim_exp1","2022-5-3","16:3:33","25","75","3","9","10","40","30","120","85","21","[""Asian"",""White""]","No","Male","2938846","null","null","learn_feedback","","","learn_feedback","22.1081","77.3943","in","","","","","","","","","","","","","","","","","","","","","","",""
"","","","","","canvas-keyboard-response","181","941451","0.0-12.0-4.33","2d_cat_multi_stim_exp1","2022-5-3","16:3:33","25","75","3","9","10","40","30","120","85","21","[""Asian"",""White""]","No","Male","2938846","null","null","","","","clear_screen","","","","","","","","","","","","","","","","","","","","","","","","","",""
"","","","","","canvas-keyboard-response","182","941960","0.0-12.0-0.34","2d_cat_multi_stim_exp1","2022-5-3","16:3:33","25","75","3","9","10","40","30","120","85","21","[""Asian"",""White""]","No","Male","2938846","null","null","","","","fixation","","","","","","","","","","","","","","","","","","","","","","","","","",""
"","","","","","canvas-keyboard-response","183","942469","0.0-12.0-1.34","2d_cat_multi_stim_exp1","2022-5-3","16:3:33","25","75","3","9","10","40","30","120","85","21","[""Asian"",""White""]","No","Male","2938846","null","null","","","","clear_screen","","","","","","","","","","","","","","","","","","","","","","","","","",""
"","","","","","canvas-keyboard-response","184","943107","0.0-12.0-2.34","2d_cat_multi_stim_exp1","2022-5-3","16:3:33","25","75","3","9","10","40","30","120","85","21","[""Asian"",""White""]","No","Male","2938846","629","i","learn","","","learn_trial","40","40","out","0","1","","","","","","","","","","","","","","","","","","","","",""
"","","","","","canvas-keyboard-response","185","943620","0.0-12.0-3.34","2d_cat_multi_stim_exp1","2022-5-3","16:3:33","25","75","3","9","10","40","30","120","85","21","[""Asian"",""White""]","No","Male","2938846","null","null","learn_feedback","","","learn_feedback","40","40","out","","","","","","","","","","","","","","","","","","","","","","",""
"","","","","","canvas-keyboard-response","186","943679","0.0-12.0-4.34","2d_cat_multi_stim_exp1","2022-5-3","16:3:33","25","75","3","9","10","40","30","120","85","21","[""Asian"",""White""]","No","Male","2938846","null","null","","","","clear_screen","","","","","","","","","","","","","","","","","","","","","","","","","",""
"","","","","","canvas-keyboard-response","187","944189","0.0-12.0-0.35","2d_cat_multi_stim_exp1","2022-5-3","16:3:33","25","75","3","9","10","40","30","120","85","21","[""Asian"",""White""]","No","Male","2938846","null","null","","","","fixation","","","","","","","","","","","","","","","","","","","","","","","","","",""
"","","","","","canvas-keyboard-response","188","944698","0.0-12.0-1.35","2d_cat_multi_stim_exp1","2022-5-3","16:3:33","25","75","3","9","10","40","30","120","85","21","[""Asian"",""White""]","No","Male","2938846","null","null","","","","clear_screen","","","","","","","","","","","","","","","","","","","","","","","","","",""
"","","","","","canvas-keyboard-response","189","946179","0.0-12.0-2.35","2d_cat_multi_stim_exp1","2022-5-3","16:3:33","25","75","3","9","10","40","30","120","85","21","[""Asian"",""White""]","No","Male","2938846","1471","i","learn","","","learn_trial","23.3333","80","out","0","1","","","","","","","","","","","","","","","","","","","","",""
"","","","","","canvas-keyboard-response","190","946688","0.0-12.0-3.35","2d_cat_multi_stim_exp1","2022-5-3","16:3:33","25","75","3","9","10","40","30","120","85","21","[""Asian"",""White""]","No","Male","2938846","null","null","learn_feedback","","","learn_feedback","23.3333","80","out","","","","","","","","","","","","","","","","","","","","","","",""
"","","","","","canvas-keyboard-response","191","946747","0.0-12.0-4.35","2d_cat_multi_stim_exp1","2022-5-3","16:3:33","25","75","3","9","10","40","30","120","85","21","[""Asian"",""White""]","No","Male","2938846","null","null","","","","clear_screen","","","","","","","","","","","","","","","","","","","","","","","","","",""
"","","","","","canvas-keyboard-response","192","947256","0.0-12.0-0.36","2d_cat_multi_stim_exp1","2022-5-3","16:3:33","25","75","3","9","10","40","30","120","85","21","[""Asian"",""White""]","No","Male","2938846","null","null","","","","fixation","","","","","","","","","","","","","","","","","","","","","","","","","",""
"","","","","","canvas-keyboard-response","193","947766","0.0-12.0-1.36","2d_cat_multi_stim_exp1","2022-5-3","16:3:33","25","75","3","9","10","40","30","120","85","21","[""Asian"",""White""]","No","Male","2938846","null","null","","","","clear_screen","","","","","","","","","","","","","","","","","","","","","","","","","",""
"","","","","","canvas-keyboard-response","194","949347","0.0-12.0-2.36","2d_cat_multi_stim_exp1","2022-5-3","16:3:33","25","75","3","9","10","40","30","120","85","21","[""Asian"",""White""]","No","Male","2938846","1572","i","learn","","","learn_trial","26.6667","110","out","0","1","","","","","","","","","","","","","","","","","","","","",""
"","","","","","canvas-keyboard-response","195","949856","0.0-12.0-3.36","2d_cat_multi_stim_exp1","2022-5-3","16:3:33","25","75","3","9","10","40","30","120","85","21","[""Asian"",""White""]","No","Male","2938846","null","null","learn_feedback","","","learn_feedback","26.6667","110","out","","","","","","","","","","","","","","","","","","","","","","",""
"","","","","","canvas-keyboard-response","196","949916","0.0-12.0-4.36","2d_cat_multi_stim_exp1","2022-5-3","16:3:33","25","75","3","9","10","40","30","120","85","21","[""Asian"",""White""]","No","Male","2938846","null","null","","","","clear_screen","","","","","","","","","","","","","","","","","","","","","","","","","",""
"","","","","","canvas-keyboard-response","197","950425","0.0-12.0-0.37","2d_cat_multi_stim_exp1","2022-5-3","16:3:33","25","75","3","9","10","40","30","120","85","21","[""Asian"",""White""]","No","Male","2938846","null","null","","","","fixation","","","","","","","","","","","","","","","","","","","","","","","","","",""
"","","","","","canvas-keyboard-response","198","950934","0.0-12.0-1.37","2d_cat_multi_stim_exp1","2022-5-3","16:3:33","25","75","3","9","10","40","30","120","85","21","[""Asian"",""White""]","No","Male","2938846","null","null","","","","clear_screen","","","","","","","","","","","","","","","","","","","","","","","","","",""
"","","","","","canvas-keyboard-response","199","951843","0.0-12.0-2.37","2d_cat_multi_stim_exp1","2022-5-3","16:3:33","25","75","3","9","10","40","30","120","85","21","[""Asian"",""White""]","No","Male","2938846","899","u","learn","","","learn_trial","25","75","in","1","1","","","","","","","","","","","","","","","","","","","","",""
"","","","","","canvas-keyboard-response","200","952355","0.0-12.0-3.37","2d_cat_multi_stim_exp1","2022-5-3","16:3:33","25","75","3","9","10","40","30","120","85","21","[""Asian"",""White""]","No","Male","2938846","null","null","learn_feedback","","","learn_feedback","25","75","in","","","","","","","","","","","","","","","","","","","","","","",""
"","","","","","canvas-keyboard-response","201","952416","0.0-12.0-4.37","2d_cat_multi_stim_exp1","2022-5-3","16:3:33","25","75","3","9","10","40","30","120","85","21","[""Asian"",""White""]","No","Male","2938846","null","null","","","","clear_screen","","","","","","","","","","","","","","","","","","","","","","","","","",""
"","","","","","canvas-keyboard-response","202","952928","0.0-12.0-0.38","2d_cat_multi_stim_exp1","2022-5-3","16:3:33","25","75","3","9","10","40","30","120","85","21","[""Asian"",""White""]","No","Male","2938846","null","null","","","","fixation","","","","","","","","","","","","","","","","","","","","","","","","","",""
"","","","","","canvas-keyboard-response","203","953439","0.0-12.0-1.38","2d_cat_multi_stim_exp1","2022-5-3","16:3:33","25","75","3","9","10","40","30","120","85","21","[""Asian"",""White""]","No","Male","2938846","null","null","","","","clear_screen","","","","","","","","","","","","","","","","","","","","","","","","","",""
"","","","","","canvas-keyboard-response","204","954604","0.0-12.0-2.38","2d_cat_multi_stim_exp1","2022-5-3","16:3:33","25","75","3","9","10","40","30","120","85","21","[""Asian"",""White""]","No","Male","2938846","1154","u","learn","","","learn_trial","25","75","in","1","1","","","","","","","","","","","","","","","","","","","","",""
"","","","","","canvas-keyboard-response","205","955114","0.0-12.0-3.38","2d_cat_multi_stim_exp1","2022-5-3","16:3:33","25","75","3","9","10","40","30","120","85","21","[""Asian"",""White""]","No","Male","2938846","null","null","learn_feedback","","","learn_feedback","25","75","in","","","","","","","","","","","","","","","","","","","","","","",""
"","","","","","canvas-keyboard-response","206","955174","0.0-12.0-4.38","2d_cat_multi_stim_exp1","2022-5-3","16:3:33","25","75","3","9","10","40","30","120","85","21","[""Asian"",""White""]","No","Male","2938846","null","null","","","","clear_screen","","","","","","","","","","","","","","","","","","","","","","","","","",""
"","","","","","canvas-keyboard-response","207","955683","0.0-12.0-0.39","2d_cat_multi_stim_exp1","2022-5-3","16:3:33","25","75","3","9","10","40","30","120","85","21","[""Asian"",""White""]","No","Male","2938846","null","null","","","","fixation","","","","","","","","","","","","","","","","","","","","","","","","","",""
"","","","","","canvas-keyboard-response","208","956193","0.0-12.0-1.39","2d_cat_multi_stim_exp1","2022-5-3","16:3:33","25","75","3","9","10","40","30","120","85","21","[""Asian"",""White""]","No","Male","2938846","null","null","","","","clear_screen","","","","","","","","","","","","","","","","","","","","","","","","","",""
"","","","","","canvas-keyboard-response","209","956931","0.0-12.0-2.39","2d_cat_multi_stim_exp1","2022-5-3","16:3:33","25","75","3","9","10","40","30","120","85","21","[""Asian"",""White""]","No","Male","2938846","729","i","learn","","","learn_trial","10","90","out","0","1","","","","","","","","","","","","","","","","","","","","",""
"","","","","","canvas-keyboard-response","210","957442","0.0-12.0-3.39","2d_cat_multi_stim_exp1","2022-5-3","16:3:33","25","75","3","9","10","40","30","120","85","21","[""Asian"",""White""]","No","Male","2938846","null","null","learn_feedback","","","learn_feedback","10","90","out","","","","","","","","","","","","","","","","","","","","","","",""
"","","","","","canvas-keyboard-response","211","957502","0.0-12.0-4.39","2d_cat_multi_stim_exp1","2022-5-3","16:3:33","25","75","3","9","10","40","30","120","85","21","[""Asian"",""White""]","No","Male","2938846","null","null","","","","clear_screen","","","","","","","","","","","","","","","","","","","","","","","","","",""
"","","","","","canvas-keyboard-response","212","958012","0.0-12.0-0.40","2d_cat_multi_stim_exp1","2022-5-3","16:3:33","25","75","3","9","10","40","30","120","85","21","[""Asian"",""White""]","No","Male","2938846","null","null","","","","fixation","","","","","","","","","","","","","","","","","","","","","","","","","",""
"","","","","","canvas-keyboard-response","213","958522","0.0-12.0-1.40","2d_cat_multi_stim_exp1","2022-5-3","16:3:33","25","75","3","9","10","40","30","120","85","21","[""Asian"",""White""]","No","Male","2938846","null","null","","","","clear_screen","","","","","","","","","","","","","","","","","","","","","","","","","",""
"","","","","","canvas-keyboard-response","214","959444","0.0-12.0-2.40","2d_cat_multi_stim_exp1","2022-5-3","16:3:33","25","75","3","9","10","40","30","120","85","21","[""Asian"",""White""]","No","Male","2938846","911","u","learn","","","learn_trial","25","75","in","1","1","","","","","","","","","","","","","","","","","","","","",""
"","","","","","canvas-keyboard-response","215","959953","0.0-12.0-3.40","2d_cat_multi_stim_exp1","2022-5-3","16:3:33","25","75","3","9","10","40","30","120","85","21","[""Asian"",""White""]","No","Male","2938846","null","null","learn_feedback","","","learn_feedback","25","75","in","","","","","","","","","","","","","","","","","","","","","","",""
"","","","","","canvas-keyboard-response","216","960016","0.0-12.0-4.40","2d_cat_multi_stim_exp1","2022-5-3","16:3:33","25","75","3","9","10","40","30","120","85","21","[""Asian"",""White""]","No","Male","2938846","null","null","","","","clear_screen","","","","","","","","","","","","","","","","","","","","","","","","","",""
"","","","","","canvas-keyboard-response","217","960524","0.0-12.0-0.41","2d_cat_multi_stim_exp1","2022-5-3","16:3:33","25","75","3","9","10","40","30","120","85","21","[""Asian"",""White""]","No","Male","2938846","null","null","","","","fixation","","","","","","","","","","","","","","","","","","","","","","","","","",""
"","","","","","canvas-keyboard-response","218","961034","0.0-12.0-1.41","2d_cat_multi_stim_exp1","2022-5-3","16:3:33","25","75","3","9","10","40","30","120","85","21","[""Asian"",""White""]","No","Male","2938846","null","null","","","","clear_screen","","","","","","","","","","","","","","","","","","","","","","","","","",""
"","","","","","canvas-keyboard-response","219","961939","0.0-12.0-2.41","2d_cat_multi_stim_exp1","2022-5-3","16:3:33","25","75","3","9","10","40","30","120","85","21","[""Asian"",""White""]","No","Male","2938846","896","u","learn","","","learn_trial","25","75","in","1","1","","","","","","","","","","","","","","","","","","","","",""
"","","","","","canvas-keyboard-response","220","962450","0.0-12.0-3.41","2d_cat_multi_stim_exp1","2022-5-3","16:3:33","25","75","3","9","10","40","30","120","85","21","[""Asian"",""White""]","No","Male","2938846","null","null","learn_feedback","","","learn_feedback","25","75","in","","","","","","","","","","","","","","","","","","","","","","",""
"","","","","","canvas-keyboard-response","221","962508","0.0-12.0-4.41","2d_cat_multi_stim_exp1","2022-5-3","16:3:33","25","75","3","9","10","40","30","120","85","21","[""Asian"",""White""]","No","Male","2938846","null","null","","","","clear_screen","","","","","","","","","","","","","","","","","","","","","","","","","",""
"","","","","","canvas-keyboard-response","222","963017","0.0-12.0-0.42","2d_cat_multi_stim_exp1","2022-5-3","16:3:33","25","75","3","9","10","40","30","120","85","21","[""Asian"",""White""]","No","Male","2938846","null","null","","","","fixation","","","","","","","","","","","","","","","","","","","","","","","","","",""
"","","","","","canvas-keyboard-response","223","963527","0.0-12.0-1.42","2d_cat_multi_stim_exp1","2022-5-3","16:3:33","25","75","3","9","10","40","30","120","85","21","[""Asian"",""White""]","No","Male","2938846","null","null","","","","clear_screen","","","","","","","","","","","","","","","","","","","","","","","","","",""
"","","","","","canvas-keyboard-response","224","965244","0.0-12.0-2.42","2d_cat_multi_stim_exp1","2022-5-3","16:3:33","25","75","3","9","10","40","30","120","85","21","[""Asian"",""White""]","No","Male","2938846","1705","i","learn","","","learn_trial","22.0121","74.1932","in","0","0","","","","","","","","","","","","","","","","","","","","",""
"","","","","","canvas-keyboard-response","225","966253","0.0-12.0-3.42","2d_cat_multi_stim_exp1","2022-5-3","16:3:33","25","75","3","9","10","40","30","120","85","21","[""Asian"",""White""]","No","Male","2938846","null","null","learn_feedback","","","learn_feedback","22.0121","74.1932","in","","","","","","","","","","","","","","","","","","","","","","",""
"","","","","","canvas-keyboard-response","226","966312","0.0-12.0-4.42","2d_cat_multi_stim_exp1","2022-5-3","16:3:33","25","75","3","9","10","40","30","120","85","21","[""Asian"",""White""]","No","Male","2938846","null","null","","","","clear_screen","","","","","","","","","","","","","","","","","","","","","","","","","",""
"","","","","","canvas-keyboard-response","227","966820","0.0-12.0-0.43","2d_cat_multi_stim_exp1","2022-5-3","16:3:33","25","75","3","9","10","40","30","120","85","21","[""Asian"",""White""]","No","Male","2938846","null","null","","","","fixation","","","","","","","","","","","","","","","","","","","","","","","","","",""
"","","","","","canvas-keyboard-response","228","967331","0.0-12.0-1.43","2d_cat_multi_stim_exp1","2022-5-3","16:3:33","25","75","3","9","10","40","30","120","85","21","[""Asian"",""White""]","No","Male","2938846","null","null","","","","clear_screen","","","","","","","","","","","","","","","","","","","","","","","","","",""
"","","","","","canvas-keyboard-response","229","968308","0.0-12.0-2.43","2d_cat_multi_stim_exp1","2022-5-3","16:3:33","25","75","3","9","10","40","30","120","85","21","[""Asian"",""White""]","No","Male","2938846","967","i","learn","","","learn_trial","36.6667","80","out","0","1","","","","","","","","","","","","","","","","","","","","",""
"","","","","","canvas-keyboard-response","230","968817","0.0-12.0-3.43","2d_cat_multi_stim_exp1","2022-5-3","16:3:33","25","75","3","9","10","40","30","120","85","21","[""Asian"",""White""]","No","Male","2938846","null","null","learn_feedback","","","learn_feedback","36.6667","80","out","","","","","","","","","","","","","","","","","","","","","","",""
"","","","","","canvas-keyboard-response","231","968877","0.0-12.0-4.43","2d_cat_multi_stim_exp1","2022-5-3","16:3:33","25","75","3","9","10","40","30","120","85","21","[""Asian"",""White""]","No","Male","2938846","null","null","","","","clear_screen","","","","","","","","","","","","","","","","","","","","","","","","","",""
"","","","","","canvas-keyboard-response","232","969386","0.0-12.0-0.44","2d_cat_multi_stim_exp1","2022-5-3","16:3:33","25","75","3","9","10","40","30","120","85","21","[""Asian"",""White""]","No","Male","2938846","null","null","","","","fixation","","","","","","","","","","","","","","","","","","","","","","","","","",""
"","","","","","canvas-keyboard-response","233","969895","0.0-12.0-1.44","2d_cat_multi_stim_exp1","2022-5-3","16:3:33","25","75","3","9","10","40","30","120","85","21","[""Asian"",""White""]","No","Male","2938846","null","null","","","","clear_screen","","","","","","","","","","","","","","","","","","","","","","","","","",""
"","","","","","canvas-keyboard-response","234","970587","0.0-12.0-2.44","2d_cat_multi_stim_exp1","2022-5-3","16:3:33","25","75","3","9","10","40","30","120","85","21","[""Asian"",""White""]","No","Male","2938846","682","i","learn","","","learn_trial","33.3333","50","out","0","1","","","","","","","","","","","","","","","","","","","","",""
"","","","","","canvas-keyboard-response","235","971097","0.0-12.0-3.44","2d_cat_multi_stim_exp1","2022-5-3","16:3:33","25","75","3","9","10","40","30","120","85","21","[""Asian"",""White""]","No","Male","2938846","null","null","learn_feedback","","","learn_feedback","33.3333","50","out","","","","","","","","","","","","","","","","","","","","","","",""
"","","","","","canvas-keyboard-response","236","971159","0.0-12.0-4.44","2d_cat_multi_stim_exp1","2022-5-3","16:3:33","25","75","3","9","10","40","30","120","85","21","[""Asian"",""White""]","No","Male","2938846","null","null","","","","clear_screen","","","","","","","","","","","","","","","","","","","","","","","","","",""
"","","","","","canvas-keyboard-response","237","971671","0.0-12.0-0.45","2d_cat_multi_stim_exp1","2022-5-3","16:3:33","25","75","3","9","10","40","30","120","85","21","[""Asian"",""White""]","No","Male","2938846","null","null","","","","fixation","","","","","","","","","","","","","","","","","","","","","","","","","",""
"","","","","","canvas-keyboard-response","238","972180","0.0-12.0-1.45","2d_cat_multi_stim_exp1","2022-5-3","16:3:33","25","75","3","9","10","40","30","120","85","21","[""Asian"",""White""]","No","Male","2938846","null","null","","","","clear_screen","","","","","","","","","","","","","","","","","","","","","","","","","",""
"","","","","","canvas-keyboard-response","239","973003","0.0-12.0-2.45","2d_cat_multi_stim_exp1","2022-5-3","16:3:33","25","75","3","9","10","40","30","120","85","21","[""Asian"",""White""]","No","Male","2938846","813","u","learn","","","learn_trial","22.5729","69.7099","in","1","1","","","","","","","","","","","","","","","","","","","","",""
"","","","","","canvas-keyboard-response","240","973514","0.0-12.0-3.45","2d_cat_multi_stim_exp1","2022-5-3","16:3:33","25","75","3","9","10","40","30","120","85","21","[""Asian"",""White""]","No","Male","2938846","null","null","learn_feedback","","","learn_feedback","22.5729","69.7099","in","","","","","","","","","","","","","","","","","","","","","","",""
"","","","","","canvas-keyboard-response","241","973573","0.0-12.0-4.45","2d_cat_multi_stim_exp1","2022-5-3","16:3:33","25","75","3","9","10","40","30","120","85","21","[""Asian"",""White""]","No","Male","2938846","null","null","","","","clear_screen","","","","","","","","","","","","","","","","","","","","","","","","","",""
"","","","","","canvas-keyboard-response","242","974082","0.0-12.0-0.46","2d_cat_multi_stim_exp1","2022-5-3","16:3:33","25","75","3","9","10","40","30","120","85","21","[""Asian"",""White""]","No","Male","2938846","null","null","","","","fixation","","","","","","","","","","","","","","","","","","","","","","","","","",""
"","","","","","canvas-keyboard-response","243","974592","0.0-12.0-1.46","2d_cat_multi_stim_exp1","2022-5-3","16:3:33","25","75","3","9","10","40","30","120","85","21","[""Asian"",""White""]","No","Male","2938846","null","null","","","","clear_screen","","","","","","","","","","","","","","","","","","","","","","","","","",""
"","","","","","canvas-keyboard-response","244","975635","0.0-12.0-2.46","2d_cat_multi_stim_exp1","2022-5-3","16:3:33","25","75","3","9","10","40","30","120","85","21","[""Asian"",""White""]","No","Male","2938846","1034","u","learn","","","learn_trial","22.9268","81.5052","in","1","1","","","","","","","","","","","","","","","","","","","","",""
"","","","","","canvas-keyboard-response","245","976148","0.0-12.0-3.46","2d_cat_multi_stim_exp1","2022-5-3","16:3:33","25","75","3","9","10","40","30","120","85","21","[""Asian"",""White""]","No","Male","2938846","null","null","learn_feedback","","","learn_feedback","22.9268","81.5052","in","","","","","","","","","","","","","","","","","","","","","","",""
"","","","","","canvas-keyboard-response","246","976207","0.0-12.0-4.46","2d_cat_multi_stim_exp1","2022-5-3","16:3:33","25","75","3","9","10","40","30","120","85","21","[""Asian"",""White""]","No","Male","2938846","null","null","","","","clear_screen","","","","","","","","","","","","","","","","","","","","","","","","","",""
"","","","","","canvas-keyboard-response","247","976716","0.0-12.0-0.47","2d_cat_multi_stim_exp1","2022-5-3","16:3:33","25","75","3","9","10","40","30","120","85","21","[""Asian"",""White""]","No","Male","2938846","null","null","","","","fixation","","","","","","","","","","","","","","","","","","","","","","","","","",""
"","","","","","canvas-keyboard-response","248","977226","0.0-12.0-1.47","2d_cat_multi_stim_exp1","2022-5-3","16:3:33","25","75","3","9","10","40","30","120","85","21","[""Asian"",""White""]","No","Male","2938846","null","null","","","","clear_screen","","","","","","","","","","","","","","","","","","","","","","","","","",""
"","","","","","canvas-keyboard-response","249","979299","0.0-12.0-2.47","2d_cat_multi_stim_exp1","2022-5-3","16:3:33","25","75","3","9","10","40","30","120","85","21","[""Asian"",""White""]","No","Male","2938846","2064","u","learn","","","learn_trial","25","75","in","1","1","","","","","","","","","","","","","","","","","","","","",""
"","","","","","canvas-keyboard-response","250","979809","0.0-12.0-3.47","2d_cat_multi_stim_exp1","2022-5-3","16:3:33","25","75","3","9","10","40","30","120","85","21","[""Asian"",""White""]","No","Male","2938846","null","null","learn_feedback","","","learn_feedback","25","75","in","","","","","","","","","","","","","","","","","","","","","","",""
"","","","","","canvas-keyboard-response","251","979867","0.0-12.0-4.47","2d_cat_multi_stim_exp1","2022-5-3","16:3:33","25","75","3","9","10","40","30","120","85","21","[""Asian"",""White""]","No","Male","2938846","null","null","","","","clear_screen","","","","","","","","","","","","","","","","","","","","","","","","","",""
"","","","","","canvas-keyboard-response","252","980379","0.0-12.0-0.48","2d_cat_multi_stim_exp1","2022-5-3","16:3:33","25","75","3","9","10","40","30","120","85","21","[""Asian"",""White""]","No","Male","2938846","null","null","","","","fixation","","","","","","","","","","","","","","","","","","","","","","","","","",""
"","","","","","canvas-keyboard-response","253","980889","0.0-12.0-1.48","2d_cat_multi_stim_exp1","2022-5-3","16:3:33","25","75","3","9","10","40","30","120","85","21","[""Asian"",""White""]","No","Male","2938846","null","null","","","","clear_screen","","","","","","","","","","","","","","","","","","","","","","","","","",""
"","","","","","canvas-keyboard-response","254","982555","0.0-12.0-2.48","2d_cat_multi_stim_exp1","2022-5-3","16:3:33","25","75","3","9","10","40","30","120","85","21","[""Asian"",""White""]","No","Male","2938846","1656","i","learn","","","learn_trial","29.2426","87.7279","in","0","0","","","","","","","","","","","","","","","","","","","","",""
"","","","","","canvas-keyboard-response","255","983565","0.0-12.0-3.48","2d_cat_multi_stim_exp1","2022-5-3","16:3:33","25","75","3","9","10","40","30","120","85","21","[""Asian"",""White""]","No","Male","2938846","null","null","learn_feedback","","","learn_feedback","29.2426","87.7279","in","","","","","","","","","","","","","","","","","","","","","","",""
"","","","","","canvas-keyboard-response","256","983624","0.0-12.0-4.48","2d_cat_multi_stim_exp1","2022-5-3","16:3:33","25","75","3","9","10","40","30","120","85","21","[""Asian"",""White""]","No","Male","2938846","null","null","","","","clear_screen","","","","","","","","","","","","","","","","","","","","","","","","","",""
"","","","","","canvas-keyboard-response","257","984133","0.0-12.0-0.49","2d_cat_multi_stim_exp1","2022-5-3","16:3:33","25","75","3","9","10","40","30","120","85","21","[""Asian"",""White""]","No","Male","2938846","null","null","","","","fixation","","","","","","","","","","","","","","","","","","","","","","","","","",""
"","","","","","canvas-keyboard-response","258","984643","0.0-12.0-1.49","2d_cat_multi_stim_exp1","2022-5-3","16:3:33","25","75","3","9","10","40","30","120","85","21","[""Asian"",""White""]","No","Male","2938846","null","null","","","","clear_screen","","","","","","","","","","","","","","","","","","","","","","","","","",""
"","","","","","canvas-keyboard-response","259","985291","0.0-12.0-2.49","2d_cat_multi_stim_exp1","2022-5-3","16:3:33","25","75","3","9","10","40","30","120","85","21","[""Asian"",""White""]","No","Male","2938846","639","i","learn","","","learn_trial","16.6667","110","out","0","1","","","","","","","","","","","","","","","","","","","","",""
"","","","","","canvas-keyboard-response","260","985800","0.0-12.0-3.49","2d_cat_multi_stim_exp1","2022-5-3","16:3:33","25","75","3","9","10","40","30","120","85","21","[""Asian"",""White""]","No","Male","2938846","null","null","learn_feedback","","","learn_feedback","16.6667","110","out","","","","","","","","","","","","","","","","","","","","","","",""
"","","","","","canvas-keyboard-response","261","985859","0.0-12.0-4.49","2d_cat_multi_stim_exp1","2022-5-3","16:3:33","25","75","3","9","10","40","30","120","85","21","[""Asian"",""White""]","No","Male","2938846","null","null","","","","clear_screen","","","","","","","","","","","","","","","","","","","","","","","","","",""
"","","","","","canvas-keyboard-response","262","986368","0.0-12.0-0.50","2d_cat_multi_stim_exp1","2022-5-3","16:3:33","25","75","3","9","10","40","30","120","85","21","[""Asian"",""White""]","No","Male","2938846","null","null","","","","fixation","","","","","","","","","","","","","","","","","","","","","","","","","",""
"","","","","","canvas-keyboard-response","263","986878","0.0-12.0-1.50","2d_cat_multi_stim_exp1","2022-5-3","16:3:33","25","75","3","9","10","40","30","120","85","21","[""Asian"",""White""]","No","Male","2938846","null","null","","","","clear_screen","","","","","","","","","","","","","","","","","","","","","","","","","",""
"","","","","","canvas-keyboard-response","264","987579","0.0-12.0-2.50","2d_cat_multi_stim_exp1","2022-5-3","16:3:33","25","75","3","9","10","40","30","120","85","21","[""Asian"",""White""]","No","Male","2938846","692","i","learn","","","learn_trial","13.3333","90","out","0","1","","","","","","","","","","","","","","","","","","","","",""
"","","","","","canvas-keyboard-response","265","988089","0.0-12.0-3.50","2d_cat_multi_stim_exp1","2022-5-3","16:3:33","25","75","3","9","10","40","30","120","85","21","[""Asian"",""White""]","No","Male","2938846","null","null","learn_feedback","","","learn_feedback","13.3333","90","out","","","","","","","","","","","","","","","","","","","","","","",""
"","","","","","canvas-keyboard-response","266","988148","0.0-12.0-4.50","2d_cat_multi_stim_exp1","2022-5-3","16:3:33","25","75","3","9","10","40","30","120","85","21","[""Asian"",""White""]","No","Male","2938846","null","null","","","","clear_screen","","","","","","","","","","","","","","","","","","","","","","","","","",""
"","","","","","canvas-keyboard-response","267","988657","0.0-12.0-0.51","2d_cat_multi_stim_exp1","2022-5-3","16:3:33","25","75","3","9","10","40","30","120","85","21","[""Asian"",""White""]","No","Male","2938846","null","null","","","","fixation","","","","","","","","","","","","","","","","","","","","","","","","","",""
"","","","","","canvas-keyboard-response","268","989168","0.0-12.0-1.51","2d_cat_multi_stim_exp1","2022-5-3","16:3:33","25","75","3","9","10","40","30","120","85","21","[""Asian"",""White""]","No","Male","2938846","null","null","","","","clear_screen","","","","","","","","","","","","","","","","","","","","","","","","","",""
"","","","","","canvas-keyboard-response","269","989739","0.0-12.0-2.51","2d_cat_multi_stim_exp1","2022-5-3","16:3:33","25","75","3","9","10","40","30","120","85","21","[""Asian"",""White""]","No","Male","2938846","558","u","learn","","","learn_trial","25","75","in","1","1","","","","","","","","","","","","","","","","","","","","",""
"","","","","","canvas-keyboard-response","270","990255","0.0-12.0-3.51","2d_cat_multi_stim_exp1","2022-5-3","16:3:33","25","75","3","9","10","40","30","120","85","21","[""Asian"",""White""]","No","Male","2938846","null","null","learn_feedback","","","learn_feedback","25","75","in","","","","","","","","","","","","","","","","","","","","","","",""
"","","","","","canvas-keyboard-response","271","990315","0.0-12.0-4.51","2d_cat_multi_stim_exp1","2022-5-3","16:3:33","25","75","3","9","10","40","30","120","85","21","[""Asian"",""White""]","No","Male","2938846","null","null","","","","clear_screen","","","","","","","","","","","","","","","","","","","","","","","","","",""
"","","","","","canvas-keyboard-response","272","990825","0.0-12.0-0.52","2d_cat_multi_stim_exp1","2022-5-3","16:3:33","25","75","3","9","10","40","30","120","85","21","[""Asian"",""White""]","No","Male","2938846","null","null","","","","fixation","","","","","","","","","","","","","","","","","","","","","","","","","",""
"","","","","","canvas-keyboard-response","273","991335","0.0-12.0-1.52","2d_cat_multi_stim_exp1","2022-5-3","16:3:33","25","75","3","9","10","40","30","120","85","21","[""Asian"",""White""]","No","Male","2938846","null","null","","","","clear_screen","","","","","","","","","","","","","","","","","","","","","","","","","",""
"","","","","","canvas-keyboard-response","274","992139","0.0-12.0-2.52","2d_cat_multi_stim_exp1","2022-5-3","16:3:33","25","75","3","9","10","40","30","120","85","21","[""Asian"",""White""]","No","Male","2938846","794","i","learn","","","learn_trial","20","100","out","0","1","","","","","","","","","","","","","","","","","","","","",""
"","","","","","canvas-keyboard-response","275","992650","0.0-12.0-3.52","2d_cat_multi_stim_exp1","2022-5-3","16:3:33","25","75","3","9","10","40","30","120","85","21","[""Asian"",""White""]","No","Male","2938846","null","null","learn_feedback","","","learn_feedback","20","100","out","","","","","","","","","","","","","","","","","","","","","","",""
"","","","","","canvas-keyboard-response","276","992709","0.0-12.0-4.52","2d_cat_multi_stim_exp1","2022-5-3","16:3:33","25","75","3","9","10","40","30","120","85","21","[""Asian"",""White""]","No","Male","2938846","null","null","","","","clear_screen","","","","","","","","","","","","","","","","","","","","","","","","","",""
"","","","","","canvas-keyboard-response","277","993220","0.0-12.0-0.53","2d_cat_multi_stim_exp1","2022-5-3","16:3:33","25","75","3","9","10","40","30","120","85","21","[""Asian"",""White""]","No","Male","2938846","null","null","","","","fixation","","","","","","","","","","","","","","","","","","","","","","","","","",""
"","","","","","canvas-keyboard-response","278","993731","0.0-12.0-1.53","2d_cat_multi_stim_exp1","2022-5-3","16:3:33","25","75","3","9","10","40","30","120","85","21","[""Asian"",""White""]","No","Male","2938846","null","null","","","","clear_screen","","","","","","","","","","","","","","","","","","","","","","","","","",""
"","","","","","canvas-keyboard-response","279","995275","0.0-12.0-2.53","2d_cat_multi_stim_exp1","2022-5-3","16:3:33","25","75","3","9","10","40","30","120","85","21","[""Asian"",""White""]","No","Male","2938846","1535","u","learn","","","learn_trial","19","75","in","1","1","","","","","","","","","","","","","","","","","","","","",""
"","","","","","canvas-keyboard-response","280","995785","0.0-12.0-3.53","2d_cat_multi_stim_exp1","2022-5-3","16:3:33","25","75","3","9","10","40","30","120","85","21","[""Asian"",""White""]","No","Male","2938846","null","null","learn_feedback","","","learn_feedback","19","75","in","","","","","","","","","","","","","","","","","","","","","","",""
"","","","","","canvas-keyboard-response","281","995844","0.0-12.0-4.53","2d_cat_multi_stim_exp1","2022-5-3","16:3:33","25","75","3","9","10","40","30","120","85","21","[""Asian"",""White""]","No","Male","2938846","null","null","","","","clear_screen","","","","","","","","","","","","","","","","","","","","","","","","","",""
"","","","","","canvas-keyboard-response","282","996354","0.0-12.0-0.54","2d_cat_multi_stim_exp1","2022-5-3","16:3:33","25","75","3","9","10","40","30","120","85","21","[""Asian"",""White""]","No","Male","2938846","null","null","","","","fixation","","","","","","","","","","","","","","","","","","","","","","","","","",""
"","","","","","canvas-keyboard-response","283","996864","0.0-12.0-1.54","2d_cat_multi_stim_exp1","2022-5-3","16:3:33","25","75","3","9","10","40","30","120","85","21","[""Asian"",""White""]","No","Male","2938846","null","null","","","","clear_screen","","","","","","","","","","","","","","","","","","","","","","","","","",""
"","","","","","canvas-keyboard-response","284","997571","0.0-12.0-2.54","2d_cat_multi_stim_exp1","2022-5-3","16:3:33","25","75","3","9","10","40","30","120","85","21","[""Asian"",""White""]","No","Male","2938846","699","i","learn","","","learn_trial","20","110","out","0","1","","","","","","","","","","","","","","","","","","","","",""
"","","","","","canvas-keyboard-response","285","998081","0.0-12.0-3.54","2d_cat_multi_stim_exp1","2022-5-3","16:3:33","25","75","3","9","10","40","30","120","85","21","[""Asian"",""White""]","No","Male","2938846","null","null","learn_feedback","","","learn_feedback","20","110","out","","","","","","","","","","","","","","","","","","","","","","",""
"","","","","","canvas-keyboard-response","286","998140","0.0-12.0-4.54","2d_cat_multi_stim_exp1","2022-5-3","16:3:33","25","75","3","9","10","40","30","120","85","21","[""Asian"",""White""]","No","Male","2938846","null","null","","","","clear_screen","","","","","","","","","","","","","","","","","","","","","","","","","",""
"","","","","","canvas-keyboard-response","287","998649","0.0-12.0-0.55","2d_cat_multi_stim_exp1","2022-5-3","16:3:33","25","75","3","9","10","40","30","120","85","21","[""Asian"",""White""]","No","Male","2938846","null","null","","","","fixation","","","","","","","","","","","","","","","","","","","","","","","","","",""
"","","","","","canvas-keyboard-response","288","999159","0.0-12.0-1.55","2d_cat_multi_stim_exp1","2022-5-3","16:3:33","25","75","3","9","10","40","30","120","85","21","[""Asian"",""White""]","No","Male","2938846","null","null","","","","clear_screen","","","","","","","","","","","","","","","","","","","","","","","","","",""
"","","","","","canvas-keyboard-response","289","999987","0.0-12.0-2.55","2d_cat_multi_stim_exp1","2022-5-3","16:3:33","25","75","3","9","10","40","30","120","85","21","[""Asian"",""White""]","No","Male","2938846","819","u","learn","","","learn_trial","36.6667","110","out","1","0","","","","","","","","","","","","","","","","","","","","",""
"","","","","","canvas-keyboard-response","290","1000996","0.0-12.0-3.55","2d_cat_multi_stim_exp1","2022-5-3","16:3:33","25","75","3","9","10","40","30","120","85","21","[""Asian"",""White""]","No","Male","2938846","null","null","learn_feedback","","","learn_feedback","36.6667","110","out","","","","","","","","","","","","","","","","","","","","","","",""
