"success","timeout","failed_images","failed_audio","failed_video","trial_type","trial_index","time_elapsed","internal_node_id","exp_name","date","time","angle_mean_in","radius_mean_in","angle_sd_in","radius_sd_in","angle_min_out","angle_max_out","radius_min_out","radius_max_out","sub_n","age","race","ethnicity","gender","exp_duration","rt","response","exp_trial_type","stimulus","view_history","screen_id","angle","radius","distribution","choice","correct","order","angle_a","radius_a","angle_b","radius_b","jkl_correct","transfer_trial_type","choice_set","abc_correct","tc_correct","tc_angle","tdc_a","tdc_b","tdc_c","pair","category_a","category_b","category_c","angle_c","radius_c","question_order"
"true","false","[]","[]","[]","preload","0","15","0.0-0.0","2d_cat_multi_stim_exp1","2022-5-3","9:24:41","25","75","3","9","10","40","30","120","79","22","[""White""]","No","Female","2529729","","","","","","","","","","","","","","","","","","","","","","","","","","","","","","","",""
"","","","","","survey-html-form","1","4165","0.0-1.0","2d_cat_multi_stim_exp1","2022-5-3","9:24:41","25","75","3","9","10","40","30","120","79","22","[""White""]","No","Female","2529729","4138","{""response"":""79""}","enter-sub-number","","","","","","","","","","","","","","","","","","","","","","","","","","","","",""
"true","","","","","fullscreen","2","5995","0.0-2.0","2d_cat_multi_stim_exp1","2022-5-3","9:24:41","25","75","3","9","10","40","30","120","79","22","[""White""]","No","Female","2529729","","","","","","","","","","","","","","","","","","","","","","","","","","","","","","","",""
"","","","","","image-button-response","3","25826","0.0-3.0","2d_cat_multi_stim_exp1","2022-5-3","9:24:41","25","75","3","9","10","40","30","120","79","22","[""White""]","No","Female","2529729","19824","0","","consent.png","","","","","","","","","","","","","","","","","","","","","","","","","","","",""
"","","","","","html-button-response","4","28354","0.0-4.0","2d_cat_multi_stim_exp1","2022-5-3","9:24:41","25","75","3","9","10","40","30","120","79","22","[""White""]","No","Female","2529729","2522","0","","<div style= ""font-size:25px;"" <p> <strong> Welcome to the experiment! </strong><br> <p style=""color:#8B0000; font-size:25px;""><strong> Please do NOT exit full screen until you are done with the experiment. </strong> </p><p style=""font-size:25px;color:#8B0000;""> <strong> The experiment will be canceled and your data will be lost <br> if you try to go back or refresh the page at any point during the experiment.</strong> </p><br><p> <strong> Thanks in advance for your contribution to our research! </strong></p>","","","","","","","","","","","","","","","","","","","","","","","","","","","",""
"","","","","","instructions","5","100739","0.0-5.0","2d_cat_multi_stim_exp1","2022-5-3","9:24:41","25","75","3","9","10","40","30","120","79","22","[""White""]","No","Female","2529729","72377","","","","[{""page_index"":0,""viewing_time"":10274},{""page_index"":1,""viewing_time"":6800},{""page_index"":2,""viewing_time"":24407},{""page_index"":3,""viewing_time"":30896}]","instructions_1","","","","","","","","","","","","","","","","","","","","","","","","","",""
"","","","","","instructions","6","103874","0.0-6.0","2d_cat_multi_stim_exp1","2022-5-3","9:24:41","25","75","3","9","10","40","30","120","79","22","[""White""]","No","Female","2529729","3131","","","","[{""page_index"":0,""viewing_time"":3130}]","Click to see the kinds of turtles that will appear in the study.","","","","","","","","","","","","","","","","","","","","","","","","","",""
"","","","","","canvas-keyboard-response","7","118891","0.0-7.0","2d_cat_multi_stim_exp1","2022-5-3","9:24:41","25","75","3","9","10","40","30","120","79","22","[""White""]","No","Female","2529729","null","null","","","","demo_range","","","","","","","","","","","","","","","","","","","","","","","","","",""
"","","","","","instructions","8","121394","0.0-8.0","2d_cat_multi_stim_exp1","2022-5-3","9:24:41","25","75","3","9","10","40","30","120","79","22","[""White""]","No","Female","2529729","2001","","","","[{""page_index"":0,""viewing_time"":2000}]","Click to see some turtles in the subspecies.","","","","","","","","","","","","","","","","","","","","","","","","","",""
"","","","","","canvas-keyboard-response","9","136410","0.0-9.0","2d_cat_multi_stim_exp1","2022-5-3","9:24:41","25","75","3","9","10","40","30","120","79","22","[""White""]","No","Female","2529729","null","null","","","","demo_in","","","","","","","","","","","","","","","","","","","","","","","","","",""
"","","","","","instructions","10","173779","0.0-10.0","2d_cat_multi_stim_exp1","2022-5-3","9:24:41","25","75","3","9","10","40","30","120","79","22","[""White""]","No","Female","2529729","36866","","","","[{""page_index"":0,""viewing_time"":5528},{""page_index"":1,""viewing_time"":25433},{""page_index"":2,""viewing_time"":5904}]","instructions_2","","","","","","","","","","","","","","","","","","","","","","","","","",""
"","","","","","instructions","11","180225","0.0-11.0","2d_cat_multi_stim_exp1","2022-5-3","9:24:41","25","75","3","9","10","40","30","120","79","22","[""White""]","No","Female","2529729","6443","","","","[{""page_index"":0,""viewing_time"":6442}]","Click to begin the first phase of the experiment.","","","","","","","","","","","","","","","","","","","","","","","","","",""
"","","","","","canvas-keyboard-response","12","180739","0.0-12.0-0.0","2d_cat_multi_stim_exp1","2022-5-3","9:24:41","25","75","3","9","10","40","30","120","79","22","[""White""]","No","Female","2529729","null","null","","","","fixation","","","","","","","","","","","","","","","","","","","","","","","","","",""
"","","","","","canvas-keyboard-response","13","181250","0.0-12.0-1.0","2d_cat_multi_stim_exp1","2022-5-3","9:24:41","25","75","3","9","10","40","30","120","79","22","[""White""]","No","Female","2529729","null","null","","","","clear_screen","","","","","","","","","","","","","","","","","","","","","","","","","",""
"","","","","","canvas-keyboard-response","14","183866","0.0-12.0-2.0","2d_cat_multi_stim_exp1","2022-5-3","9:24:41","25","75","3","9","10","40","30","120","79","22","[""White""]","No","Female","2529729","2606","u","learn","","","learn_trial","25","75","in","1","1","","","","","","","","","","","","","","","","","","","","",""
"","","","","","canvas-keyboard-response","15","184378","0.0-12.0-3.0","2d_cat_multi_stim_exp1","2022-5-3","9:24:41","25","75","3","9","10","40","30","120","79","22","[""White""]","No","Female","2529729","null","null","learn_feedback","","","learn_feedback","25","75","in","","","","","","","","","","","","","","","","","","","","","","",""
"","","","","","canvas-keyboard-response","16","184438","0.0-12.0-4.0","2d_cat_multi_stim_exp1","2022-5-3","9:24:41","25","75","3","9","10","40","30","120","79","22","[""White""]","No","Female","2529729","null","null","","","","clear_screen","","","","","","","","","","","","","","","","","","","","","","","","","",""
"","","","","","canvas-keyboard-response","17","184950","0.0-12.0-0.1","2d_cat_multi_stim_exp1","2022-5-3","9:24:41","25","75","3","9","10","40","30","120","79","22","[""White""]","No","Female","2529729","null","null","","","","fixation","","","","","","","","","","","","","","","","","","","","","","","","","",""
"","","","","","canvas-keyboard-response","18","185464","0.0-12.0-1.1","2d_cat_multi_stim_exp1","2022-5-3","9:24:41","25","75","3","9","10","40","30","120","79","22","[""White""]","No","Female","2529729","null","null","","","","clear_screen","","","","","","","","","","","","","","","","","","","","","","","","","",""
"","","","","","canvas-keyboard-response","19","187754","0.0-12.0-2.1","2d_cat_multi_stim_exp1","2022-5-3","9:24:41","25","75","3","9","10","40","30","120","79","22","[""White""]","No","Female","2529729","2278","u","learn","","","learn_trial","26.6667","90","out","1","0","","","","","","","","","","","","","","","","","","","","",""
"","","","","","canvas-keyboard-response","20","188764","0.0-12.0-3.1","2d_cat_multi_stim_exp1","2022-5-3","9:24:41","25","75","3","9","10","40","30","120","79","22","[""White""]","No","Female","2529729","null","null","learn_feedback","","","learn_feedback","26.6667","90","out","","","","","","","","","","","","","","","","","","","","","","",""
"","","","","","canvas-keyboard-response","21","188826","0.0-12.0-4.1","2d_cat_multi_stim_exp1","2022-5-3","9:24:41","25","75","3","9","10","40","30","120","79","22","[""White""]","No","Female","2529729","null","null","","","","clear_screen","","","","","","","","","","","","","","","","","","","","","","","","","",""
"","","","","","canvas-keyboard-response","22","189335","0.0-12.0-0.2","2d_cat_multi_stim_exp1","2022-5-3","9:24:41","25","75","3","9","10","40","30","120","79","22","[""White""]","No","Female","2529729","null","null","","","","fixation","","","","","","","","","","","","","","","","","","","","","","","","","",""
"","","","","","canvas-keyboard-response","23","189846","0.0-12.0-1.2","2d_cat_multi_stim_exp1","2022-5-3","9:24:41","25","75","3","9","10","40","30","120","79","22","[""White""]","No","Female","2529729","null","null","","","","clear_screen","","","","","","","","","","","","","","","","","","","","","","","","","",""
"","","","","","canvas-keyboard-response","24","193314","0.0-12.0-2.2","2d_cat_multi_stim_exp1","2022-5-3","9:24:41","25","75","3","9","10","40","30","120","79","22","[""White""]","No","Female","2529729","3459","u","learn","","","learn_trial","25","75","in","1","1","","","","","","","","","","","","","","","","","","","","",""
"","","","","","canvas-keyboard-response","25","193824","0.0-12.0-3.2","2d_cat_multi_stim_exp1","2022-5-3","9:24:41","25","75","3","9","10","40","30","120","79","22","[""White""]","No","Female","2529729","null","null","learn_feedback","","","learn_feedback","25","75","in","","","","","","","","","","","","","","","","","","","","","","",""
"","","","","","canvas-keyboard-response","26","193885","0.0-12.0-4.2","2d_cat_multi_stim_exp1","2022-5-3","9:24:41","25","75","3","9","10","40","30","120","79","22","[""White""]","No","Female","2529729","null","null","","","","clear_screen","","","","","","","","","","","","","","","","","","","","","","","","","",""
"","","","","","canvas-keyboard-response","27","194393","0.0-12.0-0.3","2d_cat_multi_stim_exp1","2022-5-3","9:24:41","25","75","3","9","10","40","30","120","79","22","[""White""]","No","Female","2529729","null","null","","","","fixation","","","","","","","","","","","","","","","","","","","","","","","","","",""
"","","","","","canvas-keyboard-response","28","194908","0.0-12.0-1.3","2d_cat_multi_stim_exp1","2022-5-3","9:24:41","25","75","3","9","10","40","30","120","79","22","[""White""]","No","Female","2529729","null","null","","","","clear_screen","","","","","","","","","","","","","","","","","","","","","","","","","",""
"","","","","","canvas-keyboard-response","29","196105","0.0-12.0-2.3","2d_cat_multi_stim_exp1","2022-5-3","9:24:41","25","75","3","9","10","40","30","120","79","22","[""White""]","No","Female","2529729","1189","u","learn","","","learn_trial","27.9518","76.607","in","1","1","","","","","","","","","","","","","","","","","","","","",""
"","","","","","canvas-keyboard-response","30","196617","0.0-12.0-3.3","2d_cat_multi_stim_exp1","2022-5-3","9:24:41","25","75","3","9","10","40","30","120","79","22","[""White""]","No","Female","2529729","null","null","learn_feedback","","","learn_feedback","27.9518","76.607","in","","","","","","","","","","","","","","","","","","","","","","",""
"","","","","","canvas-keyboard-response","31","196678","0.0-12.0-4.3","2d_cat_multi_stim_exp1","2022-5-3","9:24:41","25","75","3","9","10","40","30","120","79","22","[""White""]","No","Female","2529729","null","null","","","","clear_screen","","","","","","","","","","","","","","","","","","","","","","","","","",""
"","","","","","canvas-keyboard-response","32","197185","0.0-12.0-0.4","2d_cat_multi_stim_exp1","2022-5-3","9:24:41","25","75","3","9","10","40","30","120","79","22","[""White""]","No","Female","2529729","null","null","","","","fixation","","","","","","","","","","","","","","","","","","","","","","","","","",""
"","","","","","canvas-keyboard-response","33","197695","0.0-12.0-1.4","2d_cat_multi_stim_exp1","2022-5-3","9:24:41","25","75","3","9","10","40","30","120","79","22","[""White""]","No","Female","2529729","null","null","","","","clear_screen","","","","","","","","","","","","","","","","","","","","","","","","","",""
"","","","","","canvas-keyboard-response","34","202410","0.0-12.0-2.4","2d_cat_multi_stim_exp1","2022-5-3","9:24:41","25","75","3","9","10","40","30","120","79","22","[""White""]","No","Female","2529729","4705","u","learn","","","learn_trial","27.8087","71.8376","in","1","1","","","","","","","","","","","","","","","","","","","","",""
"","","","","","canvas-keyboard-response","35","202921","0.0-12.0-3.4","2d_cat_multi_stim_exp1","2022-5-3","9:24:41","25","75","3","9","10","40","30","120","79","22","[""White""]","No","Female","2529729","null","null","learn_feedback","","","learn_feedback","27.8087","71.8376","in","","","","","","","","","","","","","","","","","","","","","","",""
"","","","","","canvas-keyboard-response","36","202983","0.0-12.0-4.4","2d_cat_multi_stim_exp1","2022-5-3","9:24:41","25","75","3","9","10","40","30","120","79","22","[""White""]","No","Female","2529729","null","null","","","","clear_screen","","","","","","","","","","","","","","","","","","","","","","","","","",""
"","","","","","canvas-keyboard-response","37","203492","0.0-12.0-0.5","2d_cat_multi_stim_exp1","2022-5-3","9:24:41","25","75","3","9","10","40","30","120","79","22","[""White""]","No","Female","2529729","null","null","","","","fixation","","","","","","","","","","","","","","","","","","","","","","","","","",""
"","","","","","canvas-keyboard-response","38","204001","0.0-12.0-1.5","2d_cat_multi_stim_exp1","2022-5-3","9:24:41","25","75","3","9","10","40","30","120","79","22","[""White""]","No","Female","2529729","null","null","","","","clear_screen","","","","","","","","","","","","","","","","","","","","","","","","","",""
"","","","","","canvas-keyboard-response","39","206050","0.0-12.0-2.5","2d_cat_multi_stim_exp1","2022-5-3","9:24:41","25","75","3","9","10","40","30","120","79","22","[""White""]","No","Female","2529729","2037","i","learn","","","learn_trial","26.6667","110","out","0","1","","","","","","","","","","","","","","","","","","","","",""
"","","","","","canvas-keyboard-response","40","206561","0.0-12.0-3.5","2d_cat_multi_stim_exp1","2022-5-3","9:24:41","25","75","3","9","10","40","30","120","79","22","[""White""]","No","Female","2529729","null","null","learn_feedback","","","learn_feedback","26.6667","110","out","","","","","","","","","","","","","","","","","","","","","","",""
"","","","","","canvas-keyboard-response","41","206624","0.0-12.0-4.5","2d_cat_multi_stim_exp1","2022-5-3","9:24:41","25","75","3","9","10","40","30","120","79","22","[""White""]","No","Female","2529729","null","null","","","","clear_screen","","","","","","","","","","","","","","","","","","","","","","","","","",""
"","","","","","canvas-keyboard-response","42","207133","0.0-12.0-0.6","2d_cat_multi_stim_exp1","2022-5-3","9:24:41","25","75","3","9","10","40","30","120","79","22","[""White""]","No","Female","2529729","null","null","","","","fixation","","","","","","","","","","","","","","","","","","","","","","","","","",""
"","","","","","canvas-keyboard-response","43","207646","0.0-12.0-1.6","2d_cat_multi_stim_exp1","2022-5-3","9:24:41","25","75","3","9","10","40","30","120","79","22","[""White""]","No","Female","2529729","null","null","","","","clear_screen","","","","","","","","","","","","","","","","","","","","","","","","","",""
"","","","","","canvas-keyboard-response","44","209273","0.0-12.0-2.6","2d_cat_multi_stim_exp1","2022-5-3","9:24:41","25","75","3","9","10","40","30","120","79","22","[""White""]","No","Female","2529729","1619","u","learn","","","learn_trial","13.3333","70","out","1","0","","","","","","","","","","","","","","","","","","","","",""
"","","","","","canvas-keyboard-response","45","210284","0.0-12.0-3.6","2d_cat_multi_stim_exp1","2022-5-3","9:24:41","25","75","3","9","10","40","30","120","79","22","[""White""]","No","Female","2529729","null","null","learn_feedback","","","learn_feedback","13.3333","70","out","","","","","","","","","","","","","","","","","","","","","","",""
"","","","","","canvas-keyboard-response","46","210346","0.0-12.0-4.6","2d_cat_multi_stim_exp1","2022-5-3","9:24:41","25","75","3","9","10","40","30","120","79","22","[""White""]","No","Female","2529729","null","null","","","","clear_screen","","","","","","","","","","","","","","","","","","","","","","","","","",""
"","","","","","canvas-keyboard-response","47","210854","0.0-12.0-0.7","2d_cat_multi_stim_exp1","2022-5-3","9:24:41","25","75","3","9","10","40","30","120","79","22","[""White""]","No","Female","2529729","null","null","","","","fixation","","","","","","","","","","","","","","","","","","","","","","","","","",""
"","","","","","canvas-keyboard-response","48","211364","0.0-12.0-1.7","2d_cat_multi_stim_exp1","2022-5-3","9:24:41","25","75","3","9","10","40","30","120","79","22","[""White""]","No","Female","2529729","null","null","","","","clear_screen","","","","","","","","","","","","","","","","","","","","","","","","","",""
"","","","","","canvas-keyboard-response","49","214777","0.0-12.0-2.7","2d_cat_multi_stim_exp1","2022-5-3","9:24:41","25","75","3","9","10","40","30","120","79","22","[""White""]","No","Female","2529729","3406","u","learn","","","learn_trial","40","80","out","1","0","","","","","","","","","","","","","","","","","","","","",""
"","","","","","canvas-keyboard-response","50","215786","0.0-12.0-3.7","2d_cat_multi_stim_exp1","2022-5-3","9:24:41","25","75","3","9","10","40","30","120","79","22","[""White""]","No","Female","2529729","null","null","learn_feedback","","","learn_feedback","40","80","out","","","","","","","","","","","","","","","","","","","","","","",""
"","","","","","canvas-keyboard-response","51","215848","0.0-12.0-4.7","2d_cat_multi_stim_exp1","2022-5-3","9:24:41","25","75","3","9","10","40","30","120","79","22","[""White""]","No","Female","2529729","null","null","","","","clear_screen","","","","","","","","","","","","","","","","","","","","","","","","","",""
"","","","","","canvas-keyboard-response","52","216355","0.0-12.0-0.8","2d_cat_multi_stim_exp1","2022-5-3","9:24:41","25","75","3","9","10","40","30","120","79","22","[""White""]","No","Female","2529729","null","null","","","","fixation","","","","","","","","","","","","","","","","","","","","","","","","","",""
"","","","","","canvas-keyboard-response","53","216867","0.0-12.0-1.8","2d_cat_multi_stim_exp1","2022-5-3","9:24:41","25","75","3","9","10","40","30","120","79","22","[""White""]","No","Female","2529729","null","null","","","","clear_screen","","","","","","","","","","","","","","","","","","","","","","","","","",""
"","","","","","canvas-keyboard-response","54","217985","0.0-12.0-2.8","2d_cat_multi_stim_exp1","2022-5-3","9:24:41","25","75","3","9","10","40","30","120","79","22","[""White""]","No","Female","2529729","1109","u","learn","","","learn_trial","25","75","in","1","1","","","","","","","","","","","","","","","","","","","","",""
"","","","","","canvas-keyboard-response","55","218495","0.0-12.0-3.8","2d_cat_multi_stim_exp1","2022-5-3","9:24:41","25","75","3","9","10","40","30","120","79","22","[""White""]","No","Female","2529729","null","null","learn_feedback","","","learn_feedback","25","75","in","","","","","","","","","","","","","","","","","","","","","","",""
"","","","","","canvas-keyboard-response","56","218551","0.0-12.0-4.8","2d_cat_multi_stim_exp1","2022-5-3","9:24:41","25","75","3","9","10","40","30","120","79","22","[""White""]","No","Female","2529729","null","null","","","","clear_screen","","","","","","","","","","","","","","","","","","","","","","","","","",""
"","","","","","canvas-keyboard-response","57","219061","0.0-12.0-0.9","2d_cat_multi_stim_exp1","2022-5-3","9:24:41","25","75","3","9","10","40","30","120","79","22","[""White""]","No","Female","2529729","null","null","","","","fixation","","","","","","","","","","","","","","","","","","","","","","","","","",""
"","","","","","canvas-keyboard-response","58","219569","0.0-12.0-1.9","2d_cat_multi_stim_exp1","2022-5-3","9:24:41","25","75","3","9","10","40","30","120","79","22","[""White""]","No","Female","2529729","null","null","","","","clear_screen","","","","","","","","","","","","","","","","","","","","","","","","","",""
"","","","","","canvas-keyboard-response","59","221625","0.0-12.0-2.9","2d_cat_multi_stim_exp1","2022-5-3","9:24:41","25","75","3","9","10","40","30","120","79","22","[""White""]","No","Female","2529729","2046","i","learn","","","learn_trial","23.3333","120","out","0","1","","","","","","","","","","","","","","","","","","","","",""
"","","","","","canvas-keyboard-response","60","222137","0.0-12.0-3.9","2d_cat_multi_stim_exp1","2022-5-3","9:24:41","25","75","3","9","10","40","30","120","79","22","[""White""]","No","Female","2529729","null","null","learn_feedback","","","learn_feedback","23.3333","120","out","","","","","","","","","","","","","","","","","","","","","","",""
"","","","","","canvas-keyboard-response","61","222195","0.0-12.0-4.9","2d_cat_multi_stim_exp1","2022-5-3","9:24:41","25","75","3","9","10","40","30","120","79","22","[""White""]","No","Female","2529729","null","null","","","","clear_screen","","","","","","","","","","","","","","","","","","","","","","","","","",""
"","","","","","canvas-keyboard-response","62","222704","0.0-12.0-0.10","2d_cat_multi_stim_exp1","2022-5-3","9:24:41","25","75","3","9","10","40","30","120","79","22","[""White""]","No","Female","2529729","null","null","","","","fixation","","","","","","","","","","","","","","","","","","","","","","","","","",""
"","","","","","canvas-keyboard-response","63","223219","0.0-12.0-1.10","2d_cat_multi_stim_exp1","2022-5-3","9:24:41","25","75","3","9","10","40","30","120","79","22","[""White""]","No","Female","2529729","null","null","","","","clear_screen","","","","","","","","","","","","","","","","","","","","","","","","","",""
"","","","","","canvas-keyboard-response","64","225858","0.0-12.0-2.10","2d_cat_multi_stim_exp1","2022-5-3","9:24:41","25","75","3","9","10","40","30","120","79","22","[""White""]","No","Female","2529729","2629","u","learn","","","learn_trial","27.8087","78.1624","in","1","1","","","","","","","","","","","","","","","","","","","","",""
"","","","","","canvas-keyboard-response","65","226367","0.0-12.0-3.10","2d_cat_multi_stim_exp1","2022-5-3","9:24:41","25","75","3","9","10","40","30","120","79","22","[""White""]","No","Female","2529729","null","null","learn_feedback","","","learn_feedback","27.8087","78.1624","in","","","","","","","","","","","","","","","","","","","","","","",""
"","","","","","canvas-keyboard-response","66","226429","0.0-12.0-4.10","2d_cat_multi_stim_exp1","2022-5-3","9:24:41","25","75","3","9","10","40","30","120","79","22","[""White""]","No","Female","2529729","null","null","","","","clear_screen","","","","","","","","","","","","","","","","","","","","","","","","","",""
"","","","","","canvas-keyboard-response","67","226936","0.0-12.0-0.11","2d_cat_multi_stim_exp1","2022-5-3","9:24:41","25","75","3","9","10","40","30","120","79","22","[""White""]","No","Female","2529729","null","null","","","","fixation","","","","","","","","","","","","","","","","","","","","","","","","","",""
"","","","","","canvas-keyboard-response","68","227440","0.0-12.0-1.11","2d_cat_multi_stim_exp1","2022-5-3","9:24:41","25","75","3","9","10","40","30","120","79","22","[""White""]","No","Female","2529729","null","null","","","","clear_screen","","","","","","","","","","","","","","","","","","","","","","","","","",""
"","","","","","canvas-keyboard-response","69","235178","0.0-12.0-2.11","2d_cat_multi_stim_exp1","2022-5-3","9:24:41","25","75","3","9","10","40","30","120","79","22","[""White""]","No","Female","2529729","7729","i","learn","","","learn_trial","23.3333","80","out","0","1","","","","","","","","","","","","","","","","","","","","",""
"","","","","","canvas-keyboard-response","70","235686","0.0-12.0-3.11","2d_cat_multi_stim_exp1","2022-5-3","9:24:41","25","75","3","9","10","40","30","120","79","22","[""White""]","No","Female","2529729","null","null","learn_feedback","","","learn_feedback","23.3333","80","out","","","","","","","","","","","","","","","","","","","","","","",""
"","","","","","canvas-keyboard-response","71","235745","0.0-12.0-4.11","2d_cat_multi_stim_exp1","2022-5-3","9:24:41","25","75","3","9","10","40","30","120","79","22","[""White""]","No","Female","2529729","null","null","","","","clear_screen","","","","","","","","","","","","","","","","","","","","","","","","","",""
"","","","","","canvas-keyboard-response","72","236253","0.0-12.0-0.12","2d_cat_multi_stim_exp1","2022-5-3","9:24:41","25","75","3","9","10","40","30","120","79","22","[""White""]","No","Female","2529729","null","null","","","","fixation","","","","","","","","","","","","","","","","","","","","","","","","","",""
"","","","","","canvas-keyboard-response","73","236761","0.0-12.0-1.12","2d_cat_multi_stim_exp1","2022-5-3","9:24:41","25","75","3","9","10","40","30","120","79","22","[""White""]","No","Female","2529729","null","null","","","","clear_screen","","","","","","","","","","","","","","","","","","","","","","","","","",""
"","","","","","canvas-keyboard-response","74","238017","0.0-12.0-2.12","2d_cat_multi_stim_exp1","2022-5-3","9:24:41","25","75","3","9","10","40","30","120","79","22","[""White""]","No","Female","2529729","1246","i","learn","","","learn_trial","16.6667","30","out","0","1","","","","","","","","","","","","","","","","","","","","",""
"","","","","","canvas-keyboard-response","75","238522","0.0-12.0-3.12","2d_cat_multi_stim_exp1","2022-5-3","9:24:41","25","75","3","9","10","40","30","120","79","22","[""White""]","No","Female","2529729","null","null","learn_feedback","","","learn_feedback","16.6667","30","out","","","","","","","","","","","","","","","","","","","","","","",""
"","","","","","canvas-keyboard-response","76","238585","0.0-12.0-4.12","2d_cat_multi_stim_exp1","2022-5-3","9:24:41","25","75","3","9","10","40","30","120","79","22","[""White""]","No","Female","2529729","null","null","","","","clear_screen","","","","","","","","","","","","","","","","","","","","","","","","","",""
"","","","","","canvas-keyboard-response","77","239094","0.0-12.0-0.13","2d_cat_multi_stim_exp1","2022-5-3","9:24:41","25","75","3","9","10","40","30","120","79","22","[""White""]","No","Female","2529729","null","null","","","","fixation","","","","","","","","","","","","","","","","","","","","","","","","","",""
"","","","","","canvas-keyboard-response","78","239603","0.0-12.0-1.13","2d_cat_multi_stim_exp1","2022-5-3","9:24:41","25","75","3","9","10","40","30","120","79","22","[""White""]","No","Female","2529729","null","null","","","","clear_screen","","","","","","","","","","","","","","","","","","","","","","","","","",""
"","","","","","canvas-keyboard-response","79","240362","0.0-12.0-2.13","2d_cat_multi_stim_exp1","2022-5-3","9:24:41","25","75","3","9","10","40","30","120","79","22","[""White""]","No","Female","2529729","746","u","learn","","","learn_trial","25","75","in","1","1","","","","","","","","","","","","","","","","","","","","",""
"","","","","","canvas-keyboard-response","80","240873","0.0-12.0-3.13","2d_cat_multi_stim_exp1","2022-5-3","9:24:41","25","75","3","9","10","40","30","120","79","22","[""White""]","No","Female","2529729","null","null","learn_feedback","","","learn_feedback","25","75","in","","","","","","","","","","","","","","","","","","","","","","",""
"","","","","","canvas-keyboard-response","81","240933","0.0-12.0-4.13","2d_cat_multi_stim_exp1","2022-5-3","9:24:41","25","75","3","9","10","40","30","120","79","22","[""White""]","No","Female","2529729","null","null","","","","clear_screen","","","","","","","","","","","","","","","","","","","","","","","","","",""
"","","","","","canvas-keyboard-response","82","241442","0.0-12.0-0.14","2d_cat_multi_stim_exp1","2022-5-3","9:24:41","25","75","3","9","10","40","30","120","79","22","[""White""]","No","Female","2529729","null","null","","","","fixation","","","","","","","","","","","","","","","","","","","","","","","","","",""
"","","","","","canvas-keyboard-response","83","241955","0.0-12.0-1.14","2d_cat_multi_stim_exp1","2022-5-3","9:24:41","25","75","3","9","10","40","30","120","79","22","[""White""]","No","Female","2529729","null","null","","","","clear_screen","","","","","","","","","","","","","","","","","","","","","","","","","",""
"","","","","","canvas-keyboard-response","84","247219","0.0-12.0-2.14","2d_cat_multi_stim_exp1","2022-5-3","9:24:41","25","75","3","9","10","40","30","120","79","22","[""White""]","No","Female","2529729","5255","i","learn","","","learn_trial","40","110","out","0","1","","","","","","","","","","","","","","","","","","","","",""
"","","","","","canvas-keyboard-response","85","247730","0.0-12.0-3.14","2d_cat_multi_stim_exp1","2022-5-3","9:24:41","25","75","3","9","10","40","30","120","79","22","[""White""]","No","Female","2529729","null","null","learn_feedback","","","learn_feedback","40","110","out","","","","","","","","","","","","","","","","","","","","","","",""
"","","","","","canvas-keyboard-response","86","247789","0.0-12.0-4.14","2d_cat_multi_stim_exp1","2022-5-3","9:24:41","25","75","3","9","10","40","30","120","79","22","[""White""]","No","Female","2529729","null","null","","","","clear_screen","","","","","","","","","","","","","","","","","","","","","","","","","",""
"","","","","","canvas-keyboard-response","87","248299","0.0-12.0-0.15","2d_cat_multi_stim_exp1","2022-5-3","9:24:41","25","75","3","9","10","40","30","120","79","22","[""White""]","No","Female","2529729","null","null","","","","fixation","","","","","","","","","","","","","","","","","","","","","","","","","",""
"","","","","","canvas-keyboard-response","88","248814","0.0-12.0-1.15","2d_cat_multi_stim_exp1","2022-5-3","9:24:41","25","75","3","9","10","40","30","120","79","22","[""White""]","No","Female","2529729","null","null","","","","clear_screen","","","","","","","","","","","","","","","","","","","","","","","","","",""
"","","","","","canvas-keyboard-response","89","254202","0.0-12.0-2.15","2d_cat_multi_stim_exp1","2022-5-3","9:24:41","25","75","3","9","10","40","30","120","79","22","[""White""]","No","Female","2529729","5379","u","learn","","","learn_trial","36.6667","100","out","1","0","","","","","","","","","","","","","","","","","","","","",""
"","","","","","canvas-keyboard-response","90","255211","0.0-12.0-3.15","2d_cat_multi_stim_exp1","2022-5-3","9:24:41","25","75","3","9","10","40","30","120","79","22","[""White""]","No","Female","2529729","null","null","learn_feedback","","","learn_feedback","36.6667","100","out","","","","","","","","","","","","","","","","","","","","","","",""
"","","","","","canvas-keyboard-response","91","255271","0.0-12.0-4.15","2d_cat_multi_stim_exp1","2022-5-3","9:24:41","25","75","3","9","10","40","30","120","79","22","[""White""]","No","Female","2529729","null","null","","","","clear_screen","","","","","","","","","","","","","","","","","","","","","","","","","",""
"","","","","","canvas-keyboard-response","92","255782","0.0-12.0-0.16","2d_cat_multi_stim_exp1","2022-5-3","9:24:41","25","75","3","9","10","40","30","120","79","22","[""White""]","No","Female","2529729","null","null","","","","fixation","","","","","","","","","","","","","","","","","","","","","","","","","",""
"","","","","","canvas-keyboard-response","93","256296","0.0-12.0-1.16","2d_cat_multi_stim_exp1","2022-5-3","9:24:41","25","75","3","9","10","40","30","120","79","22","[""White""]","No","Female","2529729","null","null","","","","clear_screen","","","","","","","","","","","","","","","","","","","","","","","","","",""
"","","","","","canvas-keyboard-response","94","265251","0.0-12.0-2.16","2d_cat_multi_stim_exp1","2022-5-3","9:24:41","25","75","3","9","10","40","30","120","79","22","[""White""]","No","Female","2529729","8944","u","learn","","","learn_trial","33.3333","60","out","1","0","","","","","","","","","","","","","","","","","","","","",""
"","","","","","canvas-keyboard-response","95","266260","0.0-12.0-3.16","2d_cat_multi_stim_exp1","2022-5-3","9:24:41","25","75","3","9","10","40","30","120","79","22","[""White""]","No","Female","2529729","null","null","learn_feedback","","","learn_feedback","33.3333","60","out","","","","","","","","","","","","","","","","","","","","","","",""
"","","","","","canvas-keyboard-response","96","266317","0.0-12.0-4.16","2d_cat_multi_stim_exp1","2022-5-3","9:24:41","25","75","3","9","10","40","30","120","79","22","[""White""]","No","Female","2529729","null","null","","","","clear_screen","","","","","","","","","","","","","","","","","","","","","","","","","",""
"","","","","","canvas-keyboard-response","97","266828","0.0-12.0-0.17","2d_cat_multi_stim_exp1","2022-5-3","9:24:41","25","75","3","9","10","40","30","120","79","22","[""White""]","No","Female","2529729","null","null","","","","fixation","","","","","","","","","","","","","","","","","","","","","","","","","",""
"","","","","","canvas-keyboard-response","98","267341","0.0-12.0-1.17","2d_cat_multi_stim_exp1","2022-5-3","9:24:41","25","75","3","9","10","40","30","120","79","22","[""White""]","No","Female","2529729","null","null","","","","clear_screen","","","","","","","","","","","","","","","","","","","","","","","","","",""
"","","","","","canvas-keyboard-response","99","270522","0.0-12.0-2.17","2d_cat_multi_stim_exp1","2022-5-3","9:24:41","25","75","3","9","10","40","30","120","79","22","[""White""]","No","Female","2529729","3171","u","learn","","","learn_trial","36.6667","90","out","1","0","","","","","","","","","","","","","","","","","","","","",""
"","","","","","canvas-keyboard-response","100","271531","0.0-12.0-3.17","2d_cat_multi_stim_exp1","2022-5-3","9:24:41","25","75","3","9","10","40","30","120","79","22","[""White""]","No","Female","2529729","null","null","learn_feedback","","","learn_feedback","36.6667","90","out","","","","","","","","","","","","","","","","","","","","","","",""
"","","","","","canvas-keyboard-response","101","271590","0.0-12.0-4.17","2d_cat_multi_stim_exp1","2022-5-3","9:24:41","25","75","3","9","10","40","30","120","79","22","[""White""]","No","Female","2529729","null","null","","","","clear_screen","","","","","","","","","","","","","","","","","","","","","","","","","",""
"","","","","","canvas-keyboard-response","102","272099","0.0-12.0-0.18","2d_cat_multi_stim_exp1","2022-5-3","9:24:41","25","75","3","9","10","40","30","120","79","22","[""White""]","No","Female","2529729","null","null","","","","fixation","","","","","","","","","","","","","","","","","","","","","","","","","",""
"","","","","","canvas-keyboard-response","103","272610","0.0-12.0-1.18","2d_cat_multi_stim_exp1","2022-5-3","9:24:41","25","75","3","9","10","40","30","120","79","22","[""White""]","No","Female","2529729","null","null","","","","clear_screen","","","","","","","","","","","","","","","","","","","","","","","","","",""
"","","","","","canvas-keyboard-response","104","273889","0.0-12.0-2.18","2d_cat_multi_stim_exp1","2022-5-3","9:24:41","25","75","3","9","10","40","30","120","79","22","[""White""]","No","Female","2529729","1269","i","learn","","","learn_trial","40","40","out","0","1","","","","","","","","","","","","","","","","","","","","",""
"","","","","","canvas-keyboard-response","105","274397","0.0-12.0-3.18","2d_cat_multi_stim_exp1","2022-5-3","9:24:41","25","75","3","9","10","40","30","120","79","22","[""White""]","No","Female","2529729","null","null","learn_feedback","","","learn_feedback","40","40","out","","","","","","","","","","","","","","","","","","","","","","",""
"","","","","","canvas-keyboard-response","106","274457","0.0-12.0-4.18","2d_cat_multi_stim_exp1","2022-5-3","9:24:41","25","75","3","9","10","40","30","120","79","22","[""White""]","No","Female","2529729","null","null","","","","clear_screen","","","","","","","","","","","","","","","","","","","","","","","","","",""
"","","","","","canvas-keyboard-response","107","274968","0.0-12.0-0.19","2d_cat_multi_stim_exp1","2022-5-3","9:24:41","25","75","3","9","10","40","30","120","79","22","[""White""]","No","Female","2529729","null","null","","","","fixation","","","","","","","","","","","","","","","","","","","","","","","","","",""
"","","","","","canvas-keyboard-response","108","275485","0.0-12.0-1.19","2d_cat_multi_stim_exp1","2022-5-3","9:24:41","25","75","3","9","10","40","30","120","79","22","[""White""]","No","Female","2529729","null","null","","","","clear_screen","","","","","","","","","","","","","","","","","","","","","","","","","",""
"","","","","","canvas-keyboard-response","109","284960","0.0-12.0-2.19","2d_cat_multi_stim_exp1","2022-5-3","9:24:41","25","75","3","9","10","40","30","120","79","22","[""White""]","No","Female","2529729","9465","u","learn","","","learn_trial","27.2592","80.9214","in","1","1","","","","","","","","","","","","","","","","","","","","",""
"","","","","","canvas-keyboard-response","110","285470","0.0-12.0-3.19","2d_cat_multi_stim_exp1","2022-5-3","9:24:41","25","75","3","9","10","40","30","120","79","22","[""White""]","No","Female","2529729","null","null","learn_feedback","","","learn_feedback","27.2592","80.9214","in","","","","","","","","","","","","","","","","","","","","","","",""
"","","","","","canvas-keyboard-response","111","285530","0.0-12.0-4.19","2d_cat_multi_stim_exp1","2022-5-3","9:24:41","25","75","3","9","10","40","30","120","79","22","[""White""]","No","Female","2529729","null","null","","","","clear_screen","","","","","","","","","","","","","","","","","","","","","","","","","",""
"","","","","","canvas-keyboard-response","112","286039","0.0-12.0-0.20","2d_cat_multi_stim_exp1","2022-5-3","9:24:41","25","75","3","9","10","40","30","120","79","22","[""White""]","No","Female","2529729","null","null","","","","fixation","","","","","","","","","","","","","","","","","","","","","","","","","",""
"","","","","","canvas-keyboard-response","113","286553","0.0-12.0-1.20","2d_cat_multi_stim_exp1","2022-5-3","9:24:41","25","75","3","9","10","40","30","120","79","22","[""White""]","No","Female","2529729","null","null","","","","clear_screen","","","","","","","","","","","","","","","","","","","","","","","","","",""
"","","","","","canvas-keyboard-response","114","287667","0.0-12.0-2.20","2d_cat_multi_stim_exp1","2022-5-3","9:24:41","25","75","3","9","10","40","30","120","79","22","[""White""]","No","Female","2529729","1106","i","learn","","","learn_trial","16.6667","80","out","0","1","","","","","","","","","","","","","","","","","","","","",""
"","","","","","canvas-keyboard-response","115","288177","0.0-12.0-3.20","2d_cat_multi_stim_exp1","2022-5-3","9:24:41","25","75","3","9","10","40","30","120","79","22","[""White""]","No","Female","2529729","null","null","learn_feedback","","","learn_feedback","16.6667","80","out","","","","","","","","","","","","","","","","","","","","","","",""
"","","","","","canvas-keyboard-response","116","288241","0.0-12.0-4.20","2d_cat_multi_stim_exp1","2022-5-3","9:24:41","25","75","3","9","10","40","30","120","79","22","[""White""]","No","Female","2529729","null","null","","","","clear_screen","","","","","","","","","","","","","","","","","","","","","","","","","",""
"","","","","","canvas-keyboard-response","117","288750","0.0-12.0-0.21","2d_cat_multi_stim_exp1","2022-5-3","9:24:41","25","75","3","9","10","40","30","120","79","22","[""White""]","No","Female","2529729","null","null","","","","fixation","","","","","","","","","","","","","","","","","","","","","","","","","",""
"","","","","","canvas-keyboard-response","118","289259","0.0-12.0-1.21","2d_cat_multi_stim_exp1","2022-5-3","9:24:41","25","75","3","9","10","40","30","120","79","22","[""White""]","No","Female","2529729","null","null","","","","clear_screen","","","","","","","","","","","","","","","","","","","","","","","","","",""
"","","","","","canvas-keyboard-response","119","291969","0.0-12.0-2.21","2d_cat_multi_stim_exp1","2022-5-3","9:24:41","25","75","3","9","10","40","30","120","79","22","[""White""]","No","Female","2529729","2702","i","learn","","","learn_trial","16.6667","90","out","0","1","","","","","","","","","","","","","","","","","","","","",""
"","","","","","canvas-keyboard-response","120","292480","0.0-12.0-3.21","2d_cat_multi_stim_exp1","2022-5-3","9:24:41","25","75","3","9","10","40","30","120","79","22","[""White""]","No","Female","2529729","null","null","learn_feedback","","","learn_feedback","16.6667","90","out","","","","","","","","","","","","","","","","","","","","","","",""
"","","","","","canvas-keyboard-response","121","292542","0.0-12.0-4.21","2d_cat_multi_stim_exp1","2022-5-3","9:24:41","25","75","3","9","10","40","30","120","79","22","[""White""]","No","Female","2529729","null","null","","","","clear_screen","","","","","","","","","","","","","","","","","","","","","","","","","",""
"","","","","","canvas-keyboard-response","122","293050","0.0-12.0-0.22","2d_cat_multi_stim_exp1","2022-5-3","9:24:41","25","75","3","9","10","40","30","120","79","22","[""White""]","No","Female","2529729","null","null","","","","fixation","","","","","","","","","","","","","","","","","","","","","","","","","",""
"","","","","","canvas-keyboard-response","123","293560","0.0-12.0-1.22","2d_cat_multi_stim_exp1","2022-5-3","9:24:41","25","75","3","9","10","40","30","120","79","22","[""White""]","No","Female","2529729","null","null","","","","clear_screen","","","","","","","","","","","","","","","","","","","","","","","","","",""
"","","","","","canvas-keyboard-response","124","294650","0.0-12.0-2.22","2d_cat_multi_stim_exp1","2022-5-3","9:24:41","25","75","3","9","10","40","30","120","79","22","[""White""]","No","Female","2529729","1081","u","learn","","","learn_trial","25","75","in","1","1","","","","","","","","","","","","","","","","","","","","",""
"","","","","","canvas-keyboard-response","125","295160","0.0-12.0-3.22","2d_cat_multi_stim_exp1","2022-5-3","9:24:41","25","75","3","9","10","40","30","120","79","22","[""White""]","No","Female","2529729","null","null","learn_feedback","","","learn_feedback","25","75","in","","","","","","","","","","","","","","","","","","","","","","",""
"","","","","","canvas-keyboard-response","126","295221","0.0-12.0-4.22","2d_cat_multi_stim_exp1","2022-5-3","9:24:41","25","75","3","9","10","40","30","120","79","22","[""White""]","No","Female","2529729","null","null","","","","clear_screen","","","","","","","","","","","","","","","","","","","","","","","","","",""
"","","","","","canvas-keyboard-response","127","295730","0.0-12.0-0.23","2d_cat_multi_stim_exp1","2022-5-3","9:24:41","25","75","3","9","10","40","30","120","79","22","[""White""]","No","Female","2529729","null","null","","","","fixation","","","","","","","","","","","","","","","","","","","","","","","","","",""
"","","","","","canvas-keyboard-response","128","296245","0.0-12.0-1.23","2d_cat_multi_stim_exp1","2022-5-3","9:24:41","25","75","3","9","10","40","30","120","79","22","[""White""]","No","Female","2529729","null","null","","","","clear_screen","","","","","","","","","","","","","","","","","","","","","","","","","",""
"","","","","","canvas-keyboard-response","129","297202","0.0-12.0-2.23","2d_cat_multi_stim_exp1","2022-5-3","9:24:41","25","75","3","9","10","40","30","120","79","22","[""White""]","No","Female","2529729","947","i","learn","","","learn_trial","40","30","out","0","1","","","","","","","","","","","","","","","","","","","","",""
"","","","","","canvas-keyboard-response","130","297712","0.0-12.0-3.23","2d_cat_multi_stim_exp1","2022-5-3","9:24:41","25","75","3","9","10","40","30","120","79","22","[""White""]","No","Female","2529729","null","null","learn_feedback","","","learn_feedback","40","30","out","","","","","","","","","","","","","","","","","","","","","","",""
"","","","","","canvas-keyboard-response","131","297773","0.0-12.0-4.23","2d_cat_multi_stim_exp1","2022-5-3","9:24:41","25","75","3","9","10","40","30","120","79","22","[""White""]","No","Female","2529729","null","null","","","","clear_screen","","","","","","","","","","","","","","","","","","","","","","","","","",""
"","","","","","canvas-keyboard-response","132","298283","0.0-12.0-0.24","2d_cat_multi_stim_exp1","2022-5-3","9:24:41","25","75","3","9","10","40","30","120","79","22","[""White""]","No","Female","2529729","null","null","","","","fixation","","","","","","","","","","","","","","","","","","","","","","","","","",""
"","","","","","canvas-keyboard-response","133","298794","0.0-12.0-1.24","2d_cat_multi_stim_exp1","2022-5-3","9:24:41","25","75","3","9","10","40","30","120","79","22","[""White""]","No","Female","2529729","null","null","","","","clear_screen","","","","","","","","","","","","","","","","","","","","","","","","","",""
"","","","","","canvas-keyboard-response","134","299730","0.0-12.0-2.24","2d_cat_multi_stim_exp1","2022-5-3","9:24:41","25","75","3","9","10","40","30","120","79","22","[""White""]","No","Female","2529729","928","u","learn","","","learn_trial","28","75","in","1","1","","","","","","","","","","","","","","","","","","","","",""
"","","","","","canvas-keyboard-response","135","300243","0.0-12.0-3.24","2d_cat_multi_stim_exp1","2022-5-3","9:24:41","25","75","3","9","10","40","30","120","79","22","[""White""]","No","Female","2529729","null","null","learn_feedback","","","learn_feedback","28","75","in","","","","","","","","","","","","","","","","","","","","","","",""
"","","","","","canvas-keyboard-response","136","300304","0.0-12.0-4.24","2d_cat_multi_stim_exp1","2022-5-3","9:24:41","25","75","3","9","10","40","30","120","79","22","[""White""]","No","Female","2529729","null","null","","","","clear_screen","","","","","","","","","","","","","","","","","","","","","","","","","",""
"","","","","","canvas-keyboard-response","137","300813","0.0-12.0-0.25","2d_cat_multi_stim_exp1","2022-5-3","9:24:41","25","75","3","9","10","40","30","120","79","22","[""White""]","No","Female","2529729","null","null","","","","fixation","","","","","","","","","","","","","","","","","","","","","","","","","",""
"","","","","","canvas-keyboard-response","138","301324","0.0-12.0-1.25","2d_cat_multi_stim_exp1","2022-5-3","9:24:41","25","75","3","9","10","40","30","120","79","22","[""White""]","No","Female","2529729","null","null","","","","clear_screen","","","","","","","","","","","","","","","","","","","","","","","","","",""
"","","","","","canvas-keyboard-response","139","303937","0.0-12.0-2.25","2d_cat_multi_stim_exp1","2022-5-3","9:24:41","25","75","3","9","10","40","30","120","79","22","[""White""]","No","Female","2529729","2604","u","learn","","","learn_trial","26.6667","70","out","1","0","","","","","","","","","","","","","","","","","","","","",""
"","","","","","canvas-keyboard-response","140","304947","0.0-12.0-3.25","2d_cat_multi_stim_exp1","2022-5-3","9:24:41","25","75","3","9","10","40","30","120","79","22","[""White""]","No","Female","2529729","null","null","learn_feedback","","","learn_feedback","26.6667","70","out","","","","","","","","","","","","","","","","","","","","","","",""
"","","","","","canvas-keyboard-response","141","305007","0.0-12.0-4.25","2d_cat_multi_stim_exp1","2022-5-3","9:24:41","25","75","3","9","10","40","30","120","79","22","[""White""]","No","Female","2529729","null","null","","","","clear_screen","","","","","","","","","","","","","","","","","","","","","","","","","",""
"","","","","","canvas-keyboard-response","142","305514","0.0-12.0-0.26","2d_cat_multi_stim_exp1","2022-5-3","9:24:41","25","75","3","9","10","40","30","120","79","22","[""White""]","No","Female","2529729","null","null","","","","fixation","","","","","","","","","","","","","","","","","","","","","","","","","",""
"","","","","","canvas-keyboard-response","143","306026","0.0-12.0-1.26","2d_cat_multi_stim_exp1","2022-5-3","9:24:41","25","75","3","9","10","40","30","120","79","22","[""White""]","No","Female","2529729","null","null","","","","clear_screen","","","","","","","","","","","","","","","","","","","","","","","","","",""
"","","","","","canvas-keyboard-response","144","315130","0.0-12.0-2.26","2d_cat_multi_stim_exp1","2022-5-3","9:24:41","25","75","3","9","10","40","30","120","79","22","[""White""]","No","Female","2529729","9094","i","learn","","","learn_trial","20.7574","62.2721","in","0","0","","","","","","","","","","","","","","","","","","","","",""
"","","","","","canvas-keyboard-response","145","316139","0.0-12.0-3.26","2d_cat_multi_stim_exp1","2022-5-3","9:24:41","25","75","3","9","10","40","30","120","79","22","[""White""]","No","Female","2529729","null","null","learn_feedback","","","learn_feedback","20.7574","62.2721","in","","","","","","","","","","","","","","","","","","","","","","",""
"","","","","","canvas-keyboard-response","146","316200","0.0-12.0-4.26","2d_cat_multi_stim_exp1","2022-5-3","9:24:41","25","75","3","9","10","40","30","120","79","22","[""White""]","No","Female","2529729","null","null","","","","clear_screen","","","","","","","","","","","","","","","","","","","","","","","","","",""
"","","","","","canvas-keyboard-response","147","316710","0.0-12.0-0.27","2d_cat_multi_stim_exp1","2022-5-3","9:24:41","25","75","3","9","10","40","30","120","79","22","[""White""]","No","Female","2529729","null","null","","","","fixation","","","","","","","","","","","","","","","","","","","","","","","","","",""
"","","","","","canvas-keyboard-response","148","317220","0.0-12.0-1.27","2d_cat_multi_stim_exp1","2022-5-3","9:24:41","25","75","3","9","10","40","30","120","79","22","[""White""]","No","Female","2529729","null","null","","","","clear_screen","","","","","","","","","","","","","","","","","","","","","","","","","",""
"","","","","","canvas-keyboard-response","149","323746","0.0-12.0-2.27","2d_cat_multi_stim_exp1","2022-5-3","9:24:41","25","75","3","9","10","40","30","120","79","22","[""White""]","No","Female","2529729","6515","u","learn","","","learn_trial","25","75","in","1","1","","","","","","","","","","","","","","","","","","","","",""
"","","","","","canvas-keyboard-response","150","324256","0.0-12.0-3.27","2d_cat_multi_stim_exp1","2022-5-3","9:24:41","25","75","3","9","10","40","30","120","79","22","[""White""]","No","Female","2529729","null","null","learn_feedback","","","learn_feedback","25","75","in","","","","","","","","","","","","","","","","","","","","","","",""
"","","","","","canvas-keyboard-response","151","324317","0.0-12.0-4.27","2d_cat_multi_stim_exp1","2022-5-3","9:24:41","25","75","3","9","10","40","30","120","79","22","[""White""]","No","Female","2529729","null","null","","","","clear_screen","","","","","","","","","","","","","","","","","","","","","","","","","",""
"","","","","","canvas-keyboard-response","152","324826","0.0-12.0-0.28","2d_cat_multi_stim_exp1","2022-5-3","9:24:41","25","75","3","9","10","40","30","120","79","22","[""White""]","No","Female","2529729","null","null","","","","fixation","","","","","","","","","","","","","","","","","","","","","","","","","",""
"","","","","","canvas-keyboard-response","153","325338","0.0-12.0-1.28","2d_cat_multi_stim_exp1","2022-5-3","9:24:41","25","75","3","9","10","40","30","120","79","22","[""White""]","No","Female","2529729","null","null","","","","clear_screen","","","","","","","","","","","","","","","","","","","","","","","","","",""
"","","","","","canvas-keyboard-response","154","326113","0.0-12.0-2.28","2d_cat_multi_stim_exp1","2022-5-3","9:24:41","25","75","3","9","10","40","30","120","79","22","[""White""]","No","Female","2529729","766","i","learn","","","learn_trial","26.6667","30","out","0","1","","","","","","","","","","","","","","","","","","","","",""
"","","","","","canvas-keyboard-response","155","326627","0.0-12.0-3.28","2d_cat_multi_stim_exp1","2022-5-3","9:24:41","25","75","3","9","10","40","30","120","79","22","[""White""]","No","Female","2529729","null","null","learn_feedback","","","learn_feedback","26.6667","30","out","","","","","","","","","","","","","","","","","","","","","","",""
"","","","","","canvas-keyboard-response","156","326691","0.0-12.0-4.28","2d_cat_multi_stim_exp1","2022-5-3","9:24:41","25","75","3","9","10","40","30","120","79","22","[""White""]","No","Female","2529729","null","null","","","","clear_screen","","","","","","","","","","","","","","","","","","","","","","","","","",""
"","","","","","canvas-keyboard-response","157","327202","0.0-12.0-0.29","2d_cat_multi_stim_exp1","2022-5-3","9:24:41","25","75","3","9","10","40","30","120","79","22","[""White""]","No","Female","2529729","null","null","","","","fixation","","","","","","","","","","","","","","","","","","","","","","","","","",""
"","","","","","canvas-keyboard-response","158","327717","0.0-12.0-1.29","2d_cat_multi_stim_exp1","2022-5-3","9:24:41","25","75","3","9","10","40","30","120","79","22","[""White""]","No","Female","2529729","null","null","","","","clear_screen","","","","","","","","","","","","","","","","","","","","","","","","","",""
"","","","","","canvas-keyboard-response","159","329112","0.0-12.0-2.29","2d_cat_multi_stim_exp1","2022-5-3","9:24:41","25","75","3","9","10","40","30","120","79","22","[""White""]","No","Female","2529729","1386","u","learn","","","learn_trial","25.4027","66.0815","in","1","1","","","","","","","","","","","","","","","","","","","","",""
"","","","","","canvas-keyboard-response","160","329620","0.0-12.0-3.29","2d_cat_multi_stim_exp1","2022-5-3","9:24:41","25","75","3","9","10","40","30","120","79","22","[""White""]","No","Female","2529729","null","null","learn_feedback","","","learn_feedback","25.4027","66.0815","in","","","","","","","","","","","","","","","","","","","","","","",""
"","","","","","canvas-keyboard-response","161","329681","0.0-12.0-4.29","2d_cat_multi_stim_exp1","2022-5-3","9:24:41","25","75","3","9","10","40","30","120","79","22","[""White""]","No","Female","2529729","null","null","","","","clear_screen","","","","","","","","","","","","","","","","","","","","","","","","","",""
"","","","","","canvas-keyboard-response","162","330187","0.0-12.0-0.30","2d_cat_multi_stim_exp1","2022-5-3","9:24:41","25","75","3","9","10","40","30","120","79","22","[""White""]","No","Female","2529729","null","null","","","","fixation","","","","","","","","","","","","","","","","","","","","","","","","","",""
"","","","","","canvas-keyboard-response","163","330701","0.0-12.0-1.30","2d_cat_multi_stim_exp1","2022-5-3","9:24:41","25","75","3","9","10","40","30","120","79","22","[""White""]","No","Female","2529729","null","null","","","","clear_screen","","","","","","","","","","","","","","","","","","","","","","","","","",""
"","","","","","canvas-keyboard-response","164","334706","0.0-12.0-2.30","2d_cat_multi_stim_exp1","2022-5-3","9:24:41","25","75","3","9","10","40","30","120","79","22","[""White""]","No","Female","2529729","3994","u","learn","","","learn_trial","22.5729","80.2901","in","1","1","","","","","","","","","","","","","","","","","","","","",""
"","","","","","canvas-keyboard-response","165","335215","0.0-12.0-3.30","2d_cat_multi_stim_exp1","2022-5-3","9:24:41","25","75","3","9","10","40","30","120","79","22","[""White""]","No","Female","2529729","null","null","learn_feedback","","","learn_feedback","22.5729","80.2901","in","","","","","","","","","","","","","","","","","","","","","","",""
"","","","","","canvas-keyboard-response","166","335273","0.0-12.0-4.30","2d_cat_multi_stim_exp1","2022-5-3","9:24:41","25","75","3","9","10","40","30","120","79","22","[""White""]","No","Female","2529729","null","null","","","","clear_screen","","","","","","","","","","","","","","","","","","","","","","","","","",""
"","","","","","canvas-keyboard-response","167","335781","0.0-12.0-0.31","2d_cat_multi_stim_exp1","2022-5-3","9:24:41","25","75","3","9","10","40","30","120","79","22","[""White""]","No","Female","2529729","null","null","","","","fixation","","","","","","","","","","","","","","","","","","","","","","","","","",""
"","","","","","canvas-keyboard-response","168","336293","0.0-12.0-1.31","2d_cat_multi_stim_exp1","2022-5-3","9:24:41","25","75","3","9","10","40","30","120","79","22","[""White""]","No","Female","2529729","null","null","","","","clear_screen","","","","","","","","","","","","","","","","","","","","","","","","","",""
"","","","","","canvas-keyboard-response","169","337338","0.0-12.0-2.31","2d_cat_multi_stim_exp1","2022-5-3","9:24:41","25","75","3","9","10","40","30","120","79","22","[""White""]","No","Female","2529729","1037","i","learn","","","learn_trial","33.3333","50","out","0","1","","","","","","","","","","","","","","","","","","","","",""
"","","","","","canvas-keyboard-response","170","337849","0.0-12.0-3.31","2d_cat_multi_stim_exp1","2022-5-3","9:24:41","25","75","3","9","10","40","30","120","79","22","[""White""]","No","Female","2529729","null","null","learn_feedback","","","learn_feedback","33.3333","50","out","","","","","","","","","","","","","","","","","","","","","","",""
"","","","","","canvas-keyboard-response","171","337912","0.0-12.0-4.31","2d_cat_multi_stim_exp1","2022-5-3","9:24:41","25","75","3","9","10","40","30","120","79","22","[""White""]","No","Female","2529729","null","null","","","","clear_screen","","","","","","","","","","","","","","","","","","","","","","","","","",""
"","","","","","canvas-keyboard-response","172","338419","0.0-12.0-0.32","2d_cat_multi_stim_exp1","2022-5-3","9:24:41","25","75","3","9","10","40","30","120","79","22","[""White""]","No","Female","2529729","null","null","","","","fixation","","","","","","","","","","","","","","","","","","","","","","","","","",""
"","","","","","canvas-keyboard-response","173","338930","0.0-12.0-1.32","2d_cat_multi_stim_exp1","2022-5-3","9:24:41","25","75","3","9","10","40","30","120","79","22","[""White""]","No","Female","2529729","null","null","","","","clear_screen","","","","","","","","","","","","","","","","","","","","","","","","","",""
"","","","","","canvas-keyboard-response","174","340665","0.0-12.0-2.32","2d_cat_multi_stim_exp1","2022-5-3","9:24:41","25","75","3","9","10","40","30","120","79","22","[""White""]","No","Female","2529729","1727","i","learn","","","learn_trial","36.6667","40","out","0","1","","","","","","","","","","","","","","","","","","","","",""
"","","","","","canvas-keyboard-response","175","341178","0.0-12.0-3.32","2d_cat_multi_stim_exp1","2022-5-3","9:24:41","25","75","3","9","10","40","30","120","79","22","[""White""]","No","Female","2529729","null","null","learn_feedback","","","learn_feedback","36.6667","40","out","","","","","","","","","","","","","","","","","","","","","","",""
"","","","","","canvas-keyboard-response","176","341236","0.0-12.0-4.32","2d_cat_multi_stim_exp1","2022-5-3","9:24:41","25","75","3","9","10","40","30","120","79","22","[""White""]","No","Female","2529729","null","null","","","","clear_screen","","","","","","","","","","","","","","","","","","","","","","","","","",""
"","","","","","canvas-keyboard-response","177","341743","0.0-12.0-0.33","2d_cat_multi_stim_exp1","2022-5-3","9:24:41","25","75","3","9","10","40","30","120","79","22","[""White""]","No","Female","2529729","null","null","","","","fixation","","","","","","","","","","","","","","","","","","","","","","","","","",""
"","","","","","canvas-keyboard-response","178","342252","0.0-12.0-1.33","2d_cat_multi_stim_exp1","2022-5-3","9:24:41","25","75","3","9","10","40","30","120","79","22","[""White""]","No","Female","2529729","null","null","","","","clear_screen","","","","","","","","","","","","","","","","","","","","","","","","","",""
"","","","","","canvas-keyboard-response","179","345609","0.0-12.0-2.33","2d_cat_multi_stim_exp1","2022-5-3","9:24:41","25","75","3","9","10","40","30","120","79","22","[""White""]","No","Female","2529729","3345","u","learn","","","learn_trial","27.5753","70.3839","in","1","1","","","","","","","","","","","","","","","","","","","","",""
"","","","","","canvas-keyboard-response","180","346118","0.0-12.0-3.33","2d_cat_multi_stim_exp1","2022-5-3","9:24:41","25","75","3","9","10","40","30","120","79","22","[""White""]","No","Female","2529729","null","null","learn_feedback","","","learn_feedback","27.5753","70.3839","in","","","","","","","","","","","","","","","","","","","","","","",""
"","","","","","canvas-keyboard-response","181","346178","0.0-12.0-4.33","2d_cat_multi_stim_exp1","2022-5-3","9:24:41","25","75","3","9","10","40","30","120","79","22","[""White""]","No","Female","2529729","null","null","","","","clear_screen","","","","","","","","","","","","","","","","","","","","","","","","","",""
"","","","","","canvas-keyboard-response","182","346686","0.0-12.0-0.34","2d_cat_multi_stim_exp1","2022-5-3","9:24:41","25","75","3","9","10","40","30","120","79","22","[""White""]","No","Female","2529729","null","null","","","","fixation","","","","","","","","","","","","","","","","","","","","","","","","","",""
"","","","","","canvas-keyboard-response","183","347200","0.0-12.0-1.34","2d_cat_multi_stim_exp1","2022-5-3","9:24:41","25","75","3","9","10","40","30","120","79","22","[""White""]","No","Female","2529729","null","null","","","","clear_screen","","","","","","","","","","","","","","","","","","","","","","","","","",""
"","","","","","canvas-keyboard-response","184","352209","0.0-12.0-2.34","2d_cat_multi_stim_exp1","2022-5-3","9:24:41","25","75","3","9","10","40","30","120","79","22","[""White""]","No","Female","2529729","5002","i","learn","","","learn_trial","10","100","out","0","1","","","","","","","","","","","","","","","","","","","","",""
"","","","","","canvas-keyboard-response","185","352720","0.0-12.0-3.34","2d_cat_multi_stim_exp1","2022-5-3","9:24:41","25","75","3","9","10","40","30","120","79","22","[""White""]","No","Female","2529729","null","null","learn_feedback","","","learn_feedback","10","100","out","","","","","","","","","","","","","","","","","","","","","","",""
"","","","","","canvas-keyboard-response","186","352781","0.0-12.0-4.34","2d_cat_multi_stim_exp1","2022-5-3","9:24:41","25","75","3","9","10","40","30","120","79","22","[""White""]","No","Female","2529729","null","null","","","","clear_screen","","","","","","","","","","","","","","","","","","","","","","","","","",""
"","","","","","canvas-keyboard-response","187","353294","0.0-12.0-0.35","2d_cat_multi_stim_exp1","2022-5-3","9:24:41","25","75","3","9","10","40","30","120","79","22","[""White""]","No","Female","2529729","null","null","","","","fixation","","","","","","","","","","","","","","","","","","","","","","","","","",""
"","","","","","canvas-keyboard-response","188","353805","0.0-12.0-1.35","2d_cat_multi_stim_exp1","2022-5-3","9:24:41","25","75","3","9","10","40","30","120","79","22","[""White""]","No","Female","2529729","null","null","","","","clear_screen","","","","","","","","","","","","","","","","","","","","","","","","","",""
"","","","","","canvas-keyboard-response","189","355337","0.0-12.0-2.35","2d_cat_multi_stim_exp1","2022-5-3","9:24:41","25","75","3","9","10","40","30","120","79","22","[""White""]","No","Female","2529729","1519","i","learn","","","learn_trial","40","50","out","0","1","","","","","","","","","","","","","","","","","","","","",""
"","","","","","canvas-keyboard-response","190","355849","0.0-12.0-3.35","2d_cat_multi_stim_exp1","2022-5-3","9:24:41","25","75","3","9","10","40","30","120","79","22","[""White""]","No","Female","2529729","null","null","learn_feedback","","","learn_feedback","40","50","out","","","","","","","","","","","","","","","","","","","","","","",""
"","","","","","canvas-keyboard-response","191","355910","0.0-12.0-4.35","2d_cat_multi_stim_exp1","2022-5-3","9:24:41","25","75","3","9","10","40","30","120","79","22","[""White""]","No","Female","2529729","null","null","","","","clear_screen","","","","","","","","","","","","","","","","","","","","","","","","","",""
"","","","","","canvas-keyboard-response","192","356420","0.0-12.0-0.36","2d_cat_multi_stim_exp1","2022-5-3","9:24:41","25","75","3","9","10","40","30","120","79","22","[""White""]","No","Female","2529729","null","null","","","","fixation","","","","","","","","","","","","","","","","","","","","","","","","","",""
"","","","","","canvas-keyboard-response","193","356933","0.0-12.0-1.36","2d_cat_multi_stim_exp1","2022-5-3","9:24:41","25","75","3","9","10","40","30","120","79","22","[""White""]","No","Female","2529729","null","null","","","","clear_screen","","","","","","","","","","","","","","","","","","","","","","","","","",""
"","","","","","canvas-keyboard-response","194","363272","0.0-12.0-2.36","2d_cat_multi_stim_exp1","2022-5-3","9:24:41","25","75","3","9","10","40","30","120","79","22","[""White""]","No","Female","2529729","6329","i","learn","","","learn_trial","25","75","in","0","0","","","","","","","","","","","","","","","","","","","","",""
"","","","","","canvas-keyboard-response","195","364282","0.0-12.0-3.36","2d_cat_multi_stim_exp1","2022-5-3","9:24:41","25","75","3","9","10","40","30","120","79","22","[""White""]","No","Female","2529729","null","null","learn_feedback","","","learn_feedback","25","75","in","","","","","","","","","","","","","","","","","","","","","","",""
"","","","","","canvas-keyboard-response","196","364340","0.0-12.0-4.36","2d_cat_multi_stim_exp1","2022-5-3","9:24:41","25","75","3","9","10","40","30","120","79","22","[""White""]","No","Female","2529729","null","null","","","","clear_screen","","","","","","","","","","","","","","","","","","","","","","","","","",""
"","","","","","canvas-keyboard-response","197","364847","0.0-12.0-0.37","2d_cat_multi_stim_exp1","2022-5-3","9:24:41","25","75","3","9","10","40","30","120","79","22","[""White""]","No","Female","2529729","null","null","","","","fixation","","","","","","","","","","","","","","","","","","","","","","","","","",""
"","","","","","canvas-keyboard-response","198","365358","0.0-12.0-1.37","2d_cat_multi_stim_exp1","2022-5-3","9:24:41","25","75","3","9","10","40","30","120","79","22","[""White""]","No","Female","2529729","null","null","","","","clear_screen","","","","","","","","","","","","","","","","","","","","","","","","","",""
"","","","","","canvas-keyboard-response","199","371730","0.0-12.0-2.37","2d_cat_multi_stim_exp1","2022-5-3","9:24:41","25","75","3","9","10","40","30","120","79","22","[""White""]","No","Female","2529729","6363","u","learn","","","learn_trial","20","80","out","1","0","","","","","","","","","","","","","","","","","","","","",""
"","","","","","canvas-keyboard-response","200","372743","0.0-12.0-3.37","2d_cat_multi_stim_exp1","2022-5-3","9:24:41","25","75","3","9","10","40","30","120","79","22","[""White""]","No","Female","2529729","null","null","learn_feedback","","","learn_feedback","20","80","out","","","","","","","","","","","","","","","","","","","","","","",""
"","","","","","canvas-keyboard-response","201","372802","0.0-12.0-4.37","2d_cat_multi_stim_exp1","2022-5-3","9:24:41","25","75","3","9","10","40","30","120","79","22","[""White""]","No","Female","2529729","null","null","","","","clear_screen","","","","","","","","","","","","","","","","","","","","","","","","","",""
"","","","","","canvas-keyboard-response","202","373313","0.0-12.0-0.38","2d_cat_multi_stim_exp1","2022-5-3","9:24:41","25","75","3","9","10","40","30","120","79","22","[""White""]","No","Female","2529729","null","null","","","","fixation","","","","","","","","","","","","","","","","","","","","","","","","","",""
"","","","","","canvas-keyboard-response","203","373823","0.0-12.0-1.38","2d_cat_multi_stim_exp1","2022-5-3","9:24:41","25","75","3","9","10","40","30","120","79","22","[""White""]","No","Female","2529729","null","null","","","","clear_screen","","","","","","","","","","","","","","","","","","","","","","","","","",""
"","","","","","canvas-keyboard-response","204","378458","0.0-12.0-2.38","2d_cat_multi_stim_exp1","2022-5-3","9:24:41","25","75","3","9","10","40","30","120","79","22","[""White""]","No","Female","2529729","4624","u","learn","","","learn_trial","16.6667","100","out","1","0","","","","","","","","","","","","","","","","","","","","",""
"","","","","","canvas-keyboard-response","205","379467","0.0-12.0-3.38","2d_cat_multi_stim_exp1","2022-5-3","9:24:41","25","75","3","9","10","40","30","120","79","22","[""White""]","No","Female","2529729","null","null","learn_feedback","","","learn_feedback","16.6667","100","out","","","","","","","","","","","","","","","","","","","","","","",""
"","","","","","canvas-keyboard-response","206","379525","0.0-12.0-4.38","2d_cat_multi_stim_exp1","2022-5-3","9:24:41","25","75","3","9","10","40","30","120","79","22","[""White""]","No","Female","2529729","null","null","","","","clear_screen","","","","","","","","","","","","","","","","","","","","","","","","","",""
"","","","","","canvas-keyboard-response","207","380037","0.0-12.0-0.39","2d_cat_multi_stim_exp1","2022-5-3","9:24:41","25","75","3","9","10","40","30","120","79","22","[""White""]","No","Female","2529729","null","null","","","","fixation","","","","","","","","","","","","","","","","","","","","","","","","","",""
"","","","","","canvas-keyboard-response","208","380549","0.0-12.0-1.39","2d_cat_multi_stim_exp1","2022-5-3","9:24:41","25","75","3","9","10","40","30","120","79","22","[""White""]","No","Female","2529729","null","null","","","","clear_screen","","","","","","","","","","","","","","","","","","","","","","","","","",""
"","","","","","canvas-keyboard-response","209","391699","0.0-12.0-2.39","2d_cat_multi_stim_exp1","2022-5-3","9:24:41","25","75","3","9","10","40","30","120","79","22","[""White""]","No","Female","2529729","11138","i","learn","","","learn_trial","36.6667","70","out","0","1","","","","","","","","","","","","","","","","","","","","",""
"","","","","","canvas-keyboard-response","210","392210","0.0-12.0-3.39","2d_cat_multi_stim_exp1","2022-5-3","9:24:41","25","75","3","9","10","40","30","120","79","22","[""White""]","No","Female","2529729","null","null","learn_feedback","","","learn_feedback","36.6667","70","out","","","","","","","","","","","","","","","","","","","","","","",""
"","","","","","canvas-keyboard-response","211","392273","0.0-12.0-4.39","2d_cat_multi_stim_exp1","2022-5-3","9:24:41","25","75","3","9","10","40","30","120","79","22","[""White""]","No","Female","2529729","null","null","","","","clear_screen","","","","","","","","","","","","","","","","","","","","","","","","","",""
"","","","","","canvas-keyboard-response","212","392786","0.0-12.0-0.40","2d_cat_multi_stim_exp1","2022-5-3","9:24:41","25","75","3","9","10","40","30","120","79","22","[""White""]","No","Female","2529729","null","null","","","","fixation","","","","","","","","","","","","","","","","","","","","","","","","","",""
"","","","","","canvas-keyboard-response","213","393301","0.0-12.0-1.40","2d_cat_multi_stim_exp1","2022-5-3","9:24:41","25","75","3","9","10","40","30","120","79","22","[""White""]","No","Female","2529729","null","null","","","","clear_screen","","","","","","","","","","","","","","","","","","","","","","","","","",""
"","","","","","canvas-keyboard-response","214","394258","0.0-12.0-2.40","2d_cat_multi_stim_exp1","2022-5-3","9:24:41","25","75","3","9","10","40","30","120","79","22","[""White""]","No","Female","2529729","947","i","learn","","","learn_trial","36.6667","80","out","0","1","","","","","","","","","","","","","","","","","","","","",""
"","","","","","canvas-keyboard-response","215","394771","0.0-12.0-3.40","2d_cat_multi_stim_exp1","2022-5-3","9:24:41","25","75","3","9","10","40","30","120","79","22","[""White""]","No","Female","2529729","null","null","learn_feedback","","","learn_feedback","36.6667","80","out","","","","","","","","","","","","","","","","","","","","","","",""
"","","","","","canvas-keyboard-response","216","394833","0.0-12.0-4.40","2d_cat_multi_stim_exp1","2022-5-3","9:24:41","25","75","3","9","10","40","30","120","79","22","[""White""]","No","Female","2529729","null","null","","","","clear_screen","","","","","","","","","","","","","","","","","","","","","","","","","",""
"","","","","","canvas-keyboard-response","217","395343","0.0-12.0-0.41","2d_cat_multi_stim_exp1","2022-5-3","9:24:41","25","75","3","9","10","40","30","120","79","22","[""White""]","No","Female","2529729","null","null","","","","fixation","","","","","","","","","","","","","","","","","","","","","","","","","",""
"","","","","","canvas-keyboard-response","218","395854","0.0-12.0-1.41","2d_cat_multi_stim_exp1","2022-5-3","9:24:41","25","75","3","9","10","40","30","120","79","22","[""White""]","No","Female","2529729","null","null","","","","clear_screen","","","","","","","","","","","","","","","","","","","","","","","","","",""
"","","","","","canvas-keyboard-response","219","404515","0.0-12.0-2.41","2d_cat_multi_stim_exp1","2022-5-3","9:24:41","25","75","3","9","10","40","30","120","79","22","[""White""]","No","Female","2529729","8646","i","learn","","","learn_trial","23.3333","50","out","0","1","","","","","","","","","","","","","","","","","","","","",""
"","","","","","canvas-keyboard-response","220","405024","0.0-12.0-3.41","2d_cat_multi_stim_exp1","2022-5-3","9:24:41","25","75","3","9","10","40","30","120","79","22","[""White""]","No","Female","2529729","null","null","learn_feedback","","","learn_feedback","23.3333","50","out","","","","","","","","","","","","","","","","","","","","","","",""
"","","","","","canvas-keyboard-response","221","405084","0.0-12.0-4.41","2d_cat_multi_stim_exp1","2022-5-3","9:24:41","25","75","3","9","10","40","30","120","79","22","[""White""]","No","Female","2529729","null","null","","","","clear_screen","","","","","","","","","","","","","","","","","","","","","","","","","",""
"","","","","","canvas-keyboard-response","222","405592","0.0-12.0-0.42","2d_cat_multi_stim_exp1","2022-5-3","9:24:41","25","75","3","9","10","40","30","120","79","22","[""White""]","No","Female","2529729","null","null","","","","fixation","","","","","","","","","","","","","","","","","","","","","","","","","",""
"","","","","","canvas-keyboard-response","223","406103","0.0-12.0-1.42","2d_cat_multi_stim_exp1","2022-5-3","9:24:41","25","75","3","9","10","40","30","120","79","22","[""White""]","No","Female","2529729","null","null","","","","clear_screen","","","","","","","","","","","","","","","","","","","","","","","","","",""
"","","","","","canvas-keyboard-response","224","414418","0.0-12.0-2.42","2d_cat_multi_stim_exp1","2022-5-3","9:24:41","25","75","3","9","10","40","30","120","79","22","[""White""]","No","Female","2529729","8303","u","learn","","","learn_trial","40","100","out","1","0","","","","","","","","","","","","","","","","","","","","",""
"","","","","","canvas-keyboard-response","225","415427","0.0-12.0-3.42","2d_cat_multi_stim_exp1","2022-5-3","9:24:41","25","75","3","9","10","40","30","120","79","22","[""White""]","No","Female","2529729","null","null","learn_feedback","","","learn_feedback","40","100","out","","","","","","","","","","","","","","","","","","","","","","",""
"","","","","","canvas-keyboard-response","226","415487","0.0-12.0-4.42","2d_cat_multi_stim_exp1","2022-5-3","9:24:41","25","75","3","9","10","40","30","120","79","22","[""White""]","No","Female","2529729","null","null","","","","clear_screen","","","","","","","","","","","","","","","","","","","","","","","","","",""
"","","","","","canvas-keyboard-response","227","415997","0.0-12.0-0.43","2d_cat_multi_stim_exp1","2022-5-3","9:24:41","25","75","3","9","10","40","30","120","79","22","[""White""]","No","Female","2529729","null","null","","","","fixation","","","","","","","","","","","","","","","","","","","","","","","","","",""
"","","","","","canvas-keyboard-response","228","416508","0.0-12.0-1.43","2d_cat_multi_stim_exp1","2022-5-3","9:24:41","25","75","3","9","10","40","30","120","79","22","[""White""]","No","Female","2529729","null","null","","","","clear_screen","","","","","","","","","","","","","","","","","","","","","","","","","",""
"","","","","","canvas-keyboard-response","229","418010","0.0-12.0-2.43","2d_cat_multi_stim_exp1","2022-5-3","9:24:41","25","75","3","9","10","40","30","120","79","22","[""White""]","No","Female","2529729","1492","u","learn","","","learn_trial","25","75","in","1","1","","","","","","","","","","","","","","","","","","","","",""
"","","","","","canvas-keyboard-response","230","418518","0.0-12.0-3.43","2d_cat_multi_stim_exp1","2022-5-3","9:24:41","25","75","3","9","10","40","30","120","79","22","[""White""]","No","Female","2529729","null","null","learn_feedback","","","learn_feedback","25","75","in","","","","","","","","","","","","","","","","","","","","","","",""
"","","","","","canvas-keyboard-response","231","418576","0.0-12.0-4.43","2d_cat_multi_stim_exp1","2022-5-3","9:24:41","25","75","3","9","10","40","30","120","79","22","[""White""]","No","Female","2529729","null","null","","","","clear_screen","","","","","","","","","","","","","","","","","","","","","","","","","",""
"","","","","","canvas-keyboard-response","232","419086","0.0-12.0-0.44","2d_cat_multi_stim_exp1","2022-5-3","9:24:41","25","75","3","9","10","40","30","120","79","22","[""White""]","No","Female","2529729","null","null","","","","fixation","","","","","","","","","","","","","","","","","","","","","","","","","",""
"","","","","","canvas-keyboard-response","233","419599","0.0-12.0-1.44","2d_cat_multi_stim_exp1","2022-5-3","9:24:41","25","75","3","9","10","40","30","120","79","22","[""White""]","No","Female","2529729","null","null","","","","clear_screen","","","","","","","","","","","","","","","","","","","","","","","","","",""
"","","","","","canvas-keyboard-response","234","420617","0.0-12.0-2.44","2d_cat_multi_stim_exp1","2022-5-3","9:24:41","25","75","3","9","10","40","30","120","79","22","[""White""]","No","Female","2529729","1012","i","learn","","","learn_trial","13.3333","30","out","0","1","","","","","","","","","","","","","","","","","","","","",""
"","","","","","canvas-keyboard-response","235","421128","0.0-12.0-3.44","2d_cat_multi_stim_exp1","2022-5-3","9:24:41","25","75","3","9","10","40","30","120","79","22","[""White""]","No","Female","2529729","null","null","learn_feedback","","","learn_feedback","13.3333","30","out","","","","","","","","","","","","","","","","","","","","","","",""
"","","","","","canvas-keyboard-response","236","421192","0.0-12.0-4.44","2d_cat_multi_stim_exp1","2022-5-3","9:24:41","25","75","3","9","10","40","30","120","79","22","[""White""]","No","Female","2529729","null","null","","","","clear_screen","","","","","","","","","","","","","","","","","","","","","","","","","",""
"","","","","","canvas-keyboard-response","237","421698","0.0-12.0-0.45","2d_cat_multi_stim_exp1","2022-5-3","9:24:41","25","75","3","9","10","40","30","120","79","22","[""White""]","No","Female","2529729","null","null","","","","fixation","","","","","","","","","","","","","","","","","","","","","","","","","",""
"","","","","","canvas-keyboard-response","238","422209","0.0-12.0-1.45","2d_cat_multi_stim_exp1","2022-5-3","9:24:41","25","75","3","9","10","40","30","120","79","22","[""White""]","No","Female","2529729","null","null","","","","clear_screen","","","","","","","","","","","","","","","","","","","","","","","","","",""
"","","","","","canvas-keyboard-response","239","423049","0.0-12.0-2.45","2d_cat_multi_stim_exp1","2022-5-3","9:24:41","25","75","3","9","10","40","30","120","79","22","[""White""]","No","Female","2529729","832","u","learn","","","learn_trial","22.9268","68.4948","in","1","1","","","","","","","","","","","","","","","","","","","","",""
"","","","","","canvas-keyboard-response","240","423560","0.0-12.0-3.45","2d_cat_multi_stim_exp1","2022-5-3","9:24:41","25","75","3","9","10","40","30","120","79","22","[""White""]","No","Female","2529729","null","null","learn_feedback","","","learn_feedback","22.9268","68.4948","in","","","","","","","","","","","","","","","","","","","","","","",""
"","","","","","canvas-keyboard-response","241","423621","0.0-12.0-4.45","2d_cat_multi_stim_exp1","2022-5-3","9:24:41","25","75","3","9","10","40","30","120","79","22","[""White""]","No","Female","2529729","null","null","","","","clear_screen","","","","","","","","","","","","","","","","","","","","","","","","","",""
"","","","","","canvas-keyboard-response","242","424130","0.0-12.0-0.46","2d_cat_multi_stim_exp1","2022-5-3","9:24:41","25","75","3","9","10","40","30","120","79","22","[""White""]","No","Female","2529729","null","null","","","","fixation","","","","","","","","","","","","","","","","","","","","","","","","","",""
"","","","","","canvas-keyboard-response","243","424643","0.0-12.0-1.46","2d_cat_multi_stim_exp1","2022-5-3","9:24:41","25","75","3","9","10","40","30","120","79","22","[""White""]","No","Female","2529729","null","null","","","","clear_screen","","","","","","","","","","","","","","","","","","","","","","","","","",""
"","","","","","canvas-keyboard-response","244","425425","0.0-12.0-2.46","2d_cat_multi_stim_exp1","2022-5-3","9:24:41","25","75","3","9","10","40","30","120","79","22","[""White""]","No","Female","2529729","776","u","learn","","","learn_trial","26.8705","82.0365","in","1","1","","","","","","","","","","","","","","","","","","","","",""
"","","","","","canvas-keyboard-response","245","425936","0.0-12.0-3.46","2d_cat_multi_stim_exp1","2022-5-3","9:24:41","25","75","3","9","10","40","30","120","79","22","[""White""]","No","Female","2529729","null","null","learn_feedback","","","learn_feedback","26.8705","82.0365","in","","","","","","","","","","","","","","","","","","","","","","",""
"","","","","","canvas-keyboard-response","246","425997","0.0-12.0-4.46","2d_cat_multi_stim_exp1","2022-5-3","9:24:41","25","75","3","9","10","40","30","120","79","22","[""White""]","No","Female","2529729","null","null","","","","clear_screen","","","","","","","","","","","","","","","","","","","","","","","","","",""
"","","","","","canvas-keyboard-response","247","426507","0.0-12.0-0.47","2d_cat_multi_stim_exp1","2022-5-3","9:24:41","25","75","3","9","10","40","30","120","79","22","[""White""]","No","Female","2529729","null","null","","","","fixation","","","","","","","","","","","","","","","","","","","","","","","","","",""
"","","","","","canvas-keyboard-response","248","427019","0.0-12.0-1.47","2d_cat_multi_stim_exp1","2022-5-3","9:24:41","25","75","3","9","10","40","30","120","79","22","[""White""]","No","Female","2529729","null","null","","","","clear_screen","","","","","","","","","","","","","","","","","","","","","","","","","",""
"","","","","","canvas-keyboard-response","249","429954","0.0-12.0-2.47","2d_cat_multi_stim_exp1","2022-5-3","9:24:41","25","75","3","9","10","40","30","120","79","22","[""White""]","No","Female","2529729","2922","i","learn","","","learn_trial","25","57","in","0","0","","","","","","","","","","","","","","","","","","","","",""
"","","","","","canvas-keyboard-response","250","430966","0.0-12.0-3.47","2d_cat_multi_stim_exp1","2022-5-3","9:24:41","25","75","3","9","10","40","30","120","79","22","[""White""]","No","Female","2529729","null","null","learn_feedback","","","learn_feedback","25","57","in","","","","","","","","","","","","","","","","","","","","","","",""
"","","","","","canvas-keyboard-response","251","431029","0.0-12.0-4.47","2d_cat_multi_stim_exp1","2022-5-3","9:24:41","25","75","3","9","10","40","30","120","79","22","[""White""]","No","Female","2529729","null","null","","","","clear_screen","","","","","","","","","","","","","","","","","","","","","","","","","",""
"","","","","","canvas-keyboard-response","252","431538","0.0-12.0-0.48","2d_cat_multi_stim_exp1","2022-5-3","9:24:41","25","75","3","9","10","40","30","120","79","22","[""White""]","No","Female","2529729","null","null","","","","fixation","","","","","","","","","","","","","","","","","","","","","","","","","",""
"","","","","","canvas-keyboard-response","253","432051","0.0-12.0-1.48","2d_cat_multi_stim_exp1","2022-5-3","9:24:41","25","75","3","9","10","40","30","120","79","22","[""White""]","No","Female","2529729","null","null","","","","clear_screen","","","","","","","","","","","","","","","","","","","","","","","","","",""
"","","","","","canvas-keyboard-response","254","432929","0.0-12.0-2.48","2d_cat_multi_stim_exp1","2022-5-3","9:24:41","25","75","3","9","10","40","30","120","79","22","[""White""]","No","Female","2529729","869","i","learn","","","learn_trial","30","30","out","0","1","","","","","","","","","","","","","","","","","","","","",""
"","","","","","canvas-keyboard-response","255","433441","0.0-12.0-3.48","2d_cat_multi_stim_exp1","2022-5-3","9:24:41","25","75","3","9","10","40","30","120","79","22","[""White""]","No","Female","2529729","null","null","learn_feedback","","","learn_feedback","30","30","out","","","","","","","","","","","","","","","","","","","","","","",""
"","","","","","canvas-keyboard-response","256","433502","0.0-12.0-4.48","2d_cat_multi_stim_exp1","2022-5-3","9:24:41","25","75","3","9","10","40","30","120","79","22","[""White""]","No","Female","2529729","null","null","","","","clear_screen","","","","","","","","","","","","","","","","","","","","","","","","","",""
"","","","","","canvas-keyboard-response","257","434010","0.0-12.0-0.49","2d_cat_multi_stim_exp1","2022-5-3","9:24:41","25","75","3","9","10","40","30","120","79","22","[""White""]","No","Female","2529729","null","null","","","","fixation","","","","","","","","","","","","","","","","","","","","","","","","","",""
"","","","","","canvas-keyboard-response","258","434525","0.0-12.0-1.49","2d_cat_multi_stim_exp1","2022-5-3","9:24:41","25","75","3","9","10","40","30","120","79","22","[""White""]","No","Female","2529729","null","null","","","","clear_screen","","","","","","","","","","","","","","","","","","","","","","","","","",""
"","","","","","canvas-keyboard-response","259","435418","0.0-12.0-2.49","2d_cat_multi_stim_exp1","2022-5-3","9:24:41","25","75","3","9","10","40","30","120","79","22","[""White""]","No","Female","2529729","886","u","learn","","","learn_trial","25","75","in","1","1","","","","","","","","","","","","","","","","","","","","",""
"","","","","","canvas-keyboard-response","260","435929","0.0-12.0-3.49","2d_cat_multi_stim_exp1","2022-5-3","9:24:41","25","75","3","9","10","40","30","120","79","22","[""White""]","No","Female","2529729","null","null","learn_feedback","","","learn_feedback","25","75","in","","","","","","","","","","","","","","","","","","","","","","",""
"","","","","","canvas-keyboard-response","261","435989","0.0-12.0-4.49","2d_cat_multi_stim_exp1","2022-5-3","9:24:41","25","75","3","9","10","40","30","120","79","22","[""White""]","No","Female","2529729","null","null","","","","clear_screen","","","","","","","","","","","","","","","","","","","","","","","","","",""
"","","","","","canvas-keyboard-response","262","436499","0.0-12.0-0.50","2d_cat_multi_stim_exp1","2022-5-3","9:24:41","25","75","3","9","10","40","30","120","79","22","[""White""]","No","Female","2529729","null","null","","","","fixation","","","","","","","","","","","","","","","","","","","","","","","","","",""
"","","","","","canvas-keyboard-response","263","437012","0.0-12.0-1.50","2d_cat_multi_stim_exp1","2022-5-3","9:24:41","25","75","3","9","10","40","30","120","79","22","[""White""]","No","Female","2529729","null","null","","","","clear_screen","","","","","","","","","","","","","","","","","","","","","","","","","",""
"","","","","","canvas-keyboard-response","264","437825","0.0-12.0-2.50","2d_cat_multi_stim_exp1","2022-5-3","9:24:41","25","75","3","9","10","40","30","120","79","22","[""White""]","No","Female","2529729","802","u","learn","","","learn_trial","22.0121","75.8068","in","1","1","","","","","","","","","","","","","","","","","","","","",""
"","","","","","canvas-keyboard-response","265","438338","0.0-12.0-3.50","2d_cat_multi_stim_exp1","2022-5-3","9:24:41","25","75","3","9","10","40","30","120","79","22","[""White""]","No","Female","2529729","null","null","learn_feedback","","","learn_feedback","22.0121","75.8068","in","","","","","","","","","","","","","","","","","","","","","","",""
"","","","","","canvas-keyboard-response","266","438397","0.0-12.0-4.50","2d_cat_multi_stim_exp1","2022-5-3","9:24:41","25","75","3","9","10","40","30","120","79","22","[""White""]","No","Female","2529729","null","null","","","","clear_screen","","","","","","","","","","","","","","","","","","","","","","","","","",""
"","","","","","canvas-keyboard-response","267","438905","0.0-12.0-0.51","2d_cat_multi_stim_exp1","2022-5-3","9:24:41","25","75","3","9","10","40","30","120","79","22","[""White""]","No","Female","2529729","null","null","","","","fixation","","","","","","","","","","","","","","","","","","","","","","","","","",""
"","","","","","canvas-keyboard-response","268","439414","0.0-12.0-1.51","2d_cat_multi_stim_exp1","2022-5-3","9:24:41","25","75","3","9","10","40","30","120","79","22","[""White""]","No","Female","2529729","null","null","","","","clear_screen","","","","","","","","","","","","","","","","","","","","","","","","","",""
"","","","","","canvas-keyboard-response","269","440601","0.0-12.0-2.51","2d_cat_multi_stim_exp1","2022-5-3","9:24:41","25","75","3","9","10","40","30","120","79","22","[""White""]","No","Female","2529729","1176","u","learn","","","learn_trial","26.6667","80","out","1","0","","","","","","","","","","","","","","","","","","","","",""
"","","","","","canvas-keyboard-response","270","441612","0.0-12.0-3.51","2d_cat_multi_stim_exp1","2022-5-3","9:24:41","25","75","3","9","10","40","30","120","79","22","[""White""]","No","Female","2529729","null","null","learn_feedback","","","learn_feedback","26.6667","80","out","","","","","","","","","","","","","","","","","","","","","","",""
"","","","","","canvas-keyboard-response","271","441673","0.0-12.0-4.51","2d_cat_multi_stim_exp1","2022-5-3","9:24:41","25","75","3","9","10","40","30","120","79","22","[""White""]","No","Female","2529729","null","null","","","","clear_screen","","","","","","","","","","","","","","","","","","","","","","","","","",""
"","","","","","canvas-keyboard-response","272","442182","0.0-12.0-0.52","2d_cat_multi_stim_exp1","2022-5-3","9:24:41","25","75","3","9","10","40","30","120","79","22","[""White""]","No","Female","2529729","null","null","","","","fixation","","","","","","","","","","","","","","","","","","","","","","","","","",""
"","","","","","canvas-keyboard-response","273","442696","0.0-12.0-1.52","2d_cat_multi_stim_exp1","2022-5-3","9:24:41","25","75","3","9","10","40","30","120","79","22","[""White""]","No","Female","2529729","null","null","","","","clear_screen","","","","","","","","","","","","","","","","","","","","","","","","","",""
"","","","","","canvas-keyboard-response","274","447609","0.0-12.0-2.52","2d_cat_multi_stim_exp1","2022-5-3","9:24:41","25","75","3","9","10","40","30","120","79","22","[""White""]","No","Female","2529729","4902","u","learn","","","learn_trial","23.3333","70","out","1","0","","","","","","","","","","","","","","","","","","","","",""
"","","","","","canvas-keyboard-response","275","448618","0.0-12.0-3.52","2d_cat_multi_stim_exp1","2022-5-3","9:24:41","25","75","3","9","10","40","30","120","79","22","[""White""]","No","Female","2529729","null","null","learn_feedback","","","learn_feedback","23.3333","70","out","","","","","","","","","","","","","","","","","","","","","","",""
"","","","","","canvas-keyboard-response","276","448679","0.0-12.0-4.52","2d_cat_multi_stim_exp1","2022-5-3","9:24:41","25","75","3","9","10","40","30","120","79","22","[""White""]","No","Female","2529729","null","null","","","","clear_screen","","","","","","","","","","","","","","","","","","","","","","","","","",""
"","","","","","canvas-keyboard-response","277","449187","0.0-12.0-0.53","2d_cat_multi_stim_exp1","2022-5-3","9:24:41","25","75","3","9","10","40","30","120","79","22","[""White""]","No","Female","2529729","null","null","","","","fixation","","","","","","","","","","","","","","","","","","","","","","","","","",""
"","","","","","canvas-keyboard-response","278","449699","0.0-12.0-1.53","2d_cat_multi_stim_exp1","2022-5-3","9:24:41","25","75","3","9","10","40","30","120","79","22","[""White""]","No","Female","2529729","null","null","","","","clear_screen","","","","","","","","","","","","","","","","","","","","","","","","","",""
"","","","","","canvas-keyboard-response","279","452153","0.0-12.0-2.53","2d_cat_multi_stim_exp1","2022-5-3","9:24:41","25","75","3","9","10","40","30","120","79","22","[""White""]","No","Female","2529729","2445","i","learn","","","learn_trial","26.4216","67.0746","in","0","0","","","","","","","","","","","","","","","","","","","","",""
"","","","","","canvas-keyboard-response","280","453163","0.0-12.0-3.53","2d_cat_multi_stim_exp1","2022-5-3","9:24:41","25","75","3","9","10","40","30","120","79","22","[""White""]","No","Female","2529729","null","null","learn_feedback","","","learn_feedback","26.4216","67.0746","in","","","","","","","","","","","","","","","","","","","","","","",""
"","","","","","canvas-keyboard-response","281","453222","0.0-12.0-4.53","2d_cat_multi_stim_exp1","2022-5-3","9:24:41","25","75","3","9","10","40","30","120","79","22","[""White""]","No","Female","2529729","null","null","","","","clear_screen","","","","","","","","","","","","","","","","","","","","","","","","","",""
"","","","","","canvas-keyboard-response","282","453730","0.0-12.0-0.54","2d_cat_multi_stim_exp1","2022-5-3","9:24:41","25","75","3","9","10","40","30","120","79","22","[""White""]","No","Female","2529729","null","null","","","","fixation","","","","","","","","","","","","","","","","","","","","","","","","","",""
"","","","","","canvas-keyboard-response","283","454240","0.0-12.0-1.54","2d_cat_multi_stim_exp1","2022-5-3","9:24:41","25","75","3","9","10","40","30","120","79","22","[""White""]","No","Female","2529729","null","null","","","","clear_screen","","","","","","","","","","","","","","","","","","","","","","","","","",""
"","","","","","canvas-keyboard-response","284","455169","0.0-12.0-2.54","2d_cat_multi_stim_exp1","2022-5-3","9:24:41","25","75","3","9","10","40","30","120","79","22","[""White""]","No","Female","2529729","921","u","learn","","","learn_trial","24.3324","83.7744","in","1","1","","","","","","","","","","","","","","","","","","","","",""
"","","","","","canvas-keyboard-response","285","455681","0.0-12.0-3.54","2d_cat_multi_stim_exp1","2022-5-3","9:24:41","25","75","3","9","10","40","30","120","79","22","[""White""]","No","Female","2529729","null","null","learn_feedback","","","learn_feedback","24.3324","83.7744","in","","","","","","","","","","","","","","","","","","","","","","",""
"","","","","","canvas-keyboard-response","286","455744","0.0-12.0-4.54","2d_cat_multi_stim_exp1","2022-5-3","9:24:41","25","75","3","9","10","40","30","120","79","22","[""White""]","No","Female","2529729","null","null","","","","clear_screen","","","","","","","","","","","","","","","","","","","","","","","","","",""
"","","","","","canvas-keyboard-response","287","456253","0.0-12.0-0.55","2d_cat_multi_stim_exp1","2022-5-3","9:24:41","25","75","3","9","10","40","30","120","79","22","[""White""]","No","Female","2529729","null","null","","","","fixation","","","","","","","","","","","","","","","","","","","","","","","","","",""
"","","","","","canvas-keyboard-response","288","456763","0.0-12.0-1.55","2d_cat_multi_stim_exp1","2022-5-3","9:24:41","25","75","3","9","10","40","30","120","79","22","[""White""]","No","Female","2529729","null","null","","","","clear_screen","","","","","","","","","","","","","","","","","","","","","","","","","",""
"","","","","","canvas-keyboard-response","289","462097","0.0-12.0-2.55","2d_cat_multi_stim_exp1","2022-5-3","9:24:41","25","75","3","9","10","40","30","120","79","22","[""White""]","No","Female","2529729","5325","u","learn","","","learn_trial","20","100","out","1","0","","","","","","","","","","","","","","","","","","","","",""
"","","","","","canvas-keyboard-response","290","463108","0.0-12.0-3.55","2d_cat_multi_stim_exp1","2022-5-3","9:24:41","25","75","3","9","10","40","30","120","79","22","[""White""]","No","Female","2529729","null","null","learn_feedback","","","learn_feedback","20","100","out","","","","","","","","","","","","","","","","","","","","","","",""
"","","","","","canvas-keyboard-response","291","463169","0.0-12.0-4.55","2d_cat_multi_stim_exp1","2022-5-3","9:24:41","25","75","3","9","10","40","30","120","79","22","[""White""]","No","Female","2529729","null","null","","","","clear_screen","","","","","","","","","","","","","","","","","","","","","","","","","",""
"","","","","","canvas-keyboard-response","292","463676","0.0-12.0-0.56","2d_cat_multi_stim_exp1","2022-5-3","9:24:41","25","75","3","9","10","40","30","120","79","22","[""White""]","No","Female","2529729","null","null","","","","fixation","","","","","","","","","","","","","","","","","","","","","","","","","",""
"","","","","","canvas-keyboard-response","293","464189","0.0-12.0-1.56","2d_cat_multi_stim_exp1","2022-5-3","9:24:41","25","75","3","9","10","40","30","120","79","22","[""White""]","No","Female","2529729","null","null","","","","clear_screen","","","","","","","","","","","","","","","","","","","","","","","","","",""
"","","","","","canvas-keyboard-response","294","466154","0.0-12.0-2.56","2d_cat_multi_stim_exp1","2022-5-3","9:24:41","25","75","3","9","10","40","30","120","79","22","[""White""]","No","Female","2529729","1956","u","learn","","","learn_trial","25","75","in","1","1","","","","","","","","","","","","","","","","","","","","",""
"","","","","","canvas-keyboard-response","295","466664","0.0-12.0-3.56","2d_cat_multi_stim_exp1","2022-5-3","9:24:41","25","75","3","9","10","40","30","120","79","22","[""White""]","No","Female","2529729","null","null","learn_feedback","","","learn_feedback","25","75","in","","","","","","","","","","","","","","","","","","","","","","",""
"","","","","","canvas-keyboard-response","296","466719","0.0-12.0-4.56","2d_cat_multi_stim_exp1","2022-5-3","9:24:41","25","75","3","9","10","40","30","120","79","22","[""White""]","No","Female","2529729","null","null","","","","clear_screen","","","","","","","","","","","","","","","","","","","","","","","","","",""
"","","","","","canvas-keyboard-response","297","467230","0.0-12.0-0.57","2d_cat_multi_stim_exp1","2022-5-3","9:24:41","25","75","3","9","10","40","30","120","79","22","[""White""]","No","Female","2529729","null","null","","","","fixation","","","","","","","","","","","","","","","","","","","","","","","","","",""
