"success","timeout","failed_images","failed_audio","failed_video","trial_type","trial_index","time_elapsed","internal_node_id","exp_name","date","time","angle_mean_in","radius_mean_in","angle_sd_in","radius_sd_in","angle_min_out","angle_max_out","radius_min_out","radius_max_out","sub_n","age","race","ethnicity","gender","exp_duration","rt","response","exp_trial_type","stimulus","view_history","screen_id","angle","radius","distribution","choice","correct","order","angle_a","radius_a","angle_b","radius_b","jkl_correct","transfer_trial_type","choice_set","abc_correct","tc_correct","tc_angle","tdc_a","tdc_b","tdc_c","pair","category_a","category_b","category_c","angle_c","radius_c","question_order"
"true","false","[]","[]","[]","preload","0","90","0.0-0.0","2d_cat_multi_stim_exp1","2022-4-14","14:49:17","25","75","3","9","10","40","30","120","38","21","[""White""]","No","Female","1964608","","","","","","","","","","","","","","","","","","","","","","","","","","","","","","","",""
"","","","","","survey-html-form","1","8051","0.0-1.0","2d_cat_multi_stim_exp1","2022-4-14","14:49:17","25","75","3","9","10","40","30","120","38","21","[""White""]","No","Female","1964608","7930","{""response"":""38""}","enter-sub-number","","","","","","","","","","","","","","","","","","","","","","","","","","","","",""
"true","","","","","fullscreen","2","9929","0.0-2.0","2d_cat_multi_stim_exp1","2022-4-14","14:49:17","25","75","3","9","10","40","30","120","38","21","[""White""]","No","Female","1964608","","","","","","","","","","","","","","","","","","","","","","","","","","","","","","","",""
"","","","","","image-button-response","3","22890","0.0-3.0","2d_cat_multi_stim_exp1","2022-4-14","14:49:17","25","75","3","9","10","40","30","120","38","21","[""White""]","No","Female","1964608","12927","0","","consent.png","","","","","","","","","","","","","","","","","","","","","","","","","","","",""
"","","","","","html-button-response","4","26130","0.0-4.0","2d_cat_multi_stim_exp1","2022-4-14","14:49:17","25","75","3","9","10","40","30","120","38","21","[""White""]","No","Female","1964608","3235","0","","<div style= ""font-size:25px;"" <p> <strong> Welcome to the experiment! </strong><br> <p style=""color:#8B0000; font-size:25px;""><strong> Please do NOT exit full screen until you are done with the experiment. </strong> </p><p style=""font-size:25px;color:#8B0000;""> <strong> The experiment will be canceled and your data will be lost <br> if you try to go back or refresh the page at any point during the experiment.</strong> </p><br><p> <strong> Thanks in advance for your contribution to our research! </strong></p>","","","","","","","","","","","","","","","","","","","","","","","","","","","",""
"","","","","","instructions","5","42889","0.0-5.0","2d_cat_multi_stim_exp1","2022-4-14","14:49:17","25","75","3","9","10","40","30","120","38","21","[""White""]","No","Female","1964608","16758","","","","[{""page_index"":0,""viewing_time"":7365},{""page_index"":1,""viewing_time"":1168},{""page_index"":2,""viewing_time"":2408},{""page_index"":3,""viewing_time"":5816}]","instructions_1","","","","","","","","","","","","","","","","","","","","","","","","","",""
"","","","","","instructions","6","44769","0.0-6.0","2d_cat_multi_stim_exp1","2022-4-14","14:49:17","25","75","3","9","10","40","30","120","38","21","[""White""]","No","Female","1964608","1878","","","","[{""page_index"":0,""viewing_time"":1878}]","Click to see the kinds of turtles that will appear in the study.","","","","","","","","","","","","","","","","","","","","","","","","","",""
"","","","","","canvas-keyboard-response","7","59813","0.0-7.0","2d_cat_multi_stim_exp1","2022-4-14","14:49:17","25","75","3","9","10","40","30","120","38","21","[""White""]","No","Female","1964608","null","null","","","","demo_range","","","","","","","","","","","","","","","","","","","","","","","","","",""
"","","","","","instructions","8","62922","0.0-8.0","2d_cat_multi_stim_exp1","2022-4-14","14:49:17","25","75","3","9","10","40","30","120","38","21","[""White""]","No","Female","1964608","2608","","","","[{""page_index"":0,""viewing_time"":2608}]","Click to see some turtles in the subspecies.","","","","","","","","","","","","","","","","","","","","","","","","","",""
"","","","","","canvas-keyboard-response","9","77941","0.0-9.0","2d_cat_multi_stim_exp1","2022-4-14","14:49:17","25","75","3","9","10","40","30","120","38","21","[""White""]","No","Female","1964608","null","null","","","","demo_in","","","","","","","","","","","","","","","","","","","","","","","","","",""
"","","","","","instructions","10","96226","0.0-10.0","2d_cat_multi_stim_exp1","2022-4-14","14:49:17","25","75","3","9","10","40","30","120","38","21","[""White""]","No","Female","1964608","17783","","","","[{""page_index"":0,""viewing_time"":4774},{""page_index"":1,""viewing_time"":10360},{""page_index"":2,""viewing_time"":2648}]","instructions_2","","","","","","","","","","","","","","","","","","","","","","","","","",""
"","","","","","instructions","11","97809","0.0-11.0","2d_cat_multi_stim_exp1","2022-4-14","14:49:17","25","75","3","9","10","40","30","120","38","21","[""White""]","No","Female","1964608","1581","","","","[{""page_index"":0,""viewing_time"":1581}]","Click to begin the first phase of the experiment.","","","","","","","","","","","","","","","","","","","","","","","","","",""
"","","","","","canvas-keyboard-response","12","98320","0.0-12.0-0.0","2d_cat_multi_stim_exp1","2022-4-14","14:49:17","25","75","3","9","10","40","30","120","38","21","[""White""]","No","Female","1964608","null","null","","","","fixation","","","","","","","","","","","","","","","","","","","","","","","","","",""
"","","","","","canvas-keyboard-response","13","98831","0.0-12.0-1.0","2d_cat_multi_stim_exp1","2022-4-14","14:49:17","25","75","3","9","10","40","30","120","38","21","[""White""]","No","Female","1964608","null","null","","","","clear_screen","","","","","","","","","","","","","","","","","","","","","","","","","",""
"","","","","","canvas-keyboard-response","14","104071","0.0-12.0-2.0","2d_cat_multi_stim_exp1","2022-4-14","14:49:17","25","75","3","9","10","40","30","120","38","21","[""White""]","No","Female","1964608","5228","u","learn","","","learn_trial","20","60","out","1","0","","","","","","","","","","","","","","","","","","","","",""
"","","","","","canvas-keyboard-response","15","105088","0.0-12.0-3.0","2d_cat_multi_stim_exp1","2022-4-14","14:49:17","25","75","3","9","10","40","30","120","38","21","[""White""]","No","Female","1964608","null","null","learn_feedback","","","learn_feedback","20","60","out","","","","","","","","","","","","","","","","","","","","","","",""
"","","","","","canvas-keyboard-response","16","105148","0.0-12.0-4.0","2d_cat_multi_stim_exp1","2022-4-14","14:49:17","25","75","3","9","10","40","30","120","38","21","[""White""]","No","Female","1964608","null","null","","","","clear_screen","","","","","","","","","","","","","","","","","","","","","","","","","",""
"","","","","","canvas-keyboard-response","17","105657","0.0-12.0-0.1","2d_cat_multi_stim_exp1","2022-4-14","14:49:17","25","75","3","9","10","40","30","120","38","21","[""White""]","No","Female","1964608","null","null","","","","fixation","","","","","","","","","","","","","","","","","","","","","","","","","",""
"","","","","","canvas-keyboard-response","18","106167","0.0-12.0-1.1","2d_cat_multi_stim_exp1","2022-4-14","14:49:17","25","75","3","9","10","40","30","120","38","21","[""White""]","No","Female","1964608","null","null","","","","clear_screen","","","","","","","","","","","","","","","","","","","","","","","","","",""
"","","","","","canvas-keyboard-response","19","109047","0.0-12.0-2.1","2d_cat_multi_stim_exp1","2022-4-14","14:49:17","25","75","3","9","10","40","30","120","38","21","[""White""]","No","Female","1964608","2870","u","learn","","","learn_trial","25","75","in","1","1","","","","","","","","","","","","","","","","","","","","",""
"","","","","","canvas-keyboard-response","20","109557","0.0-12.0-3.1","2d_cat_multi_stim_exp1","2022-4-14","14:49:17","25","75","3","9","10","40","30","120","38","21","[""White""]","No","Female","1964608","null","null","learn_feedback","","","learn_feedback","25","75","in","","","","","","","","","","","","","","","","","","","","","","",""
"","","","","","canvas-keyboard-response","21","109617","0.0-12.0-4.1","2d_cat_multi_stim_exp1","2022-4-14","14:49:17","25","75","3","9","10","40","30","120","38","21","[""White""]","No","Female","1964608","null","null","","","","clear_screen","","","","","","","","","","","","","","","","","","","","","","","","","",""
"","","","","","canvas-keyboard-response","22","110125","0.0-12.0-0.2","2d_cat_multi_stim_exp1","2022-4-14","14:49:17","25","75","3","9","10","40","30","120","38","21","[""White""]","No","Female","1964608","null","null","","","","fixation","","","","","","","","","","","","","","","","","","","","","","","","","",""
"","","","","","canvas-keyboard-response","23","110635","0.0-12.0-1.2","2d_cat_multi_stim_exp1","2022-4-14","14:49:17","25","75","3","9","10","40","30","120","38","21","[""White""]","No","Female","1964608","null","null","","","","clear_screen","","","","","","","","","","","","","","","","","","","","","","","","","",""
"","","","","","canvas-keyboard-response","24","113391","0.0-12.0-2.2","2d_cat_multi_stim_exp1","2022-4-14","14:49:17","25","75","3","9","10","40","30","120","38","21","[""White""]","No","Female","1964608","2746","u","learn","","","learn_trial","25","75","in","1","1","","","","","","","","","","","","","","","","","","","","",""
"","","","","","canvas-keyboard-response","25","113900","0.0-12.0-3.2","2d_cat_multi_stim_exp1","2022-4-14","14:49:17","25","75","3","9","10","40","30","120","38","21","[""White""]","No","Female","1964608","null","null","learn_feedback","","","learn_feedback","25","75","in","","","","","","","","","","","","","","","","","","","","","","",""
"","","","","","canvas-keyboard-response","26","113961","0.0-12.0-4.2","2d_cat_multi_stim_exp1","2022-4-14","14:49:17","25","75","3","9","10","40","30","120","38","21","[""White""]","No","Female","1964608","null","null","","","","clear_screen","","","","","","","","","","","","","","","","","","","","","","","","","",""
"","","","","","canvas-keyboard-response","27","114470","0.0-12.0-0.3","2d_cat_multi_stim_exp1","2022-4-14","14:49:17","25","75","3","9","10","40","30","120","38","21","[""White""]","No","Female","1964608","null","null","","","","fixation","","","","","","","","","","","","","","","","","","","","","","","","","",""
"","","","","","canvas-keyboard-response","28","114979","0.0-12.0-1.3","2d_cat_multi_stim_exp1","2022-4-14","14:49:17","25","75","3","9","10","40","30","120","38","21","[""White""]","No","Female","1964608","null","null","","","","clear_screen","","","","","","","","","","","","","","","","","","","","","","","","","",""
"","","","","","canvas-keyboard-response","29","116464","0.0-12.0-2.3","2d_cat_multi_stim_exp1","2022-4-14","14:49:17","25","75","3","9","10","40","30","120","38","21","[""White""]","No","Female","1964608","1474","u","learn","","","learn_trial","19","75","in","1","1","","","","","","","","","","","","","","","","","","","","",""
"","","","","","canvas-keyboard-response","30","116977","0.0-12.0-3.3","2d_cat_multi_stim_exp1","2022-4-14","14:49:17","25","75","3","9","10","40","30","120","38","21","[""White""]","No","Female","1964608","null","null","learn_feedback","","","learn_feedback","19","75","in","","","","","","","","","","","","","","","","","","","","","","",""
"","","","","","canvas-keyboard-response","31","117038","0.0-12.0-4.3","2d_cat_multi_stim_exp1","2022-4-14","14:49:17","25","75","3","9","10","40","30","120","38","21","[""White""]","No","Female","1964608","null","null","","","","clear_screen","","","","","","","","","","","","","","","","","","","","","","","","","",""
"","","","","","canvas-keyboard-response","32","117548","0.0-12.0-0.4","2d_cat_multi_stim_exp1","2022-4-14","14:49:17","25","75","3","9","10","40","30","120","38","21","[""White""]","No","Female","1964608","null","null","","","","fixation","","","","","","","","","","","","","","","","","","","","","","","","","",""
"","","","","","canvas-keyboard-response","33","118058","0.0-12.0-1.4","2d_cat_multi_stim_exp1","2022-4-14","14:49:17","25","75","3","9","10","40","30","120","38","21","[""White""]","No","Female","1964608","null","null","","","","clear_screen","","","","","","","","","","","","","","","","","","","","","","","","","",""
"","","","","","canvas-keyboard-response","34","119782","0.0-12.0-2.4","2d_cat_multi_stim_exp1","2022-4-14","14:49:17","25","75","3","9","10","40","30","120","38","21","[""White""]","No","Female","1964608","1714","i","learn","","","learn_trial","25","75","in","0","0","","","","","","","","","","","","","","","","","","","","",""
"","","","","","canvas-keyboard-response","35","120793","0.0-12.0-3.4","2d_cat_multi_stim_exp1","2022-4-14","14:49:17","25","75","3","9","10","40","30","120","38","21","[""White""]","No","Female","1964608","null","null","learn_feedback","","","learn_feedback","25","75","in","","","","","","","","","","","","","","","","","","","","","","",""
"","","","","","canvas-keyboard-response","36","120853","0.0-12.0-4.4","2d_cat_multi_stim_exp1","2022-4-14","14:49:17","25","75","3","9","10","40","30","120","38","21","[""White""]","No","Female","1964608","null","null","","","","clear_screen","","","","","","","","","","","","","","","","","","","","","","","","","",""
"","","","","","canvas-keyboard-response","37","121362","0.0-12.0-0.5","2d_cat_multi_stim_exp1","2022-4-14","14:49:17","25","75","3","9","10","40","30","120","38","21","[""White""]","No","Female","1964608","null","null","","","","fixation","","","","","","","","","","","","","","","","","","","","","","","","","",""
"","","","","","canvas-keyboard-response","38","121872","0.0-12.0-1.5","2d_cat_multi_stim_exp1","2022-4-14","14:49:17","25","75","3","9","10","40","30","120","38","21","[""White""]","No","Female","1964608","null","null","","","","clear_screen","","","","","","","","","","","","","","","","","","","","","","","","","",""
"","","","","","canvas-keyboard-response","39","122760","0.0-12.0-2.5","2d_cat_multi_stim_exp1","2022-4-14","14:49:17","25","75","3","9","10","40","30","120","38","21","[""White""]","No","Female","1964608","876","u","learn","","","learn_trial","25","75","in","1","1","","","","","","","","","","","","","","","","","","","","",""
"","","","","","canvas-keyboard-response","40","123269","0.0-12.0-3.5","2d_cat_multi_stim_exp1","2022-4-14","14:49:17","25","75","3","9","10","40","30","120","38","21","[""White""]","No","Female","1964608","null","null","learn_feedback","","","learn_feedback","25","75","in","","","","","","","","","","","","","","","","","","","","","","",""
"","","","","","canvas-keyboard-response","41","123329","0.0-12.0-4.5","2d_cat_multi_stim_exp1","2022-4-14","14:49:17","25","75","3","9","10","40","30","120","38","21","[""White""]","No","Female","1964608","null","null","","","","clear_screen","","","","","","","","","","","","","","","","","","","","","","","","","",""
"","","","","","canvas-keyboard-response","42","123839","0.0-12.0-0.6","2d_cat_multi_stim_exp1","2022-4-14","14:49:17","25","75","3","9","10","40","30","120","38","21","[""White""]","No","Female","1964608","null","null","","","","fixation","","","","","","","","","","","","","","","","","","","","","","","","","",""
"","","","","","canvas-keyboard-response","43","124349","0.0-12.0-1.6","2d_cat_multi_stim_exp1","2022-4-14","14:49:17","25","75","3","9","10","40","30","120","38","21","[""White""]","No","Female","1964608","null","null","","","","clear_screen","","","","","","","","","","","","","","","","","","","","","","","","","",""
"","","","","","canvas-keyboard-response","44","125038","0.0-12.0-2.6","2d_cat_multi_stim_exp1","2022-4-14","14:49:17","25","75","3","9","10","40","30","120","38","21","[""White""]","No","Female","1964608","680","i","learn","","","learn_trial","10","100","out","0","1","","","","","","","","","","","","","","","","","","","","",""
"","","","","","canvas-keyboard-response","45","125549","0.0-12.0-3.6","2d_cat_multi_stim_exp1","2022-4-14","14:49:17","25","75","3","9","10","40","30","120","38","21","[""White""]","No","Female","1964608","null","null","learn_feedback","","","learn_feedback","10","100","out","","","","","","","","","","","","","","","","","","","","","","",""
"","","","","","canvas-keyboard-response","46","125608","0.0-12.0-4.6","2d_cat_multi_stim_exp1","2022-4-14","14:49:17","25","75","3","9","10","40","30","120","38","21","[""White""]","No","Female","1964608","null","null","","","","clear_screen","","","","","","","","","","","","","","","","","","","","","","","","","",""
"","","","","","canvas-keyboard-response","47","126116","0.0-12.0-0.7","2d_cat_multi_stim_exp1","2022-4-14","14:49:17","25","75","3","9","10","40","30","120","38","21","[""White""]","No","Female","1964608","null","null","","","","fixation","","","","","","","","","","","","","","","","","","","","","","","","","",""
"","","","","","canvas-keyboard-response","48","126626","0.0-12.0-1.7","2d_cat_multi_stim_exp1","2022-4-14","14:49:17","25","75","3","9","10","40","30","120","38","21","[""White""]","No","Female","1964608","null","null","","","","clear_screen","","","","","","","","","","","","","","","","","","","","","","","","","",""
"","","","","","canvas-keyboard-response","49","127239","0.0-12.0-2.7","2d_cat_multi_stim_exp1","2022-4-14","14:49:17","25","75","3","9","10","40","30","120","38","21","[""White""]","No","Female","1964608","602","i","learn","","","learn_trial","33.3333","110","out","0","1","","","","","","","","","","","","","","","","","","","","",""
"","","","","","canvas-keyboard-response","50","127748","0.0-12.0-3.7","2d_cat_multi_stim_exp1","2022-4-14","14:49:17","25","75","3","9","10","40","30","120","38","21","[""White""]","No","Female","1964608","null","null","learn_feedback","","","learn_feedback","33.3333","110","out","","","","","","","","","","","","","","","","","","","","","","",""
"","","","","","canvas-keyboard-response","51","127808","0.0-12.0-4.7","2d_cat_multi_stim_exp1","2022-4-14","14:49:17","25","75","3","9","10","40","30","120","38","21","[""White""]","No","Female","1964608","null","null","","","","clear_screen","","","","","","","","","","","","","","","","","","","","","","","","","",""
"","","","","","canvas-keyboard-response","52","128316","0.0-12.0-0.8","2d_cat_multi_stim_exp1","2022-4-14","14:49:17","25","75","3","9","10","40","30","120","38","21","[""White""]","No","Female","1964608","null","null","","","","fixation","","","","","","","","","","","","","","","","","","","","","","","","","",""
"","","","","","canvas-keyboard-response","53","128826","0.0-12.0-1.8","2d_cat_multi_stim_exp1","2022-4-14","14:49:17","25","75","3","9","10","40","30","120","38","21","[""White""]","No","Female","1964608","null","null","","","","clear_screen","","","","","","","","","","","","","","","","","","","","","","","","","",""
"","","","","","canvas-keyboard-response","54","129510","0.0-12.0-2.8","2d_cat_multi_stim_exp1","2022-4-14","14:49:17","25","75","3","9","10","40","30","120","38","21","[""White""]","No","Female","1964608","674","u","learn","","","learn_trial","24.8654","66.0091","in","1","1","","","","","","","","","","","","","","","","","","","","",""
"","","","","","canvas-keyboard-response","55","130020","0.0-12.0-3.8","2d_cat_multi_stim_exp1","2022-4-14","14:49:17","25","75","3","9","10","40","30","120","38","21","[""White""]","No","Female","1964608","null","null","learn_feedback","","","learn_feedback","24.8654","66.0091","in","","","","","","","","","","","","","","","","","","","","","","",""
"","","","","","canvas-keyboard-response","56","130079","0.0-12.0-4.8","2d_cat_multi_stim_exp1","2022-4-14","14:49:17","25","75","3","9","10","40","30","120","38","21","[""White""]","No","Female","1964608","null","null","","","","clear_screen","","","","","","","","","","","","","","","","","","","","","","","","","",""
"","","","","","canvas-keyboard-response","57","130588","0.0-12.0-0.9","2d_cat_multi_stim_exp1","2022-4-14","14:49:17","25","75","3","9","10","40","30","120","38","21","[""White""]","No","Female","1964608","null","null","","","","fixation","","","","","","","","","","","","","","","","","","","","","","","","","",""
"","","","","","canvas-keyboard-response","58","131097","0.0-12.0-1.9","2d_cat_multi_stim_exp1","2022-4-14","14:49:17","25","75","3","9","10","40","30","120","38","21","[""White""]","No","Female","1964608","null","null","","","","clear_screen","","","","","","","","","","","","","","","","","","","","","","","","","",""
"","","","","","canvas-keyboard-response","59","131838","0.0-12.0-2.9","2d_cat_multi_stim_exp1","2022-4-14","14:49:17","25","75","3","9","10","40","30","120","38","21","[""White""]","No","Female","1964608","731","i","learn","","","learn_trial","25","75","in","0","0","","","","","","","","","","","","","","","","","","","","",""
"","","","","","canvas-keyboard-response","60","132848","0.0-12.0-3.9","2d_cat_multi_stim_exp1","2022-4-14","14:49:17","25","75","3","9","10","40","30","120","38","21","[""White""]","No","Female","1964608","null","null","learn_feedback","","","learn_feedback","25","75","in","","","","","","","","","","","","","","","","","","","","","","",""
"","","","","","canvas-keyboard-response","61","132908","0.0-12.0-4.9","2d_cat_multi_stim_exp1","2022-4-14","14:49:17","25","75","3","9","10","40","30","120","38","21","[""White""]","No","Female","1964608","null","null","","","","clear_screen","","","","","","","","","","","","","","","","","","","","","","","","","",""
"","","","","","canvas-keyboard-response","62","133417","0.0-12.0-0.10","2d_cat_multi_stim_exp1","2022-4-14","14:49:17","25","75","3","9","10","40","30","120","38","21","[""White""]","No","Female","1964608","null","null","","","","fixation","","","","","","","","","","","","","","","","","","","","","","","","","",""
"","","","","","canvas-keyboard-response","63","133927","0.0-12.0-1.10","2d_cat_multi_stim_exp1","2022-4-14","14:49:17","25","75","3","9","10","40","30","120","38","21","[""White""]","No","Female","1964608","null","null","","","","clear_screen","","","","","","","","","","","","","","","","","","","","","","","","","",""
"","","","","","canvas-keyboard-response","64","135718","0.0-12.0-2.10","2d_cat_multi_stim_exp1","2022-4-14","14:49:17","25","75","3","9","10","40","30","120","38","21","[""White""]","No","Female","1964608","1782","i","learn","","","learn_trial","16.6667","30","out","0","1","","","","","","","","","","","","","","","","","","","","",""
"","","","","","canvas-keyboard-response","65","136229","0.0-12.0-3.10","2d_cat_multi_stim_exp1","2022-4-14","14:49:17","25","75","3","9","10","40","30","120","38","21","[""White""]","No","Female","1964608","null","null","learn_feedback","","","learn_feedback","16.6667","30","out","","","","","","","","","","","","","","","","","","","","","","",""
"","","","","","canvas-keyboard-response","66","136288","0.0-12.0-4.10","2d_cat_multi_stim_exp1","2022-4-14","14:49:17","25","75","3","9","10","40","30","120","38","21","[""White""]","No","Female","1964608","null","null","","","","clear_screen","","","","","","","","","","","","","","","","","","","","","","","","","",""
"","","","","","canvas-keyboard-response","67","136797","0.0-12.0-0.11","2d_cat_multi_stim_exp1","2022-4-14","14:49:17","25","75","3","9","10","40","30","120","38","21","[""White""]","No","Female","1964608","null","null","","","","fixation","","","","","","","","","","","","","","","","","","","","","","","","","",""
"","","","","","canvas-keyboard-response","68","137307","0.0-12.0-1.11","2d_cat_multi_stim_exp1","2022-4-14","14:49:17","25","75","3","9","10","40","30","120","38","21","[""White""]","No","Female","1964608","null","null","","","","clear_screen","","","","","","","","","","","","","","","","","","","","","","","","","",""
"","","","","","canvas-keyboard-response","69","138310","0.0-12.0-2.11","2d_cat_multi_stim_exp1","2022-4-14","14:49:17","25","75","3","9","10","40","30","120","38","21","[""White""]","No","Female","1964608","994","i","learn","","","learn_trial","13.3333","40","out","0","1","","","","","","","","","","","","","","","","","","","","",""
"","","","","","canvas-keyboard-response","70","138820","0.0-12.0-3.11","2d_cat_multi_stim_exp1","2022-4-14","14:49:17","25","75","3","9","10","40","30","120","38","21","[""White""]","No","Female","1964608","null","null","learn_feedback","","","learn_feedback","13.3333","40","out","","","","","","","","","","","","","","","","","","","","","","",""
"","","","","","canvas-keyboard-response","71","138879","0.0-12.0-4.11","2d_cat_multi_stim_exp1","2022-4-14","14:49:17","25","75","3","9","10","40","30","120","38","21","[""White""]","No","Female","1964608","null","null","","","","clear_screen","","","","","","","","","","","","","","","","","","","","","","","","","",""
"","","","","","canvas-keyboard-response","72","139388","0.0-12.0-0.12","2d_cat_multi_stim_exp1","2022-4-14","14:49:17","25","75","3","9","10","40","30","120","38","21","[""White""]","No","Female","1964608","null","null","","","","fixation","","","","","","","","","","","","","","","","","","","","","","","","","",""
"","","","","","canvas-keyboard-response","73","139897","0.0-12.0-1.12","2d_cat_multi_stim_exp1","2022-4-14","14:49:17","25","75","3","9","10","40","30","120","38","21","[""White""]","No","Female","1964608","null","null","","","","clear_screen","","","","","","","","","","","","","","","","","","","","","","","","","",""
"","","","","","canvas-keyboard-response","74","140549","0.0-12.0-2.12","2d_cat_multi_stim_exp1","2022-4-14","14:49:17","25","75","3","9","10","40","30","120","38","21","[""White""]","No","Female","1964608","643","i","learn","","","learn_trial","13.3333","30","out","0","1","","","","","","","","","","","","","","","","","","","","",""
"","","","","","canvas-keyboard-response","75","141060","0.0-12.0-3.12","2d_cat_multi_stim_exp1","2022-4-14","14:49:17","25","75","3","9","10","40","30","120","38","21","[""White""]","No","Female","1964608","null","null","learn_feedback","","","learn_feedback","13.3333","30","out","","","","","","","","","","","","","","","","","","","","","","",""
"","","","","","canvas-keyboard-response","76","141118","0.0-12.0-4.12","2d_cat_multi_stim_exp1","2022-4-14","14:49:17","25","75","3","9","10","40","30","120","38","21","[""White""]","No","Female","1964608","null","null","","","","clear_screen","","","","","","","","","","","","","","","","","","","","","","","","","",""
"","","","","","canvas-keyboard-response","77","141629","0.0-12.0-0.13","2d_cat_multi_stim_exp1","2022-4-14","14:49:17","25","75","3","9","10","40","30","120","38","21","[""White""]","No","Female","1964608","null","null","","","","fixation","","","","","","","","","","","","","","","","","","","","","","","","","",""
"","","","","","canvas-keyboard-response","78","142139","0.0-12.0-1.13","2d_cat_multi_stim_exp1","2022-4-14","14:49:17","25","75","3","9","10","40","30","120","38","21","[""White""]","No","Female","1964608","null","null","","","","clear_screen","","","","","","","","","","","","","","","","","","","","","","","","","",""
"","","","","","canvas-keyboard-response","79","142934","0.0-12.0-2.13","2d_cat_multi_stim_exp1","2022-4-14","14:49:17","25","75","3","9","10","40","30","120","38","21","[""White""]","No","Female","1964608","785","u","learn","","","learn_trial","25","75","in","1","1","","","","","","","","","","","","","","","","","","","","",""
"","","","","","canvas-keyboard-response","80","143444","0.0-12.0-3.13","2d_cat_multi_stim_exp1","2022-4-14","14:49:17","25","75","3","9","10","40","30","120","38","21","[""White""]","No","Female","1964608","null","null","learn_feedback","","","learn_feedback","25","75","in","","","","","","","","","","","","","","","","","","","","","","",""
"","","","","","canvas-keyboard-response","81","143502","0.0-12.0-4.13","2d_cat_multi_stim_exp1","2022-4-14","14:49:17","25","75","3","9","10","40","30","120","38","21","[""White""]","No","Female","1964608","null","null","","","","clear_screen","","","","","","","","","","","","","","","","","","","","","","","","","",""
"","","","","","canvas-keyboard-response","82","144012","0.0-12.0-0.14","2d_cat_multi_stim_exp1","2022-4-14","14:49:17","25","75","3","9","10","40","30","120","38","21","[""White""]","No","Female","1964608","null","null","","","","fixation","","","","","","","","","","","","","","","","","","","","","","","","","",""
"","","","","","canvas-keyboard-response","83","144521","0.0-12.0-1.14","2d_cat_multi_stim_exp1","2022-4-14","14:49:17","25","75","3","9","10","40","30","120","38","21","[""White""]","No","Female","1964608","null","null","","","","clear_screen","","","","","","","","","","","","","","","","","","","","","","","","","",""
"","","","","","canvas-keyboard-response","84","145566","0.0-12.0-2.14","2d_cat_multi_stim_exp1","2022-4-14","14:49:17","25","75","3","9","10","40","30","120","38","21","[""White""]","No","Female","1964608","1036","i","learn","","","learn_trial","30","120","out","0","1","","","","","","","","","","","","","","","","","","","","",""
"","","","","","canvas-keyboard-response","85","146076","0.0-12.0-3.14","2d_cat_multi_stim_exp1","2022-4-14","14:49:17","25","75","3","9","10","40","30","120","38","21","[""White""]","No","Female","1964608","null","null","learn_feedback","","","learn_feedback","30","120","out","","","","","","","","","","","","","","","","","","","","","","",""
"","","","","","canvas-keyboard-response","86","146134","0.0-12.0-4.14","2d_cat_multi_stim_exp1","2022-4-14","14:49:17","25","75","3","9","10","40","30","120","38","21","[""White""]","No","Female","1964608","null","null","","","","clear_screen","","","","","","","","","","","","","","","","","","","","","","","","","",""
"","","","","","canvas-keyboard-response","87","146643","0.0-12.0-0.15","2d_cat_multi_stim_exp1","2022-4-14","14:49:17","25","75","3","9","10","40","30","120","38","21","[""White""]","No","Female","1964608","null","null","","","","fixation","","","","","","","","","","","","","","","","","","","","","","","","","",""
"","","","","","canvas-keyboard-response","88","147153","0.0-12.0-1.15","2d_cat_multi_stim_exp1","2022-4-14","14:49:17","25","75","3","9","10","40","30","120","38","21","[""White""]","No","Female","1964608","null","null","","","","clear_screen","","","","","","","","","","","","","","","","","","","","","","","","","",""
"","","","","","canvas-keyboard-response","89","150509","0.0-12.0-2.15","2d_cat_multi_stim_exp1","2022-4-14","14:49:17","25","75","3","9","10","40","30","120","38","21","[""White""]","No","Female","1964608","3348","i","learn","","","learn_trial","40","50","out","0","1","","","","","","","","","","","","","","","","","","","","",""
"","","","","","canvas-keyboard-response","90","151020","0.0-12.0-3.15","2d_cat_multi_stim_exp1","2022-4-14","14:49:17","25","75","3","9","10","40","30","120","38","21","[""White""]","No","Female","1964608","null","null","learn_feedback","","","learn_feedback","40","50","out","","","","","","","","","","","","","","","","","","","","","","",""
"","","","","","canvas-keyboard-response","91","151078","0.0-12.0-4.15","2d_cat_multi_stim_exp1","2022-4-14","14:49:17","25","75","3","9","10","40","30","120","38","21","[""White""]","No","Female","1964608","null","null","","","","clear_screen","","","","","","","","","","","","","","","","","","","","","","","","","",""
"","","","","","canvas-keyboard-response","92","151587","0.0-12.0-0.16","2d_cat_multi_stim_exp1","2022-4-14","14:49:17","25","75","3","9","10","40","30","120","38","21","[""White""]","No","Female","1964608","null","null","","","","fixation","","","","","","","","","","","","","","","","","","","","","","","","","",""
"","","","","","canvas-keyboard-response","93","152099","0.0-12.0-1.16","2d_cat_multi_stim_exp1","2022-4-14","14:49:17","25","75","3","9","10","40","30","120","38","21","[""White""]","No","Female","1964608","null","null","","","","clear_screen","","","","","","","","","","","","","","","","","","","","","","","","","",""
"","","","","","canvas-keyboard-response","94","152999","0.0-12.0-2.16","2d_cat_multi_stim_exp1","2022-4-14","14:49:17","25","75","3","9","10","40","30","120","38","21","[""White""]","No","Female","1964608","892","u","learn","","","learn_trial","33.3333","60","out","1","0","","","","","","","","","","","","","","","","","","","","",""
"","","","","","canvas-keyboard-response","95","154008","0.0-12.0-3.16","2d_cat_multi_stim_exp1","2022-4-14","14:49:17","25","75","3","9","10","40","30","120","38","21","[""White""]","No","Female","1964608","null","null","learn_feedback","","","learn_feedback","33.3333","60","out","","","","","","","","","","","","","","","","","","","","","","",""
"","","","","","canvas-keyboard-response","96","154068","0.0-12.0-4.16","2d_cat_multi_stim_exp1","2022-4-14","14:49:17","25","75","3","9","10","40","30","120","38","21","[""White""]","No","Female","1964608","null","null","","","","clear_screen","","","","","","","","","","","","","","","","","","","","","","","","","",""
"","","","","","canvas-keyboard-response","97","154577","0.0-12.0-0.17","2d_cat_multi_stim_exp1","2022-4-14","14:49:17","25","75","3","9","10","40","30","120","38","21","[""White""]","No","Female","1964608","null","null","","","","fixation","","","","","","","","","","","","","","","","","","","","","","","","","",""
"","","","","","canvas-keyboard-response","98","155086","0.0-12.0-1.17","2d_cat_multi_stim_exp1","2022-4-14","14:49:17","25","75","3","9","10","40","30","120","38","21","[""White""]","No","Female","1964608","null","null","","","","clear_screen","","","","","","","","","","","","","","","","","","","","","","","","","",""
"","","","","","canvas-keyboard-response","99","155869","0.0-12.0-2.17","2d_cat_multi_stim_exp1","2022-4-14","14:49:17","25","75","3","9","10","40","30","120","38","21","[""White""]","No","Female","1964608","775","i","learn","","","learn_trial","30","40","out","0","1","","","","","","","","","","","","","","","","","","","","",""
"","","","","","canvas-keyboard-response","100","156379","0.0-12.0-3.17","2d_cat_multi_stim_exp1","2022-4-14","14:49:17","25","75","3","9","10","40","30","120","38","21","[""White""]","No","Female","1964608","null","null","learn_feedback","","","learn_feedback","30","40","out","","","","","","","","","","","","","","","","","","","","","","",""
"","","","","","canvas-keyboard-response","101","156438","0.0-12.0-4.17","2d_cat_multi_stim_exp1","2022-4-14","14:49:17","25","75","3","9","10","40","30","120","38","21","[""White""]","No","Female","1964608","null","null","","","","clear_screen","","","","","","","","","","","","","","","","","","","","","","","","","",""
"","","","","","canvas-keyboard-response","102","156948","0.0-12.0-0.18","2d_cat_multi_stim_exp1","2022-4-14","14:49:17","25","75","3","9","10","40","30","120","38","21","[""White""]","No","Female","1964608","null","null","","","","fixation","","","","","","","","","","","","","","","","","","","","","","","","","",""
"","","","","","canvas-keyboard-response","103","157457","0.0-12.0-1.18","2d_cat_multi_stim_exp1","2022-4-14","14:49:17","25","75","3","9","10","40","30","120","38","21","[""White""]","No","Female","1964608","null","null","","","","clear_screen","","","","","","","","","","","","","","","","","","","","","","","","","",""
"","","","","","canvas-keyboard-response","104","158134","0.0-12.0-2.18","2d_cat_multi_stim_exp1","2022-4-14","14:49:17","25","75","3","9","10","40","30","120","38","21","[""White""]","No","Female","1964608","668","i","learn","","","learn_trial","20","30","out","0","1","","","","","","","","","","","","","","","","","","","","",""
"","","","","","canvas-keyboard-response","105","158643","0.0-12.0-3.18","2d_cat_multi_stim_exp1","2022-4-14","14:49:17","25","75","3","9","10","40","30","120","38","21","[""White""]","No","Female","1964608","null","null","learn_feedback","","","learn_feedback","20","30","out","","","","","","","","","","","","","","","","","","","","","","",""
"","","","","","canvas-keyboard-response","106","158703","0.0-12.0-4.18","2d_cat_multi_stim_exp1","2022-4-14","14:49:17","25","75","3","9","10","40","30","120","38","21","[""White""]","No","Female","1964608","null","null","","","","clear_screen","","","","","","","","","","","","","","","","","","","","","","","","","",""
"","","","","","canvas-keyboard-response","107","159211","0.0-12.0-0.19","2d_cat_multi_stim_exp1","2022-4-14","14:49:17","25","75","3","9","10","40","30","120","38","21","[""White""]","No","Female","1964608","null","null","","","","fixation","","","","","","","","","","","","","","","","","","","","","","","","","",""
"","","","","","canvas-keyboard-response","108","159721","0.0-12.0-1.19","2d_cat_multi_stim_exp1","2022-4-14","14:49:17","25","75","3","9","10","40","30","120","38","21","[""White""]","No","Female","1964608","null","null","","","","clear_screen","","","","","","","","","","","","","","","","","","","","","","","","","",""
"","","","","","canvas-keyboard-response","109","160517","0.0-12.0-2.19","2d_cat_multi_stim_exp1","2022-4-14","14:49:17","25","75","3","9","10","40","30","120","38","21","[""White""]","No","Female","1964608","785","u","learn","","","learn_trial","25","75","in","1","1","","","","","","","","","","","","","","","","","","","","",""
"","","","","","canvas-keyboard-response","110","161027","0.0-12.0-3.19","2d_cat_multi_stim_exp1","2022-4-14","14:49:17","25","75","3","9","10","40","30","120","38","21","[""White""]","No","Female","1964608","null","null","learn_feedback","","","learn_feedback","25","75","in","","","","","","","","","","","","","","","","","","","","","","",""
"","","","","","canvas-keyboard-response","111","161086","0.0-12.0-4.19","2d_cat_multi_stim_exp1","2022-4-14","14:49:17","25","75","3","9","10","40","30","120","38","21","[""White""]","No","Female","1964608","null","null","","","","clear_screen","","","","","","","","","","","","","","","","","","","","","","","","","",""
"","","","","","canvas-keyboard-response","112","161596","0.0-12.0-0.20","2d_cat_multi_stim_exp1","2022-4-14","14:49:17","25","75","3","9","10","40","30","120","38","21","[""White""]","No","Female","1964608","null","null","","","","fixation","","","","","","","","","","","","","","","","","","","","","","","","","",""
"","","","","","canvas-keyboard-response","113","162105","0.0-12.0-1.20","2d_cat_multi_stim_exp1","2022-4-14","14:49:17","25","75","3","9","10","40","30","120","38","21","[""White""]","No","Female","1964608","null","null","","","","clear_screen","","","","","","","","","","","","","","","","","","","","","","","","","",""
"","","","","","canvas-keyboard-response","114","163309","0.0-12.0-2.20","2d_cat_multi_stim_exp1","2022-4-14","14:49:17","25","75","3","9","10","40","30","120","38","21","[""White""]","No","Female","1964608","1194","i","learn","","","learn_trial","23.3333","30","out","0","1","","","","","","","","","","","","","","","","","","","","",""
"","","","","","canvas-keyboard-response","115","163819","0.0-12.0-3.20","2d_cat_multi_stim_exp1","2022-4-14","14:49:17","25","75","3","9","10","40","30","120","38","21","[""White""]","No","Female","1964608","null","null","learn_feedback","","","learn_feedback","23.3333","30","out","","","","","","","","","","","","","","","","","","","","","","",""
"","","","","","canvas-keyboard-response","116","163878","0.0-12.0-4.20","2d_cat_multi_stim_exp1","2022-4-14","14:49:17","25","75","3","9","10","40","30","120","38","21","[""White""]","No","Female","1964608","null","null","","","","clear_screen","","","","","","","","","","","","","","","","","","","","","","","","","",""
"","","","","","canvas-keyboard-response","117","164388","0.0-12.0-0.21","2d_cat_multi_stim_exp1","2022-4-14","14:49:17","25","75","3","9","10","40","30","120","38","21","[""White""]","No","Female","1964608","null","null","","","","fixation","","","","","","","","","","","","","","","","","","","","","","","","","",""
"","","","","","canvas-keyboard-response","118","164901","0.0-12.0-1.21","2d_cat_multi_stim_exp1","2022-4-14","14:49:17","25","75","3","9","10","40","30","120","38","21","[""White""]","No","Female","1964608","null","null","","","","clear_screen","","","","","","","","","","","","","","","","","","","","","","","","","",""
"","","","","","canvas-keyboard-response","119","165622","0.0-12.0-2.21","2d_cat_multi_stim_exp1","2022-4-14","14:49:17","25","75","3","9","10","40","30","120","38","21","[""White""]","No","Female","1964608","710","u","learn","","","learn_trial","25","75","in","1","1","","","","","","","","","","","","","","","","","","","","",""
"","","","","","canvas-keyboard-response","120","166134","0.0-12.0-3.21","2d_cat_multi_stim_exp1","2022-4-14","14:49:17","25","75","3","9","10","40","30","120","38","21","[""White""]","No","Female","1964608","null","null","learn_feedback","","","learn_feedback","25","75","in","","","","","","","","","","","","","","","","","","","","","","",""
"","","","","","canvas-keyboard-response","121","166193","0.0-12.0-4.21","2d_cat_multi_stim_exp1","2022-4-14","14:49:17","25","75","3","9","10","40","30","120","38","21","[""White""]","No","Female","1964608","null","null","","","","clear_screen","","","","","","","","","","","","","","","","","","","","","","","","","",""
"","","","","","canvas-keyboard-response","122","166703","0.0-12.0-0.22","2d_cat_multi_stim_exp1","2022-4-14","14:49:17","25","75","3","9","10","40","30","120","38","21","[""White""]","No","Female","1964608","null","null","","","","fixation","","","","","","","","","","","","","","","","","","","","","","","","","",""
"","","","","","canvas-keyboard-response","123","167213","0.0-12.0-1.22","2d_cat_multi_stim_exp1","2022-4-14","14:49:17","25","75","3","9","10","40","30","120","38","21","[""White""]","No","Female","1964608","null","null","","","","clear_screen","","","","","","","","","","","","","","","","","","","","","","","","","",""
"","","","","","canvas-keyboard-response","124","169094","0.0-12.0-2.22","2d_cat_multi_stim_exp1","2022-4-14","14:49:17","25","75","3","9","10","40","30","120","38","21","[""White""]","No","Female","1964608","1870","u","learn","","","learn_trial","25","75","in","1","1","","","","","","","","","","","","","","","","","","","","",""
"","","","","","canvas-keyboard-response","125","169604","0.0-12.0-3.22","2d_cat_multi_stim_exp1","2022-4-14","14:49:17","25","75","3","9","10","40","30","120","38","21","[""White""]","No","Female","1964608","null","null","learn_feedback","","","learn_feedback","25","75","in","","","","","","","","","","","","","","","","","","","","","","",""
"","","","","","canvas-keyboard-response","126","169664","0.0-12.0-4.22","2d_cat_multi_stim_exp1","2022-4-14","14:49:17","25","75","3","9","10","40","30","120","38","21","[""White""]","No","Female","1964608","null","null","","","","clear_screen","","","","","","","","","","","","","","","","","","","","","","","","","",""
"","","","","","canvas-keyboard-response","127","170174","0.0-12.0-0.23","2d_cat_multi_stim_exp1","2022-4-14","14:49:17","25","75","3","9","10","40","30","120","38","21","[""White""]","No","Female","1964608","null","null","","","","fixation","","","","","","","","","","","","","","","","","","","","","","","","","",""
"","","","","","canvas-keyboard-response","128","170684","0.0-12.0-1.23","2d_cat_multi_stim_exp1","2022-4-14","14:49:17","25","75","3","9","10","40","30","120","38","21","[""White""]","No","Female","1964608","null","null","","","","clear_screen","","","","","","","","","","","","","","","","","","","","","","","","","",""
"","","","","","canvas-keyboard-response","129","171878","0.0-12.0-2.23","2d_cat_multi_stim_exp1","2022-4-14","14:49:17","25","75","3","9","10","40","30","120","38","21","[""White""]","No","Female","1964608","1183","i","learn","","","learn_trial","25","75","in","0","0","","","","","","","","","","","","","","","","","","","","",""
"","","","","","canvas-keyboard-response","130","172888","0.0-12.0-3.23","2d_cat_multi_stim_exp1","2022-4-14","14:49:17","25","75","3","9","10","40","30","120","38","21","[""White""]","No","Female","1964608","null","null","learn_feedback","","","learn_feedback","25","75","in","","","","","","","","","","","","","","","","","","","","","","",""
"","","","","","canvas-keyboard-response","131","172947","0.0-12.0-4.23","2d_cat_multi_stim_exp1","2022-4-14","14:49:17","25","75","3","9","10","40","30","120","38","21","[""White""]","No","Female","1964608","null","null","","","","clear_screen","","","","","","","","","","","","","","","","","","","","","","","","","",""
"","","","","","canvas-keyboard-response","132","173457","0.0-12.0-0.24","2d_cat_multi_stim_exp1","2022-4-14","14:49:17","25","75","3","9","10","40","30","120","38","21","[""White""]","No","Female","1964608","null","null","","","","fixation","","","","","","","","","","","","","","","","","","","","","","","","","",""
"","","","","","canvas-keyboard-response","133","173966","0.0-12.0-1.24","2d_cat_multi_stim_exp1","2022-4-14","14:49:17","25","75","3","9","10","40","30","120","38","21","[""White""]","No","Female","1964608","null","null","","","","clear_screen","","","","","","","","","","","","","","","","","","","","","","","","","",""
"","","","","","canvas-keyboard-response","134","174638","0.0-12.0-2.24","2d_cat_multi_stim_exp1","2022-4-14","14:49:17","25","75","3","9","10","40","30","120","38","21","[""White""]","No","Female","1964608","660","u","learn","","","learn_trial","20","70","out","1","0","","","","","","","","","","","","","","","","","","","","",""
"","","","","","canvas-keyboard-response","135","175647","0.0-12.0-3.24","2d_cat_multi_stim_exp1","2022-4-14","14:49:17","25","75","3","9","10","40","30","120","38","21","[""White""]","No","Female","1964608","null","null","learn_feedback","","","learn_feedback","20","70","out","","","","","","","","","","","","","","","","","","","","","","",""
"","","","","","canvas-keyboard-response","136","175706","0.0-12.0-4.24","2d_cat_multi_stim_exp1","2022-4-14","14:49:17","25","75","3","9","10","40","30","120","38","21","[""White""]","No","Female","1964608","null","null","","","","clear_screen","","","","","","","","","","","","","","","","","","","","","","","","","",""
"","","","","","canvas-keyboard-response","137","176217","0.0-12.0-0.25","2d_cat_multi_stim_exp1","2022-4-14","14:49:17","25","75","3","9","10","40","30","120","38","21","[""White""]","No","Female","1964608","null","null","","","","fixation","","","","","","","","","","","","","","","","","","","","","","","","","",""
"","","","","","canvas-keyboard-response","138","176726","0.0-12.0-1.25","2d_cat_multi_stim_exp1","2022-4-14","14:49:17","25","75","3","9","10","40","30","120","38","21","[""White""]","No","Female","1964608","null","null","","","","clear_screen","","","","","","","","","","","","","","","","","","","","","","","","","",""
"","","","","","canvas-keyboard-response","139","177789","0.0-12.0-2.25","2d_cat_multi_stim_exp1","2022-4-14","14:49:17","25","75","3","9","10","40","30","120","38","21","[""White""]","No","Female","1964608","1054","i","learn","","","learn_trial","10","50","out","0","1","","","","","","","","","","","","","","","","","","","","",""
"","","","","","canvas-keyboard-response","140","178304","0.0-12.0-3.25","2d_cat_multi_stim_exp1","2022-4-14","14:49:17","25","75","3","9","10","40","30","120","38","21","[""White""]","No","Female","1964608","null","null","learn_feedback","","","learn_feedback","10","50","out","","","","","","","","","","","","","","","","","","","","","","",""
"","","","","","canvas-keyboard-response","141","178363","0.0-12.0-4.25","2d_cat_multi_stim_exp1","2022-4-14","14:49:17","25","75","3","9","10","40","30","120","38","21","[""White""]","No","Female","1964608","null","null","","","","clear_screen","","","","","","","","","","","","","","","","","","","","","","","","","",""
"","","","","","canvas-keyboard-response","142","178872","0.0-12.0-0.26","2d_cat_multi_stim_exp1","2022-4-14","14:49:17","25","75","3","9","10","40","30","120","38","21","[""White""]","No","Female","1964608","null","null","","","","fixation","","","","","","","","","","","","","","","","","","","","","","","","","",""
"","","","","","canvas-keyboard-response","143","179381","0.0-12.0-1.26","2d_cat_multi_stim_exp1","2022-4-14","14:49:17","25","75","3","9","10","40","30","120","38","21","[""White""]","No","Female","1964608","null","null","","","","clear_screen","","","","","","","","","","","","","","","","","","","","","","","","","",""
"","","","","","canvas-keyboard-response","144","180686","0.0-12.0-2.26","2d_cat_multi_stim_exp1","2022-4-14","14:49:17","25","75","3","9","10","40","30","120","38","21","[""White""]","No","Female","1964608","1294","u","learn","","","learn_trial","25","75","in","1","1","","","","","","","","","","","","","","","","","","","","",""
"","","","","","canvas-keyboard-response","145","181195","0.0-12.0-3.26","2d_cat_multi_stim_exp1","2022-4-14","14:49:17","25","75","3","9","10","40","30","120","38","21","[""White""]","No","Female","1964608","null","null","learn_feedback","","","learn_feedback","25","75","in","","","","","","","","","","","","","","","","","","","","","","",""
"","","","","","canvas-keyboard-response","146","181254","0.0-12.0-4.26","2d_cat_multi_stim_exp1","2022-4-14","14:49:17","25","75","3","9","10","40","30","120","38","21","[""White""]","No","Female","1964608","null","null","","","","clear_screen","","","","","","","","","","","","","","","","","","","","","","","","","",""
"","","","","","canvas-keyboard-response","147","181763","0.0-12.0-0.27","2d_cat_multi_stim_exp1","2022-4-14","14:49:17","25","75","3","9","10","40","30","120","38","21","[""White""]","No","Female","1964608","null","null","","","","fixation","","","","","","","","","","","","","","","","","","","","","","","","","",""
"","","","","","canvas-keyboard-response","148","182272","0.0-12.0-1.27","2d_cat_multi_stim_exp1","2022-4-14","14:49:17","25","75","3","9","10","40","30","120","38","21","[""White""]","No","Female","1964608","null","null","","","","clear_screen","","","","","","","","","","","","","","","","","","","","","","","","","",""
"","","","","","canvas-keyboard-response","149","183486","0.0-12.0-2.27","2d_cat_multi_stim_exp1","2022-4-14","14:49:17","25","75","3","9","10","40","30","120","38","21","[""White""]","No","Female","1964608","1204","i","learn","","","learn_trial","33.3333","50","out","0","1","","","","","","","","","","","","","","","","","","","","",""
"","","","","","canvas-keyboard-response","150","183995","0.0-12.0-3.27","2d_cat_multi_stim_exp1","2022-4-14","14:49:17","25","75","3","9","10","40","30","120","38","21","[""White""]","No","Female","1964608","null","null","learn_feedback","","","learn_feedback","33.3333","50","out","","","","","","","","","","","","","","","","","","","","","","",""
"","","","","","canvas-keyboard-response","151","184055","0.0-12.0-4.27","2d_cat_multi_stim_exp1","2022-4-14","14:49:17","25","75","3","9","10","40","30","120","38","21","[""White""]","No","Female","1964608","null","null","","","","clear_screen","","","","","","","","","","","","","","","","","","","","","","","","","",""
"","","","","","canvas-keyboard-response","152","184563","0.0-12.0-0.28","2d_cat_multi_stim_exp1","2022-4-14","14:49:17","25","75","3","9","10","40","30","120","38","21","[""White""]","No","Female","1964608","null","null","","","","fixation","","","","","","","","","","","","","","","","","","","","","","","","","",""
"","","","","","canvas-keyboard-response","153","185072","0.0-12.0-1.28","2d_cat_multi_stim_exp1","2022-4-14","14:49:17","25","75","3","9","10","40","30","120","38","21","[""White""]","No","Female","1964608","null","null","","","","clear_screen","","","","","","","","","","","","","","","","","","","","","","","","","",""
"","","","","","canvas-keyboard-response","154","186989","0.0-12.0-2.28","2d_cat_multi_stim_exp1","2022-4-14","14:49:17","25","75","3","9","10","40","30","120","38","21","[""White""]","No","Female","1964608","1908","u","learn","","","learn_trial","30","60","out","1","0","","","","","","","","","","","","","","","","","","","","",""
"","","","","","canvas-keyboard-response","155","188000","0.0-12.0-3.28","2d_cat_multi_stim_exp1","2022-4-14","14:49:17","25","75","3","9","10","40","30","120","38","21","[""White""]","No","Female","1964608","null","null","learn_feedback","","","learn_feedback","30","60","out","","","","","","","","","","","","","","","","","","","","","","",""
"","","","","","canvas-keyboard-response","156","188060","0.0-12.0-4.28","2d_cat_multi_stim_exp1","2022-4-14","14:49:17","25","75","3","9","10","40","30","120","38","21","[""White""]","No","Female","1964608","null","null","","","","clear_screen","","","","","","","","","","","","","","","","","","","","","","","","","",""
"","","","","","canvas-keyboard-response","157","188569","0.0-12.0-0.29","2d_cat_multi_stim_exp1","2022-4-14","14:49:17","25","75","3","9","10","40","30","120","38","21","[""White""]","No","Female","1964608","null","null","","","","fixation","","","","","","","","","","","","","","","","","","","","","","","","","",""
"","","","","","canvas-keyboard-response","158","189078","0.0-12.0-1.29","2d_cat_multi_stim_exp1","2022-4-14","14:49:17","25","75","3","9","10","40","30","120","38","21","[""White""]","No","Female","1964608","null","null","","","","clear_screen","","","","","","","","","","","","","","","","","","","","","","","","","",""
"","","","","","canvas-keyboard-response","159","189933","0.0-12.0-2.29","2d_cat_multi_stim_exp1","2022-4-14","14:49:17","25","75","3","9","10","40","30","120","38","21","[""White""]","No","Female","1964608","847","u","learn","","","learn_trial","22.2971","71.095","in","1","1","","","","","","","","","","","","","","","","","","","","",""
"","","","","","canvas-keyboard-response","160","190443","0.0-12.0-3.29","2d_cat_multi_stim_exp1","2022-4-14","14:49:17","25","75","3","9","10","40","30","120","38","21","[""White""]","No","Female","1964608","null","null","learn_feedback","","","learn_feedback","22.2971","71.095","in","","","","","","","","","","","","","","","","","","","","","","",""
"","","","","","canvas-keyboard-response","161","190502","0.0-12.0-4.29","2d_cat_multi_stim_exp1","2022-4-14","14:49:17","25","75","3","9","10","40","30","120","38","21","[""White""]","No","Female","1964608","null","null","","","","clear_screen","","","","","","","","","","","","","","","","","","","","","","","","","",""
"","","","","","canvas-keyboard-response","162","191011","0.0-12.0-0.30","2d_cat_multi_stim_exp1","2022-4-14","14:49:17","25","75","3","9","10","40","30","120","38","21","[""White""]","No","Female","1964608","null","null","","","","fixation","","","","","","","","","","","","","","","","","","","","","","","","","",""
"","","","","","canvas-keyboard-response","163","191521","0.0-12.0-1.30","2d_cat_multi_stim_exp1","2022-4-14","14:49:17","25","75","3","9","10","40","30","120","38","21","[""White""]","No","Female","1964608","null","null","","","","clear_screen","","","","","","","","","","","","","","","","","","","","","","","","","",""
"","","","","","canvas-keyboard-response","164","192421","0.0-12.0-2.30","2d_cat_multi_stim_exp1","2022-4-14","14:49:17","25","75","3","9","10","40","30","120","38","21","[""White""]","No","Female","1964608","891","i","learn","","","learn_trial","20.7574","87.7279","in","0","0","","","","","","","","","","","","","","","","","","","","",""
"","","","","","canvas-keyboard-response","165","193431","0.0-12.0-3.30","2d_cat_multi_stim_exp1","2022-4-14","14:49:17","25","75","3","9","10","40","30","120","38","21","[""White""]","No","Female","1964608","null","null","learn_feedback","","","learn_feedback","20.7574","87.7279","in","","","","","","","","","","","","","","","","","","","","","","",""
"","","","","","canvas-keyboard-response","166","193490","0.0-12.0-4.30","2d_cat_multi_stim_exp1","2022-4-14","14:49:17","25","75","3","9","10","40","30","120","38","21","[""White""]","No","Female","1964608","null","null","","","","clear_screen","","","","","","","","","","","","","","","","","","","","","","","","","",""
"","","","","","canvas-keyboard-response","167","193999","0.0-12.0-0.31","2d_cat_multi_stim_exp1","2022-4-14","14:49:17","25","75","3","9","10","40","30","120","38","21","[""White""]","No","Female","1964608","null","null","","","","fixation","","","","","","","","","","","","","","","","","","","","","","","","","",""
"","","","","","canvas-keyboard-response","168","194508","0.0-12.0-1.31","2d_cat_multi_stim_exp1","2022-4-14","14:49:17","25","75","3","9","10","40","30","120","38","21","[""White""]","No","Female","1964608","null","null","","","","clear_screen","","","","","","","","","","","","","","","","","","","","","","","","","",""
"","","","","","canvas-keyboard-response","169","195421","0.0-12.0-2.31","2d_cat_multi_stim_exp1","2022-4-14","14:49:17","25","75","3","9","10","40","30","120","38","21","[""White""]","No","Female","1964608","904","i","learn","","","learn_trial","10","110","out","0","1","","","","","","","","","","","","","","","","","","","","",""
"","","","","","canvas-keyboard-response","170","195932","0.0-12.0-3.31","2d_cat_multi_stim_exp1","2022-4-14","14:49:17","25","75","3","9","10","40","30","120","38","21","[""White""]","No","Female","1964608","null","null","learn_feedback","","","learn_feedback","10","110","out","","","","","","","","","","","","","","","","","","","","","","",""
"","","","","","canvas-keyboard-response","171","195993","0.0-12.0-4.31","2d_cat_multi_stim_exp1","2022-4-14","14:49:17","25","75","3","9","10","40","30","120","38","21","[""White""]","No","Female","1964608","null","null","","","","clear_screen","","","","","","","","","","","","","","","","","","","","","","","","","",""
"","","","","","canvas-keyboard-response","172","196502","0.0-12.0-0.32","2d_cat_multi_stim_exp1","2022-4-14","14:49:17","25","75","3","9","10","40","30","120","38","21","[""White""]","No","Female","1964608","null","null","","","","fixation","","","","","","","","","","","","","","","","","","","","","","","","","",""
"","","","","","canvas-keyboard-response","173","197012","0.0-12.0-1.32","2d_cat_multi_stim_exp1","2022-4-14","14:49:17","25","75","3","9","10","40","30","120","38","21","[""White""]","No","Female","1964608","null","null","","","","clear_screen","","","","","","","","","","","","","","","","","","","","","","","","","",""
"","","","","","canvas-keyboard-response","174","198213","0.0-12.0-2.32","2d_cat_multi_stim_exp1","2022-4-14","14:49:17","25","75","3","9","10","40","30","120","38","21","[""White""]","No","Female","1964608","1191","i","learn","","","learn_trial","33.3333","90","out","0","1","","","","","","","","","","","","","","","","","","","","",""
"","","","","","canvas-keyboard-response","175","198723","0.0-12.0-3.32","2d_cat_multi_stim_exp1","2022-4-14","14:49:17","25","75","3","9","10","40","30","120","38","21","[""White""]","No","Female","1964608","null","null","learn_feedback","","","learn_feedback","33.3333","90","out","","","","","","","","","","","","","","","","","","","","","","",""
"","","","","","canvas-keyboard-response","176","198782","0.0-12.0-4.32","2d_cat_multi_stim_exp1","2022-4-14","14:49:17","25","75","3","9","10","40","30","120","38","21","[""White""]","No","Female","1964608","null","null","","","","clear_screen","","","","","","","","","","","","","","","","","","","","","","","","","",""
"","","","","","canvas-keyboard-response","177","199291","0.0-12.0-0.33","2d_cat_multi_stim_exp1","2022-4-14","14:49:17","25","75","3","9","10","40","30","120","38","21","[""White""]","No","Female","1964608","null","null","","","","fixation","","","","","","","","","","","","","","","","","","","","","","","","","",""
"","","","","","canvas-keyboard-response","178","199800","0.0-12.0-1.33","2d_cat_multi_stim_exp1","2022-4-14","14:49:17","25","75","3","9","10","40","30","120","38","21","[""White""]","No","Female","1964608","null","null","","","","clear_screen","","","","","","","","","","","","","","","","","","","","","","","","","",""
"","","","","","canvas-keyboard-response","179","200589","0.0-12.0-2.33","2d_cat_multi_stim_exp1","2022-4-14","14:49:17","25","75","3","9","10","40","30","120","38","21","[""White""]","No","Female","1964608","780","u","learn","","","learn_trial","27.2592","80.9214","in","1","1","","","","","","","","","","","","","","","","","","","","",""
"","","","","","canvas-keyboard-response","180","201101","0.0-12.0-3.33","2d_cat_multi_stim_exp1","2022-4-14","14:49:17","25","75","3","9","10","40","30","120","38","21","[""White""]","No","Female","1964608","null","null","learn_feedback","","","learn_feedback","27.2592","80.9214","in","","","","","","","","","","","","","","","","","","","","","","",""
"","","","","","canvas-keyboard-response","181","201159","0.0-12.0-4.33","2d_cat_multi_stim_exp1","2022-4-14","14:49:17","25","75","3","9","10","40","30","120","38","21","[""White""]","No","Female","1964608","null","null","","","","clear_screen","","","","","","","","","","","","","","","","","","","","","","","","","",""
"","","","","","canvas-keyboard-response","182","201668","0.0-12.0-0.34","2d_cat_multi_stim_exp1","2022-4-14","14:49:17","25","75","3","9","10","40","30","120","38","21","[""White""]","No","Female","1964608","null","null","","","","fixation","","","","","","","","","","","","","","","","","","","","","","","","","",""
"","","","","","canvas-keyboard-response","183","202178","0.0-12.0-1.34","2d_cat_multi_stim_exp1","2022-4-14","14:49:17","25","75","3","9","10","40","30","120","38","21","[""White""]","No","Female","1964608","null","null","","","","clear_screen","","","","","","","","","","","","","","","","","","","","","","","","","",""
"","","","","","canvas-keyboard-response","184","203221","0.0-12.0-2.34","2d_cat_multi_stim_exp1","2022-4-14","14:49:17","25","75","3","9","10","40","30","120","38","21","[""White""]","No","Female","1964608","1034","u","learn","","","learn_trial","26.6667","90","out","1","0","","","","","","","","","","","","","","","","","","","","",""
"","","","","","canvas-keyboard-response","185","204232","0.0-12.0-3.34","2d_cat_multi_stim_exp1","2022-4-14","14:49:17","25","75","3","9","10","40","30","120","38","21","[""White""]","No","Female","1964608","null","null","learn_feedback","","","learn_feedback","26.6667","90","out","","","","","","","","","","","","","","","","","","","","","","",""
"","","","","","canvas-keyboard-response","186","204291","0.0-12.0-4.34","2d_cat_multi_stim_exp1","2022-4-14","14:49:17","25","75","3","9","10","40","30","120","38","21","[""White""]","No","Female","1964608","null","null","","","","clear_screen","","","","","","","","","","","","","","","","","","","","","","","","","",""
"","","","","","canvas-keyboard-response","187","204802","0.0-12.0-0.35","2d_cat_multi_stim_exp1","2022-4-14","14:49:17","25","75","3","9","10","40","30","120","38","21","[""White""]","No","Female","1964608","null","null","","","","fixation","","","","","","","","","","","","","","","","","","","","","","","","","",""
"","","","","","canvas-keyboard-response","188","205312","0.0-12.0-1.35","2d_cat_multi_stim_exp1","2022-4-14","14:49:17","25","75","3","9","10","40","30","120","38","21","[""White""]","No","Female","1964608","null","null","","","","clear_screen","","","","","","","","","","","","","","","","","","","","","","","","","",""
"","","","","","canvas-keyboard-response","189","208429","0.0-12.0-2.35","2d_cat_multi_stim_exp1","2022-4-14","14:49:17","25","75","3","9","10","40","30","120","38","21","[""White""]","No","Female","1964608","3108","u","learn","","","learn_trial","22.5729","80.2901","in","1","1","","","","","","","","","","","","","","","","","","","","",""
"","","","","","canvas-keyboard-response","190","208940","0.0-12.0-3.35","2d_cat_multi_stim_exp1","2022-4-14","14:49:17","25","75","3","9","10","40","30","120","38","21","[""White""]","No","Female","1964608","null","null","learn_feedback","","","learn_feedback","22.5729","80.2901","in","","","","","","","","","","","","","","","","","","","","","","",""
"","","","","","canvas-keyboard-response","191","208999","0.0-12.0-4.35","2d_cat_multi_stim_exp1","2022-4-14","14:49:17","25","75","3","9","10","40","30","120","38","21","[""White""]","No","Female","1964608","null","null","","","","clear_screen","","","","","","","","","","","","","","","","","","","","","","","","","",""
"","","","","","canvas-keyboard-response","192","209507","0.0-12.0-0.36","2d_cat_multi_stim_exp1","2022-4-14","14:49:17","25","75","3","9","10","40","30","120","38","21","[""White""]","No","Female","1964608","null","null","","","","fixation","","","","","","","","","","","","","","","","","","","","","","","","","",""
"","","","","","canvas-keyboard-response","193","210017","0.0-12.0-1.36","2d_cat_multi_stim_exp1","2022-4-14","14:49:17","25","75","3","9","10","40","30","120","38","21","[""White""]","No","Female","1964608","null","null","","","","clear_screen","","","","","","","","","","","","","","","","","","","","","","","","","",""
"","","","","","canvas-keyboard-response","194","212054","0.0-12.0-2.36","2d_cat_multi_stim_exp1","2022-4-14","14:49:17","25","75","3","9","10","40","30","120","38","21","[""White""]","No","Female","1964608","2027","i","learn","","","learn_trial","25","75","in","0","0","","","","","","","","","","","","","","","","","","","","",""
"","","","","","canvas-keyboard-response","195","213063","0.0-12.0-3.36","2d_cat_multi_stim_exp1","2022-4-14","14:49:17","25","75","3","9","10","40","30","120","38","21","[""White""]","No","Female","1964608","null","null","learn_feedback","","","learn_feedback","25","75","in","","","","","","","","","","","","","","","","","","","","","","",""
"","","","","","canvas-keyboard-response","196","213122","0.0-12.0-4.36","2d_cat_multi_stim_exp1","2022-4-14","14:49:17","25","75","3","9","10","40","30","120","38","21","[""White""]","No","Female","1964608","null","null","","","","clear_screen","","","","","","","","","","","","","","","","","","","","","","","","","",""
"","","","","","canvas-keyboard-response","197","213631","0.0-12.0-0.37","2d_cat_multi_stim_exp1","2022-4-14","14:49:17","25","75","3","9","10","40","30","120","38","21","[""White""]","No","Female","1964608","null","null","","","","fixation","","","","","","","","","","","","","","","","","","","","","","","","","",""
"","","","","","canvas-keyboard-response","198","214140","0.0-12.0-1.37","2d_cat_multi_stim_exp1","2022-4-14","14:49:17","25","75","3","9","10","40","30","120","38","21","[""White""]","No","Female","1964608","null","null","","","","clear_screen","","","","","","","","","","","","","","","","","","","","","","","","","",""
"","","","","","canvas-keyboard-response","199","215349","0.0-12.0-2.37","2d_cat_multi_stim_exp1","2022-4-14","14:49:17","25","75","3","9","10","40","30","120","38","21","[""White""]","No","Female","1964608","1199","i","learn","","","learn_trial","30","110","out","0","1","","","","","","","","","","","","","","","","","","","","",""
"","","","","","canvas-keyboard-response","200","215861","0.0-12.0-3.37","2d_cat_multi_stim_exp1","2022-4-14","14:49:17","25","75","3","9","10","40","30","120","38","21","[""White""]","No","Female","1964608","null","null","learn_feedback","","","learn_feedback","30","110","out","","","","","","","","","","","","","","","","","","","","","","",""
"","","","","","canvas-keyboard-response","201","215920","0.0-12.0-4.37","2d_cat_multi_stim_exp1","2022-4-14","14:49:17","25","75","3","9","10","40","30","120","38","21","[""White""]","No","Female","1964608","null","null","","","","clear_screen","","","","","","","","","","","","","","","","","","","","","","","","","",""
"","","","","","canvas-keyboard-response","202","216428","0.0-12.0-0.38","2d_cat_multi_stim_exp1","2022-4-14","14:49:17","25","75","3","9","10","40","30","120","38","21","[""White""]","No","Female","1964608","null","null","","","","fixation","","","","","","","","","","","","","","","","","","","","","","","","","",""
"","","","","","canvas-keyboard-response","203","216940","0.0-12.0-1.38","2d_cat_multi_stim_exp1","2022-4-14","14:49:17","25","75","3","9","10","40","30","120","38","21","[""White""]","No","Female","1964608","null","null","","","","clear_screen","","","","","","","","","","","","","","","","","","","","","","","","","",""
"","","","","","canvas-keyboard-response","204","218669","0.0-12.0-2.38","2d_cat_multi_stim_exp1","2022-4-14","14:49:17","25","75","3","9","10","40","30","120","38","21","[""White""]","No","Female","1964608","1719","i","learn","","","learn_trial","10","80","out","0","1","","","","","","","","","","","","","","","","","","","","",""
"","","","","","canvas-keyboard-response","205","219179","0.0-12.0-3.38","2d_cat_multi_stim_exp1","2022-4-14","14:49:17","25","75","3","9","10","40","30","120","38","21","[""White""]","No","Female","1964608","null","null","learn_feedback","","","learn_feedback","10","80","out","","","","","","","","","","","","","","","","","","","","","","",""
"","","","","","canvas-keyboard-response","206","219239","0.0-12.0-4.38","2d_cat_multi_stim_exp1","2022-4-14","14:49:17","25","75","3","9","10","40","30","120","38","21","[""White""]","No","Female","1964608","null","null","","","","clear_screen","","","","","","","","","","","","","","","","","","","","","","","","","",""
"","","","","","canvas-keyboard-response","207","219747","0.0-12.0-0.39","2d_cat_multi_stim_exp1","2022-4-14","14:49:17","25","75","3","9","10","40","30","120","38","21","[""White""]","No","Female","1964608","null","null","","","","fixation","","","","","","","","","","","","","","","","","","","","","","","","","",""
"","","","","","canvas-keyboard-response","208","220258","0.0-12.0-1.39","2d_cat_multi_stim_exp1","2022-4-14","14:49:17","25","75","3","9","10","40","30","120","38","21","[""White""]","No","Female","1964608","null","null","","","","clear_screen","","","","","","","","","","","","","","","","","","","","","","","","","",""
"","","","","","canvas-keyboard-response","209","221774","0.0-12.0-2.39","2d_cat_multi_stim_exp1","2022-4-14","14:49:17","25","75","3","9","10","40","30","120","38","21","[""White""]","No","Female","1964608","1506","u","learn","","","learn_trial","26.6667","110","out","1","0","","","","","","","","","","","","","","","","","","","","",""
"","","","","","canvas-keyboard-response","210","222783","0.0-12.0-3.39","2d_cat_multi_stim_exp1","2022-4-14","14:49:17","25","75","3","9","10","40","30","120","38","21","[""White""]","No","Female","1964608","null","null","learn_feedback","","","learn_feedback","26.6667","110","out","","","","","","","","","","","","","","","","","","","","","","",""
"","","","","","canvas-keyboard-response","211","222842","0.0-12.0-4.39","2d_cat_multi_stim_exp1","2022-4-14","14:49:17","25","75","3","9","10","40","30","120","38","21","[""White""]","No","Female","1964608","null","null","","","","clear_screen","","","","","","","","","","","","","","","","","","","","","","","","","",""
"","","","","","canvas-keyboard-response","212","223351","0.0-12.0-0.40","2d_cat_multi_stim_exp1","2022-4-14","14:49:17","25","75","3","9","10","40","30","120","38","21","[""White""]","No","Female","1964608","null","null","","","","fixation","","","","","","","","","","","","","","","","","","","","","","","","","",""
"","","","","","canvas-keyboard-response","213","223860","0.0-12.0-1.40","2d_cat_multi_stim_exp1","2022-4-14","14:49:17","25","75","3","9","10","40","30","120","38","21","[""White""]","No","Female","1964608","null","null","","","","clear_screen","","","","","","","","","","","","","","","","","","","","","","","","","",""
"","","","","","canvas-keyboard-response","214","224750","0.0-12.0-2.40","2d_cat_multi_stim_exp1","2022-4-14","14:49:17","25","75","3","9","10","40","30","120","38","21","[""White""]","No","Female","1964608","879","i","learn","","","learn_trial","23.3333","40","out","0","1","","","","","","","","","","","","","","","","","","","","",""
"","","","","","canvas-keyboard-response","215","225260","0.0-12.0-3.40","2d_cat_multi_stim_exp1","2022-4-14","14:49:17","25","75","3","9","10","40","30","120","38","21","[""White""]","No","Female","1964608","null","null","learn_feedback","","","learn_feedback","23.3333","40","out","","","","","","","","","","","","","","","","","","","","","","",""
"","","","","","canvas-keyboard-response","216","225318","0.0-12.0-4.40","2d_cat_multi_stim_exp1","2022-4-14","14:49:17","25","75","3","9","10","40","30","120","38","21","[""White""]","No","Female","1964608","null","null","","","","clear_screen","","","","","","","","","","","","","","","","","","","","","","","","","",""
"","","","","","canvas-keyboard-response","217","225828","0.0-12.0-0.41","2d_cat_multi_stim_exp1","2022-4-14","14:49:17","25","75","3","9","10","40","30","120","38","21","[""White""]","No","Female","1964608","null","null","","","","fixation","","","","","","","","","","","","","","","","","","","","","","","","","",""
"","","","","","canvas-keyboard-response","218","226338","0.0-12.0-1.41","2d_cat_multi_stim_exp1","2022-4-14","14:49:17","25","75","3","9","10","40","30","120","38","21","[""White""]","No","Female","1964608","null","null","","","","clear_screen","","","","","","","","","","","","","","","","","","","","","","","","","",""
"","","","","","canvas-keyboard-response","219","227205","0.0-12.0-2.41","2d_cat_multi_stim_exp1","2022-4-14","14:49:17","25","75","3","9","10","40","30","120","38","21","[""White""]","No","Female","1964608","854","u","learn","","","learn_trial","25","75","in","1","1","","","","","","","","","","","","","","","","","","","","",""
"","","","","","canvas-keyboard-response","220","227716","0.0-12.0-3.41","2d_cat_multi_stim_exp1","2022-4-14","14:49:17","25","75","3","9","10","40","30","120","38","21","[""White""]","No","Female","1964608","null","null","learn_feedback","","","learn_feedback","25","75","in","","","","","","","","","","","","","","","","","","","","","","",""
"","","","","","canvas-keyboard-response","221","227778","0.0-12.0-4.41","2d_cat_multi_stim_exp1","2022-4-14","14:49:17","25","75","3","9","10","40","30","120","38","21","[""White""]","No","Female","1964608","null","null","","","","clear_screen","","","","","","","","","","","","","","","","","","","","","","","","","",""
"","","","","","canvas-keyboard-response","222","228289","0.0-12.0-0.42","2d_cat_multi_stim_exp1","2022-4-14","14:49:17","25","75","3","9","10","40","30","120","38","21","[""White""]","No","Female","1964608","null","null","","","","fixation","","","","","","","","","","","","","","","","","","","","","","","","","",""
"","","","","","canvas-keyboard-response","223","228800","0.0-12.0-1.42","2d_cat_multi_stim_exp1","2022-4-14","14:49:17","25","75","3","9","10","40","30","120","38","21","[""White""]","No","Female","1964608","null","null","","","","clear_screen","","","","","","","","","","","","","","","","","","","","","","","","","",""
"","","","","","canvas-keyboard-response","224","229765","0.0-12.0-2.42","2d_cat_multi_stim_exp1","2022-4-14","14:49:17","25","75","3","9","10","40","30","120","38","21","[""White""]","No","Female","1964608","955","i","learn","","","learn_trial","36.6667","40","out","0","1","","","","","","","","","","","","","","","","","","","","",""
"","","","","","canvas-keyboard-response","225","230277","0.0-12.0-3.42","2d_cat_multi_stim_exp1","2022-4-14","14:49:17","25","75","3","9","10","40","30","120","38","21","[""White""]","No","Female","1964608","null","null","learn_feedback","","","learn_feedback","36.6667","40","out","","","","","","","","","","","","","","","","","","","","","","",""
"","","","","","canvas-keyboard-response","226","230335","0.0-12.0-4.42","2d_cat_multi_stim_exp1","2022-4-14","14:49:17","25","75","3","9","10","40","30","120","38","21","[""White""]","No","Female","1964608","null","null","","","","clear_screen","","","","","","","","","","","","","","","","","","","","","","","","","",""
"","","","","","canvas-keyboard-response","227","230849","0.0-12.0-0.43","2d_cat_multi_stim_exp1","2022-4-14","14:49:17","25","75","3","9","10","40","30","120","38","21","[""White""]","No","Female","1964608","null","null","","","","fixation","","","","","","","","","","","","","","","","","","","","","","","","","",""
"","","","","","canvas-keyboard-response","228","231360","0.0-12.0-1.43","2d_cat_multi_stim_exp1","2022-4-14","14:49:17","25","75","3","9","10","40","30","120","38","21","[""White""]","No","Female","1964608","null","null","","","","clear_screen","","","","","","","","","","","","","","","","","","","","","","","","","",""
"","","","","","canvas-keyboard-response","229","232982","0.0-12.0-2.43","2d_cat_multi_stim_exp1","2022-4-14","14:49:17","25","75","3","9","10","40","30","120","38","21","[""White""]","No","Female","1964608","1613","i","learn","","","learn_trial","16.6667","80","out","0","1","","","","","","","","","","","","","","","","","","","","",""
"","","","","","canvas-keyboard-response","230","233492","0.0-12.0-3.43","2d_cat_multi_stim_exp1","2022-4-14","14:49:17","25","75","3","9","10","40","30","120","38","21","[""White""]","No","Female","1964608","null","null","learn_feedback","","","learn_feedback","16.6667","80","out","","","","","","","","","","","","","","","","","","","","","","",""
"","","","","","canvas-keyboard-response","231","233553","0.0-12.0-4.43","2d_cat_multi_stim_exp1","2022-4-14","14:49:17","25","75","3","9","10","40","30","120","38","21","[""White""]","No","Female","1964608","null","null","","","","clear_screen","","","","","","","","","","","","","","","","","","","","","","","","","",""
"","","","","","canvas-keyboard-response","232","234063","0.0-12.0-0.44","2d_cat_multi_stim_exp1","2022-4-14","14:49:17","25","75","3","9","10","40","30","120","38","21","[""White""]","No","Female","1964608","null","null","","","","fixation","","","","","","","","","","","","","","","","","","","","","","","","","",""
"","","","","","canvas-keyboard-response","233","234572","0.0-12.0-1.44","2d_cat_multi_stim_exp1","2022-4-14","14:49:17","25","75","3","9","10","40","30","120","38","21","[""White""]","No","Female","1964608","null","null","","","","clear_screen","","","","","","","","","","","","","","","","","","","","","","","","","",""
"","","","","","canvas-keyboard-response","234","237022","0.0-12.0-2.44","2d_cat_multi_stim_exp1","2022-4-14","14:49:17","25","75","3","9","10","40","30","120","38","21","[""White""]","No","Female","1964608","2438","i","learn","","","learn_trial","26.6667","50","out","0","1","","","","","","","","","","","","","","","","","","","","",""
"","","","","","canvas-keyboard-response","235","237532","0.0-12.0-3.44","2d_cat_multi_stim_exp1","2022-4-14","14:49:17","25","75","3","9","10","40","30","120","38","21","[""White""]","No","Female","1964608","null","null","learn_feedback","","","learn_feedback","26.6667","50","out","","","","","","","","","","","","","","","","","","","","","","",""
"","","","","","canvas-keyboard-response","236","237591","0.0-12.0-4.44","2d_cat_multi_stim_exp1","2022-4-14","14:49:17","25","75","3","9","10","40","30","120","38","21","[""White""]","No","Female","1964608","null","null","","","","clear_screen","","","","","","","","","","","","","","","","","","","","","","","","","",""
"","","","","","canvas-keyboard-response","237","238100","0.0-12.0-0.45","2d_cat_multi_stim_exp1","2022-4-14","14:49:17","25","75","3","9","10","40","30","120","38","21","[""White""]","No","Female","1964608","null","null","","","","fixation","","","","","","","","","","","","","","","","","","","","","","","","","",""
"","","","","","canvas-keyboard-response","238","238609","0.0-12.0-1.45","2d_cat_multi_stim_exp1","2022-4-14","14:49:17","25","75","3","9","10","40","30","120","38","21","[""White""]","No","Female","1964608","null","null","","","","clear_screen","","","","","","","","","","","","","","","","","","","","","","","","","",""
"","","","","","canvas-keyboard-response","239","239917","0.0-12.0-2.45","2d_cat_multi_stim_exp1","2022-4-14","14:49:17","25","75","3","9","10","40","30","120","38","21","[""White""]","No","Female","1964608","1298","i","learn","","","learn_trial","33.3333","30","out","0","1","","","","","","","","","","","","","","","","","","","","",""
"","","","","","canvas-keyboard-response","240","240428","0.0-12.0-3.45","2d_cat_multi_stim_exp1","2022-4-14","14:49:17","25","75","3","9","10","40","30","120","38","21","[""White""]","No","Female","1964608","null","null","learn_feedback","","","learn_feedback","33.3333","30","out","","","","","","","","","","","","","","","","","","","","","","",""
"","","","","","canvas-keyboard-response","241","240487","0.0-12.0-4.45","2d_cat_multi_stim_exp1","2022-4-14","14:49:17","25","75","3","9","10","40","30","120","38","21","[""White""]","No","Female","1964608","null","null","","","","clear_screen","","","","","","","","","","","","","","","","","","","","","","","","","",""
"","","","","","canvas-keyboard-response","242","240995","0.0-12.0-0.46","2d_cat_multi_stim_exp1","2022-4-14","14:49:17","25","75","3","9","10","40","30","120","38","21","[""White""]","No","Female","1964608","null","null","","","","fixation","","","","","","","","","","","","","","","","","","","","","","","","","",""
"","","","","","canvas-keyboard-response","243","241505","0.0-12.0-1.46","2d_cat_multi_stim_exp1","2022-4-14","14:49:17","25","75","3","9","10","40","30","120","38","21","[""White""]","No","Female","1964608","null","null","","","","clear_screen","","","","","","","","","","","","","","","","","","","","","","","","","",""
"","","","","","canvas-keyboard-response","244","242597","0.0-12.0-2.46","2d_cat_multi_stim_exp1","2022-4-14","14:49:17","25","75","3","9","10","40","30","120","38","21","[""White""]","No","Female","1964608","1082","u","learn","","","learn_trial","24.3324","66.2256","in","1","1","","","","","","","","","","","","","","","","","","","","",""
"","","","","","canvas-keyboard-response","245","243107","0.0-12.0-3.46","2d_cat_multi_stim_exp1","2022-4-14","14:49:17","25","75","3","9","10","40","30","120","38","21","[""White""]","No","Female","1964608","null","null","learn_feedback","","","learn_feedback","24.3324","66.2256","in","","","","","","","","","","","","","","","","","","","","","","",""
"","","","","","canvas-keyboard-response","246","243167","0.0-12.0-4.46","2d_cat_multi_stim_exp1","2022-4-14","14:49:17","25","75","3","9","10","40","30","120","38","21","[""White""]","No","Female","1964608","null","null","","","","clear_screen","","","","","","","","","","","","","","","","","","","","","","","","","",""
"","","","","","canvas-keyboard-response","247","243676","0.0-12.0-0.47","2d_cat_multi_stim_exp1","2022-4-14","14:49:17","25","75","3","9","10","40","30","120","38","21","[""White""]","No","Female","1964608","null","null","","","","fixation","","","","","","","","","","","","","","","","","","","","","","","","","",""
"","","","","","canvas-keyboard-response","248","244186","0.0-12.0-1.47","2d_cat_multi_stim_exp1","2022-4-14","14:49:17","25","75","3","9","10","40","30","120","38","21","[""White""]","No","Female","1964608","null","null","","","","clear_screen","","","","","","","","","","","","","","","","","","","","","","","","","",""
"","","","","","canvas-keyboard-response","249","246062","0.0-12.0-2.47","2d_cat_multi_stim_exp1","2022-4-14","14:49:17","25","75","3","9","10","40","30","120","38","21","[""White""]","No","Female","1964608","1865","u","learn","","","learn_trial","36.6667","80","out","1","0","","","","","","","","","","","","","","","","","","","","",""
"","","","","","canvas-keyboard-response","250","247071","0.0-12.0-3.47","2d_cat_multi_stim_exp1","2022-4-14","14:49:17","25","75","3","9","10","40","30","120","38","21","[""White""]","No","Female","1964608","null","null","learn_feedback","","","learn_feedback","36.6667","80","out","","","","","","","","","","","","","","","","","","","","","","",""
"","","","","","canvas-keyboard-response","251","247130","0.0-12.0-4.47","2d_cat_multi_stim_exp1","2022-4-14","14:49:17","25","75","3","9","10","40","30","120","38","21","[""White""]","No","Female","1964608","null","null","","","","clear_screen","","","","","","","","","","","","","","","","","","","","","","","","","",""
"","","","","","canvas-keyboard-response","252","247639","0.0-12.0-0.48","2d_cat_multi_stim_exp1","2022-4-14","14:49:17","25","75","3","9","10","40","30","120","38","21","[""White""]","No","Female","1964608","null","null","","","","fixation","","","","","","","","","","","","","","","","","","","","","","","","","",""
"","","","","","canvas-keyboard-response","253","248148","0.0-12.0-1.48","2d_cat_multi_stim_exp1","2022-4-14","14:49:17","25","75","3","9","10","40","30","120","38","21","[""White""]","No","Female","1964608","null","null","","","","clear_screen","","","","","","","","","","","","","","","","","","","","","","","","","",""
"","","","","","canvas-keyboard-response","254","249133","0.0-12.0-2.48","2d_cat_multi_stim_exp1","2022-4-14","14:49:17","25","75","3","9","10","40","30","120","38","21","[""White""]","No","Female","1964608","975","u","learn","","","learn_trial","27.9518","76.607","in","1","1","","","","","","","","","","","","","","","","","","","","",""
"","","","","","canvas-keyboard-response","255","249643","0.0-12.0-3.48","2d_cat_multi_stim_exp1","2022-4-14","14:49:17","25","75","3","9","10","40","30","120","38","21","[""White""]","No","Female","1964608","null","null","learn_feedback","","","learn_feedback","27.9518","76.607","in","","","","","","","","","","","","","","","","","","","","","","",""
"","","","","","canvas-keyboard-response","256","249703","0.0-12.0-4.48","2d_cat_multi_stim_exp1","2022-4-14","14:49:17","25","75","3","9","10","40","30","120","38","21","[""White""]","No","Female","1964608","null","null","","","","clear_screen","","","","","","","","","","","","","","","","","","","","","","","","","",""
"","","","","","canvas-keyboard-response","257","250212","0.0-12.0-0.49","2d_cat_multi_stim_exp1","2022-4-14","14:49:17","25","75","3","9","10","40","30","120","38","21","[""White""]","No","Female","1964608","null","null","","","","fixation","","","","","","","","","","","","","","","","","","","","","","","","","",""
"","","","","","canvas-keyboard-response","258","250722","0.0-12.0-1.49","2d_cat_multi_stim_exp1","2022-4-14","14:49:17","25","75","3","9","10","40","30","120","38","21","[""White""]","No","Female","1964608","null","null","","","","clear_screen","","","","","","","","","","","","","","","","","","","","","","","","","",""
"","","","","","canvas-keyboard-response","259","251358","0.0-12.0-2.49","2d_cat_multi_stim_exp1","2022-4-14","14:49:17","25","75","3","9","10","40","30","120","38","21","[""White""]","No","Female","1964608","627","u","learn","","","learn_trial","25","75","in","1","1","","","","","","","","","","","","","","","","","","","","",""
"","","","","","canvas-keyboard-response","260","251868","0.0-12.0-3.49","2d_cat_multi_stim_exp1","2022-4-14","14:49:17","25","75","3","9","10","40","30","120","38","21","[""White""]","No","Female","1964608","null","null","learn_feedback","","","learn_feedback","25","75","in","","","","","","","","","","","","","","","","","","","","","","",""
"","","","","","canvas-keyboard-response","261","251926","0.0-12.0-4.49","2d_cat_multi_stim_exp1","2022-4-14","14:49:17","25","75","3","9","10","40","30","120","38","21","[""White""]","No","Female","1964608","null","null","","","","clear_screen","","","","","","","","","","","","","","","","","","","","","","","","","",""
"","","","","","canvas-keyboard-response","262","252435","0.0-12.0-0.50","2d_cat_multi_stim_exp1","2022-4-14","14:49:17","25","75","3","9","10","40","30","120","38","21","[""White""]","No","Female","1964608","null","null","","","","fixation","","","","","","","","","","","","","","","","","","","","","","","","","",""
"","","","","","canvas-keyboard-response","263","252944","0.0-12.0-1.50","2d_cat_multi_stim_exp1","2022-4-14","14:49:17","25","75","3","9","10","40","30","120","38","21","[""White""]","No","Female","1964608","null","null","","","","clear_screen","","","","","","","","","","","","","","","","","","","","","","","","","",""
"","","","","","canvas-keyboard-response","264","253829","0.0-12.0-2.50","2d_cat_multi_stim_exp1","2022-4-14","14:49:17","25","75","3","9","10","40","30","120","38","21","[""White""]","No","Female","1964608","875","u","learn","","","learn_trial","27.5753","70.3839","in","1","1","","","","","","","","","","","","","","","","","","","","",""
"","","","","","canvas-keyboard-response","265","254338","0.0-12.0-3.50","2d_cat_multi_stim_exp1","2022-4-14","14:49:17","25","75","3","9","10","40","30","120","38","21","[""White""]","No","Female","1964608","null","null","learn_feedback","","","learn_feedback","27.5753","70.3839","in","","","","","","","","","","","","","","","","","","","","","","",""
"","","","","","canvas-keyboard-response","266","254397","0.0-12.0-4.50","2d_cat_multi_stim_exp1","2022-4-14","14:49:17","25","75","3","9","10","40","30","120","38","21","[""White""]","No","Female","1964608","null","null","","","","clear_screen","","","","","","","","","","","","","","","","","","","","","","","","","",""
"","","","","","canvas-keyboard-response","267","254905","0.0-12.0-0.51","2d_cat_multi_stim_exp1","2022-4-14","14:49:17","25","75","3","9","10","40","30","120","38","21","[""White""]","No","Female","1964608","null","null","","","","fixation","","","","","","","","","","","","","","","","","","","","","","","","","",""
"","","","","","canvas-keyboard-response","268","255415","0.0-12.0-1.51","2d_cat_multi_stim_exp1","2022-4-14","14:49:17","25","75","3","9","10","40","30","120","38","21","[""White""]","No","Female","1964608","null","null","","","","clear_screen","","","","","","","","","","","","","","","","","","","","","","","","","",""
"","","","","","canvas-keyboard-response","269","257197","0.0-12.0-2.51","2d_cat_multi_stim_exp1","2022-4-14","14:49:17","25","75","3","9","10","40","30","120","38","21","[""White""]","No","Female","1964608","1772","i","learn","","","learn_trial","13.3333","50","out","0","1","","","","","","","","","","","","","","","","","","","","",""
"","","","","","canvas-keyboard-response","270","257707","0.0-12.0-3.51","2d_cat_multi_stim_exp1","2022-4-14","14:49:17","25","75","3","9","10","40","30","120","38","21","[""White""]","No","Female","1964608","null","null","learn_feedback","","","learn_feedback","13.3333","50","out","","","","","","","","","","","","","","","","","","","","","","",""
"","","","","","canvas-keyboard-response","271","257766","0.0-12.0-4.51","2d_cat_multi_stim_exp1","2022-4-14","14:49:17","25","75","3","9","10","40","30","120","38","21","[""White""]","No","Female","1964608","null","null","","","","clear_screen","","","","","","","","","","","","","","","","","","","","","","","","","",""
"","","","","","canvas-keyboard-response","272","258276","0.0-12.0-0.52","2d_cat_multi_stim_exp1","2022-4-14","14:49:17","25","75","3","9","10","40","30","120","38","21","[""White""]","No","Female","1964608","null","null","","","","fixation","","","","","","","","","","","","","","","","","","","","","","","","","",""
"","","","","","canvas-keyboard-response","273","258785","0.0-12.0-1.52","2d_cat_multi_stim_exp1","2022-4-14","14:49:17","25","75","3","9","10","40","30","120","38","21","[""White""]","No","Female","1964608","null","null","","","","clear_screen","","","","","","","","","","","","","","","","","","","","","","","","","",""
"","","","","","canvas-keyboard-response","274","259975","0.0-12.0-2.52","2d_cat_multi_stim_exp1","2022-4-14","14:49:17","25","75","3","9","10","40","30","120","38","21","[""White""]","No","Female","1964608","1179","u","learn","","","learn_trial","23.3473","82.5112","in","1","1","","","","","","","","","","","","","","","","","","","","",""
"","","","","","canvas-keyboard-response","275","260487","0.0-12.0-3.52","2d_cat_multi_stim_exp1","2022-4-14","14:49:17","25","75","3","9","10","40","30","120","38","21","[""White""]","No","Female","1964608","null","null","learn_feedback","","","learn_feedback","23.3473","82.5112","in","","","","","","","","","","","","","","","","","","","","","","",""
"","","","","","canvas-keyboard-response","276","260548","0.0-12.0-4.52","2d_cat_multi_stim_exp1","2022-4-14","14:49:17","25","75","3","9","10","40","30","120","38","21","[""White""]","No","Female","1964608","null","null","","","","clear_screen","","","","","","","","","","","","","","","","","","","","","","","","","",""
"","","","","","canvas-keyboard-response","277","261059","0.0-12.0-0.53","2d_cat_multi_stim_exp1","2022-4-14","14:49:17","25","75","3","9","10","40","30","120","38","21","[""White""]","No","Female","1964608","null","null","","","","fixation","","","","","","","","","","","","","","","","","","","","","","","","","",""
"","","","","","canvas-keyboard-response","278","261570","0.0-12.0-1.53","2d_cat_multi_stim_exp1","2022-4-14","14:49:17","25","75","3","9","10","40","30","120","38","21","[""White""]","No","Female","1964608","null","null","","","","clear_screen","","","","","","","","","","","","","","","","","","","","","","","","","",""
"","","","","","canvas-keyboard-response","279","262358","0.0-12.0-2.53","2d_cat_multi_stim_exp1","2022-4-14","14:49:17","25","75","3","9","10","40","30","120","38","21","[""White""]","No","Female","1964608","777","u","learn","","","learn_trial","25","75","in","1","1","","","","","","","","","","","","","","","","","","","","",""
"","","","","","canvas-keyboard-response","280","262867","0.0-12.0-3.53","2d_cat_multi_stim_exp1","2022-4-14","14:49:17","25","75","3","9","10","40","30","120","38","21","[""White""]","No","Female","1964608","null","null","learn_feedback","","","learn_feedback","25","75","in","","","","","","","","","","","","","","","","","","","","","","",""
"","","","","","canvas-keyboard-response","281","262927","0.0-12.0-4.53","2d_cat_multi_stim_exp1","2022-4-14","14:49:17","25","75","3","9","10","40","30","120","38","21","[""White""]","No","Female","1964608","null","null","","","","clear_screen","","","","","","","","","","","","","","","","","","","","","","","","","",""
"","","","","","canvas-keyboard-response","282","263436","0.0-12.0-0.54","2d_cat_multi_stim_exp1","2022-4-14","14:49:17","25","75","3","9","10","40","30","120","38","21","[""White""]","No","Female","1964608","null","null","","","","fixation","","","","","","","","","","","","","","","","","","","","","","","","","",""
"","","","","","canvas-keyboard-response","283","263946","0.0-12.0-1.54","2d_cat_multi_stim_exp1","2022-4-14","14:49:17","25","75","3","9","10","40","30","120","38","21","[""White""]","No","Female","1964608","null","null","","","","clear_screen","","","","","","","","","","","","","","","","","","","","","","","","","",""
"","","","","","canvas-keyboard-response","284","267709","0.0-12.0-2.54","2d_cat_multi_stim_exp1","2022-4-14","14:49:17","25","75","3","9","10","40","30","120","38","21","[""White""]","No","Female","1964608","3754","u","learn","","","learn_trial","26.6667","80","out","1","0","","","","","","","","","","","","","","","","","","","","",""
"","","","","","canvas-keyboard-response","285","268719","0.0-12.0-3.54","2d_cat_multi_stim_exp1","2022-4-14","14:49:17","25","75","3","9","10","40","30","120","38","21","[""White""]","No","Female","1964608","null","null","learn_feedback","","","learn_feedback","26.6667","80","out","","","","","","","","","","","","","","","","","","","","","","",""
"","","","","","canvas-keyboard-response","286","268780","0.0-12.0-4.54","2d_cat_multi_stim_exp1","2022-4-14","14:49:17","25","75","3","9","10","40","30","120","38","21","[""White""]","No","Female","1964608","null","null","","","","clear_screen","","","","","","","","","","","","","","","","","","","","","","","","","",""
"","","","","","canvas-keyboard-response","287","269289","0.0-12.0-0.55","2d_cat_multi_stim_exp1","2022-4-14","14:49:17","25","75","3","9","10","40","30","120","38","21","[""White""]","No","Female","1964608","null","null","","","","fixation","","","","","","","","","","","","","","","","","","","","","","","","","",""
"","","","","","canvas-keyboard-response","288","269799","0.0-12.0-1.55","2d_cat_multi_stim_exp1","2022-4-14","14:49:17","25","75","3","9","10","40","30","120","38","21","[""White""]","No","Female","1964608","null","null","","","","clear_screen","","","","","","","","","","","","","","","","","","","","","","","","","",""
"","","","","","canvas-keyboard-response","289","270845","0.0-12.0-2.55","2d_cat_multi_stim_exp1","2022-4-14","14:49:17","25","75","3","9","10","40","30","120","38","21","[""White""]","No","Female","1964608","1037","u","learn","","","learn_trial","25","75","in","1","1","","","","","","","","","","","","","","","","","","","","",""
"","","","","","canvas-keyboard-response","290","271359","0.0-12.0-3.55","2d_cat_multi_stim_exp1","2022-4-14","14:49:17","25","75","3","9","10","40","30","120","38","21","[""White""]","No","Female","1964608","null","null","learn_feedback","","","learn_feedback","25","75","in","","","","","","","","","","","","","","","","","","","","","","",""
"","","","","","canvas-keyboard-response","291","271418","0.0-12.0-4.55","2d_cat_multi_stim_exp1","2022-4-14","14:49:17","25","75","3","9","10","40","30","120","38","21","[""White""]","No","Female","1964608","null","null","","","","clear_screen","","","","","","","","","","","","","","","","","","","","","","","","","",""
"","","","","","canvas-keyboard-response","292","271928","0.0-12.0-0.56","2d_cat_multi_stim_exp1","2022-4-14","14:49:17","25","75","3","9","10","40","30","120","38","21","[""White""]","No","Female","1964608","null","null","","","","fixation","","","","","","","","","","","","","","","","","","","","","","","","","",""
"","","","","","canvas-keyboard-response","293","272437","0.0-12.0-1.56","2d_cat_multi_stim_exp1","2022-4-14","14:49:17","25","75","3","9","10","40","30","120","38","21","[""White""]","No","Female","1964608","null","null","","","","clear_screen","","","","","","","","","","","","","","","","","","","","","","","","","",""
"","","","","","canvas-keyboard-response","294","275021","0.0-12.0-2.56","2d_cat_multi_stim_exp1","2022-4-14","14:49:17","25","75","3","9","10","40","30","120","38","21","[""White""]","No","Female","1964608","2575","u","learn","","","learn_trial","25","75","in","1","1","","","","","","","","","","","","","","","","","","","","",""
"","","","","","canvas-keyboard-response","295","275531","0.0-12.0-3.56","2d_cat_multi_stim_exp1","2022-4-14","14:49:17","25","75","3","9","10","40","30","120","38","21","[""White""]","No","Female","1964608","null","null","learn_feedback","","","learn_feedback","25","75","in","","","","","","","","","","","","","","","","","","","","","","",""
"","","","","","canvas-keyboard-response","296","275591","0.0-12.0-4.56","2d_cat_multi_stim_exp1","2022-4-14","14:49:17","25","75","3","9","10","40","30","120","38","21","[""White""]","No","Female","1964608","null","null","","","","clear_screen","","","","","","","","","","","","","","","","","","","","","","","","","",""
