"success","timeout","failed_images","failed_audio","failed_video","trial_type","trial_index","time_elapsed","internal_node_id","exp_name","date","time","angle_mean_in","radius_mean_in","angle_sd_in","radius_sd_in","angle_min_out","angle_max_out","radius_min_out","radius_max_out","sub_n","age","race","ethnicity","gender","exp_duration","rt","response","exp_trial_type","stimulus","view_history","screen_id","angle","radius","distribution","choice","correct","order","angle_a","radius_a","angle_b","radius_b","angle_c","radius_c","jkl_correct","transfer_trial_type","choice_set","abc_correct","tc_correct","tc_angle","tdc_a","tdc_b","tdc_c","pair","category_a","category_b","category_c","question_order"
"true","false","[]","[]","[]","preload","0","43","0.0-0.0","2d_cat_multi_stim_exp1","2022-5-4","12:59:6","25","75","3","9","10","40","30","120","90","21","[""White""]","No","Male","1999796","","","","","","","","","","","","","","","","","","","","","","","","","","","","","","","",""
"","","","","","survey-html-form","1","1973","0.0-1.0","2d_cat_multi_stim_exp1","2022-5-4","12:59:6","25","75","3","9","10","40","30","120","90","21","[""White""]","No","Male","1999796","1901","{""response"":""90""}","enter-sub-number","","","","","","","","","","","","","","","","","","","","","","","","","","","","",""
"true","","","","","fullscreen","2","3767","0.0-2.0","2d_cat_multi_stim_exp1","2022-5-4","12:59:6","25","75","3","9","10","40","30","120","90","21","[""White""]","No","Male","1999796","","","","","","","","","","","","","","","","","","","","","","","","","","","","","","","",""
"","","","","","image-button-response","3","137839","0.0-3.0","2d_cat_multi_stim_exp1","2022-5-4","12:59:6","25","75","3","9","10","40","30","120","90","21","[""White""]","No","Male","1999796","134065","0","","consent.png","","","","","","","","","","","","","","","","","","","","","","","","","","","",""
"","","","","","html-button-response","4","140479","0.0-4.0","2d_cat_multi_stim_exp1","2022-5-4","12:59:6","25","75","3","9","10","40","30","120","90","21","[""White""]","No","Male","1999796","2636","0","","<div style= ""font-size:25px;"" <p> <strong> Welcome to the experiment! </strong><br> <p style=""color:#8B0000; font-size:25px;""><strong> Please do NOT exit full screen until you are done with the experiment. </strong> </p><p style=""font-size:25px;color:#8B0000;""> <strong> The experiment will be canceled and your data will be lost <br> if you try to go back or refresh the page at any point during the experiment.</strong> </p><br><p> <strong> Thanks in advance for your contribution to our research! </strong></p>","","","","","","","","","","","","","","","","","","","","","","","","","","","",""
"","","","","","instructions","5","178086","0.0-5.0","2d_cat_multi_stim_exp1","2022-5-4","12:59:6","25","75","3","9","10","40","30","120","90","21","[""White""]","No","Male","1999796","37603","","","","[{""page_index"":0,""viewing_time"":4795},{""page_index"":1,""viewing_time"":3368},{""page_index"":2,""viewing_time"":9736},{""page_index"":3,""viewing_time"":19703}]","instructions_1","","","","","","","","","","","","","","","","","","","","","","","","","",""
"","","","","","instructions","6","180206","0.0-6.0","2d_cat_multi_stim_exp1","2022-5-4","12:59:6","25","75","3","9","10","40","30","120","90","21","[""White""]","No","Male","1999796","2117","","","","[{""page_index"":0,""viewing_time"":2117}]","Click to see the kinds of turtles that will appear in the study.","","","","","","","","","","","","","","","","","","","","","","","","","",""
"","","","","","canvas-keyboard-response","7","195225","0.0-7.0","2d_cat_multi_stim_exp1","2022-5-4","12:59:6","25","75","3","9","10","40","30","120","90","21","[""White""]","No","Male","1999796","null","null","","","","demo_range","","","","","","","","","","","","","","","","","","","","","","","","","",""
"","","","","","instructions","8","199989","0.0-8.0","2d_cat_multi_stim_exp1","2022-5-4","12:59:6","25","75","3","9","10","40","30","120","90","21","[""White""]","No","Male","1999796","4263","","","","[{""page_index"":0,""viewing_time"":4262}]","Click to see some turtles in the subspecies.","","","","","","","","","","","","","","","","","","","","","","","","","",""
"","","","","","canvas-keyboard-response","9","215012","0.0-9.0","2d_cat_multi_stim_exp1","2022-5-4","12:59:6","25","75","3","9","10","40","30","120","90","21","[""White""]","No","Male","1999796","null","null","","","","demo_in","","","","","","","","","","","","","","","","","","","","","","","","","",""
"","","","","","instructions","10","245310","0.0-10.0","2d_cat_multi_stim_exp1","2022-5-4","12:59:6","25","75","3","9","10","40","30","120","90","21","[""White""]","No","Male","1999796","29797","","","","[{""page_index"":0,""viewing_time"":5725},{""page_index"":1,""viewing_time"":18112},{""page_index"":2,""viewing_time"":5959}]","instructions_2","","","","","","","","","","","","","","","","","","","","","","","","","",""
"","","","","","instructions","11","246389","0.0-11.0","2d_cat_multi_stim_exp1","2022-5-4","12:59:6","25","75","3","9","10","40","30","120","90","21","[""White""]","No","Male","1999796","1077","","","","[{""page_index"":0,""viewing_time"":1077}]","Click to begin the first phase of the experiment.","","","","","","","","","","","","","","","","","","","","","","","","","",""
"","","","","","canvas-keyboard-response","12","246900","0.0-12.0-0.0","2d_cat_multi_stim_exp1","2022-5-4","12:59:6","25","75","3","9","10","40","30","120","90","21","[""White""]","No","Male","1999796","null","null","","","","fixation","","","","","","","","","","","","","","","","","","","","","","","","","",""
"","","","","","canvas-keyboard-response","13","247409","0.0-12.0-1.0","2d_cat_multi_stim_exp1","2022-5-4","12:59:6","25","75","3","9","10","40","30","120","90","21","[""White""]","No","Male","1999796","null","null","","","","clear_screen","","","","","","","","","","","","","","","","","","","","","","","","","",""
"","","","","","canvas-keyboard-response","14","249327","0.0-12.0-2.0","2d_cat_multi_stim_exp1","2022-5-4","12:59:6","25","75","3","9","10","40","30","120","90","21","[""White""]","No","Male","1999796","1907","u","learn","","","learn_trial","23.3333","60","out","1","0","","","","","","","","","","","","","","","","","","","","",""
"","","","","","canvas-keyboard-response","15","250342","0.0-12.0-3.0","2d_cat_multi_stim_exp1","2022-5-4","12:59:6","25","75","3","9","10","40","30","120","90","21","[""White""]","No","Male","1999796","null","null","learn_feedback","","","learn_feedback","23.3333","60","out","","","","","","","","","","","","","","","","","","","","","","",""
"","","","","","canvas-keyboard-response","16","250401","0.0-12.0-4.0","2d_cat_multi_stim_exp1","2022-5-4","12:59:6","25","75","3","9","10","40","30","120","90","21","[""White""]","No","Male","1999796","null","null","","","","clear_screen","","","","","","","","","","","","","","","","","","","","","","","","","",""
"","","","","","canvas-keyboard-response","17","250910","0.0-12.0-0.1","2d_cat_multi_stim_exp1","2022-5-4","12:59:6","25","75","3","9","10","40","30","120","90","21","[""White""]","No","Male","1999796","null","null","","","","fixation","","","","","","","","","","","","","","","","","","","","","","","","","",""
"","","","","","canvas-keyboard-response","18","251418","0.0-12.0-1.1","2d_cat_multi_stim_exp1","2022-5-4","12:59:6","25","75","3","9","10","40","30","120","90","21","[""White""]","No","Male","1999796","null","null","","","","clear_screen","","","","","","","","","","","","","","","","","","","","","","","","","",""
"","","","","","canvas-keyboard-response","19","252687","0.0-12.0-2.1","2d_cat_multi_stim_exp1","2022-5-4","12:59:6","25","75","3","9","10","40","30","120","90","21","[""White""]","No","Male","1999796","1259","i","learn","","","learn_trial","16.6667","30","out","0","1","","","","","","","","","","","","","","","","","","","","",""
"","","","","","canvas-keyboard-response","20","253197","0.0-12.0-3.1","2d_cat_multi_stim_exp1","2022-5-4","12:59:6","25","75","3","9","10","40","30","120","90","21","[""White""]","No","Male","1999796","null","null","learn_feedback","","","learn_feedback","16.6667","30","out","","","","","","","","","","","","","","","","","","","","","","",""
"","","","","","canvas-keyboard-response","21","253256","0.0-12.0-4.1","2d_cat_multi_stim_exp1","2022-5-4","12:59:6","25","75","3","9","10","40","30","120","90","21","[""White""]","No","Male","1999796","null","null","","","","clear_screen","","","","","","","","","","","","","","","","","","","","","","","","","",""
"","","","","","canvas-keyboard-response","22","253764","0.0-12.0-0.2","2d_cat_multi_stim_exp1","2022-5-4","12:59:6","25","75","3","9","10","40","30","120","90","21","[""White""]","No","Male","1999796","null","null","","","","fixation","","","","","","","","","","","","","","","","","","","","","","","","","",""
"","","","","","canvas-keyboard-response","23","254273","0.0-12.0-1.2","2d_cat_multi_stim_exp1","2022-5-4","12:59:6","25","75","3","9","10","40","30","120","90","21","[""White""]","No","Male","1999796","null","null","","","","clear_screen","","","","","","","","","","","","","","","","","","","","","","","","","",""
"","","","","","canvas-keyboard-response","24","255199","0.0-12.0-2.2","2d_cat_multi_stim_exp1","2022-5-4","12:59:6","25","75","3","9","10","40","30","120","90","21","[""White""]","No","Male","1999796","915","u","learn","","","learn_trial","26.8705","67.9635","in","1","1","","","","","","","","","","","","","","","","","","","","",""
"","","","","","canvas-keyboard-response","25","255709","0.0-12.0-3.2","2d_cat_multi_stim_exp1","2022-5-4","12:59:6","25","75","3","9","10","40","30","120","90","21","[""White""]","No","Male","1999796","null","null","learn_feedback","","","learn_feedback","26.8705","67.9635","in","","","","","","","","","","","","","","","","","","","","","","",""
"","","","","","canvas-keyboard-response","26","255767","0.0-12.0-4.2","2d_cat_multi_stim_exp1","2022-5-4","12:59:6","25","75","3","9","10","40","30","120","90","21","[""White""]","No","Male","1999796","null","null","","","","clear_screen","","","","","","","","","","","","","","","","","","","","","","","","","",""
"","","","","","canvas-keyboard-response","27","256276","0.0-12.0-0.3","2d_cat_multi_stim_exp1","2022-5-4","12:59:6","25","75","3","9","10","40","30","120","90","21","[""White""]","No","Male","1999796","null","null","","","","fixation","","","","","","","","","","","","","","","","","","","","","","","","","",""
"","","","","","canvas-keyboard-response","28","256785","0.0-12.0-1.3","2d_cat_multi_stim_exp1","2022-5-4","12:59:6","25","75","3","9","10","40","30","120","90","21","[""White""]","No","Male","1999796","null","null","","","","clear_screen","","","","","","","","","","","","","","","","","","","","","","","","","",""
"","","","","","canvas-keyboard-response","29","257662","0.0-12.0-2.3","2d_cat_multi_stim_exp1","2022-5-4","12:59:6","25","75","3","9","10","40","30","120","90","21","[""White""]","No","Male","1999796","865","u","learn","","","learn_trial","25.9271","66.4405","in","1","1","","","","","","","","","","","","","","","","","","","","",""
"","","","","","canvas-keyboard-response","30","258171","0.0-12.0-3.3","2d_cat_multi_stim_exp1","2022-5-4","12:59:6","25","75","3","9","10","40","30","120","90","21","[""White""]","No","Male","1999796","null","null","learn_feedback","","","learn_feedback","25.9271","66.4405","in","","","","","","","","","","","","","","","","","","","","","","",""
"","","","","","canvas-keyboard-response","31","258230","0.0-12.0-4.3","2d_cat_multi_stim_exp1","2022-5-4","12:59:6","25","75","3","9","10","40","30","120","90","21","[""White""]","No","Male","1999796","null","null","","","","clear_screen","","","","","","","","","","","","","","","","","","","","","","","","","",""
"","","","","","canvas-keyboard-response","32","258739","0.0-12.0-0.4","2d_cat_multi_stim_exp1","2022-5-4","12:59:6","25","75","3","9","10","40","30","120","90","21","[""White""]","No","Male","1999796","null","null","","","","fixation","","","","","","","","","","","","","","","","","","","","","","","","","",""
"","","","","","canvas-keyboard-response","33","259247","0.0-12.0-1.4","2d_cat_multi_stim_exp1","2022-5-4","12:59:6","25","75","3","9","10","40","30","120","90","21","[""White""]","No","Male","1999796","null","null","","","","clear_screen","","","","","","","","","","","","","","","","","","","","","","","","","",""
"","","","","","canvas-keyboard-response","34","261022","0.0-12.0-2.4","2d_cat_multi_stim_exp1","2022-5-4","12:59:6","25","75","3","9","10","40","30","120","90","21","[""White""]","No","Male","1999796","1766","i","learn","","","learn_trial","40","100","out","0","1","","","","","","","","","","","","","","","","","","","","",""
"","","","","","canvas-keyboard-response","35","261532","0.0-12.0-3.4","2d_cat_multi_stim_exp1","2022-5-4","12:59:6","25","75","3","9","10","40","30","120","90","21","[""White""]","No","Male","1999796","null","null","learn_feedback","","","learn_feedback","40","100","out","","","","","","","","","","","","","","","","","","","","","","",""
"","","","","","canvas-keyboard-response","36","261590","0.0-12.0-4.4","2d_cat_multi_stim_exp1","2022-5-4","12:59:6","25","75","3","9","10","40","30","120","90","21","[""White""]","No","Male","1999796","null","null","","","","clear_screen","","","","","","","","","","","","","","","","","","","","","","","","","",""
"","","","","","canvas-keyboard-response","37","262098","0.0-12.0-0.5","2d_cat_multi_stim_exp1","2022-5-4","12:59:6","25","75","3","9","10","40","30","120","90","21","[""White""]","No","Male","1999796","null","null","","","","fixation","","","","","","","","","","","","","","","","","","","","","","","","","",""
"","","","","","canvas-keyboard-response","38","262607","0.0-12.0-1.5","2d_cat_multi_stim_exp1","2022-5-4","12:59:6","25","75","3","9","10","40","30","120","90","21","[""White""]","No","Male","1999796","null","null","","","","clear_screen","","","","","","","","","","","","","","","","","","","","","","","","","",""
"","","","","","canvas-keyboard-response","39","263782","0.0-12.0-2.5","2d_cat_multi_stim_exp1","2022-5-4","12:59:6","25","75","3","9","10","40","30","120","90","21","[""White""]","No","Male","1999796","1165","i","learn","","","learn_trial","13.3333","70","out","0","1","","","","","","","","","","","","","","","","","","","","",""
"","","","","","canvas-keyboard-response","40","264291","0.0-12.0-3.5","2d_cat_multi_stim_exp1","2022-5-4","12:59:6","25","75","3","9","10","40","30","120","90","21","[""White""]","No","Male","1999796","null","null","learn_feedback","","","learn_feedback","13.3333","70","out","","","","","","","","","","","","","","","","","","","","","","",""
"","","","","","canvas-keyboard-response","41","264349","0.0-12.0-4.5","2d_cat_multi_stim_exp1","2022-5-4","12:59:6","25","75","3","9","10","40","30","120","90","21","[""White""]","No","Male","1999796","null","null","","","","clear_screen","","","","","","","","","","","","","","","","","","","","","","","","","",""
"","","","","","canvas-keyboard-response","42","264856","0.0-12.0-0.6","2d_cat_multi_stim_exp1","2022-5-4","12:59:6","25","75","3","9","10","40","30","120","90","21","[""White""]","No","Male","1999796","null","null","","","","fixation","","","","","","","","","","","","","","","","","","","","","","","","","",""
"","","","","","canvas-keyboard-response","43","265365","0.0-12.0-1.6","2d_cat_multi_stim_exp1","2022-5-4","12:59:6","25","75","3","9","10","40","30","120","90","21","[""White""]","No","Male","1999796","null","null","","","","clear_screen","","","","","","","","","","","","","","","","","","","","","","","","","",""
"","","","","","canvas-keyboard-response","44","266358","0.0-12.0-2.6","2d_cat_multi_stim_exp1","2022-5-4","12:59:6","25","75","3","9","10","40","30","120","90","21","[""White""]","No","Male","1999796","981","i","learn","","","learn_trial","20","60","out","0","1","","","","","","","","","","","","","","","","","","","","",""
"","","","","","canvas-keyboard-response","45","266867","0.0-12.0-3.6","2d_cat_multi_stim_exp1","2022-5-4","12:59:6","25","75","3","9","10","40","30","120","90","21","[""White""]","No","Male","1999796","null","null","learn_feedback","","","learn_feedback","20","60","out","","","","","","","","","","","","","","","","","","","","","","",""
"","","","","","canvas-keyboard-response","46","266925","0.0-12.0-4.6","2d_cat_multi_stim_exp1","2022-5-4","12:59:6","25","75","3","9","10","40","30","120","90","21","[""White""]","No","Male","1999796","null","null","","","","clear_screen","","","","","","","","","","","","","","","","","","","","","","","","","",""
"","","","","","canvas-keyboard-response","47","267433","0.0-12.0-0.7","2d_cat_multi_stim_exp1","2022-5-4","12:59:6","25","75","3","9","10","40","30","120","90","21","[""White""]","No","Male","1999796","null","null","","","","fixation","","","","","","","","","","","","","","","","","","","","","","","","","",""
"","","","","","canvas-keyboard-response","48","267942","0.0-12.0-1.7","2d_cat_multi_stim_exp1","2022-5-4","12:59:6","25","75","3","9","10","40","30","120","90","21","[""White""]","No","Male","1999796","null","null","","","","clear_screen","","","","","","","","","","","","","","","","","","","","","","","","","",""
"","","","","","canvas-keyboard-response","49","268710","0.0-12.0-2.7","2d_cat_multi_stim_exp1","2022-5-4","12:59:6","25","75","3","9","10","40","30","120","90","21","[""White""]","No","Male","1999796","760","i","learn","","","learn_trial","23.3333","120","out","0","1","","","","","","","","","","","","","","","","","","","","",""
"","","","","","canvas-keyboard-response","50","269217","0.0-12.0-3.7","2d_cat_multi_stim_exp1","2022-5-4","12:59:6","25","75","3","9","10","40","30","120","90","21","[""White""]","No","Male","1999796","null","null","learn_feedback","","","learn_feedback","23.3333","120","out","","","","","","","","","","","","","","","","","","","","","","",""
"","","","","","canvas-keyboard-response","51","269275","0.0-12.0-4.7","2d_cat_multi_stim_exp1","2022-5-4","12:59:6","25","75","3","9","10","40","30","120","90","21","[""White""]","No","Male","1999796","null","null","","","","clear_screen","","","","","","","","","","","","","","","","","","","","","","","","","",""
"","","","","","canvas-keyboard-response","52","269784","0.0-12.0-0.8","2d_cat_multi_stim_exp1","2022-5-4","12:59:6","25","75","3","9","10","40","30","120","90","21","[""White""]","No","Male","1999796","null","null","","","","fixation","","","","","","","","","","","","","","","","","","","","","","","","","",""
"","","","","","canvas-keyboard-response","53","270292","0.0-12.0-1.8","2d_cat_multi_stim_exp1","2022-5-4","12:59:6","25","75","3","9","10","40","30","120","90","21","[""White""]","No","Male","1999796","null","null","","","","clear_screen","","","","","","","","","","","","","","","","","","","","","","","","","",""
"","","","","","canvas-keyboard-response","54","273126","0.0-12.0-2.8","2d_cat_multi_stim_exp1","2022-5-4","12:59:6","25","75","3","9","10","40","30","120","90","21","[""White""]","No","Male","1999796","2825","i","learn","","","learn_trial","20","100","out","0","1","","","","","","","","","","","","","","","","","","","","",""
"","","","","","canvas-keyboard-response","55","273635","0.0-12.0-3.8","2d_cat_multi_stim_exp1","2022-5-4","12:59:6","25","75","3","9","10","40","30","120","90","21","[""White""]","No","Male","1999796","null","null","learn_feedback","","","learn_feedback","20","100","out","","","","","","","","","","","","","","","","","","","","","","",""
"","","","","","canvas-keyboard-response","56","273692","0.0-12.0-4.8","2d_cat_multi_stim_exp1","2022-5-4","12:59:6","25","75","3","9","10","40","30","120","90","21","[""White""]","No","Male","1999796","null","null","","","","clear_screen","","","","","","","","","","","","","","","","","","","","","","","","","",""
"","","","","","canvas-keyboard-response","57","274201","0.0-12.0-0.9","2d_cat_multi_stim_exp1","2022-5-4","12:59:6","25","75","3","9","10","40","30","120","90","21","[""White""]","No","Male","1999796","null","null","","","","fixation","","","","","","","","","","","","","","","","","","","","","","","","","",""
"","","","","","canvas-keyboard-response","58","274710","0.0-12.0-1.9","2d_cat_multi_stim_exp1","2022-5-4","12:59:6","25","75","3","9","10","40","30","120","90","21","[""White""]","No","Male","1999796","null","null","","","","clear_screen","","","","","","","","","","","","","","","","","","","","","","","","","",""
"","","","","","canvas-keyboard-response","59","276487","0.0-12.0-2.9","2d_cat_multi_stim_exp1","2022-5-4","12:59:6","25","75","3","9","10","40","30","120","90","21","[""White""]","No","Male","1999796","1765","i","learn","","","learn_trial","25","75","in","0","0","","","","","","","","","","","","","","","","","","","","",""
"","","","","","canvas-keyboard-response","60","277495","0.0-12.0-3.9","2d_cat_multi_stim_exp1","2022-5-4","12:59:6","25","75","3","9","10","40","30","120","90","21","[""White""]","No","Male","1999796","null","null","learn_feedback","","","learn_feedback","25","75","in","","","","","","","","","","","","","","","","","","","","","","",""
"","","","","","canvas-keyboard-response","61","277554","0.0-12.0-4.9","2d_cat_multi_stim_exp1","2022-5-4","12:59:6","25","75","3","9","10","40","30","120","90","21","[""White""]","No","Male","1999796","null","null","","","","clear_screen","","","","","","","","","","","","","","","","","","","","","","","","","",""
"","","","","","canvas-keyboard-response","62","278061","0.0-12.0-0.10","2d_cat_multi_stim_exp1","2022-5-4","12:59:6","25","75","3","9","10","40","30","120","90","21","[""White""]","No","Male","1999796","null","null","","","","fixation","","","","","","","","","","","","","","","","","","","","","","","","","",""
"","","","","","canvas-keyboard-response","63","278570","0.0-12.0-1.10","2d_cat_multi_stim_exp1","2022-5-4","12:59:6","25","75","3","9","10","40","30","120","90","21","[""White""]","No","Male","1999796","null","null","","","","clear_screen","","","","","","","","","","","","","","","","","","","","","","","","","",""
"","","","","","canvas-keyboard-response","64","279286","0.0-12.0-2.10","2d_cat_multi_stim_exp1","2022-5-4","12:59:6","25","75","3","9","10","40","30","120","90","21","[""White""]","No","Male","1999796","708","i","learn","","","learn_trial","10","50","out","0","1","","","","","","","","","","","","","","","","","","","","",""
"","","","","","canvas-keyboard-response","65","279796","0.0-12.0-3.10","2d_cat_multi_stim_exp1","2022-5-4","12:59:6","25","75","3","9","10","40","30","120","90","21","[""White""]","No","Male","1999796","null","null","learn_feedback","","","learn_feedback","10","50","out","","","","","","","","","","","","","","","","","","","","","","",""
"","","","","","canvas-keyboard-response","66","279853","0.0-12.0-4.10","2d_cat_multi_stim_exp1","2022-5-4","12:59:6","25","75","3","9","10","40","30","120","90","21","[""White""]","No","Male","1999796","null","null","","","","clear_screen","","","","","","","","","","","","","","","","","","","","","","","","","",""
"","","","","","canvas-keyboard-response","67","280362","0.0-12.0-0.11","2d_cat_multi_stim_exp1","2022-5-4","12:59:6","25","75","3","9","10","40","30","120","90","21","[""White""]","No","Male","1999796","null","null","","","","fixation","","","","","","","","","","","","","","","","","","","","","","","","","",""
"","","","","","canvas-keyboard-response","68","280870","0.0-12.0-1.11","2d_cat_multi_stim_exp1","2022-5-4","12:59:6","25","75","3","9","10","40","30","120","90","21","[""White""]","No","Male","1999796","null","null","","","","clear_screen","","","","","","","","","","","","","","","","","","","","","","","","","",""
"","","","","","canvas-keyboard-response","69","281790","0.0-12.0-2.11","2d_cat_multi_stim_exp1","2022-5-4","12:59:6","25","75","3","9","10","40","30","120","90","21","[""White""]","No","Male","1999796","910","i","learn","","","learn_trial","40","30","out","0","1","","","","","","","","","","","","","","","","","","","","",""
"","","","","","canvas-keyboard-response","70","282299","0.0-12.0-3.11","2d_cat_multi_stim_exp1","2022-5-4","12:59:6","25","75","3","9","10","40","30","120","90","21","[""White""]","No","Male","1999796","null","null","learn_feedback","","","learn_feedback","40","30","out","","","","","","","","","","","","","","","","","","","","","","",""
"","","","","","canvas-keyboard-response","71","282357","0.0-12.0-4.11","2d_cat_multi_stim_exp1","2022-5-4","12:59:6","25","75","3","9","10","40","30","120","90","21","[""White""]","No","Male","1999796","null","null","","","","clear_screen","","","","","","","","","","","","","","","","","","","","","","","","","",""
"","","","","","canvas-keyboard-response","72","282865","0.0-12.0-0.12","2d_cat_multi_stim_exp1","2022-5-4","12:59:6","25","75","3","9","10","40","30","120","90","21","[""White""]","No","Male","1999796","null","null","","","","fixation","","","","","","","","","","","","","","","","","","","","","","","","","",""
"","","","","","canvas-keyboard-response","73","283373","0.0-12.0-1.12","2d_cat_multi_stim_exp1","2022-5-4","12:59:6","25","75","3","9","10","40","30","120","90","21","[""White""]","No","Male","1999796","null","null","","","","clear_screen","","","","","","","","","","","","","","","","","","","","","","","","","",""
"","","","","","canvas-keyboard-response","74","284293","0.0-12.0-2.12","2d_cat_multi_stim_exp1","2022-5-4","12:59:6","25","75","3","9","10","40","30","120","90","21","[""White""]","No","Male","1999796","909","u","learn","","","learn_trial","33.3333","100","out","1","0","","","","","","","","","","","","","","","","","","","","",""
"","","","","","canvas-keyboard-response","75","285303","0.0-12.0-3.12","2d_cat_multi_stim_exp1","2022-5-4","12:59:6","25","75","3","9","10","40","30","120","90","21","[""White""]","No","Male","1999796","null","null","learn_feedback","","","learn_feedback","33.3333","100","out","","","","","","","","","","","","","","","","","","","","","","",""
"","","","","","canvas-keyboard-response","76","285361","0.0-12.0-4.12","2d_cat_multi_stim_exp1","2022-5-4","12:59:6","25","75","3","9","10","40","30","120","90","21","[""White""]","No","Male","1999796","null","null","","","","clear_screen","","","","","","","","","","","","","","","","","","","","","","","","","",""
"","","","","","canvas-keyboard-response","77","285869","0.0-12.0-0.13","2d_cat_multi_stim_exp1","2022-5-4","12:59:6","25","75","3","9","10","40","30","120","90","21","[""White""]","No","Male","1999796","null","null","","","","fixation","","","","","","","","","","","","","","","","","","","","","","","","","",""
"","","","","","canvas-keyboard-response","78","286378","0.0-12.0-1.13","2d_cat_multi_stim_exp1","2022-5-4","12:59:6","25","75","3","9","10","40","30","120","90","21","[""White""]","No","Male","1999796","null","null","","","","clear_screen","","","","","","","","","","","","","","","","","","","","","","","","","",""
"","","","","","canvas-keyboard-response","79","287517","0.0-12.0-2.13","2d_cat_multi_stim_exp1","2022-5-4","12:59:6","25","75","3","9","10","40","30","120","90","21","[""White""]","No","Male","1999796","1131","i","learn","","","learn_trial","13.3333","100","out","0","1","","","","","","","","","","","","","","","","","","","","",""
"","","","","","canvas-keyboard-response","80","288026","0.0-12.0-3.13","2d_cat_multi_stim_exp1","2022-5-4","12:59:6","25","75","3","9","10","40","30","120","90","21","[""White""]","No","Male","1999796","null","null","learn_feedback","","","learn_feedback","13.3333","100","out","","","","","","","","","","","","","","","","","","","","","","",""
"","","","","","canvas-keyboard-response","81","288084","0.0-12.0-4.13","2d_cat_multi_stim_exp1","2022-5-4","12:59:6","25","75","3","9","10","40","30","120","90","21","[""White""]","No","Male","1999796","null","null","","","","clear_screen","","","","","","","","","","","","","","","","","","","","","","","","","",""
"","","","","","canvas-keyboard-response","82","288592","0.0-12.0-0.14","2d_cat_multi_stim_exp1","2022-5-4","12:59:6","25","75","3","9","10","40","30","120","90","21","[""White""]","No","Male","1999796","null","null","","","","fixation","","","","","","","","","","","","","","","","","","","","","","","","","",""
"","","","","","canvas-keyboard-response","83","289100","0.0-12.0-1.14","2d_cat_multi_stim_exp1","2022-5-4","12:59:6","25","75","3","9","10","40","30","120","90","21","[""White""]","No","Male","1999796","null","null","","","","clear_screen","","","","","","","","","","","","","","","","","","","","","","","","","",""
"","","","","","canvas-keyboard-response","84","291078","0.0-12.0-2.14","2d_cat_multi_stim_exp1","2022-5-4","12:59:6","25","75","3","9","10","40","30","120","90","21","[""White""]","No","Male","1999796","1969","u","learn","","","learn_trial","36.6667","90","out","1","0","","","","","","","","","","","","","","","","","","","","",""
"","","","","","canvas-keyboard-response","85","292087","0.0-12.0-3.14","2d_cat_multi_stim_exp1","2022-5-4","12:59:6","25","75","3","9","10","40","30","120","90","21","[""White""]","No","Male","1999796","null","null","learn_feedback","","","learn_feedback","36.6667","90","out","","","","","","","","","","","","","","","","","","","","","","",""
"","","","","","canvas-keyboard-response","86","292145","0.0-12.0-4.14","2d_cat_multi_stim_exp1","2022-5-4","12:59:6","25","75","3","9","10","40","30","120","90","21","[""White""]","No","Male","1999796","null","null","","","","clear_screen","","","","","","","","","","","","","","","","","","","","","","","","","",""
"","","","","","canvas-keyboard-response","87","292654","0.0-12.0-0.15","2d_cat_multi_stim_exp1","2022-5-4","12:59:6","25","75","3","9","10","40","30","120","90","21","[""White""]","No","Male","1999796","null","null","","","","fixation","","","","","","","","","","","","","","","","","","","","","","","","","",""
"","","","","","canvas-keyboard-response","88","293163","0.0-12.0-1.15","2d_cat_multi_stim_exp1","2022-5-4","12:59:6","25","75","3","9","10","40","30","120","90","21","[""White""]","No","Male","1999796","null","null","","","","clear_screen","","","","","","","","","","","","","","","","","","","","","","","","","",""
"","","","","","canvas-keyboard-response","89","294878","0.0-12.0-2.15","2d_cat_multi_stim_exp1","2022-5-4","12:59:6","25","75","3","9","10","40","30","120","90","21","[""White""]","No","Male","1999796","1702","i","learn","","","learn_trial","22.5729","69.7099","in","0","0","","","","","","","","","","","","","","","","","","","","",""
"","","","","","canvas-keyboard-response","90","295886","0.0-12.0-3.15","2d_cat_multi_stim_exp1","2022-5-4","12:59:6","25","75","3","9","10","40","30","120","90","21","[""White""]","No","Male","1999796","null","null","learn_feedback","","","learn_feedback","22.5729","69.7099","in","","","","","","","","","","","","","","","","","","","","","","",""
"","","","","","canvas-keyboard-response","91","295944","0.0-12.0-4.15","2d_cat_multi_stim_exp1","2022-5-4","12:59:6","25","75","3","9","10","40","30","120","90","21","[""White""]","No","Male","1999796","null","null","","","","clear_screen","","","","","","","","","","","","","","","","","","","","","","","","","",""
"","","","","","canvas-keyboard-response","92","296453","0.0-12.0-0.16","2d_cat_multi_stim_exp1","2022-5-4","12:59:6","25","75","3","9","10","40","30","120","90","21","[""White""]","No","Male","1999796","null","null","","","","fixation","","","","","","","","","","","","","","","","","","","","","","","","","",""
"","","","","","canvas-keyboard-response","93","296962","0.0-12.0-1.16","2d_cat_multi_stim_exp1","2022-5-4","12:59:6","25","75","3","9","10","40","30","120","90","21","[""White""]","No","Male","1999796","null","null","","","","clear_screen","","","","","","","","","","","","","","","","","","","","","","","","","",""
"","","","","","canvas-keyboard-response","94","298317","0.0-12.0-2.16","2d_cat_multi_stim_exp1","2022-5-4","12:59:6","25","75","3","9","10","40","30","120","90","21","[""White""]","No","Male","1999796","1348","u","learn","","","learn_trial","30","70","out","1","0","","","","","","","","","","","","","","","","","","","","",""
"","","","","","canvas-keyboard-response","95","299326","0.0-12.0-3.16","2d_cat_multi_stim_exp1","2022-5-4","12:59:6","25","75","3","9","10","40","30","120","90","21","[""White""]","No","Male","1999796","null","null","learn_feedback","","","learn_feedback","30","70","out","","","","","","","","","","","","","","","","","","","","","","",""
"","","","","","canvas-keyboard-response","96","299384","0.0-12.0-4.16","2d_cat_multi_stim_exp1","2022-5-4","12:59:6","25","75","3","9","10","40","30","120","90","21","[""White""]","No","Male","1999796","null","null","","","","clear_screen","","","","","","","","","","","","","","","","","","","","","","","","","",""
"","","","","","canvas-keyboard-response","97","299893","0.0-12.0-0.17","2d_cat_multi_stim_exp1","2022-5-4","12:59:6","25","75","3","9","10","40","30","120","90","21","[""White""]","No","Male","1999796","null","null","","","","fixation","","","","","","","","","","","","","","","","","","","","","","","","","",""
"","","","","","canvas-keyboard-response","98","300401","0.0-12.0-1.17","2d_cat_multi_stim_exp1","2022-5-4","12:59:6","25","75","3","9","10","40","30","120","90","21","[""White""]","No","Male","1999796","null","null","","","","clear_screen","","","","","","","","","","","","","","","","","","","","","","","","","",""
"","","","","","canvas-keyboard-response","99","302358","0.0-12.0-2.17","2d_cat_multi_stim_exp1","2022-5-4","12:59:6","25","75","3","9","10","40","30","120","90","21","[""White""]","No","Male","1999796","1948","u","learn","","","learn_trial","25","75","in","1","1","","","","","","","","","","","","","","","","","","","","",""
"","","","","","canvas-keyboard-response","100","302866","0.0-12.0-3.17","2d_cat_multi_stim_exp1","2022-5-4","12:59:6","25","75","3","9","10","40","30","120","90","21","[""White""]","No","Male","1999796","null","null","learn_feedback","","","learn_feedback","25","75","in","","","","","","","","","","","","","","","","","","","","","","",""
"","","","","","canvas-keyboard-response","101","302924","0.0-12.0-4.17","2d_cat_multi_stim_exp1","2022-5-4","12:59:6","25","75","3","9","10","40","30","120","90","21","[""White""]","No","Male","1999796","null","null","","","","clear_screen","","","","","","","","","","","","","","","","","","","","","","","","","",""
"","","","","","canvas-keyboard-response","102","303433","0.0-12.0-0.18","2d_cat_multi_stim_exp1","2022-5-4","12:59:6","25","75","3","9","10","40","30","120","90","21","[""White""]","No","Male","1999796","null","null","","","","fixation","","","","","","","","","","","","","","","","","","","","","","","","","",""
"","","","","","canvas-keyboard-response","103","303941","0.0-12.0-1.18","2d_cat_multi_stim_exp1","2022-5-4","12:59:6","25","75","3","9","10","40","30","120","90","21","[""White""]","No","Male","1999796","null","null","","","","clear_screen","","","","","","","","","","","","","","","","","","","","","","","","","",""
"","","","","","canvas-keyboard-response","104","305055","0.0-12.0-2.18","2d_cat_multi_stim_exp1","2022-5-4","12:59:6","25","75","3","9","10","40","30","120","90","21","[""White""]","No","Male","1999796","1105","i","learn","","","learn_trial","16.6667","50","out","0","1","","","","","","","","","","","","","","","","","","","","",""
"","","","","","canvas-keyboard-response","105","305568","0.0-12.0-3.18","2d_cat_multi_stim_exp1","2022-5-4","12:59:6","25","75","3","9","10","40","30","120","90","21","[""White""]","No","Male","1999796","null","null","learn_feedback","","","learn_feedback","16.6667","50","out","","","","","","","","","","","","","","","","","","","","","","",""
"","","","","","canvas-keyboard-response","106","305628","0.0-12.0-4.18","2d_cat_multi_stim_exp1","2022-5-4","12:59:6","25","75","3","9","10","40","30","120","90","21","[""White""]","No","Male","1999796","null","null","","","","clear_screen","","","","","","","","","","","","","","","","","","","","","","","","","",""
"","","","","","canvas-keyboard-response","107","306138","0.0-12.0-0.19","2d_cat_multi_stim_exp1","2022-5-4","12:59:6","25","75","3","9","10","40","30","120","90","21","[""White""]","No","Male","1999796","null","null","","","","fixation","","","","","","","","","","","","","","","","","","","","","","","","","",""
"","","","","","canvas-keyboard-response","108","306648","0.0-12.0-1.19","2d_cat_multi_stim_exp1","2022-5-4","12:59:6","25","75","3","9","10","40","30","120","90","21","[""White""]","No","Male","1999796","null","null","","","","clear_screen","","","","","","","","","","","","","","","","","","","","","","","","","",""
"","","","","","canvas-keyboard-response","109","307678","0.0-12.0-2.19","2d_cat_multi_stim_exp1","2022-5-4","12:59:6","25","75","3","9","10","40","30","120","90","21","[""White""]","No","Male","1999796","1021","i","learn","","","learn_trial","25","75","in","0","0","","","","","","","","","","","","","","","","","","","","",""
"","","","","","canvas-keyboard-response","110","308688","0.0-12.0-3.19","2d_cat_multi_stim_exp1","2022-5-4","12:59:6","25","75","3","9","10","40","30","120","90","21","[""White""]","No","Male","1999796","null","null","learn_feedback","","","learn_feedback","25","75","in","","","","","","","","","","","","","","","","","","","","","","",""
"","","","","","canvas-keyboard-response","111","308746","0.0-12.0-4.19","2d_cat_multi_stim_exp1","2022-5-4","12:59:6","25","75","3","9","10","40","30","120","90","21","[""White""]","No","Male","1999796","null","null","","","","clear_screen","","","","","","","","","","","","","","","","","","","","","","","","","",""
"","","","","","canvas-keyboard-response","112","309254","0.0-12.0-0.20","2d_cat_multi_stim_exp1","2022-5-4","12:59:6","25","75","3","9","10","40","30","120","90","21","[""White""]","No","Male","1999796","null","null","","","","fixation","","","","","","","","","","","","","","","","","","","","","","","","","",""
"","","","","","canvas-keyboard-response","113","309763","0.0-12.0-1.20","2d_cat_multi_stim_exp1","2022-5-4","12:59:6","25","75","3","9","10","40","30","120","90","21","[""White""]","No","Male","1999796","null","null","","","","clear_screen","","","","","","","","","","","","","","","","","","","","","","","","","",""
"","","","","","canvas-keyboard-response","114","311639","0.0-12.0-2.20","2d_cat_multi_stim_exp1","2022-5-4","12:59:6","25","75","3","9","10","40","30","120","90","21","[""White""]","No","Male","1999796","1865","u","learn","","","learn_trial","25","75","in","1","1","","","","","","","","","","","","","","","","","","","","",""
"","","","","","canvas-keyboard-response","115","312149","0.0-12.0-3.20","2d_cat_multi_stim_exp1","2022-5-4","12:59:6","25","75","3","9","10","40","30","120","90","21","[""White""]","No","Male","1999796","null","null","learn_feedback","","","learn_feedback","25","75","in","","","","","","","","","","","","","","","","","","","","","","",""
"","","","","","canvas-keyboard-response","116","312208","0.0-12.0-4.20","2d_cat_multi_stim_exp1","2022-5-4","12:59:6","25","75","3","9","10","40","30","120","90","21","[""White""]","No","Male","1999796","null","null","","","","clear_screen","","","","","","","","","","","","","","","","","","","","","","","","","",""
"","","","","","canvas-keyboard-response","117","312716","0.0-12.0-0.21","2d_cat_multi_stim_exp1","2022-5-4","12:59:6","25","75","3","9","10","40","30","120","90","21","[""White""]","No","Male","1999796","null","null","","","","fixation","","","","","","","","","","","","","","","","","","","","","","","","","",""
"","","","","","canvas-keyboard-response","118","313226","0.0-12.0-1.21","2d_cat_multi_stim_exp1","2022-5-4","12:59:6","25","75","3","9","10","40","30","120","90","21","[""White""]","No","Male","1999796","null","null","","","","clear_screen","","","","","","","","","","","","","","","","","","","","","","","","","",""
"","","","","","canvas-keyboard-response","119","314262","0.0-12.0-2.21","2d_cat_multi_stim_exp1","2022-5-4","12:59:6","25","75","3","9","10","40","30","120","90","21","[""White""]","No","Male","1999796","1023","u","learn","","","learn_trial","25","75","in","1","1","","","","","","","","","","","","","","","","","","","","",""
"","","","","","canvas-keyboard-response","120","314770","0.0-12.0-3.21","2d_cat_multi_stim_exp1","2022-5-4","12:59:6","25","75","3","9","10","40","30","120","90","21","[""White""]","No","Male","1999796","null","null","learn_feedback","","","learn_feedback","25","75","in","","","","","","","","","","","","","","","","","","","","","","",""
"","","","","","canvas-keyboard-response","121","314829","0.0-12.0-4.21","2d_cat_multi_stim_exp1","2022-5-4","12:59:6","25","75","3","9","10","40","30","120","90","21","[""White""]","No","Male","1999796","null","null","","","","clear_screen","","","","","","","","","","","","","","","","","","","","","","","","","",""
"","","","","","canvas-keyboard-response","122","315337","0.0-12.0-0.22","2d_cat_multi_stim_exp1","2022-5-4","12:59:6","25","75","3","9","10","40","30","120","90","21","[""White""]","No","Male","1999796","null","null","","","","fixation","","","","","","","","","","","","","","","","","","","","","","","","","",""
"","","","","","canvas-keyboard-response","123","315846","0.0-12.0-1.22","2d_cat_multi_stim_exp1","2022-5-4","12:59:6","25","75","3","9","10","40","30","120","90","21","[""White""]","No","Male","1999796","null","null","","","","clear_screen","","","","","","","","","","","","","","","","","","","","","","","","","",""
"","","","","","canvas-keyboard-response","124","316830","0.0-12.0-2.22","2d_cat_multi_stim_exp1","2022-5-4","12:59:6","25","75","3","9","10","40","30","120","90","21","[""White""]","No","Male","1999796","976","u","learn","","","learn_trial","27.9518","73.393","in","1","1","","","","","","","","","","","","","","","","","","","","",""
"","","","","","canvas-keyboard-response","125","317339","0.0-12.0-3.22","2d_cat_multi_stim_exp1","2022-5-4","12:59:6","25","75","3","9","10","40","30","120","90","21","[""White""]","No","Male","1999796","null","null","learn_feedback","","","learn_feedback","27.9518","73.393","in","","","","","","","","","","","","","","","","","","","","","","",""
"","","","","","canvas-keyboard-response","126","317397","0.0-12.0-4.22","2d_cat_multi_stim_exp1","2022-5-4","12:59:6","25","75","3","9","10","40","30","120","90","21","[""White""]","No","Male","1999796","null","null","","","","clear_screen","","","","","","","","","","","","","","","","","","","","","","","","","",""
"","","","","","canvas-keyboard-response","127","317905","0.0-12.0-0.23","2d_cat_multi_stim_exp1","2022-5-4","12:59:6","25","75","3","9","10","40","30","120","90","21","[""White""]","No","Male","1999796","null","null","","","","fixation","","","","","","","","","","","","","","","","","","","","","","","","","",""
"","","","","","canvas-keyboard-response","128","318414","0.0-12.0-1.23","2d_cat_multi_stim_exp1","2022-5-4","12:59:6","25","75","3","9","10","40","30","120","90","21","[""White""]","No","Male","1999796","null","null","","","","clear_screen","","","","","","","","","","","","","","","","","","","","","","","","","",""
"","","","","","canvas-keyboard-response","129","319173","0.0-12.0-2.23","2d_cat_multi_stim_exp1","2022-5-4","12:59:6","25","75","3","9","10","40","30","120","90","21","[""White""]","No","Male","1999796","752","i","learn","","","learn_trial","20","120","out","0","1","","","","","","","","","","","","","","","","","","","","",""
"","","","","","canvas-keyboard-response","130","319683","0.0-12.0-3.23","2d_cat_multi_stim_exp1","2022-5-4","12:59:6","25","75","3","9","10","40","30","120","90","21","[""White""]","No","Male","1999796","null","null","learn_feedback","","","learn_feedback","20","120","out","","","","","","","","","","","","","","","","","","","","","","",""
"","","","","","canvas-keyboard-response","131","319740","0.0-12.0-4.23","2d_cat_multi_stim_exp1","2022-5-4","12:59:6","25","75","3","9","10","40","30","120","90","21","[""White""]","No","Male","1999796","null","null","","","","clear_screen","","","","","","","","","","","","","","","","","","","","","","","","","",""
"","","","","","canvas-keyboard-response","132","320248","0.0-12.0-0.24","2d_cat_multi_stim_exp1","2022-5-4","12:59:6","25","75","3","9","10","40","30","120","90","21","[""White""]","No","Male","1999796","null","null","","","","fixation","","","","","","","","","","","","","","","","","","","","","","","","","",""
"","","","","","canvas-keyboard-response","133","320757","0.0-12.0-1.24","2d_cat_multi_stim_exp1","2022-5-4","12:59:6","25","75","3","9","10","40","30","120","90","21","[""White""]","No","Male","1999796","null","null","","","","clear_screen","","","","","","","","","","","","","","","","","","","","","","","","","",""
"","","","","","canvas-keyboard-response","134","321957","0.0-12.0-2.24","2d_cat_multi_stim_exp1","2022-5-4","12:59:6","25","75","3","9","10","40","30","120","90","21","[""White""]","No","Male","1999796","1191","i","learn","","","learn_trial","25","75","in","0","0","","","","","","","","","","","","","","","","","","","","",""
"","","","","","canvas-keyboard-response","135","322966","0.0-12.0-3.24","2d_cat_multi_stim_exp1","2022-5-4","12:59:6","25","75","3","9","10","40","30","120","90","21","[""White""]","No","Male","1999796","null","null","learn_feedback","","","learn_feedback","25","75","in","","","","","","","","","","","","","","","","","","","","","","",""
"","","","","","canvas-keyboard-response","136","323025","0.0-12.0-4.24","2d_cat_multi_stim_exp1","2022-5-4","12:59:6","25","75","3","9","10","40","30","120","90","21","[""White""]","No","Male","1999796","null","null","","","","clear_screen","","","","","","","","","","","","","","","","","","","","","","","","","",""
"","","","","","canvas-keyboard-response","137","323534","0.0-12.0-0.25","2d_cat_multi_stim_exp1","2022-5-4","12:59:6","25","75","3","9","10","40","30","120","90","21","[""White""]","No","Male","1999796","null","null","","","","fixation","","","","","","","","","","","","","","","","","","","","","","","","","",""
"","","","","","canvas-keyboard-response","138","324042","0.0-12.0-1.25","2d_cat_multi_stim_exp1","2022-5-4","12:59:6","25","75","3","9","10","40","30","120","90","21","[""White""]","No","Male","1999796","null","null","","","","clear_screen","","","","","","","","","","","","","","","","","","","","","","","","","",""
"","","","","","canvas-keyboard-response","139","325222","0.0-12.0-2.25","2d_cat_multi_stim_exp1","2022-5-4","12:59:6","25","75","3","9","10","40","30","120","90","21","[""White""]","No","Male","1999796","1172","i","learn","","","learn_trial","25","75","in","0","0","","","","","","","","","","","","","","","","","","","","",""
"","","","","","canvas-keyboard-response","140","326231","0.0-12.0-3.25","2d_cat_multi_stim_exp1","2022-5-4","12:59:6","25","75","3","9","10","40","30","120","90","21","[""White""]","No","Male","1999796","null","null","learn_feedback","","","learn_feedback","25","75","in","","","","","","","","","","","","","","","","","","","","","","",""
"","","","","","canvas-keyboard-response","141","326289","0.0-12.0-4.25","2d_cat_multi_stim_exp1","2022-5-4","12:59:6","25","75","3","9","10","40","30","120","90","21","[""White""]","No","Male","1999796","null","null","","","","clear_screen","","","","","","","","","","","","","","","","","","","","","","","","","",""
"","","","","","canvas-keyboard-response","142","326797","0.0-12.0-0.26","2d_cat_multi_stim_exp1","2022-5-4","12:59:6","25","75","3","9","10","40","30","120","90","21","[""White""]","No","Male","1999796","null","null","","","","fixation","","","","","","","","","","","","","","","","","","","","","","","","","",""
"","","","","","canvas-keyboard-response","143","327305","0.0-12.0-1.26","2d_cat_multi_stim_exp1","2022-5-4","12:59:6","25","75","3","9","10","40","30","120","90","21","[""White""]","No","Male","1999796","null","null","","","","clear_screen","","","","","","","","","","","","","","","","","","","","","","","","","",""
"","","","","","canvas-keyboard-response","144","328246","0.0-12.0-2.26","2d_cat_multi_stim_exp1","2022-5-4","12:59:6","25","75","3","9","10","40","30","120","90","21","[""White""]","No","Male","1999796","932","u","learn","","","learn_trial","27.8087","78.1624","in","1","1","","","","","","","","","","","","","","","","","","","","",""
"","","","","","canvas-keyboard-response","145","328754","0.0-12.0-3.26","2d_cat_multi_stim_exp1","2022-5-4","12:59:6","25","75","3","9","10","40","30","120","90","21","[""White""]","No","Male","1999796","null","null","learn_feedback","","","learn_feedback","27.8087","78.1624","in","","","","","","","","","","","","","","","","","","","","","","",""
"","","","","","canvas-keyboard-response","146","328813","0.0-12.0-4.26","2d_cat_multi_stim_exp1","2022-5-4","12:59:6","25","75","3","9","10","40","30","120","90","21","[""White""]","No","Male","1999796","null","null","","","","clear_screen","","","","","","","","","","","","","","","","","","","","","","","","","",""
"","","","","","canvas-keyboard-response","147","329320","0.0-12.0-0.27","2d_cat_multi_stim_exp1","2022-5-4","12:59:6","25","75","3","9","10","40","30","120","90","21","[""White""]","No","Male","1999796","null","null","","","","fixation","","","","","","","","","","","","","","","","","","","","","","","","","",""
"","","","","","canvas-keyboard-response","148","329829","0.0-12.0-1.27","2d_cat_multi_stim_exp1","2022-5-4","12:59:6","25","75","3","9","10","40","30","120","90","21","[""White""]","No","Male","1999796","null","null","","","","clear_screen","","","","","","","","","","","","","","","","","","","","","","","","","",""
"","","","","","canvas-keyboard-response","149","330870","0.0-12.0-2.27","2d_cat_multi_stim_exp1","2022-5-4","12:59:6","25","75","3","9","10","40","30","120","90","21","[""White""]","No","Male","1999796","1029","i","learn","","","learn_trial","36.6667","70","out","0","1","","","","","","","","","","","","","","","","","","","","",""
"","","","","","canvas-keyboard-response","150","331379","0.0-12.0-3.27","2d_cat_multi_stim_exp1","2022-5-4","12:59:6","25","75","3","9","10","40","30","120","90","21","[""White""]","No","Male","1999796","null","null","learn_feedback","","","learn_feedback","36.6667","70","out","","","","","","","","","","","","","","","","","","","","","","",""
"","","","","","canvas-keyboard-response","151","331437","0.0-12.0-4.27","2d_cat_multi_stim_exp1","2022-5-4","12:59:6","25","75","3","9","10","40","30","120","90","21","[""White""]","No","Male","1999796","null","null","","","","clear_screen","","","","","","","","","","","","","","","","","","","","","","","","","",""
"","","","","","canvas-keyboard-response","152","331946","0.0-12.0-0.28","2d_cat_multi_stim_exp1","2022-5-4","12:59:6","25","75","3","9","10","40","30","120","90","21","[""White""]","No","Male","1999796","null","null","","","","fixation","","","","","","","","","","","","","","","","","","","","","","","","","",""
"","","","","","canvas-keyboard-response","153","332454","0.0-12.0-1.28","2d_cat_multi_stim_exp1","2022-5-4","12:59:6","25","75","3","9","10","40","30","120","90","21","[""White""]","No","Male","1999796","null","null","","","","clear_screen","","","","","","","","","","","","","","","","","","","","","","","","","",""
"","","","","","canvas-keyboard-response","154","334174","0.0-12.0-2.28","2d_cat_multi_stim_exp1","2022-5-4","12:59:6","25","75","3","9","10","40","30","120","90","21","[""White""]","No","Male","1999796","1711","i","learn","","","learn_trial","26.6667","60","out","0","1","","","","","","","","","","","","","","","","","","","","",""
"","","","","","canvas-keyboard-response","155","334683","0.0-12.0-3.28","2d_cat_multi_stim_exp1","2022-5-4","12:59:6","25","75","3","9","10","40","30","120","90","21","[""White""]","No","Male","1999796","null","null","learn_feedback","","","learn_feedback","26.6667","60","out","","","","","","","","","","","","","","","","","","","","","","",""
"","","","","","canvas-keyboard-response","156","334740","0.0-12.0-4.28","2d_cat_multi_stim_exp1","2022-5-4","12:59:6","25","75","3","9","10","40","30","120","90","21","[""White""]","No","Male","1999796","null","null","","","","clear_screen","","","","","","","","","","","","","","","","","","","","","","","","","",""
"","","","","","canvas-keyboard-response","157","335249","0.0-12.0-0.29","2d_cat_multi_stim_exp1","2022-5-4","12:59:6","25","75","3","9","10","40","30","120","90","21","[""White""]","No","Male","1999796","null","null","","","","fixation","","","","","","","","","","","","","","","","","","","","","","","","","",""
"","","","","","canvas-keyboard-response","158","335757","0.0-12.0-1.29","2d_cat_multi_stim_exp1","2022-5-4","12:59:6","25","75","3","9","10","40","30","120","90","21","[""White""]","No","Male","1999796","null","null","","","","clear_screen","","","","","","","","","","","","","","","","","","","","","","","","","",""
"","","","","","canvas-keyboard-response","159","336461","0.0-12.0-2.29","2d_cat_multi_stim_exp1","2022-5-4","12:59:6","25","75","3","9","10","40","30","120","90","21","[""White""]","No","Male","1999796","696","i","learn","","","learn_trial","20.7574","87.7279","in","0","0","","","","","","","","","","","","","","","","","","","","",""
"","","","","","canvas-keyboard-response","160","337470","0.0-12.0-3.29","2d_cat_multi_stim_exp1","2022-5-4","12:59:6","25","75","3","9","10","40","30","120","90","21","[""White""]","No","Male","1999796","null","null","learn_feedback","","","learn_feedback","20.7574","87.7279","in","","","","","","","","","","","","","","","","","","","","","","",""
"","","","","","canvas-keyboard-response","161","337528","0.0-12.0-4.29","2d_cat_multi_stim_exp1","2022-5-4","12:59:6","25","75","3","9","10","40","30","120","90","21","[""White""]","No","Male","1999796","null","null","","","","clear_screen","","","","","","","","","","","","","","","","","","","","","","","","","",""
"","","","","","canvas-keyboard-response","162","338036","0.0-12.0-0.30","2d_cat_multi_stim_exp1","2022-5-4","12:59:6","25","75","3","9","10","40","30","120","90","21","[""White""]","No","Male","1999796","null","null","","","","fixation","","","","","","","","","","","","","","","","","","","","","","","","","",""
"","","","","","canvas-keyboard-response","163","338545","0.0-12.0-1.30","2d_cat_multi_stim_exp1","2022-5-4","12:59:6","25","75","3","9","10","40","30","120","90","21","[""White""]","No","Male","1999796","null","null","","","","clear_screen","","","","","","","","","","","","","","","","","","","","","","","","","",""
"","","","","","canvas-keyboard-response","164","339414","0.0-12.0-2.30","2d_cat_multi_stim_exp1","2022-5-4","12:59:6","25","75","3","9","10","40","30","120","90","21","[""White""]","No","Male","1999796","857","i","learn","","","learn_trial","16.6667","80","out","0","1","","","","","","","","","","","","","","","","","","","","",""
"","","","","","canvas-keyboard-response","165","339923","0.0-12.0-3.30","2d_cat_multi_stim_exp1","2022-5-4","12:59:6","25","75","3","9","10","40","30","120","90","21","[""White""]","No","Male","1999796","null","null","learn_feedback","","","learn_feedback","16.6667","80","out","","","","","","","","","","","","","","","","","","","","","","",""
"","","","","","canvas-keyboard-response","166","339980","0.0-12.0-4.30","2d_cat_multi_stim_exp1","2022-5-4","12:59:6","25","75","3","9","10","40","30","120","90","21","[""White""]","No","Male","1999796","null","null","","","","clear_screen","","","","","","","","","","","","","","","","","","","","","","","","","",""
"","","","","","canvas-keyboard-response","167","340488","0.0-12.0-0.31","2d_cat_multi_stim_exp1","2022-5-4","12:59:6","25","75","3","9","10","40","30","120","90","21","[""White""]","No","Male","1999796","null","null","","","","fixation","","","","","","","","","","","","","","","","","","","","","","","","","",""
"","","","","","canvas-keyboard-response","168","340997","0.0-12.0-1.31","2d_cat_multi_stim_exp1","2022-5-4","12:59:6","25","75","3","9","10","40","30","120","90","21","[""White""]","No","Male","1999796","null","null","","","","clear_screen","","","","","","","","","","","","","","","","","","","","","","","","","",""
"","","","","","canvas-keyboard-response","169","341557","0.0-12.0-2.31","2d_cat_multi_stim_exp1","2022-5-4","12:59:6","25","75","3","9","10","40","30","120","90","21","[""White""]","No","Male","1999796","552","i","learn","","","learn_trial","13.3333","50","out","0","1","","","","","","","","","","","","","","","","","","","","",""
"","","","","","canvas-keyboard-response","170","342067","0.0-12.0-3.31","2d_cat_multi_stim_exp1","2022-5-4","12:59:6","25","75","3","9","10","40","30","120","90","21","[""White""]","No","Male","1999796","null","null","learn_feedback","","","learn_feedback","13.3333","50","out","","","","","","","","","","","","","","","","","","","","","","",""
"","","","","","canvas-keyboard-response","171","342124","0.0-12.0-4.31","2d_cat_multi_stim_exp1","2022-5-4","12:59:6","25","75","3","9","10","40","30","120","90","21","[""White""]","No","Male","1999796","null","null","","","","clear_screen","","","","","","","","","","","","","","","","","","","","","","","","","",""
"","","","","","canvas-keyboard-response","172","342632","0.0-12.0-0.32","2d_cat_multi_stim_exp1","2022-5-4","12:59:6","25","75","3","9","10","40","30","120","90","21","[""White""]","No","Male","1999796","null","null","","","","fixation","","","","","","","","","","","","","","","","","","","","","","","","","",""
"","","","","","canvas-keyboard-response","173","343141","0.0-12.0-1.32","2d_cat_multi_stim_exp1","2022-5-4","12:59:6","25","75","3","9","10","40","30","120","90","21","[""White""]","No","Male","1999796","null","null","","","","clear_screen","","","","","","","","","","","","","","","","","","","","","","","","","",""
"","","","","","canvas-keyboard-response","174","345733","0.0-12.0-2.32","2d_cat_multi_stim_exp1","2022-5-4","12:59:6","25","75","3","9","10","40","30","120","90","21","[""White""]","No","Male","1999796","2584","i","learn","","","learn_trial","40","60","out","0","1","","","","","","","","","","","","","","","","","","","","",""
"","","","","","canvas-keyboard-response","175","346242","0.0-12.0-3.32","2d_cat_multi_stim_exp1","2022-5-4","12:59:6","25","75","3","9","10","40","30","120","90","21","[""White""]","No","Male","1999796","null","null","learn_feedback","","","learn_feedback","40","60","out","","","","","","","","","","","","","","","","","","","","","","",""
"","","","","","canvas-keyboard-response","176","346300","0.0-12.0-4.32","2d_cat_multi_stim_exp1","2022-5-4","12:59:6","25","75","3","9","10","40","30","120","90","21","[""White""]","No","Male","1999796","null","null","","","","clear_screen","","","","","","","","","","","","","","","","","","","","","","","","","",""
"","","","","","canvas-keyboard-response","177","346808","0.0-12.0-0.33","2d_cat_multi_stim_exp1","2022-5-4","12:59:6","25","75","3","9","10","40","30","120","90","21","[""White""]","No","Male","1999796","null","null","","","","fixation","","","","","","","","","","","","","","","","","","","","","","","","","",""
"","","","","","canvas-keyboard-response","178","347316","0.0-12.0-1.33","2d_cat_multi_stim_exp1","2022-5-4","12:59:6","25","75","3","9","10","40","30","120","90","21","[""White""]","No","Male","1999796","null","null","","","","clear_screen","","","","","","","","","","","","","","","","","","","","","","","","","",""
"","","","","","canvas-keyboard-response","179","348151","0.0-12.0-2.33","2d_cat_multi_stim_exp1","2022-5-4","12:59:6","25","75","3","9","10","40","30","120","90","21","[""White""]","No","Male","1999796","826","u","learn","","","learn_trial","24.8654","83.9909","in","1","1","","","","","","","","","","","","","","","","","","","","",""
"","","","","","canvas-keyboard-response","180","348662","0.0-12.0-3.33","2d_cat_multi_stim_exp1","2022-5-4","12:59:6","25","75","3","9","10","40","30","120","90","21","[""White""]","No","Male","1999796","null","null","learn_feedback","","","learn_feedback","24.8654","83.9909","in","","","","","","","","","","","","","","","","","","","","","","",""
"","","","","","canvas-keyboard-response","181","348721","0.0-12.0-4.33","2d_cat_multi_stim_exp1","2022-5-4","12:59:6","25","75","3","9","10","40","30","120","90","21","[""White""]","No","Male","1999796","null","null","","","","clear_screen","","","","","","","","","","","","","","","","","","","","","","","","","",""
"","","","","","canvas-keyboard-response","182","349231","0.0-12.0-0.34","2d_cat_multi_stim_exp1","2022-5-4","12:59:6","25","75","3","9","10","40","30","120","90","21","[""White""]","No","Male","1999796","null","null","","","","fixation","","","","","","","","","","","","","","","","","","","","","","","","","",""
"","","","","","canvas-keyboard-response","183","349742","0.0-12.0-1.34","2d_cat_multi_stim_exp1","2022-5-4","12:59:6","25","75","3","9","10","40","30","120","90","21","[""White""]","No","Male","1999796","null","null","","","","clear_screen","","","","","","","","","","","","","","","","","","","","","","","","","",""
"","","","","","canvas-keyboard-response","184","350877","0.0-12.0-2.34","2d_cat_multi_stim_exp1","2022-5-4","12:59:6","25","75","3","9","10","40","30","120","90","21","[""White""]","No","Male","1999796","1127","i","learn","","","learn_trial","26.6667","50","out","0","1","","","","","","","","","","","","","","","","","","","","",""
"","","","","","canvas-keyboard-response","185","351387","0.0-12.0-3.34","2d_cat_multi_stim_exp1","2022-5-4","12:59:6","25","75","3","9","10","40","30","120","90","21","[""White""]","No","Male","1999796","null","null","learn_feedback","","","learn_feedback","26.6667","50","out","","","","","","","","","","","","","","","","","","","","","","",""
"","","","","","canvas-keyboard-response","186","351445","0.0-12.0-4.34","2d_cat_multi_stim_exp1","2022-5-4","12:59:6","25","75","3","9","10","40","30","120","90","21","[""White""]","No","Male","1999796","null","null","","","","clear_screen","","","","","","","","","","","","","","","","","","","","","","","","","",""
"","","","","","canvas-keyboard-response","187","351954","0.0-12.0-0.35","2d_cat_multi_stim_exp1","2022-5-4","12:59:6","25","75","3","9","10","40","30","120","90","21","[""White""]","No","Male","1999796","null","null","","","","fixation","","","","","","","","","","","","","","","","","","","","","","","","","",""
"","","","","","canvas-keyboard-response","188","352463","0.0-12.0-1.35","2d_cat_multi_stim_exp1","2022-5-4","12:59:6","25","75","3","9","10","40","30","120","90","21","[""White""]","No","Male","1999796","null","null","","","","clear_screen","","","","","","","","","","","","","","","","","","","","","","","","","",""
"","","","","","canvas-keyboard-response","189","353926","0.0-12.0-2.35","2d_cat_multi_stim_exp1","2022-5-4","12:59:6","25","75","3","9","10","40","30","120","90","21","[""White""]","No","Male","1999796","1454","u","learn","","","learn_trial","36.6667","100","out","1","0","","","","","","","","","","","","","","","","","","","","",""
"","","","","","canvas-keyboard-response","190","354936","0.0-12.0-3.35","2d_cat_multi_stim_exp1","2022-5-4","12:59:6","25","75","3","9","10","40","30","120","90","21","[""White""]","No","Male","1999796","null","null","learn_feedback","","","learn_feedback","36.6667","100","out","","","","","","","","","","","","","","","","","","","","","","",""
"","","","","","canvas-keyboard-response","191","354994","0.0-12.0-4.35","2d_cat_multi_stim_exp1","2022-5-4","12:59:6","25","75","3","9","10","40","30","120","90","21","[""White""]","No","Male","1999796","null","null","","","","clear_screen","","","","","","","","","","","","","","","","","","","","","","","","","",""
"","","","","","canvas-keyboard-response","192","355503","0.0-12.0-0.36","2d_cat_multi_stim_exp1","2022-5-4","12:59:6","25","75","3","9","10","40","30","120","90","21","[""White""]","No","Male","1999796","null","null","","","","fixation","","","","","","","","","","","","","","","","","","","","","","","","","",""
"","","","","","canvas-keyboard-response","193","356012","0.0-12.0-1.36","2d_cat_multi_stim_exp1","2022-5-4","12:59:6","25","75","3","9","10","40","30","120","90","21","[""White""]","No","Male","1999796","null","null","","","","clear_screen","","","","","","","","","","","","","","","","","","","","","","","","","",""
"","","","","","canvas-keyboard-response","194","357502","0.0-12.0-2.36","2d_cat_multi_stim_exp1","2022-5-4","12:59:6","25","75","3","9","10","40","30","120","90","21","[""White""]","No","Male","1999796","1481","u","learn","","","learn_trial","26.4216","82.9254","in","1","1","","","","","","","","","","","","","","","","","","","","",""
"","","","","","canvas-keyboard-response","195","358011","0.0-12.0-3.36","2d_cat_multi_stim_exp1","2022-5-4","12:59:6","25","75","3","9","10","40","30","120","90","21","[""White""]","No","Male","1999796","null","null","learn_feedback","","","learn_feedback","26.4216","82.9254","in","","","","","","","","","","","","","","","","","","","","","","",""
"","","","","","canvas-keyboard-response","196","358070","0.0-12.0-4.36","2d_cat_multi_stim_exp1","2022-5-4","12:59:6","25","75","3","9","10","40","30","120","90","21","[""White""]","No","Male","1999796","null","null","","","","clear_screen","","","","","","","","","","","","","","","","","","","","","","","","","",""
"","","","","","canvas-keyboard-response","197","358578","0.0-12.0-0.37","2d_cat_multi_stim_exp1","2022-5-4","12:59:6","25","75","3","9","10","40","30","120","90","21","[""White""]","No","Male","1999796","null","null","","","","fixation","","","","","","","","","","","","","","","","","","","","","","","","","",""
"","","","","","canvas-keyboard-response","198","359087","0.0-12.0-1.37","2d_cat_multi_stim_exp1","2022-5-4","12:59:6","25","75","3","9","10","40","30","120","90","21","[""White""]","No","Male","1999796","null","null","","","","clear_screen","","","","","","","","","","","","","","","","","","","","","","","","","",""
"","","","","","canvas-keyboard-response","199","359933","0.0-12.0-2.37","2d_cat_multi_stim_exp1","2022-5-4","12:59:6","25","75","3","9","10","40","30","120","90","21","[""White""]","No","Male","1999796","838","u","learn","","","learn_trial","25","75","in","1","1","","","","","","","","","","","","","","","","","","","","",""
"","","","","","canvas-keyboard-response","200","360443","0.0-12.0-3.37","2d_cat_multi_stim_exp1","2022-5-4","12:59:6","25","75","3","9","10","40","30","120","90","21","[""White""]","No","Male","1999796","null","null","learn_feedback","","","learn_feedback","25","75","in","","","","","","","","","","","","","","","","","","","","","","",""
"","","","","","canvas-keyboard-response","201","360501","0.0-12.0-4.37","2d_cat_multi_stim_exp1","2022-5-4","12:59:6","25","75","3","9","10","40","30","120","90","21","[""White""]","No","Male","1999796","null","null","","","","clear_screen","","","","","","","","","","","","","","","","","","","","","","","","","",""
"","","","","","canvas-keyboard-response","202","361008","0.0-12.0-0.38","2d_cat_multi_stim_exp1","2022-5-4","12:59:6","25","75","3","9","10","40","30","120","90","21","[""White""]","No","Male","1999796","null","null","","","","fixation","","","","","","","","","","","","","","","","","","","","","","","","","",""
"","","","","","canvas-keyboard-response","203","361517","0.0-12.0-1.38","2d_cat_multi_stim_exp1","2022-5-4","12:59:6","25","75","3","9","10","40","30","120","90","21","[""White""]","No","Male","1999796","null","null","","","","clear_screen","","","","","","","","","","","","","","","","","","","","","","","","","",""
"","","","","","canvas-keyboard-response","204","362470","0.0-12.0-2.38","2d_cat_multi_stim_exp1","2022-5-4","12:59:6","25","75","3","9","10","40","30","120","90","21","[""White""]","No","Male","1999796","942","i","learn","","","learn_trial","10","30","out","0","1","","","","","","","","","","","","","","","","","","","","",""
"","","","","","canvas-keyboard-response","205","362979","0.0-12.0-3.38","2d_cat_multi_stim_exp1","2022-5-4","12:59:6","25","75","3","9","10","40","30","120","90","21","[""White""]","No","Male","1999796","null","null","learn_feedback","","","learn_feedback","10","30","out","","","","","","","","","","","","","","","","","","","","","","",""
"","","","","","canvas-keyboard-response","206","363037","0.0-12.0-4.38","2d_cat_multi_stim_exp1","2022-5-4","12:59:6","25","75","3","9","10","40","30","120","90","21","[""White""]","No","Male","1999796","null","null","","","","clear_screen","","","","","","","","","","","","","","","","","","","","","","","","","",""
"","","","","","canvas-keyboard-response","207","363547","0.0-12.0-0.39","2d_cat_multi_stim_exp1","2022-5-4","12:59:6","25","75","3","9","10","40","30","120","90","21","[""White""]","No","Male","1999796","null","null","","","","fixation","","","","","","","","","","","","","","","","","","","","","","","","","",""
"","","","","","canvas-keyboard-response","208","364055","0.0-12.0-1.39","2d_cat_multi_stim_exp1","2022-5-4","12:59:6","25","75","3","9","10","40","30","120","90","21","[""White""]","No","Male","1999796","null","null","","","","clear_screen","","","","","","","","","","","","","","","","","","","","","","","","","",""
"","","","","","canvas-keyboard-response","209","365293","0.0-12.0-2.39","2d_cat_multi_stim_exp1","2022-5-4","12:59:6","25","75","3","9","10","40","30","120","90","21","[""White""]","No","Male","1999796","1229","u","learn","","","learn_trial","25","75","in","1","1","","","","","","","","","","","","","","","","","","","","",""
"","","","","","canvas-keyboard-response","210","365802","0.0-12.0-3.39","2d_cat_multi_stim_exp1","2022-5-4","12:59:6","25","75","3","9","10","40","30","120","90","21","[""White""]","No","Male","1999796","null","null","learn_feedback","","","learn_feedback","25","75","in","","","","","","","","","","","","","","","","","","","","","","",""
"","","","","","canvas-keyboard-response","211","365863","0.0-12.0-4.39","2d_cat_multi_stim_exp1","2022-5-4","12:59:6","25","75","3","9","10","40","30","120","90","21","[""White""]","No","Male","1999796","null","null","","","","clear_screen","","","","","","","","","","","","","","","","","","","","","","","","","",""
"","","","","","canvas-keyboard-response","212","366370","0.0-12.0-0.40","2d_cat_multi_stim_exp1","2022-5-4","12:59:6","25","75","3","9","10","40","30","120","90","21","[""White""]","No","Male","1999796","null","null","","","","fixation","","","","","","","","","","","","","","","","","","","","","","","","","",""
"","","","","","canvas-keyboard-response","213","366879","0.0-12.0-1.40","2d_cat_multi_stim_exp1","2022-5-4","12:59:6","25","75","3","9","10","40","30","120","90","21","[""White""]","No","Male","1999796","null","null","","","","clear_screen","","","","","","","","","","","","","","","","","","","","","","","","","",""
"","","","","","canvas-keyboard-response","214","367702","0.0-12.0-2.40","2d_cat_multi_stim_exp1","2022-5-4","12:59:6","25","75","3","9","10","40","30","120","90","21","[""White""]","No","Male","1999796","814","i","learn","","","learn_trial","22.0121","74.1932","in","0","0","","","","","","","","","","","","","","","","","","","","",""
"","","","","","canvas-keyboard-response","215","368711","0.0-12.0-3.40","2d_cat_multi_stim_exp1","2022-5-4","12:59:6","25","75","3","9","10","40","30","120","90","21","[""White""]","No","Male","1999796","null","null","learn_feedback","","","learn_feedback","22.0121","74.1932","in","","","","","","","","","","","","","","","","","","","","","","",""
"","","","","","canvas-keyboard-response","216","368769","0.0-12.0-4.40","2d_cat_multi_stim_exp1","2022-5-4","12:59:6","25","75","3","9","10","40","30","120","90","21","[""White""]","No","Male","1999796","null","null","","","","clear_screen","","","","","","","","","","","","","","","","","","","","","","","","","",""
"","","","","","canvas-keyboard-response","217","369277","0.0-12.0-0.41","2d_cat_multi_stim_exp1","2022-5-4","12:59:6","25","75","3","9","10","40","30","120","90","21","[""White""]","No","Male","1999796","null","null","","","","fixation","","","","","","","","","","","","","","","","","","","","","","","","","",""
"","","","","","canvas-keyboard-response","218","369786","0.0-12.0-1.41","2d_cat_multi_stim_exp1","2022-5-4","12:59:6","25","75","3","9","10","40","30","120","90","21","[""White""]","No","Male","1999796","null","null","","","","clear_screen","","","","","","","","","","","","","","","","","","","","","","","","","",""
"","","","","","canvas-keyboard-response","219","370661","0.0-12.0-2.41","2d_cat_multi_stim_exp1","2022-5-4","12:59:6","25","75","3","9","10","40","30","120","90","21","[""White""]","No","Male","1999796","866","i","learn","","","learn_trial","25","57","in","0","0","","","","","","","","","","","","","","","","","","","","",""
"","","","","","canvas-keyboard-response","220","371671","0.0-12.0-3.41","2d_cat_multi_stim_exp1","2022-5-4","12:59:6","25","75","3","9","10","40","30","120","90","21","[""White""]","No","Male","1999796","null","null","learn_feedback","","","learn_feedback","25","57","in","","","","","","","","","","","","","","","","","","","","","","",""
"","","","","","canvas-keyboard-response","221","371729","0.0-12.0-4.41","2d_cat_multi_stim_exp1","2022-5-4","12:59:6","25","75","3","9","10","40","30","120","90","21","[""White""]","No","Male","1999796","null","null","","","","clear_screen","","","","","","","","","","","","","","","","","","","","","","","","","",""
"","","","","","canvas-keyboard-response","222","372237","0.0-12.0-0.42","2d_cat_multi_stim_exp1","2022-5-4","12:59:6","25","75","3","9","10","40","30","120","90","21","[""White""]","No","Male","1999796","null","null","","","","fixation","","","","","","","","","","","","","","","","","","","","","","","","","",""
"","","","","","canvas-keyboard-response","223","372745","0.0-12.0-1.42","2d_cat_multi_stim_exp1","2022-5-4","12:59:6","25","75","3","9","10","40","30","120","90","21","[""White""]","No","Male","1999796","null","null","","","","clear_screen","","","","","","","","","","","","","","","","","","","","","","","","","",""
"","","","","","canvas-keyboard-response","224","373550","0.0-12.0-2.42","2d_cat_multi_stim_exp1","2022-5-4","12:59:6","25","75","3","9","10","40","30","120","90","21","[""White""]","No","Male","1999796","796","u","learn","","","learn_trial","25","75","in","1","1","","","","","","","","","","","","","","","","","","","","",""
"","","","","","canvas-keyboard-response","225","374058","0.0-12.0-3.42","2d_cat_multi_stim_exp1","2022-5-4","12:59:6","25","75","3","9","10","40","30","120","90","21","[""White""]","No","Male","1999796","null","null","learn_feedback","","","learn_feedback","25","75","in","","","","","","","","","","","","","","","","","","","","","","",""
"","","","","","canvas-keyboard-response","226","374117","0.0-12.0-4.42","2d_cat_multi_stim_exp1","2022-5-4","12:59:6","25","75","3","9","10","40","30","120","90","21","[""White""]","No","Male","1999796","null","null","","","","clear_screen","","","","","","","","","","","","","","","","","","","","","","","","","",""
"","","","","","canvas-keyboard-response","227","374625","0.0-12.0-0.43","2d_cat_multi_stim_exp1","2022-5-4","12:59:6","25","75","3","9","10","40","30","120","90","21","[""White""]","No","Male","1999796","null","null","","","","fixation","","","","","","","","","","","","","","","","","","","","","","","","","",""
"","","","","","canvas-keyboard-response","228","375133","0.0-12.0-1.43","2d_cat_multi_stim_exp1","2022-5-4","12:59:6","25","75","3","9","10","40","30","120","90","21","[""White""]","No","Male","1999796","null","null","","","","clear_screen","","","","","","","","","","","","","","","","","","","","","","","","","",""
"","","","","","canvas-keyboard-response","229","375830","0.0-12.0-2.43","2d_cat_multi_stim_exp1","2022-5-4","12:59:6","25","75","3","9","10","40","30","120","90","21","[""White""]","No","Male","1999796","688","i","learn","","","learn_trial","10","70","out","0","1","","","","","","","","","","","","","","","","","","","","",""
"","","","","","canvas-keyboard-response","230","376338","0.0-12.0-3.43","2d_cat_multi_stim_exp1","2022-5-4","12:59:6","25","75","3","9","10","40","30","120","90","21","[""White""]","No","Male","1999796","null","null","learn_feedback","","","learn_feedback","10","70","out","","","","","","","","","","","","","","","","","","","","","","",""
"","","","","","canvas-keyboard-response","231","376402","0.0-12.0-4.43","2d_cat_multi_stim_exp1","2022-5-4","12:59:6","25","75","3","9","10","40","30","120","90","21","[""White""]","No","Male","1999796","null","null","","","","clear_screen","","","","","","","","","","","","","","","","","","","","","","","","","",""
"","","","","","canvas-keyboard-response","232","376910","0.0-12.0-0.44","2d_cat_multi_stim_exp1","2022-5-4","12:59:6","25","75","3","9","10","40","30","120","90","21","[""White""]","No","Male","1999796","null","null","","","","fixation","","","","","","","","","","","","","","","","","","","","","","","","","",""
"","","","","","canvas-keyboard-response","233","377418","0.0-12.0-1.44","2d_cat_multi_stim_exp1","2022-5-4","12:59:6","25","75","3","9","10","40","30","120","90","21","[""White""]","No","Male","1999796","null","null","","","","clear_screen","","","","","","","","","","","","","","","","","","","","","","","","","",""
"","","","","","canvas-keyboard-response","234","378469","0.0-12.0-2.44","2d_cat_multi_stim_exp1","2022-5-4","12:59:6","25","75","3","9","10","40","30","120","90","21","[""White""]","No","Male","1999796","1043","i","learn","","","learn_trial","26.6667","120","out","0","1","","","","","","","","","","","","","","","","","","","","",""
"","","","","","canvas-keyboard-response","235","378978","0.0-12.0-3.44","2d_cat_multi_stim_exp1","2022-5-4","12:59:6","25","75","3","9","10","40","30","120","90","21","[""White""]","No","Male","1999796","null","null","learn_feedback","","","learn_feedback","26.6667","120","out","","","","","","","","","","","","","","","","","","","","","","",""
"","","","","","canvas-keyboard-response","236","379036","0.0-12.0-4.44","2d_cat_multi_stim_exp1","2022-5-4","12:59:6","25","75","3","9","10","40","30","120","90","21","[""White""]","No","Male","1999796","null","null","","","","clear_screen","","","","","","","","","","","","","","","","","","","","","","","","","",""
"","","","","","canvas-keyboard-response","237","379543","0.0-12.0-0.45","2d_cat_multi_stim_exp1","2022-5-4","12:59:6","25","75","3","9","10","40","30","120","90","21","[""White""]","No","Male","1999796","null","null","","","","fixation","","","","","","","","","","","","","","","","","","","","","","","","","",""
"","","","","","canvas-keyboard-response","238","380052","0.0-12.0-1.45","2d_cat_multi_stim_exp1","2022-5-4","12:59:6","25","75","3","9","10","40","30","120","90","21","[""White""]","No","Male","1999796","null","null","","","","clear_screen","","","","","","","","","","","","","","","","","","","","","","","","","",""
"","","","","","canvas-keyboard-response","239","380789","0.0-12.0-2.45","2d_cat_multi_stim_exp1","2022-5-4","12:59:6","25","75","3","9","10","40","30","120","90","21","[""White""]","No","Male","1999796","728","i","learn","","","learn_trial","13.3333","120","out","0","1","","","","","","","","","","","","","","","","","","","","",""
"","","","","","canvas-keyboard-response","240","381297","0.0-12.0-3.45","2d_cat_multi_stim_exp1","2022-5-4","12:59:6","25","75","3","9","10","40","30","120","90","21","[""White""]","No","Male","1999796","null","null","learn_feedback","","","learn_feedback","13.3333","120","out","","","","","","","","","","","","","","","","","","","","","","",""
"","","","","","canvas-keyboard-response","241","381356","0.0-12.0-4.45","2d_cat_multi_stim_exp1","2022-5-4","12:59:6","25","75","3","9","10","40","30","120","90","21","[""White""]","No","Male","1999796","null","null","","","","clear_screen","","","","","","","","","","","","","","","","","","","","","","","","","",""
"","","","","","canvas-keyboard-response","242","381866","0.0-12.0-0.46","2d_cat_multi_stim_exp1","2022-5-4","12:59:6","25","75","3","9","10","40","30","120","90","21","[""White""]","No","Male","1999796","null","null","","","","fixation","","","","","","","","","","","","","","","","","","","","","","","","","",""
"","","","","","canvas-keyboard-response","243","382374","0.0-12.0-1.46","2d_cat_multi_stim_exp1","2022-5-4","12:59:6","25","75","3","9","10","40","30","120","90","21","[""White""]","No","Male","1999796","null","null","","","","clear_screen","","","","","","","","","","","","","","","","","","","","","","","","","",""
"","","","","","canvas-keyboard-response","244","384141","0.0-12.0-2.46","2d_cat_multi_stim_exp1","2022-5-4","12:59:6","25","75","3","9","10","40","30","120","90","21","[""White""]","No","Male","1999796","1759","u","learn","","","learn_trial","27.5753","70.3839","in","1","1","","","","","","","","","","","","","","","","","","","","",""
"","","","","","canvas-keyboard-response","245","384650","0.0-12.0-3.46","2d_cat_multi_stim_exp1","2022-5-4","12:59:6","25","75","3","9","10","40","30","120","90","21","[""White""]","No","Male","1999796","null","null","learn_feedback","","","learn_feedback","27.5753","70.3839","in","","","","","","","","","","","","","","","","","","","","","","",""
"","","","","","canvas-keyboard-response","246","384708","0.0-12.0-4.46","2d_cat_multi_stim_exp1","2022-5-4","12:59:6","25","75","3","9","10","40","30","120","90","21","[""White""]","No","Male","1999796","null","null","","","","clear_screen","","","","","","","","","","","","","","","","","","","","","","","","","",""
"","","","","","canvas-keyboard-response","247","385216","0.0-12.0-0.47","2d_cat_multi_stim_exp1","2022-5-4","12:59:6","25","75","3","9","10","40","30","120","90","21","[""White""]","No","Male","1999796","null","null","","","","fixation","","","","","","","","","","","","","","","","","","","","","","","","","",""
"","","","","","canvas-keyboard-response","248","385728","0.0-12.0-1.47","2d_cat_multi_stim_exp1","2022-5-4","12:59:6","25","75","3","9","10","40","30","120","90","21","[""White""]","No","Male","1999796","null","null","","","","clear_screen","","","","","","","","","","","","","","","","","","","","","","","","","",""
"","","","","","canvas-keyboard-response","249","386230","0.0-12.0-2.47","2d_cat_multi_stim_exp1","2022-5-4","12:59:6","25","75","3","9","10","40","30","120","90","21","[""White""]","No","Male","1999796","489","u","learn","","","learn_trial","25","75","in","1","1","","","","","","","","","","","","","","","","","","","","",""
"","","","","","canvas-keyboard-response","250","386740","0.0-12.0-3.47","2d_cat_multi_stim_exp1","2022-5-4","12:59:6","25","75","3","9","10","40","30","120","90","21","[""White""]","No","Male","1999796","null","null","learn_feedback","","","learn_feedback","25","75","in","","","","","","","","","","","","","","","","","","","","","","",""
"","","","","","canvas-keyboard-response","251","386799","0.0-12.0-4.47","2d_cat_multi_stim_exp1","2022-5-4","12:59:6","25","75","3","9","10","40","30","120","90","21","[""White""]","No","Male","1999796","null","null","","","","clear_screen","","","","","","","","","","","","","","","","","","","","","","","","","",""
"","","","","","canvas-keyboard-response","252","387307","0.0-12.0-0.48","2d_cat_multi_stim_exp1","2022-5-4","12:59:6","25","75","3","9","10","40","30","120","90","21","[""White""]","No","Male","1999796","null","null","","","","fixation","","","","","","","","","","","","","","","","","","","","","","","","","",""
"","","","","","canvas-keyboard-response","253","387817","0.0-12.0-1.48","2d_cat_multi_stim_exp1","2022-5-4","12:59:6","25","75","3","9","10","40","30","120","90","21","[""White""]","No","Male","1999796","null","null","","","","clear_screen","","","","","","","","","","","","","","","","","","","","","","","","","",""
"","","","","","canvas-keyboard-response","254","388333","0.0-12.0-2.48","2d_cat_multi_stim_exp1","2022-5-4","12:59:6","25","75","3","9","10","40","30","120","90","21","[""White""]","No","Male","1999796","507","u","learn","","","learn_trial","26.6667","70","out","1","0","","","","","","","","","","","","","","","","","","","","",""
"","","","","","canvas-keyboard-response","255","389343","0.0-12.0-3.48","2d_cat_multi_stim_exp1","2022-5-4","12:59:6","25","75","3","9","10","40","30","120","90","21","[""White""]","No","Male","1999796","null","null","learn_feedback","","","learn_feedback","26.6667","70","out","","","","","","","","","","","","","","","","","","","","","","",""
"","","","","","canvas-keyboard-response","256","389401","0.0-12.0-4.48","2d_cat_multi_stim_exp1","2022-5-4","12:59:6","25","75","3","9","10","40","30","120","90","21","[""White""]","No","Male","1999796","null","null","","","","clear_screen","","","","","","","","","","","","","","","","","","","","","","","","","",""
"","","","","","canvas-keyboard-response","257","389910","0.0-12.0-0.49","2d_cat_multi_stim_exp1","2022-5-4","12:59:6","25","75","3","9","10","40","30","120","90","21","[""White""]","No","Male","1999796","null","null","","","","fixation","","","","","","","","","","","","","","","","","","","","","","","","","",""
"","","","","","canvas-keyboard-response","258","390419","0.0-12.0-1.49","2d_cat_multi_stim_exp1","2022-5-4","12:59:6","25","75","3","9","10","40","30","120","90","21","[""White""]","No","Male","1999796","null","null","","","","clear_screen","","","","","","","","","","","","","","","","","","","","","","","","","",""
"","","","","","canvas-keyboard-response","259","391373","0.0-12.0-2.49","2d_cat_multi_stim_exp1","2022-5-4","12:59:6","25","75","3","9","10","40","30","120","90","21","[""White""]","No","Male","1999796","944","u","learn","","","learn_trial","25","75","in","1","1","","","","","","","","","","","","","","","","","","","","",""
"","","","","","canvas-keyboard-response","260","391883","0.0-12.0-3.49","2d_cat_multi_stim_exp1","2022-5-4","12:59:6","25","75","3","9","10","40","30","120","90","21","[""White""]","No","Male","1999796","null","null","learn_feedback","","","learn_feedback","25","75","in","","","","","","","","","","","","","","","","","","","","","","",""
"","","","","","canvas-keyboard-response","261","391941","0.0-12.0-4.49","2d_cat_multi_stim_exp1","2022-5-4","12:59:6","25","75","3","9","10","40","30","120","90","21","[""White""]","No","Male","1999796","null","null","","","","clear_screen","","","","","","","","","","","","","","","","","","","","","","","","","",""
"","","","","","canvas-keyboard-response","262","392449","0.0-12.0-0.50","2d_cat_multi_stim_exp1","2022-5-4","12:59:6","25","75","3","9","10","40","30","120","90","21","[""White""]","No","Male","1999796","null","null","","","","fixation","","","","","","","","","","","","","","","","","","","","","","","","","",""
"","","","","","canvas-keyboard-response","263","392959","0.0-12.0-1.50","2d_cat_multi_stim_exp1","2022-5-4","12:59:6","25","75","3","9","10","40","30","120","90","21","[""White""]","No","Male","1999796","null","null","","","","clear_screen","","","","","","","","","","","","","","","","","","","","","","","","","",""
"","","","","","canvas-keyboard-response","264","393806","0.0-12.0-2.50","2d_cat_multi_stim_exp1","2022-5-4","12:59:6","25","75","3","9","10","40","30","120","90","21","[""White""]","No","Male","1999796","835","i","learn","","","learn_trial","20","50","out","0","1","","","","","","","","","","","","","","","","","","","","",""
"","","","","","canvas-keyboard-response","265","394314","0.0-12.0-3.50","2d_cat_multi_stim_exp1","2022-5-4","12:59:6","25","75","3","9","10","40","30","120","90","21","[""White""]","No","Male","1999796","null","null","learn_feedback","","","learn_feedback","20","50","out","","","","","","","","","","","","","","","","","","","","","","",""
"","","","","","canvas-keyboard-response","266","394373","0.0-12.0-4.50","2d_cat_multi_stim_exp1","2022-5-4","12:59:6","25","75","3","9","10","40","30","120","90","21","[""White""]","No","Male","1999796","null","null","","","","clear_screen","","","","","","","","","","","","","","","","","","","","","","","","","",""
"","","","","","canvas-keyboard-response","267","394881","0.0-12.0-0.51","2d_cat_multi_stim_exp1","2022-5-4","12:59:6","25","75","3","9","10","40","30","120","90","21","[""White""]","No","Male","1999796","null","null","","","","fixation","","","","","","","","","","","","","","","","","","","","","","","","","",""
"","","","","","canvas-keyboard-response","268","395390","0.0-12.0-1.51","2d_cat_multi_stim_exp1","2022-5-4","12:59:6","25","75","3","9","10","40","30","120","90","21","[""White""]","No","Male","1999796","null","null","","","","clear_screen","","","","","","","","","","","","","","","","","","","","","","","","","",""
"","","","","","canvas-keyboard-response","269","396166","0.0-12.0-2.51","2d_cat_multi_stim_exp1","2022-5-4","12:59:6","25","75","3","9","10","40","30","120","90","21","[""White""]","No","Male","1999796","767","i","learn","","","learn_trial","19","75","in","0","0","","","","","","","","","","","","","","","","","","","","",""
"","","","","","canvas-keyboard-response","270","397174","0.0-12.0-3.51","2d_cat_multi_stim_exp1","2022-5-4","12:59:6","25","75","3","9","10","40","30","120","90","21","[""White""]","No","Male","1999796","null","null","learn_feedback","","","learn_feedback","19","75","in","","","","","","","","","","","","","","","","","","","","","","",""
"","","","","","canvas-keyboard-response","271","397232","0.0-12.0-4.51","2d_cat_multi_stim_exp1","2022-5-4","12:59:6","25","75","3","9","10","40","30","120","90","21","[""White""]","No","Male","1999796","null","null","","","","clear_screen","","","","","","","","","","","","","","","","","","","","","","","","","",""
"","","","","","canvas-keyboard-response","272","397740","0.0-12.0-0.52","2d_cat_multi_stim_exp1","2022-5-4","12:59:6","25","75","3","9","10","40","30","120","90","21","[""White""]","No","Male","1999796","null","null","","","","fixation","","","","","","","","","","","","","","","","","","","","","","","","","",""
"","","","","","canvas-keyboard-response","273","398248","0.0-12.0-1.52","2d_cat_multi_stim_exp1","2022-5-4","12:59:6","25","75","3","9","10","40","30","120","90","21","[""White""]","No","Male","1999796","null","null","","","","clear_screen","","","","","","","","","","","","","","","","","","","","","","","","","",""
"","","","","","canvas-keyboard-response","274","399253","0.0-12.0-2.52","2d_cat_multi_stim_exp1","2022-5-4","12:59:6","25","75","3","9","10","40","30","120","90","21","[""White""]","No","Male","1999796","996","u","learn","","","learn_trial","25","75","in","1","1","","","","","","","","","","","","","","","","","","","","",""
"","","","","","canvas-keyboard-response","275","399761","0.0-12.0-3.52","2d_cat_multi_stim_exp1","2022-5-4","12:59:6","25","75","3","9","10","40","30","120","90","21","[""White""]","No","Male","1999796","null","null","learn_feedback","","","learn_feedback","25","75","in","","","","","","","","","","","","","","","","","","","","","","",""
"","","","","","canvas-keyboard-response","276","399819","0.0-12.0-4.52","2d_cat_multi_stim_exp1","2022-5-4","12:59:6","25","75","3","9","10","40","30","120","90","21","[""White""]","No","Male","1999796","null","null","","","","clear_screen","","","","","","","","","","","","","","","","","","","","","","","","","",""
"","","","","","canvas-keyboard-response","277","400327","0.0-12.0-0.53","2d_cat_multi_stim_exp1","2022-5-4","12:59:6","25","75","3","9","10","40","30","120","90","21","[""White""]","No","Male","1999796","null","null","","","","fixation","","","","","","","","","","","","","","","","","","","","","","","","","",""
"","","","","","canvas-keyboard-response","278","400836","0.0-12.0-1.53","2d_cat_multi_stim_exp1","2022-5-4","12:59:6","25","75","3","9","10","40","30","120","90","21","[""White""]","No","Male","1999796","null","null","","","","clear_screen","","","","","","","","","","","","","","","","","","","","","","","","","",""
"","","","","","canvas-keyboard-response","279","403077","0.0-12.0-2.53","2d_cat_multi_stim_exp1","2022-5-4","12:59:6","25","75","3","9","10","40","30","120","90","21","[""White""]","No","Male","1999796","2230","u","learn","","","learn_trial","23.3333","90","out","1","0","","","","","","","","","","","","","","","","","","","","",""
"","","","","","canvas-keyboard-response","280","404086","0.0-12.0-3.53","2d_cat_multi_stim_exp1","2022-5-4","12:59:6","25","75","3","9","10","40","30","120","90","21","[""White""]","No","Male","1999796","null","null","learn_feedback","","","learn_feedback","23.3333","90","out","","","","","","","","","","","","","","","","","","","","","","",""
"","","","","","canvas-keyboard-response","281","404145","0.0-12.0-4.53","2d_cat_multi_stim_exp1","2022-5-4","12:59:6","25","75","3","9","10","40","30","120","90","21","[""White""]","No","Male","1999796","null","null","","","","clear_screen","","","","","","","","","","","","","","","","","","","","","","","","","",""
"","","","","","canvas-keyboard-response","282","404653","0.0-12.0-0.54","2d_cat_multi_stim_exp1","2022-5-4","12:59:6","25","75","3","9","10","40","30","120","90","21","[""White""]","No","Male","1999796","null","null","","","","fixation","","","","","","","","","","","","","","","","","","","","","","","","","",""
"","","","","","canvas-keyboard-response","283","405162","0.0-12.0-1.54","2d_cat_multi_stim_exp1","2022-5-4","12:59:6","25","75","3","9","10","40","30","120","90","21","[""White""]","No","Male","1999796","null","null","","","","clear_screen","","","","","","","","","","","","","","","","","","","","","","","","","",""
"","","","","","canvas-keyboard-response","284","406222","0.0-12.0-2.54","2d_cat_multi_stim_exp1","2022-5-4","12:59:6","25","75","3","9","10","40","30","120","90","21","[""White""]","No","Male","1999796","1051","i","learn","","","learn_trial","23.3333","50","out","0","1","","","","","","","","","","","","","","","","","","","","",""
"","","","","","canvas-keyboard-response","285","406730","0.0-12.0-3.54","2d_cat_multi_stim_exp1","2022-5-4","12:59:6","25","75","3","9","10","40","30","120","90","21","[""White""]","No","Male","1999796","null","null","learn_feedback","","","learn_feedback","23.3333","50","out","","","","","","","","","","","","","","","","","","","","","","",""
"","","","","","canvas-keyboard-response","286","406789","0.0-12.0-4.54","2d_cat_multi_stim_exp1","2022-5-4","12:59:6","25","75","3","9","10","40","30","120","90","21","[""White""]","No","Male","1999796","null","null","","","","clear_screen","","","","","","","","","","","","","","","","","","","","","","","","","",""
"","","","","","canvas-keyboard-response","287","407297","0.0-12.0-0.55","2d_cat_multi_stim_exp1","2022-5-4","12:59:6","25","75","3","9","10","40","30","120","90","21","[""White""]","No","Male","1999796","null","null","","","","fixation","","","","","","","","","","","","","","","","","","","","","","","","","",""
"","","","","","canvas-keyboard-response","288","407805","0.0-12.0-1.55","2d_cat_multi_stim_exp1","2022-5-4","12:59:6","25","75","3","9","10","40","30","120","90","21","[""White""]","No","Male","1999796","null","null","","","","clear_screen","","","","","","","","","","","","","","","","","","","","","","","","","",""
"","","","","","canvas-keyboard-response","289","408797","0.0-12.0-2.55","2d_cat_multi_stim_exp1","2022-5-4","12:59:6","25","75","3","9","10","40","30","120","90","21","[""White""]","No","Male","1999796","982","u","learn","","","learn_trial","25","75","in","1","1","","","","","","","","","","","","","","","","","","","","",""
"","","","","","canvas-keyboard-response","290","409306","0.0-12.0-3.55","2d_cat_multi_stim_exp1","2022-5-4","12:59:6","25","75","3","9","10","40","30","120","90","21","[""White""]","No","Male","1999796","null","null","learn_feedback","","","learn_feedback","25","75","in","","","","","","","","","","","","","","","","","","","","","","",""
"","","","","","canvas-keyboard-response","291","409364","0.0-12.0-4.55","2d_cat_multi_stim_exp1","2022-5-4","12:59:6","25","75","3","9","10","40","30","120","90","21","[""White""]","No","Male","1999796","null","null","","","","clear_screen","","","","","","","","","","","","","","","","","","","","","","","","","",""
"","","","","","canvas-keyboard-response","292","409872","0.0-12.0-0.56","2d_cat_multi_stim_exp1","2022-5-4","12:59:6","25","75","3","9","10","40","30","120","90","21","[""White""]","No","Male","1999796","null","null","","","","fixation","","","","","","","","","","","","","","","","","","","","","","","","","",""
"","","","","","canvas-keyboard-response","293","410381","0.0-12.0-1.56","2d_cat_multi_stim_exp1","2022-5-4","12:59:6","25","75","3","9","10","40","30","120","90","21","[""White""]","No","Male","1999796","null","null","","","","clear_screen","","","","","","","","","","","","","","","","","","","","","","","","","",""
"","","","","","canvas-keyboard-response","294","411373","0.0-12.0-2.56","2d_cat_multi_stim_exp1","2022-5-4","12:59:6","25","75","3","9","10","40","30","120","90","21","[""White""]","No","Male","1999796","980","i","learn","","","learn_trial","33.3333","50","out","0","1","","","","","","","","","","","","","","","","","","","","",""
"","","","","","canvas-keyboard-response","295","411881","0.0-12.0-3.56","2d_cat_multi_stim_exp1","2022-5-4","12:59:6","25","75","3","9","10","40","30","120","90","21","[""White""]","No","Male","1999796","null","null","learn_feedback","","","learn_feedback","33.3333","50","out","","","","","","","","","","","","","","","","","","","","","","",""
"","","","","","canvas-keyboard-response","296","411940","0.0-12.0-4.56","2d_cat_multi_stim_exp1","2022-5-4","12:59:6","25","75","3","9","10","40","30","120","90","21","[""White""]","No","Male","1999796","null","null","","","","clear_screen","","","","","","","","","","","","","","","","","","","","","","","","","",""
"","","","","","canvas-keyboard-response","297","412448","0.0-12.0-0.57","2d_cat_multi_stim_exp1","2022-5-4","12:59:6","25","75","3","9","10","40","30","120","90","21","[""White""]","No","Male","1999796","null","null","","","","fixation","","","","","","","","","","","","","","","","","","","","","","","","","",""
"","","","","","canvas-keyboard-response","298","412957","0.0-12.0-1.57","2d_cat_multi_stim_exp1","2022-5-4","12:59:6","25","75","3","9","10","40","30","120","90","21","[""White""]","No","Male","1999796","null","null","","","","clear_screen","","","","","","","","","","","","","","","","","","","","","","","","","",""
"","","","","","canvas-keyboard-response","299","413374","0.0-12.0-2.57","2d_cat_multi_stim_exp1","2022-5-4","12:59:6","25","75","3","9","10","40","30","120","90","21","[""White""]","No","Male","1999796","408","i","learn","","","learn_trial","16.6667","120","out","0","1","","","","","","","","","","","","","","","","","","","","",""
