"success","timeout","failed_images","failed_audio","failed_video","trial_type","trial_index","time_elapsed","internal_node_id","exp_name","date","time","angle_mean_in","radius_mean_in","angle_sd_in","radius_sd_in","angle_min_out","angle_max_out","radius_min_out","radius_max_out","sub_n","age","race","ethnicity","gender","exp_duration","rt","response","exp_trial_type","stimulus","view_history","screen_id","angle","radius","distribution","choice","correct","order","angle_a","radius_a","angle_b","radius_b","jkl_correct","transfer_trial_type","choice_set","abc_correct","tc_correct","tc_angle","tdc_a","tdc_b","tdc_c","pair","category_a","category_b","category_c","angle_c","radius_c","question_order"
"true","false","[]","[]","[]","preload","0","37","0.0-0.0","2d_cat_multi_stim_exp1","2022-5-3","9:9:1","25","75","3","9","10","40","30","120","81","19","[""Asian""]","No","Male","2070072","","","","","","","","","","","","","","","","","","","","","","","","","","","","","","","",""
"","","","","","survey-html-form","1","3559","0.0-1.0","2d_cat_multi_stim_exp1","2022-5-3","9:9:1","25","75","3","9","10","40","30","120","81","19","[""Asian""]","No","Male","2070072","3495","{""response"":""81""}","enter-sub-number","","","","","","","","","","","","","","","","","","","","","","","","","","","","",""
"true","","","","","fullscreen","2","5226","0.0-2.0","2d_cat_multi_stim_exp1","2022-5-3","9:9:1","25","75","3","9","10","40","30","120","81","19","[""Asian""]","No","Male","2070072","","","","","","","","","","","","","","","","","","","","","","","","","","","","","","","",""
"","","","","","image-button-response","3","39002","0.0-3.0","2d_cat_multi_stim_exp1","2022-5-3","9:9:1","25","75","3","9","10","40","30","120","81","19","[""Asian""]","No","Male","2070072","33769","0","","consent.png","","","","","","","","","","","","","","","","","","","","","","","","","","","",""
"","","","","","html-button-response","4","47505","0.0-4.0","2d_cat_multi_stim_exp1","2022-5-3","9:9:1","25","75","3","9","10","40","30","120","81","19","[""Asian""]","No","Male","2070072","8498","0","","<div style= ""font-size:25px;"" <p> <strong> Welcome to the experiment! </strong><br> <p style=""color:#8B0000; font-size:25px;""><strong> Please do NOT exit full screen until you are done with the experiment. </strong> </p><p style=""font-size:25px;color:#8B0000;""> <strong> The experiment will be canceled and your data will be lost <br> if you try to go back or refresh the page at any point during the experiment.</strong> </p><br><p> <strong> Thanks in advance for your contribution to our research! </strong></p>","","","","","","","","","","","","","","","","","","","","","","","","","","","",""
"","","","","","instructions","5","106553","0.0-5.0","2d_cat_multi_stim_exp1","2022-5-3","9:9:1","25","75","3","9","10","40","30","120","81","19","[""Asian""]","No","Male","2070072","59043","","","","[{""page_index"":0,""viewing_time"":11021},{""page_index"":1,""viewing_time"":6342},{""page_index"":2,""viewing_time"":15665},{""page_index"":3,""viewing_time"":26015}]","instructions_1","","","","","","","","","","","","","","","","","","","","","","","","","",""
"","","","","","instructions","6","109032","0.0-6.0","2d_cat_multi_stim_exp1","2022-5-3","9:9:1","25","75","3","9","10","40","30","120","81","19","[""Asian""]","No","Male","2070072","2476","","","","[{""page_index"":0,""viewing_time"":2476}]","Click to see the kinds of turtles that will appear in the study.","","","","","","","","","","","","","","","","","","","","","","","","","",""
"","","","","","canvas-keyboard-response","7","124055","0.0-7.0","2d_cat_multi_stim_exp1","2022-5-3","9:9:1","25","75","3","9","10","40","30","120","81","19","[""Asian""]","No","Male","2070072","null","null","","","","demo_range","","","","","","","","","","","","","","","","","","","","","","","","","",""
"","","","","","instructions","8","126456","0.0-8.0","2d_cat_multi_stim_exp1","2022-5-3","9:9:1","25","75","3","9","10","40","30","120","81","19","[""Asian""]","No","Male","2070072","1899","","","","[{""page_index"":0,""viewing_time"":1899}]","Click to see some turtles in the subspecies.","","","","","","","","","","","","","","","","","","","","","","","","","",""
"","","","","","canvas-keyboard-response","9","141475","0.0-9.0","2d_cat_multi_stim_exp1","2022-5-3","9:9:1","25","75","3","9","10","40","30","120","81","19","[""Asian""]","No","Male","2070072","null","null","","","","demo_in","","","","","","","","","","","","","","","","","","","","","","","","","",""
"","","","","","instructions","10","192712","0.0-10.0","2d_cat_multi_stim_exp1","2022-5-3","9:9:1","25","75","3","9","10","40","30","120","81","19","[""Asian""]","No","Male","2070072","50734","","","","[{""page_index"":0,""viewing_time"":9542},{""page_index"":1,""viewing_time"":36353},{""page_index"":2,""viewing_time"":4838}]","instructions_2","","","","","","","","","","","","","","","","","","","","","","","","","",""
"","","","","","instructions","11","193967","0.0-11.0","2d_cat_multi_stim_exp1","2022-5-3","9:9:1","25","75","3","9","10","40","30","120","81","19","[""Asian""]","No","Male","2070072","1254","","","","[{""page_index"":0,""viewing_time"":1254}]","Click to begin the first phase of the experiment.","","","","","","","","","","","","","","","","","","","","","","","","","",""
"","","","","","canvas-keyboard-response","12","194477","0.0-12.0-0.0","2d_cat_multi_stim_exp1","2022-5-3","9:9:1","25","75","3","9","10","40","30","120","81","19","[""Asian""]","No","Male","2070072","null","null","","","","fixation","","","","","","","","","","","","","","","","","","","","","","","","","",""
"","","","","","canvas-keyboard-response","13","194986","0.0-12.0-1.0","2d_cat_multi_stim_exp1","2022-5-3","9:9:1","25","75","3","9","10","40","30","120","81","19","[""Asian""]","No","Male","2070072","null","null","","","","clear_screen","","","","","","","","","","","","","","","","","","","","","","","","","",""
"","","","","","canvas-keyboard-response","14","199256","0.0-12.0-2.0","2d_cat_multi_stim_exp1","2022-5-3","9:9:1","25","75","3","9","10","40","30","120","81","19","[""Asian""]","No","Male","2070072","4259","u","learn","","","learn_trial","22.5729","69.7099","in","1","1","","","","","","","","","","","","","","","","","","","","",""
"","","","","","canvas-keyboard-response","15","199774","0.0-12.0-3.0","2d_cat_multi_stim_exp1","2022-5-3","9:9:1","25","75","3","9","10","40","30","120","81","19","[""Asian""]","No","Male","2070072","null","null","learn_feedback","","","learn_feedback","22.5729","69.7099","in","","","","","","","","","","","","","","","","","","","","","","",""
"","","","","","canvas-keyboard-response","16","199832","0.0-12.0-4.0","2d_cat_multi_stim_exp1","2022-5-3","9:9:1","25","75","3","9","10","40","30","120","81","19","[""Asian""]","No","Male","2070072","null","null","","","","clear_screen","","","","","","","","","","","","","","","","","","","","","","","","","",""
"","","","","","canvas-keyboard-response","17","200340","0.0-12.0-0.1","2d_cat_multi_stim_exp1","2022-5-3","9:9:1","25","75","3","9","10","40","30","120","81","19","[""Asian""]","No","Male","2070072","null","null","","","","fixation","","","","","","","","","","","","","","","","","","","","","","","","","",""
"","","","","","canvas-keyboard-response","18","200850","0.0-12.0-1.1","2d_cat_multi_stim_exp1","2022-5-3","9:9:1","25","75","3","9","10","40","30","120","81","19","[""Asian""]","No","Male","2070072","null","null","","","","clear_screen","","","","","","","","","","","","","","","","","","","","","","","","","",""
"","","","","","canvas-keyboard-response","19","201928","0.0-12.0-2.1","2d_cat_multi_stim_exp1","2022-5-3","9:9:1","25","75","3","9","10","40","30","120","81","19","[""Asian""]","No","Male","2070072","1069","u","learn","","","learn_trial","22.0121","75.8068","in","1","1","","","","","","","","","","","","","","","","","","","","",""
"","","","","","canvas-keyboard-response","20","202438","0.0-12.0-3.1","2d_cat_multi_stim_exp1","2022-5-3","9:9:1","25","75","3","9","10","40","30","120","81","19","[""Asian""]","No","Male","2070072","null","null","learn_feedback","","","learn_feedback","22.0121","75.8068","in","","","","","","","","","","","","","","","","","","","","","","",""
"","","","","","canvas-keyboard-response","21","202496","0.0-12.0-4.1","2d_cat_multi_stim_exp1","2022-5-3","9:9:1","25","75","3","9","10","40","30","120","81","19","[""Asian""]","No","Male","2070072","null","null","","","","clear_screen","","","","","","","","","","","","","","","","","","","","","","","","","",""
"","","","","","canvas-keyboard-response","22","203004","0.0-12.0-0.2","2d_cat_multi_stim_exp1","2022-5-3","9:9:1","25","75","3","9","10","40","30","120","81","19","[""Asian""]","No","Male","2070072","null","null","","","","fixation","","","","","","","","","","","","","","","","","","","","","","","","","",""
"","","","","","canvas-keyboard-response","23","203513","0.0-12.0-1.2","2d_cat_multi_stim_exp1","2022-5-3","9:9:1","25","75","3","9","10","40","30","120","81","19","[""Asian""]","No","Male","2070072","null","null","","","","clear_screen","","","","","","","","","","","","","","","","","","","","","","","","","",""
"","","","","","canvas-keyboard-response","24","204393","0.0-12.0-2.2","2d_cat_multi_stim_exp1","2022-5-3","9:9:1","25","75","3","9","10","40","30","120","81","19","[""Asian""]","No","Male","2070072","870","i","learn","","","learn_trial","10","100","out","0","1","","","","","","","","","","","","","","","","","","","","",""
"","","","","","canvas-keyboard-response","25","204902","0.0-12.0-3.2","2d_cat_multi_stim_exp1","2022-5-3","9:9:1","25","75","3","9","10","40","30","120","81","19","[""Asian""]","No","Male","2070072","null","null","learn_feedback","","","learn_feedback","10","100","out","","","","","","","","","","","","","","","","","","","","","","",""
"","","","","","canvas-keyboard-response","26","204960","0.0-12.0-4.2","2d_cat_multi_stim_exp1","2022-5-3","9:9:1","25","75","3","9","10","40","30","120","81","19","[""Asian""]","No","Male","2070072","null","null","","","","clear_screen","","","","","","","","","","","","","","","","","","","","","","","","","",""
"","","","","","canvas-keyboard-response","27","205469","0.0-12.0-0.3","2d_cat_multi_stim_exp1","2022-5-3","9:9:1","25","75","3","9","10","40","30","120","81","19","[""Asian""]","No","Male","2070072","null","null","","","","fixation","","","","","","","","","","","","","","","","","","","","","","","","","",""
"","","","","","canvas-keyboard-response","28","205977","0.0-12.0-1.3","2d_cat_multi_stim_exp1","2022-5-3","9:9:1","25","75","3","9","10","40","30","120","81","19","[""Asian""]","No","Male","2070072","null","null","","","","clear_screen","","","","","","","","","","","","","","","","","","","","","","","","","",""
"","","","","","canvas-keyboard-response","29","207096","0.0-12.0-2.3","2d_cat_multi_stim_exp1","2022-5-3","9:9:1","25","75","3","9","10","40","30","120","81","19","[""Asian""]","No","Male","2070072","1110","u","learn","","","learn_trial","31","75","in","1","1","","","","","","","","","","","","","","","","","","","","",""
"","","","","","canvas-keyboard-response","30","207606","0.0-12.0-3.3","2d_cat_multi_stim_exp1","2022-5-3","9:9:1","25","75","3","9","10","40","30","120","81","19","[""Asian""]","No","Male","2070072","null","null","learn_feedback","","","learn_feedback","31","75","in","","","","","","","","","","","","","","","","","","","","","","",""
"","","","","","canvas-keyboard-response","31","207667","0.0-12.0-4.3","2d_cat_multi_stim_exp1","2022-5-3","9:9:1","25","75","3","9","10","40","30","120","81","19","[""Asian""]","No","Male","2070072","null","null","","","","clear_screen","","","","","","","","","","","","","","","","","","","","","","","","","",""
"","","","","","canvas-keyboard-response","32","208176","0.0-12.0-0.4","2d_cat_multi_stim_exp1","2022-5-3","9:9:1","25","75","3","9","10","40","30","120","81","19","[""Asian""]","No","Male","2070072","null","null","","","","fixation","","","","","","","","","","","","","","","","","","","","","","","","","",""
"","","","","","canvas-keyboard-response","33","208685","0.0-12.0-1.4","2d_cat_multi_stim_exp1","2022-5-3","9:9:1","25","75","3","9","10","40","30","120","81","19","[""Asian""]","No","Male","2070072","null","null","","","","clear_screen","","","","","","","","","","","","","","","","","","","","","","","","","",""
"","","","","","canvas-keyboard-response","34","209488","0.0-12.0-2.4","2d_cat_multi_stim_exp1","2022-5-3","9:9:1","25","75","3","9","10","40","30","120","81","19","[""Asian""]","No","Male","2070072","791","u","learn","","","learn_trial","20","70","out","1","0","","","","","","","","","","","","","","","","","","","","",""
"","","","","","canvas-keyboard-response","35","210498","0.0-12.0-3.4","2d_cat_multi_stim_exp1","2022-5-3","9:9:1","25","75","3","9","10","40","30","120","81","19","[""Asian""]","No","Male","2070072","null","null","learn_feedback","","","learn_feedback","20","70","out","","","","","","","","","","","","","","","","","","","","","","",""
"","","","","","canvas-keyboard-response","36","210556","0.0-12.0-4.4","2d_cat_multi_stim_exp1","2022-5-3","9:9:1","25","75","3","9","10","40","30","120","81","19","[""Asian""]","No","Male","2070072","null","null","","","","clear_screen","","","","","","","","","","","","","","","","","","","","","","","","","",""
"","","","","","canvas-keyboard-response","37","211065","0.0-12.0-0.5","2d_cat_multi_stim_exp1","2022-5-3","9:9:1","25","75","3","9","10","40","30","120","81","19","[""Asian""]","No","Male","2070072","null","null","","","","fixation","","","","","","","","","","","","","","","","","","","","","","","","","",""
"","","","","","canvas-keyboard-response","38","211574","0.0-12.0-1.5","2d_cat_multi_stim_exp1","2022-5-3","9:9:1","25","75","3","9","10","40","30","120","81","19","[""Asian""]","No","Male","2070072","null","null","","","","clear_screen","","","","","","","","","","","","","","","","","","","","","","","","","",""
"","","","","","canvas-keyboard-response","39","212752","0.0-12.0-2.5","2d_cat_multi_stim_exp1","2022-5-3","9:9:1","25","75","3","9","10","40","30","120","81","19","[""Asian""]","No","Male","2070072","1170","u","learn","","","learn_trial","24.8654","83.9909","in","1","1","","","","","","","","","","","","","","","","","","","","",""
"","","","","","canvas-keyboard-response","40","213264","0.0-12.0-3.5","2d_cat_multi_stim_exp1","2022-5-3","9:9:1","25","75","3","9","10","40","30","120","81","19","[""Asian""]","No","Male","2070072","null","null","learn_feedback","","","learn_feedback","24.8654","83.9909","in","","","","","","","","","","","","","","","","","","","","","","",""
"","","","","","canvas-keyboard-response","41","213323","0.0-12.0-4.5","2d_cat_multi_stim_exp1","2022-5-3","9:9:1","25","75","3","9","10","40","30","120","81","19","[""Asian""]","No","Male","2070072","null","null","","","","clear_screen","","","","","","","","","","","","","","","","","","","","","","","","","",""
"","","","","","canvas-keyboard-response","42","213832","0.0-12.0-0.6","2d_cat_multi_stim_exp1","2022-5-3","9:9:1","25","75","3","9","10","40","30","120","81","19","[""Asian""]","No","Male","2070072","null","null","","","","fixation","","","","","","","","","","","","","","","","","","","","","","","","","",""
"","","","","","canvas-keyboard-response","43","214341","0.0-12.0-1.6","2d_cat_multi_stim_exp1","2022-5-3","9:9:1","25","75","3","9","10","40","30","120","81","19","[""Asian""]","No","Male","2070072","null","null","","","","clear_screen","","","","","","","","","","","","","","","","","","","","","","","","","",""
"","","","","","canvas-keyboard-response","44","214936","0.0-12.0-2.6","2d_cat_multi_stim_exp1","2022-5-3","9:9:1","25","75","3","9","10","40","30","120","81","19","[""Asian""]","No","Male","2070072","586","i","learn","","","learn_trial","33.3333","40","out","0","1","","","","","","","","","","","","","","","","","","","","",""
"","","","","","canvas-keyboard-response","45","215445","0.0-12.0-3.6","2d_cat_multi_stim_exp1","2022-5-3","9:9:1","25","75","3","9","10","40","30","120","81","19","[""Asian""]","No","Male","2070072","null","null","learn_feedback","","","learn_feedback","33.3333","40","out","","","","","","","","","","","","","","","","","","","","","","",""
"","","","","","canvas-keyboard-response","46","215504","0.0-12.0-4.6","2d_cat_multi_stim_exp1","2022-5-3","9:9:1","25","75","3","9","10","40","30","120","81","19","[""Asian""]","No","Male","2070072","null","null","","","","clear_screen","","","","","","","","","","","","","","","","","","","","","","","","","",""
"","","","","","canvas-keyboard-response","47","216015","0.0-12.0-0.7","2d_cat_multi_stim_exp1","2022-5-3","9:9:1","25","75","3","9","10","40","30","120","81","19","[""Asian""]","No","Male","2070072","null","null","","","","fixation","","","","","","","","","","","","","","","","","","","","","","","","","",""
"","","","","","canvas-keyboard-response","48","216524","0.0-12.0-1.7","2d_cat_multi_stim_exp1","2022-5-3","9:9:1","25","75","3","9","10","40","30","120","81","19","[""Asian""]","No","Male","2070072","null","null","","","","clear_screen","","","","","","","","","","","","","","","","","","","","","","","","","",""
"","","","","","canvas-keyboard-response","49","217976","0.0-12.0-2.7","2d_cat_multi_stim_exp1","2022-5-3","9:9:1","25","75","3","9","10","40","30","120","81","19","[""Asian""]","No","Male","2070072","1445","u","learn","","","learn_trial","26.6667","120","out","1","0","","","","","","","","","","","","","","","","","","","","",""
"","","","","","canvas-keyboard-response","50","218986","0.0-12.0-3.7","2d_cat_multi_stim_exp1","2022-5-3","9:9:1","25","75","3","9","10","40","30","120","81","19","[""Asian""]","No","Male","2070072","null","null","learn_feedback","","","learn_feedback","26.6667","120","out","","","","","","","","","","","","","","","","","","","","","","",""
"","","","","","canvas-keyboard-response","51","219044","0.0-12.0-4.7","2d_cat_multi_stim_exp1","2022-5-3","9:9:1","25","75","3","9","10","40","30","120","81","19","[""Asian""]","No","Male","2070072","null","null","","","","clear_screen","","","","","","","","","","","","","","","","","","","","","","","","","",""
"","","","","","canvas-keyboard-response","52","219551","0.0-12.0-0.8","2d_cat_multi_stim_exp1","2022-5-3","9:9:1","25","75","3","9","10","40","30","120","81","19","[""Asian""]","No","Male","2070072","null","null","","","","fixation","","","","","","","","","","","","","","","","","","","","","","","","","",""
"","","","","","canvas-keyboard-response","53","220060","0.0-12.0-1.8","2d_cat_multi_stim_exp1","2022-5-3","9:9:1","25","75","3","9","10","40","30","120","81","19","[""Asian""]","No","Male","2070072","null","null","","","","clear_screen","","","","","","","","","","","","","","","","","","","","","","","","","",""
"","","","","","canvas-keyboard-response","54","221736","0.0-12.0-2.8","2d_cat_multi_stim_exp1","2022-5-3","9:9:1","25","75","3","9","10","40","30","120","81","19","[""Asian""]","No","Male","2070072","1668","i","learn","","","learn_trial","30","60","out","0","1","","","","","","","","","","","","","","","","","","","","",""
"","","","","","canvas-keyboard-response","55","222245","0.0-12.0-3.8","2d_cat_multi_stim_exp1","2022-5-3","9:9:1","25","75","3","9","10","40","30","120","81","19","[""Asian""]","No","Male","2070072","null","null","learn_feedback","","","learn_feedback","30","60","out","","","","","","","","","","","","","","","","","","","","","","",""
"","","","","","canvas-keyboard-response","56","222303","0.0-12.0-4.8","2d_cat_multi_stim_exp1","2022-5-3","9:9:1","25","75","3","9","10","40","30","120","81","19","[""Asian""]","No","Male","2070072","null","null","","","","clear_screen","","","","","","","","","","","","","","","","","","","","","","","","","",""
"","","","","","canvas-keyboard-response","57","222811","0.0-12.0-0.9","2d_cat_multi_stim_exp1","2022-5-3","9:9:1","25","75","3","9","10","40","30","120","81","19","[""Asian""]","No","Male","2070072","null","null","","","","fixation","","","","","","","","","","","","","","","","","","","","","","","","","",""
"","","","","","canvas-keyboard-response","58","223319","0.0-12.0-1.9","2d_cat_multi_stim_exp1","2022-5-3","9:9:1","25","75","3","9","10","40","30","120","81","19","[""Asian""]","No","Male","2070072","null","null","","","","clear_screen","","","","","","","","","","","","","","","","","","","","","","","","","",""
"","","","","","canvas-keyboard-response","59","224175","0.0-12.0-2.9","2d_cat_multi_stim_exp1","2022-5-3","9:9:1","25","75","3","9","10","40","30","120","81","19","[""Asian""]","No","Male","2070072","847","i","learn","","","learn_trial","10","110","out","0","1","","","","","","","","","","","","","","","","","","","","",""
"","","","","","canvas-keyboard-response","60","224685","0.0-12.0-3.9","2d_cat_multi_stim_exp1","2022-5-3","9:9:1","25","75","3","9","10","40","30","120","81","19","[""Asian""]","No","Male","2070072","null","null","learn_feedback","","","learn_feedback","10","110","out","","","","","","","","","","","","","","","","","","","","","","",""
"","","","","","canvas-keyboard-response","61","224742","0.0-12.0-4.9","2d_cat_multi_stim_exp1","2022-5-3","9:9:1","25","75","3","9","10","40","30","120","81","19","[""Asian""]","No","Male","2070072","null","null","","","","clear_screen","","","","","","","","","","","","","","","","","","","","","","","","","",""
"","","","","","canvas-keyboard-response","62","225250","0.0-12.0-0.10","2d_cat_multi_stim_exp1","2022-5-3","9:9:1","25","75","3","9","10","40","30","120","81","19","[""Asian""]","No","Male","2070072","null","null","","","","fixation","","","","","","","","","","","","","","","","","","","","","","","","","",""
"","","","","","canvas-keyboard-response","63","225759","0.0-12.0-1.10","2d_cat_multi_stim_exp1","2022-5-3","9:9:1","25","75","3","9","10","40","30","120","81","19","[""Asian""]","No","Male","2070072","null","null","","","","clear_screen","","","","","","","","","","","","","","","","","","","","","","","","","",""
"","","","","","canvas-keyboard-response","64","226297","0.0-12.0-2.10","2d_cat_multi_stim_exp1","2022-5-3","9:9:1","25","75","3","9","10","40","30","120","81","19","[""Asian""]","No","Male","2070072","528","u","learn","","","learn_trial","30","70","out","1","0","","","","","","","","","","","","","","","","","","","","",""
"","","","","","canvas-keyboard-response","65","227306","0.0-12.0-3.10","2d_cat_multi_stim_exp1","2022-5-3","9:9:1","25","75","3","9","10","40","30","120","81","19","[""Asian""]","No","Male","2070072","null","null","learn_feedback","","","learn_feedback","30","70","out","","","","","","","","","","","","","","","","","","","","","","",""
"","","","","","canvas-keyboard-response","66","227364","0.0-12.0-4.10","2d_cat_multi_stim_exp1","2022-5-3","9:9:1","25","75","3","9","10","40","30","120","81","19","[""Asian""]","No","Male","2070072","null","null","","","","clear_screen","","","","","","","","","","","","","","","","","","","","","","","","","",""
"","","","","","canvas-keyboard-response","67","227871","0.0-12.0-0.11","2d_cat_multi_stim_exp1","2022-5-3","9:9:1","25","75","3","9","10","40","30","120","81","19","[""Asian""]","No","Male","2070072","null","null","","","","fixation","","","","","","","","","","","","","","","","","","","","","","","","","",""
"","","","","","canvas-keyboard-response","68","228380","0.0-12.0-1.11","2d_cat_multi_stim_exp1","2022-5-3","9:9:1","25","75","3","9","10","40","30","120","81","19","[""Asian""]","No","Male","2070072","null","null","","","","clear_screen","","","","","","","","","","","","","","","","","","","","","","","","","",""
"","","","","","canvas-keyboard-response","69","229592","0.0-12.0-2.11","2d_cat_multi_stim_exp1","2022-5-3","9:9:1","25","75","3","9","10","40","30","120","81","19","[""Asian""]","No","Male","2070072","1202","u","learn","","","learn_trial","29.2426","87.7279","in","1","1","","","","","","","","","","","","","","","","","","","","",""
"","","","","","canvas-keyboard-response","70","230101","0.0-12.0-3.11","2d_cat_multi_stim_exp1","2022-5-3","9:9:1","25","75","3","9","10","40","30","120","81","19","[""Asian""]","No","Male","2070072","null","null","learn_feedback","","","learn_feedback","29.2426","87.7279","in","","","","","","","","","","","","","","","","","","","","","","",""
"","","","","","canvas-keyboard-response","71","230158","0.0-12.0-4.11","2d_cat_multi_stim_exp1","2022-5-3","9:9:1","25","75","3","9","10","40","30","120","81","19","[""Asian""]","No","Male","2070072","null","null","","","","clear_screen","","","","","","","","","","","","","","","","","","","","","","","","","",""
"","","","","","canvas-keyboard-response","72","230667","0.0-12.0-0.12","2d_cat_multi_stim_exp1","2022-5-3","9:9:1","25","75","3","9","10","40","30","120","81","19","[""Asian""]","No","Male","2070072","null","null","","","","fixation","","","","","","","","","","","","","","","","","","","","","","","","","",""
"","","","","","canvas-keyboard-response","73","231175","0.0-12.0-1.12","2d_cat_multi_stim_exp1","2022-5-3","9:9:1","25","75","3","9","10","40","30","120","81","19","[""Asian""]","No","Male","2070072","null","null","","","","clear_screen","","","","","","","","","","","","","","","","","","","","","","","","","",""
"","","","","","canvas-keyboard-response","74","232759","0.0-12.0-2.12","2d_cat_multi_stim_exp1","2022-5-3","9:9:1","25","75","3","9","10","40","30","120","81","19","[""Asian""]","No","Male","2070072","1576","i","learn","","","learn_trial","13.3333","120","out","0","1","","","","","","","","","","","","","","","","","","","","",""
"","","","","","canvas-keyboard-response","75","233268","0.0-12.0-3.12","2d_cat_multi_stim_exp1","2022-5-3","9:9:1","25","75","3","9","10","40","30","120","81","19","[""Asian""]","No","Male","2070072","null","null","learn_feedback","","","learn_feedback","13.3333","120","out","","","","","","","","","","","","","","","","","","","","","","",""
"","","","","","canvas-keyboard-response","76","233325","0.0-12.0-4.12","2d_cat_multi_stim_exp1","2022-5-3","9:9:1","25","75","3","9","10","40","30","120","81","19","[""Asian""]","No","Male","2070072","null","null","","","","clear_screen","","","","","","","","","","","","","","","","","","","","","","","","","",""
"","","","","","canvas-keyboard-response","77","233834","0.0-12.0-0.13","2d_cat_multi_stim_exp1","2022-5-3","9:9:1","25","75","3","9","10","40","30","120","81","19","[""Asian""]","No","Male","2070072","null","null","","","","fixation","","","","","","","","","","","","","","","","","","","","","","","","","",""
"","","","","","canvas-keyboard-response","78","234345","0.0-12.0-1.13","2d_cat_multi_stim_exp1","2022-5-3","9:9:1","25","75","3","9","10","40","30","120","81","19","[""Asian""]","No","Male","2070072","null","null","","","","clear_screen","","","","","","","","","","","","","","","","","","","","","","","","","",""
"","","","","","canvas-keyboard-response","79","235056","0.0-12.0-2.13","2d_cat_multi_stim_exp1","2022-5-3","9:9:1","25","75","3","9","10","40","30","120","81","19","[""Asian""]","No","Male","2070072","704","i","learn","","","learn_trial","13.3333","60","out","0","1","","","","","","","","","","","","","","","","","","","","",""
"","","","","","canvas-keyboard-response","80","235564","0.0-12.0-3.13","2d_cat_multi_stim_exp1","2022-5-3","9:9:1","25","75","3","9","10","40","30","120","81","19","[""Asian""]","No","Male","2070072","null","null","learn_feedback","","","learn_feedback","13.3333","60","out","","","","","","","","","","","","","","","","","","","","","","",""
"","","","","","canvas-keyboard-response","81","235622","0.0-12.0-4.13","2d_cat_multi_stim_exp1","2022-5-3","9:9:1","25","75","3","9","10","40","30","120","81","19","[""Asian""]","No","Male","2070072","null","null","","","","clear_screen","","","","","","","","","","","","","","","","","","","","","","","","","",""
"","","","","","canvas-keyboard-response","82","236130","0.0-12.0-0.14","2d_cat_multi_stim_exp1","2022-5-3","9:9:1","25","75","3","9","10","40","30","120","81","19","[""Asian""]","No","Male","2070072","null","null","","","","fixation","","","","","","","","","","","","","","","","","","","","","","","","","",""
"","","","","","canvas-keyboard-response","83","236638","0.0-12.0-1.14","2d_cat_multi_stim_exp1","2022-5-3","9:9:1","25","75","3","9","10","40","30","120","81","19","[""Asian""]","No","Male","2070072","null","null","","","","clear_screen","","","","","","","","","","","","","","","","","","","","","","","","","",""
"","","","","","canvas-keyboard-response","84","237144","0.0-12.0-2.14","2d_cat_multi_stim_exp1","2022-5-3","9:9:1","25","75","3","9","10","40","30","120","81","19","[""Asian""]","No","Male","2070072","497","i","learn","","","learn_trial","10","80","out","0","1","","","","","","","","","","","","","","","","","","","","",""
"","","","","","canvas-keyboard-response","85","237652","0.0-12.0-3.14","2d_cat_multi_stim_exp1","2022-5-3","9:9:1","25","75","3","9","10","40","30","120","81","19","[""Asian""]","No","Male","2070072","null","null","learn_feedback","","","learn_feedback","10","80","out","","","","","","","","","","","","","","","","","","","","","","",""
"","","","","","canvas-keyboard-response","86","237710","0.0-12.0-4.14","2d_cat_multi_stim_exp1","2022-5-3","9:9:1","25","75","3","9","10","40","30","120","81","19","[""Asian""]","No","Male","2070072","null","null","","","","clear_screen","","","","","","","","","","","","","","","","","","","","","","","","","",""
"","","","","","canvas-keyboard-response","87","238219","0.0-12.0-0.15","2d_cat_multi_stim_exp1","2022-5-3","9:9:1","25","75","3","9","10","40","30","120","81","19","[""Asian""]","No","Male","2070072","null","null","","","","fixation","","","","","","","","","","","","","","","","","","","","","","","","","",""
"","","","","","canvas-keyboard-response","88","238727","0.0-12.0-1.15","2d_cat_multi_stim_exp1","2022-5-3","9:9:1","25","75","3","9","10","40","30","120","81","19","[""Asian""]","No","Male","2070072","null","null","","","","clear_screen","","","","","","","","","","","","","","","","","","","","","","","","","",""
"","","","","","canvas-keyboard-response","89","239527","0.0-12.0-2.15","2d_cat_multi_stim_exp1","2022-5-3","9:9:1","25","75","3","9","10","40","30","120","81","19","[""Asian""]","No","Male","2070072","792","u","learn","","","learn_trial","25","75","in","1","1","","","","","","","","","","","","","","","","","","","","",""
"","","","","","canvas-keyboard-response","90","240036","0.0-12.0-3.15","2d_cat_multi_stim_exp1","2022-5-3","9:9:1","25","75","3","9","10","40","30","120","81","19","[""Asian""]","No","Male","2070072","null","null","learn_feedback","","","learn_feedback","25","75","in","","","","","","","","","","","","","","","","","","","","","","",""
"","","","","","canvas-keyboard-response","91","240094","0.0-12.0-4.15","2d_cat_multi_stim_exp1","2022-5-3","9:9:1","25","75","3","9","10","40","30","120","81","19","[""Asian""]","No","Male","2070072","null","null","","","","clear_screen","","","","","","","","","","","","","","","","","","","","","","","","","",""
"","","","","","canvas-keyboard-response","92","240601","0.0-12.0-0.16","2d_cat_multi_stim_exp1","2022-5-3","9:9:1","25","75","3","9","10","40","30","120","81","19","[""Asian""]","No","Male","2070072","null","null","","","","fixation","","","","","","","","","","","","","","","","","","","","","","","","","",""
"","","","","","canvas-keyboard-response","93","241110","0.0-12.0-1.16","2d_cat_multi_stim_exp1","2022-5-3","9:9:1","25","75","3","9","10","40","30","120","81","19","[""Asian""]","No","Male","2070072","null","null","","","","clear_screen","","","","","","","","","","","","","","","","","","","","","","","","","",""
"","","","","","canvas-keyboard-response","94","242464","0.0-12.0-2.16","2d_cat_multi_stim_exp1","2022-5-3","9:9:1","25","75","3","9","10","40","30","120","81","19","[""Asian""]","No","Male","2070072","1341","u","learn","","","learn_trial","25","75","in","1","1","","","","","","","","","","","","","","","","","","","","",""
"","","","","","canvas-keyboard-response","95","242973","0.0-12.0-3.16","2d_cat_multi_stim_exp1","2022-5-3","9:9:1","25","75","3","9","10","40","30","120","81","19","[""Asian""]","No","Male","2070072","null","null","learn_feedback","","","learn_feedback","25","75","in","","","","","","","","","","","","","","","","","","","","","","",""
"","","","","","canvas-keyboard-response","96","243031","0.0-12.0-4.16","2d_cat_multi_stim_exp1","2022-5-3","9:9:1","25","75","3","9","10","40","30","120","81","19","[""Asian""]","No","Male","2070072","null","null","","","","clear_screen","","","","","","","","","","","","","","","","","","","","","","","","","",""
"","","","","","canvas-keyboard-response","97","243540","0.0-12.0-0.17","2d_cat_multi_stim_exp1","2022-5-3","9:9:1","25","75","3","9","10","40","30","120","81","19","[""Asian""]","No","Male","2070072","null","null","","","","fixation","","","","","","","","","","","","","","","","","","","","","","","","","",""
"","","","","","canvas-keyboard-response","98","244048","0.0-12.0-1.17","2d_cat_multi_stim_exp1","2022-5-3","9:9:1","25","75","3","9","10","40","30","120","81","19","[""Asian""]","No","Male","2070072","null","null","","","","clear_screen","","","","","","","","","","","","","","","","","","","","","","","","","",""
"","","","","","canvas-keyboard-response","99","244880","0.0-12.0-2.17","2d_cat_multi_stim_exp1","2022-5-3","9:9:1","25","75","3","9","10","40","30","120","81","19","[""Asian""]","No","Male","2070072","823","u","learn","","","learn_trial","23.8209","66.7243","in","1","1","","","","","","","","","","","","","","","","","","","","",""
"","","","","","canvas-keyboard-response","100","245388","0.0-12.0-3.17","2d_cat_multi_stim_exp1","2022-5-3","9:9:1","25","75","3","9","10","40","30","120","81","19","[""Asian""]","No","Male","2070072","null","null","learn_feedback","","","learn_feedback","23.8209","66.7243","in","","","","","","","","","","","","","","","","","","","","","","",""
"","","","","","canvas-keyboard-response","101","245446","0.0-12.0-4.17","2d_cat_multi_stim_exp1","2022-5-3","9:9:1","25","75","3","9","10","40","30","120","81","19","[""Asian""]","No","Male","2070072","null","null","","","","clear_screen","","","","","","","","","","","","","","","","","","","","","","","","","",""
"","","","","","canvas-keyboard-response","102","245954","0.0-12.0-0.18","2d_cat_multi_stim_exp1","2022-5-3","9:9:1","25","75","3","9","10","40","30","120","81","19","[""Asian""]","No","Male","2070072","null","null","","","","fixation","","","","","","","","","","","","","","","","","","","","","","","","","",""
"","","","","","canvas-keyboard-response","103","246463","0.0-12.0-1.18","2d_cat_multi_stim_exp1","2022-5-3","9:9:1","25","75","3","9","10","40","30","120","81","19","[""Asian""]","No","Male","2070072","null","null","","","","clear_screen","","","","","","","","","","","","","","","","","","","","","","","","","",""
"","","","","","canvas-keyboard-response","104","247240","0.0-12.0-2.18","2d_cat_multi_stim_exp1","2022-5-3","9:9:1","25","75","3","9","10","40","30","120","81","19","[""Asian""]","No","Male","2070072","768","i","learn","","","learn_trial","26.8705","82.0365","in","0","0","","","","","","","","","","","","","","","","","","","","",""
"","","","","","canvas-keyboard-response","105","248249","0.0-12.0-3.18","2d_cat_multi_stim_exp1","2022-5-3","9:9:1","25","75","3","9","10","40","30","120","81","19","[""Asian""]","No","Male","2070072","null","null","learn_feedback","","","learn_feedback","26.8705","82.0365","in","","","","","","","","","","","","","","","","","","","","","","",""
"","","","","","canvas-keyboard-response","106","248306","0.0-12.0-4.18","2d_cat_multi_stim_exp1","2022-5-3","9:9:1","25","75","3","9","10","40","30","120","81","19","[""Asian""]","No","Male","2070072","null","null","","","","clear_screen","","","","","","","","","","","","","","","","","","","","","","","","","",""
"","","","","","canvas-keyboard-response","107","248814","0.0-12.0-0.19","2d_cat_multi_stim_exp1","2022-5-3","9:9:1","25","75","3","9","10","40","30","120","81","19","[""Asian""]","No","Male","2070072","null","null","","","","fixation","","","","","","","","","","","","","","","","","","","","","","","","","",""
"","","","","","canvas-keyboard-response","108","249322","0.0-12.0-1.19","2d_cat_multi_stim_exp1","2022-5-3","9:9:1","25","75","3","9","10","40","30","120","81","19","[""Asian""]","No","Male","2070072","null","null","","","","clear_screen","","","","","","","","","","","","","","","","","","","","","","","","","",""
"","","","","","canvas-keyboard-response","109","251505","0.0-12.0-2.19","2d_cat_multi_stim_exp1","2022-5-3","9:9:1","25","75","3","9","10","40","30","120","81","19","[""Asian""]","No","Male","2070072","2172","i","learn","","","learn_trial","16.6667","40","out","0","1","","","","","","","","","","","","","","","","","","","","",""
"","","","","","canvas-keyboard-response","110","252016","0.0-12.0-3.19","2d_cat_multi_stim_exp1","2022-5-3","9:9:1","25","75","3","9","10","40","30","120","81","19","[""Asian""]","No","Male","2070072","null","null","learn_feedback","","","learn_feedback","16.6667","40","out","","","","","","","","","","","","","","","","","","","","","","",""
"","","","","","canvas-keyboard-response","111","252076","0.0-12.0-4.19","2d_cat_multi_stim_exp1","2022-5-3","9:9:1","25","75","3","9","10","40","30","120","81","19","[""Asian""]","No","Male","2070072","null","null","","","","clear_screen","","","","","","","","","","","","","","","","","","","","","","","","","",""
"","","","","","canvas-keyboard-response","112","252586","0.0-12.0-0.20","2d_cat_multi_stim_exp1","2022-5-3","9:9:1","25","75","3","9","10","40","30","120","81","19","[""Asian""]","No","Male","2070072","null","null","","","","fixation","","","","","","","","","","","","","","","","","","","","","","","","","",""
"","","","","","canvas-keyboard-response","113","253095","0.0-12.0-1.20","2d_cat_multi_stim_exp1","2022-5-3","9:9:1","25","75","3","9","10","40","30","120","81","19","[""Asian""]","No","Male","2070072","null","null","","","","clear_screen","","","","","","","","","","","","","","","","","","","","","","","","","",""
"","","","","","canvas-keyboard-response","114","254559","0.0-12.0-2.20","2d_cat_multi_stim_exp1","2022-5-3","9:9:1","25","75","3","9","10","40","30","120","81","19","[""Asian""]","No","Male","2070072","1454","i","learn","","","learn_trial","33.3333","70","out","0","1","","","","","","","","","","","","","","","","","","","","",""
"","","","","","canvas-keyboard-response","115","255069","0.0-12.0-3.20","2d_cat_multi_stim_exp1","2022-5-3","9:9:1","25","75","3","9","10","40","30","120","81","19","[""Asian""]","No","Male","2070072","null","null","learn_feedback","","","learn_feedback","33.3333","70","out","","","","","","","","","","","","","","","","","","","","","","",""
"","","","","","canvas-keyboard-response","116","255129","0.0-12.0-4.20","2d_cat_multi_stim_exp1","2022-5-3","9:9:1","25","75","3","9","10","40","30","120","81","19","[""Asian""]","No","Male","2070072","null","null","","","","clear_screen","","","","","","","","","","","","","","","","","","","","","","","","","",""
"","","","","","canvas-keyboard-response","117","255637","0.0-12.0-0.21","2d_cat_multi_stim_exp1","2022-5-3","9:9:1","25","75","3","9","10","40","30","120","81","19","[""Asian""]","No","Male","2070072","null","null","","","","fixation","","","","","","","","","","","","","","","","","","","","","","","","","",""
"","","","","","canvas-keyboard-response","118","256146","0.0-12.0-1.21","2d_cat_multi_stim_exp1","2022-5-3","9:9:1","25","75","3","9","10","40","30","120","81","19","[""Asian""]","No","Male","2070072","null","null","","","","clear_screen","","","","","","","","","","","","","","","","","","","","","","","","","",""
"","","","","","canvas-keyboard-response","119","257088","0.0-12.0-2.21","2d_cat_multi_stim_exp1","2022-5-3","9:9:1","25","75","3","9","10","40","30","120","81","19","[""Asian""]","No","Male","2070072","933","i","learn","","","learn_trial","33.3333","100","out","0","1","","","","","","","","","","","","","","","","","","","","",""
"","","","","","canvas-keyboard-response","120","257598","0.0-12.0-3.21","2d_cat_multi_stim_exp1","2022-5-3","9:9:1","25","75","3","9","10","40","30","120","81","19","[""Asian""]","No","Male","2070072","null","null","learn_feedback","","","learn_feedback","33.3333","100","out","","","","","","","","","","","","","","","","","","","","","","",""
"","","","","","canvas-keyboard-response","121","257657","0.0-12.0-4.21","2d_cat_multi_stim_exp1","2022-5-3","9:9:1","25","75","3","9","10","40","30","120","81","19","[""Asian""]","No","Male","2070072","null","null","","","","clear_screen","","","","","","","","","","","","","","","","","","","","","","","","","",""
"","","","","","canvas-keyboard-response","122","258166","0.0-12.0-0.22","2d_cat_multi_stim_exp1","2022-5-3","9:9:1","25","75","3","9","10","40","30","120","81","19","[""Asian""]","No","Male","2070072","null","null","","","","fixation","","","","","","","","","","","","","","","","","","","","","","","","","",""
"","","","","","canvas-keyboard-response","123","258674","0.0-12.0-1.22","2d_cat_multi_stim_exp1","2022-5-3","9:9:1","25","75","3","9","10","40","30","120","81","19","[""Asian""]","No","Male","2070072","null","null","","","","clear_screen","","","","","","","","","","","","","","","","","","","","","","","","","",""
"","","","","","canvas-keyboard-response","124","259232","0.0-12.0-2.22","2d_cat_multi_stim_exp1","2022-5-3","9:9:1","25","75","3","9","10","40","30","120","81","19","[""Asian""]","No","Male","2070072","549","i","learn","","","learn_trial","25","75","in","0","0","","","","","","","","","","","","","","","","","","","","",""
"","","","","","canvas-keyboard-response","125","260244","0.0-12.0-3.22","2d_cat_multi_stim_exp1","2022-5-3","9:9:1","25","75","3","9","10","40","30","120","81","19","[""Asian""]","No","Male","2070072","null","null","learn_feedback","","","learn_feedback","25","75","in","","","","","","","","","","","","","","","","","","","","","","",""
"","","","","","canvas-keyboard-response","126","260302","0.0-12.0-4.22","2d_cat_multi_stim_exp1","2022-5-3","9:9:1","25","75","3","9","10","40","30","120","81","19","[""Asian""]","No","Male","2070072","null","null","","","","clear_screen","","","","","","","","","","","","","","","","","","","","","","","","","",""
"","","","","","canvas-keyboard-response","127","260810","0.0-12.0-0.23","2d_cat_multi_stim_exp1","2022-5-3","9:9:1","25","75","3","9","10","40","30","120","81","19","[""Asian""]","No","Male","2070072","null","null","","","","fixation","","","","","","","","","","","","","","","","","","","","","","","","","",""
"","","","","","canvas-keyboard-response","128","261319","0.0-12.0-1.23","2d_cat_multi_stim_exp1","2022-5-3","9:9:1","25","75","3","9","10","40","30","120","81","19","[""Asian""]","No","Male","2070072","null","null","","","","clear_screen","","","","","","","","","","","","","","","","","","","","","","","","","",""
"","","","","","canvas-keyboard-response","129","262048","0.0-12.0-2.23","2d_cat_multi_stim_exp1","2022-5-3","9:9:1","25","75","3","9","10","40","30","120","81","19","[""Asian""]","No","Male","2070072","719","i","learn","","","learn_trial","24.8654","66.0091","in","0","0","","","","","","","","","","","","","","","","","","","","",""
"","","","","","canvas-keyboard-response","130","263056","0.0-12.0-3.23","2d_cat_multi_stim_exp1","2022-5-3","9:9:1","25","75","3","9","10","40","30","120","81","19","[""Asian""]","No","Male","2070072","null","null","learn_feedback","","","learn_feedback","24.8654","66.0091","in","","","","","","","","","","","","","","","","","","","","","","",""
"","","","","","canvas-keyboard-response","131","263115","0.0-12.0-4.23","2d_cat_multi_stim_exp1","2022-5-3","9:9:1","25","75","3","9","10","40","30","120","81","19","[""Asian""]","No","Male","2070072","null","null","","","","clear_screen","","","","","","","","","","","","","","","","","","","","","","","","","",""
"","","","","","canvas-keyboard-response","132","263623","0.0-12.0-0.24","2d_cat_multi_stim_exp1","2022-5-3","9:9:1","25","75","3","9","10","40","30","120","81","19","[""Asian""]","No","Male","2070072","null","null","","","","fixation","","","","","","","","","","","","","","","","","","","","","","","","","",""
"","","","","","canvas-keyboard-response","133","264131","0.0-12.0-1.24","2d_cat_multi_stim_exp1","2022-5-3","9:9:1","25","75","3","9","10","40","30","120","81","19","[""Asian""]","No","Male","2070072","null","null","","","","clear_screen","","","","","","","","","","","","","","","","","","","","","","","","","",""
"","","","","","canvas-keyboard-response","134","264680","0.0-12.0-2.24","2d_cat_multi_stim_exp1","2022-5-3","9:9:1","25","75","3","9","10","40","30","120","81","19","[""Asian""]","No","Male","2070072","540","u","learn","","","learn_trial","40","90","out","1","0","","","","","","","","","","","","","","","","","","","","",""
"","","","","","canvas-keyboard-response","135","265689","0.0-12.0-3.24","2d_cat_multi_stim_exp1","2022-5-3","9:9:1","25","75","3","9","10","40","30","120","81","19","[""Asian""]","No","Male","2070072","null","null","learn_feedback","","","learn_feedback","40","90","out","","","","","","","","","","","","","","","","","","","","","","",""
"","","","","","canvas-keyboard-response","136","265747","0.0-12.0-4.24","2d_cat_multi_stim_exp1","2022-5-3","9:9:1","25","75","3","9","10","40","30","120","81","19","[""Asian""]","No","Male","2070072","null","null","","","","clear_screen","","","","","","","","","","","","","","","","","","","","","","","","","",""
"","","","","","canvas-keyboard-response","137","266255","0.0-12.0-0.25","2d_cat_multi_stim_exp1","2022-5-3","9:9:1","25","75","3","9","10","40","30","120","81","19","[""Asian""]","No","Male","2070072","null","null","","","","fixation","","","","","","","","","","","","","","","","","","","","","","","","","",""
"","","","","","canvas-keyboard-response","138","266763","0.0-12.0-1.25","2d_cat_multi_stim_exp1","2022-5-3","9:9:1","25","75","3","9","10","40","30","120","81","19","[""Asian""]","No","Male","2070072","null","null","","","","clear_screen","","","","","","","","","","","","","","","","","","","","","","","","","",""
"","","","","","canvas-keyboard-response","139","267767","0.0-12.0-2.25","2d_cat_multi_stim_exp1","2022-5-3","9:9:1","25","75","3","9","10","40","30","120","81","19","[""Asian""]","No","Male","2070072","995","i","learn","","","learn_trial","26.6667","40","out","0","1","","","","","","","","","","","","","","","","","","","","",""
"","","","","","canvas-keyboard-response","140","268277","0.0-12.0-3.25","2d_cat_multi_stim_exp1","2022-5-3","9:9:1","25","75","3","9","10","40","30","120","81","19","[""Asian""]","No","Male","2070072","null","null","learn_feedback","","","learn_feedback","26.6667","40","out","","","","","","","","","","","","","","","","","","","","","","",""
"","","","","","canvas-keyboard-response","141","268334","0.0-12.0-4.25","2d_cat_multi_stim_exp1","2022-5-3","9:9:1","25","75","3","9","10","40","30","120","81","19","[""Asian""]","No","Male","2070072","null","null","","","","clear_screen","","","","","","","","","","","","","","","","","","","","","","","","","",""
"","","","","","canvas-keyboard-response","142","268843","0.0-12.0-0.26","2d_cat_multi_stim_exp1","2022-5-3","9:9:1","25","75","3","9","10","40","30","120","81","19","[""Asian""]","No","Male","2070072","null","null","","","","fixation","","","","","","","","","","","","","","","","","","","","","","","","","",""
"","","","","","canvas-keyboard-response","143","269352","0.0-12.0-1.26","2d_cat_multi_stim_exp1","2022-5-3","9:9:1","25","75","3","9","10","40","30","120","81","19","[""Asian""]","No","Male","2070072","null","null","","","","clear_screen","","","","","","","","","","","","","","","","","","","","","","","","","",""
"","","","","","canvas-keyboard-response","144","270032","0.0-12.0-2.26","2d_cat_multi_stim_exp1","2022-5-3","9:9:1","25","75","3","9","10","40","30","120","81","19","[""Asian""]","No","Male","2070072","671","i","learn","","","learn_trial","13.3333","100","out","0","1","","","","","","","","","","","","","","","","","","","","",""
"","","","","","canvas-keyboard-response","145","270541","0.0-12.0-3.26","2d_cat_multi_stim_exp1","2022-5-3","9:9:1","25","75","3","9","10","40","30","120","81","19","[""Asian""]","No","Male","2070072","null","null","learn_feedback","","","learn_feedback","13.3333","100","out","","","","","","","","","","","","","","","","","","","","","","",""
"","","","","","canvas-keyboard-response","146","270599","0.0-12.0-4.26","2d_cat_multi_stim_exp1","2022-5-3","9:9:1","25","75","3","9","10","40","30","120","81","19","[""Asian""]","No","Male","2070072","null","null","","","","clear_screen","","","","","","","","","","","","","","","","","","","","","","","","","",""
"","","","","","canvas-keyboard-response","147","271107","0.0-12.0-0.27","2d_cat_multi_stim_exp1","2022-5-3","9:9:1","25","75","3","9","10","40","30","120","81","19","[""Asian""]","No","Male","2070072","null","null","","","","fixation","","","","","","","","","","","","","","","","","","","","","","","","","",""
"","","","","","canvas-keyboard-response","148","271616","0.0-12.0-1.27","2d_cat_multi_stim_exp1","2022-5-3","9:9:1","25","75","3","9","10","40","30","120","81","19","[""Asian""]","No","Male","2070072","null","null","","","","clear_screen","","","","","","","","","","","","","","","","","","","","","","","","","",""
"","","","","","canvas-keyboard-response","149","272911","0.0-12.0-2.27","2d_cat_multi_stim_exp1","2022-5-3","9:9:1","25","75","3","9","10","40","30","120","81","19","[""Asian""]","No","Male","2070072","1282","u","learn","","","learn_trial","26.6667","80","out","1","0","","","","","","","","","","","","","","","","","","","","",""
"","","","","","canvas-keyboard-response","150","273920","0.0-12.0-3.27","2d_cat_multi_stim_exp1","2022-5-3","9:9:1","25","75","3","9","10","40","30","120","81","19","[""Asian""]","No","Male","2070072","null","null","learn_feedback","","","learn_feedback","26.6667","80","out","","","","","","","","","","","","","","","","","","","","","","",""
"","","","","","canvas-keyboard-response","151","273979","0.0-12.0-4.27","2d_cat_multi_stim_exp1","2022-5-3","9:9:1","25","75","3","9","10","40","30","120","81","19","[""Asian""]","No","Male","2070072","null","null","","","","clear_screen","","","","","","","","","","","","","","","","","","","","","","","","","",""
"","","","","","canvas-keyboard-response","152","274486","0.0-12.0-0.28","2d_cat_multi_stim_exp1","2022-5-3","9:9:1","25","75","3","9","10","40","30","120","81","19","[""Asian""]","No","Male","2070072","null","null","","","","fixation","","","","","","","","","","","","","","","","","","","","","","","","","",""
"","","","","","canvas-keyboard-response","153","274995","0.0-12.0-1.28","2d_cat_multi_stim_exp1","2022-5-3","9:9:1","25","75","3","9","10","40","30","120","81","19","[""Asian""]","No","Male","2070072","null","null","","","","clear_screen","","","","","","","","","","","","","","","","","","","","","","","","","",""
"","","","","","canvas-keyboard-response","154","276103","0.0-12.0-2.28","2d_cat_multi_stim_exp1","2022-5-3","9:9:1","25","75","3","9","10","40","30","120","81","19","[""Asian""]","No","Male","2070072","1098","u","learn","","","learn_trial","25","75","in","1","1","","","","","","","","","","","","","","","","","","","","",""
"","","","","","canvas-keyboard-response","155","276613","0.0-12.0-3.28","2d_cat_multi_stim_exp1","2022-5-3","9:9:1","25","75","3","9","10","40","30","120","81","19","[""Asian""]","No","Male","2070072","null","null","learn_feedback","","","learn_feedback","25","75","in","","","","","","","","","","","","","","","","","","","","","","",""
"","","","","","canvas-keyboard-response","156","276670","0.0-12.0-4.28","2d_cat_multi_stim_exp1","2022-5-3","9:9:1","25","75","3","9","10","40","30","120","81","19","[""Asian""]","No","Male","2070072","null","null","","","","clear_screen","","","","","","","","","","","","","","","","","","","","","","","","","",""
"","","","","","canvas-keyboard-response","157","277179","0.0-12.0-0.29","2d_cat_multi_stim_exp1","2022-5-3","9:9:1","25","75","3","9","10","40","30","120","81","19","[""Asian""]","No","Male","2070072","null","null","","","","fixation","","","","","","","","","","","","","","","","","","","","","","","","","",""
"","","","","","canvas-keyboard-response","158","277687","0.0-12.0-1.29","2d_cat_multi_stim_exp1","2022-5-3","9:9:1","25","75","3","9","10","40","30","120","81","19","[""Asian""]","No","Male","2070072","null","null","","","","clear_screen","","","","","","","","","","","","","","","","","","","","","","","","","",""
"","","","","","canvas-keyboard-response","159","279040","0.0-12.0-2.29","2d_cat_multi_stim_exp1","2022-5-3","9:9:1","25","75","3","9","10","40","30","120","81","19","[""Asian""]","No","Male","2070072","1344","i","learn","","","learn_trial","33.3333","120","out","0","1","","","","","","","","","","","","","","","","","","","","",""
"","","","","","canvas-keyboard-response","160","279550","0.0-12.0-3.29","2d_cat_multi_stim_exp1","2022-5-3","9:9:1","25","75","3","9","10","40","30","120","81","19","[""Asian""]","No","Male","2070072","null","null","learn_feedback","","","learn_feedback","33.3333","120","out","","","","","","","","","","","","","","","","","","","","","","",""
"","","","","","canvas-keyboard-response","161","279607","0.0-12.0-4.29","2d_cat_multi_stim_exp1","2022-5-3","9:9:1","25","75","3","9","10","40","30","120","81","19","[""Asian""]","No","Male","2070072","null","null","","","","clear_screen","","","","","","","","","","","","","","","","","","","","","","","","","",""
"","","","","","canvas-keyboard-response","162","280115","0.0-12.0-0.30","2d_cat_multi_stim_exp1","2022-5-3","9:9:1","25","75","3","9","10","40","30","120","81","19","[""Asian""]","No","Male","2070072","null","null","","","","fixation","","","","","","","","","","","","","","","","","","","","","","","","","",""
"","","","","","canvas-keyboard-response","163","280624","0.0-12.0-1.30","2d_cat_multi_stim_exp1","2022-5-3","9:9:1","25","75","3","9","10","40","30","120","81","19","[""Asian""]","No","Male","2070072","null","null","","","","clear_screen","","","","","","","","","","","","","","","","","","","","","","","","","",""
"","","","","","canvas-keyboard-response","164","282849","0.0-12.0-2.30","2d_cat_multi_stim_exp1","2022-5-3","9:9:1","25","75","3","9","10","40","30","120","81","19","[""Asian""]","No","Male","2070072","2213","i","learn","","","learn_trial","20.7574","62.2721","in","0","0","","","","","","","","","","","","","","","","","","","","",""
"","","","","","canvas-keyboard-response","165","283860","0.0-12.0-3.30","2d_cat_multi_stim_exp1","2022-5-3","9:9:1","25","75","3","9","10","40","30","120","81","19","[""Asian""]","No","Male","2070072","null","null","learn_feedback","","","learn_feedback","20.7574","62.2721","in","","","","","","","","","","","","","","","","","","","","","","",""
"","","","","","canvas-keyboard-response","166","283921","0.0-12.0-4.30","2d_cat_multi_stim_exp1","2022-5-3","9:9:1","25","75","3","9","10","40","30","120","81","19","[""Asian""]","No","Male","2070072","null","null","","","","clear_screen","","","","","","","","","","","","","","","","","","","","","","","","","",""
"","","","","","canvas-keyboard-response","167","284431","0.0-12.0-0.31","2d_cat_multi_stim_exp1","2022-5-3","9:9:1","25","75","3","9","10","40","30","120","81","19","[""Asian""]","No","Male","2070072","null","null","","","","fixation","","","","","","","","","","","","","","","","","","","","","","","","","",""
"","","","","","canvas-keyboard-response","168","284940","0.0-12.0-1.31","2d_cat_multi_stim_exp1","2022-5-3","9:9:1","25","75","3","9","10","40","30","120","81","19","[""Asian""]","No","Male","2070072","null","null","","","","clear_screen","","","","","","","","","","","","","","","","","","","","","","","","","",""
"","","","","","canvas-keyboard-response","169","288383","0.0-12.0-2.31","2d_cat_multi_stim_exp1","2022-5-3","9:9:1","25","75","3","9","10","40","30","120","81","19","[""Asian""]","No","Male","2070072","3433","u","learn","","","learn_trial","25","75","in","1","1","","","","","","","","","","","","","","","","","","","","",""
"","","","","","canvas-keyboard-response","170","288893","0.0-12.0-3.31","2d_cat_multi_stim_exp1","2022-5-3","9:9:1","25","75","3","9","10","40","30","120","81","19","[""Asian""]","No","Male","2070072","null","null","learn_feedback","","","learn_feedback","25","75","in","","","","","","","","","","","","","","","","","","","","","","",""
"","","","","","canvas-keyboard-response","171","288951","0.0-12.0-4.31","2d_cat_multi_stim_exp1","2022-5-3","9:9:1","25","75","3","9","10","40","30","120","81","19","[""Asian""]","No","Male","2070072","null","null","","","","clear_screen","","","","","","","","","","","","","","","","","","","","","","","","","",""
"","","","","","canvas-keyboard-response","172","289460","0.0-12.0-0.32","2d_cat_multi_stim_exp1","2022-5-3","9:9:1","25","75","3","9","10","40","30","120","81","19","[""Asian""]","No","Male","2070072","null","null","","","","fixation","","","","","","","","","","","","","","","","","","","","","","","","","",""
"","","","","","canvas-keyboard-response","173","289969","0.0-12.0-1.32","2d_cat_multi_stim_exp1","2022-5-3","9:9:1","25","75","3","9","10","40","30","120","81","19","[""Asian""]","No","Male","2070072","null","null","","","","clear_screen","","","","","","","","","","","","","","","","","","","","","","","","","",""
"","","","","","canvas-keyboard-response","174","290871","0.0-12.0-2.32","2d_cat_multi_stim_exp1","2022-5-3","9:9:1","25","75","3","9","10","40","30","120","81","19","[""Asian""]","No","Male","2070072","893","u","learn","","","learn_trial","26.6667","100","out","1","0","","","","","","","","","","","","","","","","","","","","",""
"","","","","","canvas-keyboard-response","175","291881","0.0-12.0-3.32","2d_cat_multi_stim_exp1","2022-5-3","9:9:1","25","75","3","9","10","40","30","120","81","19","[""Asian""]","No","Male","2070072","null","null","learn_feedback","","","learn_feedback","26.6667","100","out","","","","","","","","","","","","","","","","","","","","","","",""
"","","","","","canvas-keyboard-response","176","291940","0.0-12.0-4.32","2d_cat_multi_stim_exp1","2022-5-3","9:9:1","25","75","3","9","10","40","30","120","81","19","[""Asian""]","No","Male","2070072","null","null","","","","clear_screen","","","","","","","","","","","","","","","","","","","","","","","","","",""
"","","","","","canvas-keyboard-response","177","292448","0.0-12.0-0.33","2d_cat_multi_stim_exp1","2022-5-3","9:9:1","25","75","3","9","10","40","30","120","81","19","[""Asian""]","No","Male","2070072","null","null","","","","fixation","","","","","","","","","","","","","","","","","","","","","","","","","",""
"","","","","","canvas-keyboard-response","178","292957","0.0-12.0-1.33","2d_cat_multi_stim_exp1","2022-5-3","9:9:1","25","75","3","9","10","40","30","120","81","19","[""Asian""]","No","Male","2070072","null","null","","","","clear_screen","","","","","","","","","","","","","","","","","","","","","","","","","",""
"","","","","","canvas-keyboard-response","179","293935","0.0-12.0-2.33","2d_cat_multi_stim_exp1","2022-5-3","9:9:1","25","75","3","9","10","40","30","120","81","19","[""Asian""]","No","Male","2070072","969","u","learn","","","learn_trial","27.9518","73.393","in","1","1","","","","","","","","","","","","","","","","","","","","",""
"","","","","","canvas-keyboard-response","180","294445","0.0-12.0-3.33","2d_cat_multi_stim_exp1","2022-5-3","9:9:1","25","75","3","9","10","40","30","120","81","19","[""Asian""]","No","Male","2070072","null","null","learn_feedback","","","learn_feedback","27.9518","73.393","in","","","","","","","","","","","","","","","","","","","","","","",""
"","","","","","canvas-keyboard-response","181","294503","0.0-12.0-4.33","2d_cat_multi_stim_exp1","2022-5-3","9:9:1","25","75","3","9","10","40","30","120","81","19","[""Asian""]","No","Male","2070072","null","null","","","","clear_screen","","","","","","","","","","","","","","","","","","","","","","","","","",""
"","","","","","canvas-keyboard-response","182","295011","0.0-12.0-0.34","2d_cat_multi_stim_exp1","2022-5-3","9:9:1","25","75","3","9","10","40","30","120","81","19","[""Asian""]","No","Male","2070072","null","null","","","","fixation","","","","","","","","","","","","","","","","","","","","","","","","","",""
"","","","","","canvas-keyboard-response","183","295520","0.0-12.0-1.34","2d_cat_multi_stim_exp1","2022-5-3","9:9:1","25","75","3","9","10","40","30","120","81","19","[""Asian""]","No","Male","2070072","null","null","","","","clear_screen","","","","","","","","","","","","","","","","","","","","","","","","","",""
"","","","","","canvas-keyboard-response","184","296431","0.0-12.0-2.34","2d_cat_multi_stim_exp1","2022-5-3","9:9:1","25","75","3","9","10","40","30","120","81","19","[""Asian""]","No","Male","2070072","903","u","learn","","","learn_trial","22.2971","71.095","in","1","1","","","","","","","","","","","","","","","","","","","","",""
"","","","","","canvas-keyboard-response","185","296940","0.0-12.0-3.34","2d_cat_multi_stim_exp1","2022-5-3","9:9:1","25","75","3","9","10","40","30","120","81","19","[""Asian""]","No","Male","2070072","null","null","learn_feedback","","","learn_feedback","22.2971","71.095","in","","","","","","","","","","","","","","","","","","","","","","",""
"","","","","","canvas-keyboard-response","186","296998","0.0-12.0-4.34","2d_cat_multi_stim_exp1","2022-5-3","9:9:1","25","75","3","9","10","40","30","120","81","19","[""Asian""]","No","Male","2070072","null","null","","","","clear_screen","","","","","","","","","","","","","","","","","","","","","","","","","",""
"","","","","","canvas-keyboard-response","187","297507","0.0-12.0-0.35","2d_cat_multi_stim_exp1","2022-5-3","9:9:1","25","75","3","9","10","40","30","120","81","19","[""Asian""]","No","Male","2070072","null","null","","","","fixation","","","","","","","","","","","","","","","","","","","","","","","","","",""
"","","","","","canvas-keyboard-response","188","298015","0.0-12.0-1.35","2d_cat_multi_stim_exp1","2022-5-3","9:9:1","25","75","3","9","10","40","30","120","81","19","[""Asian""]","No","Male","2070072","null","null","","","","clear_screen","","","","","","","","","","","","","","","","","","","","","","","","","",""
"","","","","","canvas-keyboard-response","189","299111","0.0-12.0-2.35","2d_cat_multi_stim_exp1","2022-5-3","9:9:1","25","75","3","9","10","40","30","120","81","19","[""Asian""]","No","Male","2070072","1086","i","learn","","","learn_trial","27.2592","80.9214","in","0","0","","","","","","","","","","","","","","","","","","","","",""
"","","","","","canvas-keyboard-response","190","300120","0.0-12.0-3.35","2d_cat_multi_stim_exp1","2022-5-3","9:9:1","25","75","3","9","10","40","30","120","81","19","[""Asian""]","No","Male","2070072","null","null","learn_feedback","","","learn_feedback","27.2592","80.9214","in","","","","","","","","","","","","","","","","","","","","","","",""
"","","","","","canvas-keyboard-response","191","300179","0.0-12.0-4.35","2d_cat_multi_stim_exp1","2022-5-3","9:9:1","25","75","3","9","10","40","30","120","81","19","[""Asian""]","No","Male","2070072","null","null","","","","clear_screen","","","","","","","","","","","","","","","","","","","","","","","","","",""
"","","","","","canvas-keyboard-response","192","300686","0.0-12.0-0.36","2d_cat_multi_stim_exp1","2022-5-3","9:9:1","25","75","3","9","10","40","30","120","81","19","[""Asian""]","No","Male","2070072","null","null","","","","fixation","","","","","","","","","","","","","","","","","","","","","","","","","",""
"","","","","","canvas-keyboard-response","193","301195","0.0-12.0-1.36","2d_cat_multi_stim_exp1","2022-5-3","9:9:1","25","75","3","9","10","40","30","120","81","19","[""Asian""]","No","Male","2070072","null","null","","","","clear_screen","","","","","","","","","","","","","","","","","","","","","","","","","",""
"","","","","","canvas-keyboard-response","194","302559","0.0-12.0-2.36","2d_cat_multi_stim_exp1","2022-5-3","9:9:1","25","75","3","9","10","40","30","120","81","19","[""Asian""]","No","Male","2070072","1354","i","learn","","","learn_trial","36.6667","40","out","0","1","","","","","","","","","","","","","","","","","","","","",""
"","","","","","canvas-keyboard-response","195","303067","0.0-12.0-3.36","2d_cat_multi_stim_exp1","2022-5-3","9:9:1","25","75","3","9","10","40","30","120","81","19","[""Asian""]","No","Male","2070072","null","null","learn_feedback","","","learn_feedback","36.6667","40","out","","","","","","","","","","","","","","","","","","","","","","",""
"","","","","","canvas-keyboard-response","196","303129","0.0-12.0-4.36","2d_cat_multi_stim_exp1","2022-5-3","9:9:1","25","75","3","9","10","40","30","120","81","19","[""Asian""]","No","Male","2070072","null","null","","","","clear_screen","","","","","","","","","","","","","","","","","","","","","","","","","",""
"","","","","","canvas-keyboard-response","197","303637","0.0-12.0-0.37","2d_cat_multi_stim_exp1","2022-5-3","9:9:1","25","75","3","9","10","40","30","120","81","19","[""Asian""]","No","Male","2070072","null","null","","","","fixation","","","","","","","","","","","","","","","","","","","","","","","","","",""
"","","","","","canvas-keyboard-response","198","304146","0.0-12.0-1.37","2d_cat_multi_stim_exp1","2022-5-3","9:9:1","25","75","3","9","10","40","30","120","81","19","[""Asian""]","No","Male","2070072","null","null","","","","clear_screen","","","","","","","","","","","","","","","","","","","","","","","","","",""
"","","","","","canvas-keyboard-response","199","305416","0.0-12.0-2.37","2d_cat_multi_stim_exp1","2022-5-3","9:9:1","25","75","3","9","10","40","30","120","81","19","[""Asian""]","No","Male","2070072","1260","i","learn","","","learn_trial","13.3333","50","out","0","1","","","","","","","","","","","","","","","","","","","","",""
"","","","","","canvas-keyboard-response","200","305925","0.0-12.0-3.37","2d_cat_multi_stim_exp1","2022-5-3","9:9:1","25","75","3","9","10","40","30","120","81","19","[""Asian""]","No","Male","2070072","null","null","learn_feedback","","","learn_feedback","13.3333","50","out","","","","","","","","","","","","","","","","","","","","","","",""
"","","","","","canvas-keyboard-response","201","305983","0.0-12.0-4.37","2d_cat_multi_stim_exp1","2022-5-3","9:9:1","25","75","3","9","10","40","30","120","81","19","[""Asian""]","No","Male","2070072","null","null","","","","clear_screen","","","","","","","","","","","","","","","","","","","","","","","","","",""
"","","","","","canvas-keyboard-response","202","306491","0.0-12.0-0.38","2d_cat_multi_stim_exp1","2022-5-3","9:9:1","25","75","3","9","10","40","30","120","81","19","[""Asian""]","No","Male","2070072","null","null","","","","fixation","","","","","","","","","","","","","","","","","","","","","","","","","",""
"","","","","","canvas-keyboard-response","203","307000","0.0-12.0-1.38","2d_cat_multi_stim_exp1","2022-5-3","9:9:1","25","75","3","9","10","40","30","120","81","19","[""Asian""]","No","Male","2070072","null","null","","","","clear_screen","","","","","","","","","","","","","","","","","","","","","","","","","",""
"","","","","","canvas-keyboard-response","204","308087","0.0-12.0-2.38","2d_cat_multi_stim_exp1","2022-5-3","9:9:1","25","75","3","9","10","40","30","120","81","19","[""Asian""]","No","Male","2070072","1078","u","learn","","","learn_trial","25","75","in","1","1","","","","","","","","","","","","","","","","","","","","",""
"","","","","","canvas-keyboard-response","205","308596","0.0-12.0-3.38","2d_cat_multi_stim_exp1","2022-5-3","9:9:1","25","75","3","9","10","40","30","120","81","19","[""Asian""]","No","Male","2070072","null","null","learn_feedback","","","learn_feedback","25","75","in","","","","","","","","","","","","","","","","","","","","","","",""
"","","","","","canvas-keyboard-response","206","308655","0.0-12.0-4.38","2d_cat_multi_stim_exp1","2022-5-3","9:9:1","25","75","3","9","10","40","30","120","81","19","[""Asian""]","No","Male","2070072","null","null","","","","clear_screen","","","","","","","","","","","","","","","","","","","","","","","","","",""
"","","","","","canvas-keyboard-response","207","309163","0.0-12.0-0.39","2d_cat_multi_stim_exp1","2022-5-3","9:9:1","25","75","3","9","10","40","30","120","81","19","[""Asian""]","No","Male","2070072","null","null","","","","fixation","","","","","","","","","","","","","","","","","","","","","","","","","",""
"","","","","","canvas-keyboard-response","208","309671","0.0-12.0-1.39","2d_cat_multi_stim_exp1","2022-5-3","9:9:1","25","75","3","9","10","40","30","120","81","19","[""Asian""]","No","Male","2070072","null","null","","","","clear_screen","","","","","","","","","","","","","","","","","","","","","","","","","",""
"","","","","","canvas-keyboard-response","209","313415","0.0-12.0-2.39","2d_cat_multi_stim_exp1","2022-5-3","9:9:1","25","75","3","9","10","40","30","120","81","19","[""Asian""]","No","Male","2070072","3736","u","learn","","","learn_trial","25","75","in","1","1","","","","","","","","","","","","","","","","","","","","",""
"","","","","","canvas-keyboard-response","210","313924","0.0-12.0-3.39","2d_cat_multi_stim_exp1","2022-5-3","9:9:1","25","75","3","9","10","40","30","120","81","19","[""Asian""]","No","Male","2070072","null","null","learn_feedback","","","learn_feedback","25","75","in","","","","","","","","","","","","","","","","","","","","","","",""
"","","","","","canvas-keyboard-response","211","313981","0.0-12.0-4.39","2d_cat_multi_stim_exp1","2022-5-3","9:9:1","25","75","3","9","10","40","30","120","81","19","[""Asian""]","No","Male","2070072","null","null","","","","clear_screen","","","","","","","","","","","","","","","","","","","","","","","","","",""
"","","","","","canvas-keyboard-response","212","314492","0.0-12.0-0.40","2d_cat_multi_stim_exp1","2022-5-3","9:9:1","25","75","3","9","10","40","30","120","81","19","[""Asian""]","No","Male","2070072","null","null","","","","fixation","","","","","","","","","","","","","","","","","","","","","","","","","",""
"","","","","","canvas-keyboard-response","213","315004","0.0-12.0-1.40","2d_cat_multi_stim_exp1","2022-5-3","9:9:1","25","75","3","9","10","40","30","120","81","19","[""Asian""]","No","Male","2070072","null","null","","","","clear_screen","","","","","","","","","","","","","","","","","","","","","","","","","",""
"","","","","","canvas-keyboard-response","214","315768","0.0-12.0-2.40","2d_cat_multi_stim_exp1","2022-5-3","9:9:1","25","75","3","9","10","40","30","120","81","19","[""Asian""]","No","Male","2070072","752","u","learn","","","learn_trial","27.2592","69.0786","in","1","1","","","","","","","","","","","","","","","","","","","","",""
"","","","","","canvas-keyboard-response","215","316279","0.0-12.0-3.40","2d_cat_multi_stim_exp1","2022-5-3","9:9:1","25","75","3","9","10","40","30","120","81","19","[""Asian""]","No","Male","2070072","null","null","learn_feedback","","","learn_feedback","27.2592","69.0786","in","","","","","","","","","","","","","","","","","","","","","","",""
"","","","","","canvas-keyboard-response","216","316338","0.0-12.0-4.40","2d_cat_multi_stim_exp1","2022-5-3","9:9:1","25","75","3","9","10","40","30","120","81","19","[""Asian""]","No","Male","2070072","null","null","","","","clear_screen","","","","","","","","","","","","","","","","","","","","","","","","","",""
"","","","","","canvas-keyboard-response","217","316847","0.0-12.0-0.41","2d_cat_multi_stim_exp1","2022-5-3","9:9:1","25","75","3","9","10","40","30","120","81","19","[""Asian""]","No","Male","2070072","null","null","","","","fixation","","","","","","","","","","","","","","","","","","","","","","","","","",""
"","","","","","canvas-keyboard-response","218","317356","0.0-12.0-1.41","2d_cat_multi_stim_exp1","2022-5-3","9:9:1","25","75","3","9","10","40","30","120","81","19","[""Asian""]","No","Male","2070072","null","null","","","","clear_screen","","","","","","","","","","","","","","","","","","","","","","","","","",""
"","","","","","canvas-keyboard-response","219","318671","0.0-12.0-2.41","2d_cat_multi_stim_exp1","2022-5-3","9:9:1","25","75","3","9","10","40","30","120","81","19","[""Asian""]","No","Male","2070072","1305","i","learn","","","learn_trial","36.6667","80","out","0","1","","","","","","","","","","","","","","","","","","","","",""
"","","","","","canvas-keyboard-response","220","319180","0.0-12.0-3.41","2d_cat_multi_stim_exp1","2022-5-3","9:9:1","25","75","3","9","10","40","30","120","81","19","[""Asian""]","No","Male","2070072","null","null","learn_feedback","","","learn_feedback","36.6667","80","out","","","","","","","","","","","","","","","","","","","","","","",""
"","","","","","canvas-keyboard-response","221","319239","0.0-12.0-4.41","2d_cat_multi_stim_exp1","2022-5-3","9:9:1","25","75","3","9","10","40","30","120","81","19","[""Asian""]","No","Male","2070072","null","null","","","","clear_screen","","","","","","","","","","","","","","","","","","","","","","","","","",""
"","","","","","canvas-keyboard-response","222","319747","0.0-12.0-0.42","2d_cat_multi_stim_exp1","2022-5-3","9:9:1","25","75","3","9","10","40","30","120","81","19","[""Asian""]","No","Male","2070072","null","null","","","","fixation","","","","","","","","","","","","","","","","","","","","","","","","","",""
"","","","","","canvas-keyboard-response","223","320257","0.0-12.0-1.42","2d_cat_multi_stim_exp1","2022-5-3","9:9:1","25","75","3","9","10","40","30","120","81","19","[""Asian""]","No","Male","2070072","null","null","","","","clear_screen","","","","","","","","","","","","","","","","","","","","","","","","","",""
"","","","","","canvas-keyboard-response","224","321543","0.0-12.0-2.42","2d_cat_multi_stim_exp1","2022-5-3","9:9:1","25","75","3","9","10","40","30","120","81","19","[""Asian""]","No","Male","2070072","1277","i","learn","","","learn_trial","33.3333","30","out","0","1","","","","","","","","","","","","","","","","","","","","",""
"","","","","","canvas-keyboard-response","225","322052","0.0-12.0-3.42","2d_cat_multi_stim_exp1","2022-5-3","9:9:1","25","75","3","9","10","40","30","120","81","19","[""Asian""]","No","Male","2070072","null","null","learn_feedback","","","learn_feedback","33.3333","30","out","","","","","","","","","","","","","","","","","","","","","","",""
"","","","","","canvas-keyboard-response","226","322111","0.0-12.0-4.42","2d_cat_multi_stim_exp1","2022-5-3","9:9:1","25","75","3","9","10","40","30","120","81","19","[""Asian""]","No","Male","2070072","null","null","","","","clear_screen","","","","","","","","","","","","","","","","","","","","","","","","","",""
"","","","","","canvas-keyboard-response","227","322620","0.0-12.0-0.43","2d_cat_multi_stim_exp1","2022-5-3","9:9:1","25","75","3","9","10","40","30","120","81","19","[""Asian""]","No","Male","2070072","null","null","","","","fixation","","","","","","","","","","","","","","","","","","","","","","","","","",""
"","","","","","canvas-keyboard-response","228","323128","0.0-12.0-1.43","2d_cat_multi_stim_exp1","2022-5-3","9:9:1","25","75","3","9","10","40","30","120","81","19","[""Asian""]","No","Male","2070072","null","null","","","","clear_screen","","","","","","","","","","","","","","","","","","","","","","","","","",""
"","","","","","canvas-keyboard-response","229","325511","0.0-12.0-2.43","2d_cat_multi_stim_exp1","2022-5-3","9:9:1","25","75","3","9","10","40","30","120","81","19","[""Asian""]","No","Male","2070072","2374","u","learn","","","learn_trial","23.3333","40","out","1","0","","","","","","","","","","","","","","","","","","","","",""
"","","","","","canvas-keyboard-response","230","326521","0.0-12.0-3.43","2d_cat_multi_stim_exp1","2022-5-3","9:9:1","25","75","3","9","10","40","30","120","81","19","[""Asian""]","No","Male","2070072","null","null","learn_feedback","","","learn_feedback","23.3333","40","out","","","","","","","","","","","","","","","","","","","","","","",""
"","","","","","canvas-keyboard-response","231","326578","0.0-12.0-4.43","2d_cat_multi_stim_exp1","2022-5-3","9:9:1","25","75","3","9","10","40","30","120","81","19","[""Asian""]","No","Male","2070072","null","null","","","","clear_screen","","","","","","","","","","","","","","","","","","","","","","","","","",""
"","","","","","canvas-keyboard-response","232","327087","0.0-12.0-0.44","2d_cat_multi_stim_exp1","2022-5-3","9:9:1","25","75","3","9","10","40","30","120","81","19","[""Asian""]","No","Male","2070072","null","null","","","","fixation","","","","","","","","","","","","","","","","","","","","","","","","","",""
"","","","","","canvas-keyboard-response","233","327595","0.0-12.0-1.44","2d_cat_multi_stim_exp1","2022-5-3","9:9:1","25","75","3","9","10","40","30","120","81","19","[""Asian""]","No","Male","2070072","null","null","","","","clear_screen","","","","","","","","","","","","","","","","","","","","","","","","","",""
"","","","","","canvas-keyboard-response","234","328975","0.0-12.0-2.44","2d_cat_multi_stim_exp1","2022-5-3","9:9:1","25","75","3","9","10","40","30","120","81","19","[""Asian""]","No","Male","2070072","1370","u","learn","","","learn_trial","26.6667","90","out","1","0","","","","","","","","","","","","","","","","","","","","",""
"","","","","","canvas-keyboard-response","235","329983","0.0-12.0-3.44","2d_cat_multi_stim_exp1","2022-5-3","9:9:1","25","75","3","9","10","40","30","120","81","19","[""Asian""]","No","Male","2070072","null","null","learn_feedback","","","learn_feedback","26.6667","90","out","","","","","","","","","","","","","","","","","","","","","","",""
"","","","","","canvas-keyboard-response","236","330042","0.0-12.0-4.44","2d_cat_multi_stim_exp1","2022-5-3","9:9:1","25","75","3","9","10","40","30","120","81","19","[""Asian""]","No","Male","2070072","null","null","","","","clear_screen","","","","","","","","","","","","","","","","","","","","","","","","","",""
"","","","","","canvas-keyboard-response","237","330551","0.0-12.0-0.45","2d_cat_multi_stim_exp1","2022-5-3","9:9:1","25","75","3","9","10","40","30","120","81","19","[""Asian""]","No","Male","2070072","null","null","","","","fixation","","","","","","","","","","","","","","","","","","","","","","","","","",""
"","","","","","canvas-keyboard-response","238","331061","0.0-12.0-1.45","2d_cat_multi_stim_exp1","2022-5-3","9:9:1","25","75","3","9","10","40","30","120","81","19","[""Asian""]","No","Male","2070072","null","null","","","","clear_screen","","","","","","","","","","","","","","","","","","","","","","","","","",""
"","","","","","canvas-keyboard-response","239","331831","0.0-12.0-2.45","2d_cat_multi_stim_exp1","2022-5-3","9:9:1","25","75","3","9","10","40","30","120","81","19","[""Asian""]","No","Male","2070072","761","i","learn","","","learn_trial","16.6667","100","out","0","1","","","","","","","","","","","","","","","","","","","","",""
"","","","","","canvas-keyboard-response","240","332340","0.0-12.0-3.45","2d_cat_multi_stim_exp1","2022-5-3","9:9:1","25","75","3","9","10","40","30","120","81","19","[""Asian""]","No","Male","2070072","null","null","learn_feedback","","","learn_feedback","16.6667","100","out","","","","","","","","","","","","","","","","","","","","","","",""
"","","","","","canvas-keyboard-response","241","332398","0.0-12.0-4.45","2d_cat_multi_stim_exp1","2022-5-3","9:9:1","25","75","3","9","10","40","30","120","81","19","[""Asian""]","No","Male","2070072","null","null","","","","clear_screen","","","","","","","","","","","","","","","","","","","","","","","","","",""
"","","","","","canvas-keyboard-response","242","332907","0.0-12.0-0.46","2d_cat_multi_stim_exp1","2022-5-3","9:9:1","25","75","3","9","10","40","30","120","81","19","[""Asian""]","No","Male","2070072","null","null","","","","fixation","","","","","","","","","","","","","","","","","","","","","","","","","",""
"","","","","","canvas-keyboard-response","243","333415","0.0-12.0-1.46","2d_cat_multi_stim_exp1","2022-5-3","9:9:1","25","75","3","9","10","40","30","120","81","19","[""Asian""]","No","Male","2070072","null","null","","","","clear_screen","","","","","","","","","","","","","","","","","","","","","","","","","",""
"","","","","","canvas-keyboard-response","244","334647","0.0-12.0-2.46","2d_cat_multi_stim_exp1","2022-5-3","9:9:1","25","75","3","9","10","40","30","120","81","19","[""Asian""]","No","Male","2070072","1223","i","learn","","","learn_trial","25","75","in","0","0","","","","","","","","","","","","","","","","","","","","",""
"","","","","","canvas-keyboard-response","245","335656","0.0-12.0-3.46","2d_cat_multi_stim_exp1","2022-5-3","9:9:1","25","75","3","9","10","40","30","120","81","19","[""Asian""]","No","Male","2070072","null","null","learn_feedback","","","learn_feedback","25","75","in","","","","","","","","","","","","","","","","","","","","","","",""
"","","","","","canvas-keyboard-response","246","335714","0.0-12.0-4.46","2d_cat_multi_stim_exp1","2022-5-3","9:9:1","25","75","3","9","10","40","30","120","81","19","[""Asian""]","No","Male","2070072","null","null","","","","clear_screen","","","","","","","","","","","","","","","","","","","","","","","","","",""
"","","","","","canvas-keyboard-response","247","336222","0.0-12.0-0.47","2d_cat_multi_stim_exp1","2022-5-3","9:9:1","25","75","3","9","10","40","30","120","81","19","[""Asian""]","No","Male","2070072","null","null","","","","fixation","","","","","","","","","","","","","","","","","","","","","","","","","",""
"","","","","","canvas-keyboard-response","248","336730","0.0-12.0-1.47","2d_cat_multi_stim_exp1","2022-5-3","9:9:1","25","75","3","9","10","40","30","120","81","19","[""Asian""]","No","Male","2070072","null","null","","","","clear_screen","","","","","","","","","","","","","","","","","","","","","","","","","",""
"","","","","","canvas-keyboard-response","249","337167","0.0-12.0-2.47","2d_cat_multi_stim_exp1","2022-5-3","9:9:1","25","75","3","9","10","40","30","120","81","19","[""Asian""]","No","Male","2070072","428","i","learn","","","learn_trial","27.9518","76.607","in","0","0","","","","","","","","","","","","","","","","","","","","",""
"","","","","","canvas-keyboard-response","250","338176","0.0-12.0-3.47","2d_cat_multi_stim_exp1","2022-5-3","9:9:1","25","75","3","9","10","40","30","120","81","19","[""Asian""]","No","Male","2070072","null","null","learn_feedback","","","learn_feedback","27.9518","76.607","in","","","","","","","","","","","","","","","","","","","","","","",""
"","","","","","canvas-keyboard-response","251","338234","0.0-12.0-4.47","2d_cat_multi_stim_exp1","2022-5-3","9:9:1","25","75","3","9","10","40","30","120","81","19","[""Asian""]","No","Male","2070072","null","null","","","","clear_screen","","","","","","","","","","","","","","","","","","","","","","","","","",""
"","","","","","canvas-keyboard-response","252","338743","0.0-12.0-0.48","2d_cat_multi_stim_exp1","2022-5-3","9:9:1","25","75","3","9","10","40","30","120","81","19","[""Asian""]","No","Male","2070072","null","null","","","","fixation","","","","","","","","","","","","","","","","","","","","","","","","","",""
"","","","","","canvas-keyboard-response","253","339252","0.0-12.0-1.48","2d_cat_multi_stim_exp1","2022-5-3","9:9:1","25","75","3","9","10","40","30","120","81","19","[""Asian""]","No","Male","2070072","null","null","","","","clear_screen","","","","","","","","","","","","","","","","","","","","","","","","","",""
"","","","","","canvas-keyboard-response","254","340263","0.0-12.0-2.48","2d_cat_multi_stim_exp1","2022-5-3","9:9:1","25","75","3","9","10","40","30","120","81","19","[""Asian""]","No","Male","2070072","1003","u","learn","","","learn_trial","25","75","in","1","1","","","","","","","","","","","","","","","","","","","","",""
"","","","","","canvas-keyboard-response","255","340772","0.0-12.0-3.48","2d_cat_multi_stim_exp1","2022-5-3","9:9:1","25","75","3","9","10","40","30","120","81","19","[""Asian""]","No","Male","2070072","null","null","learn_feedback","","","learn_feedback","25","75","in","","","","","","","","","","","","","","","","","","","","","","",""
"","","","","","canvas-keyboard-response","256","340830","0.0-12.0-4.48","2d_cat_multi_stim_exp1","2022-5-3","9:9:1","25","75","3","9","10","40","30","120","81","19","[""Asian""]","No","Male","2070072","null","null","","","","clear_screen","","","","","","","","","","","","","","","","","","","","","","","","","",""
"","","","","","canvas-keyboard-response","257","341339","0.0-12.0-0.49","2d_cat_multi_stim_exp1","2022-5-3","9:9:1","25","75","3","9","10","40","30","120","81","19","[""Asian""]","No","Male","2070072","null","null","","","","fixation","","","","","","","","","","","","","","","","","","","","","","","","","",""
"","","","","","canvas-keyboard-response","258","341848","0.0-12.0-1.49","2d_cat_multi_stim_exp1","2022-5-3","9:9:1","25","75","3","9","10","40","30","120","81","19","[""Asian""]","No","Male","2070072","null","null","","","","clear_screen","","","","","","","","","","","","","","","","","","","","","","","","","",""
"","","","","","canvas-keyboard-response","259","343983","0.0-12.0-2.49","2d_cat_multi_stim_exp1","2022-5-3","9:9:1","25","75","3","9","10","40","30","120","81","19","[""Asian""]","No","Male","2070072","2126","u","learn","","","learn_trial","25","75","in","1","1","","","","","","","","","","","","","","","","","","","","",""
"","","","","","canvas-keyboard-response","260","344492","0.0-12.0-3.49","2d_cat_multi_stim_exp1","2022-5-3","9:9:1","25","75","3","9","10","40","30","120","81","19","[""Asian""]","No","Male","2070072","null","null","learn_feedback","","","learn_feedback","25","75","in","","","","","","","","","","","","","","","","","","","","","","",""
"","","","","","canvas-keyboard-response","261","344550","0.0-12.0-4.49","2d_cat_multi_stim_exp1","2022-5-3","9:9:1","25","75","3","9","10","40","30","120","81","19","[""Asian""]","No","Male","2070072","null","null","","","","clear_screen","","","","","","","","","","","","","","","","","","","","","","","","","",""
"","","","","","canvas-keyboard-response","262","345058","0.0-12.0-0.50","2d_cat_multi_stim_exp1","2022-5-3","9:9:1","25","75","3","9","10","40","30","120","81","19","[""Asian""]","No","Male","2070072","null","null","","","","fixation","","","","","","","","","","","","","","","","","","","","","","","","","",""
"","","","","","canvas-keyboard-response","263","345567","0.0-12.0-1.50","2d_cat_multi_stim_exp1","2022-5-3","9:9:1","25","75","3","9","10","40","30","120","81","19","[""Asian""]","No","Male","2070072","null","null","","","","clear_screen","","","","","","","","","","","","","","","","","","","","","","","","","",""
"","","","","","canvas-keyboard-response","264","346559","0.0-12.0-2.50","2d_cat_multi_stim_exp1","2022-5-3","9:9:1","25","75","3","9","10","40","30","120","81","19","[""Asian""]","No","Male","2070072","983","u","learn","","","learn_trial","23.3333","70","out","1","0","","","","","","","","","","","","","","","","","","","","",""
"","","","","","canvas-keyboard-response","265","347568","0.0-12.0-3.50","2d_cat_multi_stim_exp1","2022-5-3","9:9:1","25","75","3","9","10","40","30","120","81","19","[""Asian""]","No","Male","2070072","null","null","learn_feedback","","","learn_feedback","23.3333","70","out","","","","","","","","","","","","","","","","","","","","","","",""
"","","","","","canvas-keyboard-response","266","347626","0.0-12.0-4.50","2d_cat_multi_stim_exp1","2022-5-3","9:9:1","25","75","3","9","10","40","30","120","81","19","[""Asian""]","No","Male","2070072","null","null","","","","clear_screen","","","","","","","","","","","","","","","","","","","","","","","","","",""
"","","","","","canvas-keyboard-response","267","348134","0.0-12.0-0.51","2d_cat_multi_stim_exp1","2022-5-3","9:9:1","25","75","3","9","10","40","30","120","81","19","[""Asian""]","No","Male","2070072","null","null","","","","fixation","","","","","","","","","","","","","","","","","","","","","","","","","",""
"","","","","","canvas-keyboard-response","268","348645","0.0-12.0-1.51","2d_cat_multi_stim_exp1","2022-5-3","9:9:1","25","75","3","9","10","40","30","120","81","19","[""Asian""]","No","Male","2070072","null","null","","","","clear_screen","","","","","","","","","","","","","","","","","","","","","","","","","",""
"","","","","","canvas-keyboard-response","269","349782","0.0-12.0-2.51","2d_cat_multi_stim_exp1","2022-5-3","9:9:1","25","75","3","9","10","40","30","120","81","19","[""Asian""]","No","Male","2070072","1130","u","learn","","","learn_trial","25","75","in","1","1","","","","","","","","","","","","","","","","","","","","",""
"","","","","","canvas-keyboard-response","270","350292","0.0-12.0-3.51","2d_cat_multi_stim_exp1","2022-5-3","9:9:1","25","75","3","9","10","40","30","120","81","19","[""Asian""]","No","Male","2070072","null","null","learn_feedback","","","learn_feedback","25","75","in","","","","","","","","","","","","","","","","","","","","","","",""
"","","","","","canvas-keyboard-response","271","350350","0.0-12.0-4.51","2d_cat_multi_stim_exp1","2022-5-3","9:9:1","25","75","3","9","10","40","30","120","81","19","[""Asian""]","No","Male","2070072","null","null","","","","clear_screen","","","","","","","","","","","","","","","","","","","","","","","","","",""
"","","","","","canvas-keyboard-response","272","350858","0.0-12.0-0.52","2d_cat_multi_stim_exp1","2022-5-3","9:9:1","25","75","3","9","10","40","30","120","81","19","[""Asian""]","No","Male","2070072","null","null","","","","fixation","","","","","","","","","","","","","","","","","","","","","","","","","",""
"","","","","","canvas-keyboard-response","273","351367","0.0-12.0-1.52","2d_cat_multi_stim_exp1","2022-5-3","9:9:1","25","75","3","9","10","40","30","120","81","19","[""Asian""]","No","Male","2070072","null","null","","","","clear_screen","","","","","","","","","","","","","","","","","","","","","","","","","",""
"","","","","","canvas-keyboard-response","274","352543","0.0-12.0-2.52","2d_cat_multi_stim_exp1","2022-5-3","9:9:1","25","75","3","9","10","40","30","120","81","19","[""Asian""]","No","Male","2070072","1168","u","learn","","","learn_trial","25","75","in","1","1","","","","","","","","","","","","","","","","","","","","",""
"","","","","","canvas-keyboard-response","275","353053","0.0-12.0-3.52","2d_cat_multi_stim_exp1","2022-5-3","9:9:1","25","75","3","9","10","40","30","120","81","19","[""Asian""]","No","Male","2070072","null","null","learn_feedback","","","learn_feedback","25","75","in","","","","","","","","","","","","","","","","","","","","","","",""
"","","","","","canvas-keyboard-response","276","353111","0.0-12.0-4.52","2d_cat_multi_stim_exp1","2022-5-3","9:9:1","25","75","3","9","10","40","30","120","81","19","[""Asian""]","No","Male","2070072","null","null","","","","clear_screen","","","","","","","","","","","","","","","","","","","","","","","","","",""
"","","","","","canvas-keyboard-response","277","353619","0.0-12.0-0.53","2d_cat_multi_stim_exp1","2022-5-3","9:9:1","25","75","3","9","10","40","30","120","81","19","[""Asian""]","No","Male","2070072","null","null","","","","fixation","","","","","","","","","","","","","","","","","","","","","","","","","",""
"","","","","","canvas-keyboard-response","278","354128","0.0-12.0-1.53","2d_cat_multi_stim_exp1","2022-5-3","9:9:1","25","75","3","9","10","40","30","120","81","19","[""Asian""]","No","Male","2070072","null","null","","","","clear_screen","","","","","","","","","","","","","","","","","","","","","","","","","",""
"","","","","","canvas-keyboard-response","279","355430","0.0-12.0-2.53","2d_cat_multi_stim_exp1","2022-5-3","9:9:1","25","75","3","9","10","40","30","120","81","19","[""Asian""]","No","Male","2070072","1294","i","learn","","","learn_trial","16.6667","80","out","0","1","","","","","","","","","","","","","","","","","","","","",""
"","","","","","canvas-keyboard-response","280","355939","0.0-12.0-3.53","2d_cat_multi_stim_exp1","2022-5-3","9:9:1","25","75","3","9","10","40","30","120","81","19","[""Asian""]","No","Male","2070072","null","null","learn_feedback","","","learn_feedback","16.6667","80","out","","","","","","","","","","","","","","","","","","","","","","",""
"","","","","","canvas-keyboard-response","281","355997","0.0-12.0-4.53","2d_cat_multi_stim_exp1","2022-5-3","9:9:1","25","75","3","9","10","40","30","120","81","19","[""Asian""]","No","Male","2070072","null","null","","","","clear_screen","","","","","","","","","","","","","","","","","","","","","","","","","",""
"","","","","","canvas-keyboard-response","282","356506","0.0-12.0-0.54","2d_cat_multi_stim_exp1","2022-5-3","9:9:1","25","75","3","9","10","40","30","120","81","19","[""Asian""]","No","Male","2070072","null","null","","","","fixation","","","","","","","","","","","","","","","","","","","","","","","","","",""
"","","","","","canvas-keyboard-response","283","357015","0.0-12.0-1.54","2d_cat_multi_stim_exp1","2022-5-3","9:9:1","25","75","3","9","10","40","30","120","81","19","[""Asian""]","No","Male","2070072","null","null","","","","clear_screen","","","","","","","","","","","","","","","","","","","","","","","","","",""
"","","","","","canvas-keyboard-response","284","360136","0.0-12.0-2.54","2d_cat_multi_stim_exp1","2022-5-3","9:9:1","25","75","3","9","10","40","30","120","81","19","[""Asian""]","No","Male","2070072","3110","i","learn","","","learn_trial","25","75","in","0","0","","","","","","","","","","","","","","","","","","","","",""
"","","","","","canvas-keyboard-response","285","361148","0.0-12.0-3.54","2d_cat_multi_stim_exp1","2022-5-3","9:9:1","25","75","3","9","10","40","30","120","81","19","[""Asian""]","No","Male","2070072","null","null","learn_feedback","","","learn_feedback","25","75","in","","","","","","","","","","","","","","","","","","","","","","",""
"","","","","","canvas-keyboard-response","286","361212","0.0-12.0-4.54","2d_cat_multi_stim_exp1","2022-5-3","9:9:1","25","75","3","9","10","40","30","120","81","19","[""Asian""]","No","Male","2070072","null","null","","","","clear_screen","","","","","","","","","","","","","","","","","","","","","","","","","",""
"","","","","","canvas-keyboard-response","287","361722","0.0-12.0-0.55","2d_cat_multi_stim_exp1","2022-5-3","9:9:1","25","75","3","9","10","40","30","120","81","19","[""Asian""]","No","Male","2070072","null","null","","","","fixation","","","","","","","","","","","","","","","","","","","","","","","","","",""
"","","","","","canvas-keyboard-response","288","362232","0.0-12.0-1.55","2d_cat_multi_stim_exp1","2022-5-3","9:9:1","25","75","3","9","10","40","30","120","81","19","[""Asian""]","No","Male","2070072","null","null","","","","clear_screen","","","","","","","","","","","","","","","","","","","","","","","","","",""
"","","","","","canvas-keyboard-response","289","363432","0.0-12.0-2.55","2d_cat_multi_stim_exp1","2022-5-3","9:9:1","25","75","3","9","10","40","30","120","81","19","[""Asian""]","No","Male","2070072","1189","i","learn","","","learn_trial","27.5753","70.3839","in","0","0","","","","","","","","","","","","","","","","","","","","",""
"","","","","","canvas-keyboard-response","290","364441","0.0-12.0-3.55","2d_cat_multi_stim_exp1","2022-5-3","9:9:1","25","75","3","9","10","40","30","120","81","19","[""Asian""]","No","Male","2070072","null","null","learn_feedback","","","learn_feedback","27.5753","70.3839","in","","","","","","","","","","","","","","","","","","","","","","",""
"","","","","","canvas-keyboard-response","291","364500","0.0-12.0-4.55","2d_cat_multi_stim_exp1","2022-5-3","9:9:1","25","75","3","9","10","40","30","120","81","19","[""Asian""]","No","Male","2070072","null","null","","","","clear_screen","","","","","","","","","","","","","","","","","","","","","","","","","",""
"","","","","","canvas-keyboard-response","292","365009","0.0-12.0-0.56","2d_cat_multi_stim_exp1","2022-5-3","9:9:1","25","75","3","9","10","40","30","120","81","19","[""Asian""]","No","Male","2070072","null","null","","","","fixation","","","","","","","","","","","","","","","","","","","","","","","","","",""
"","","","","","canvas-keyboard-response","293","365518","0.0-12.0-1.56","2d_cat_multi_stim_exp1","2022-5-3","9:9:1","25","75","3","9","10","40","30","120","81","19","[""Asian""]","No","Male","2070072","null","null","","","","clear_screen","","","","","","","","","","","","","","","","","","","","","","","","","",""
"","","","","","canvas-keyboard-response","294","366279","0.0-12.0-2.56","2d_cat_multi_stim_exp1","2022-5-3","9:9:1","25","75","3","9","10","40","30","120","81","19","[""Asian""]","No","Male","2070072","752","i","learn","","","learn_trial","26.6667","60","out","0","1","","","","","","","","","","","","","","","","","","","","",""
"","","","","","canvas-keyboard-response","295","366790","0.0-12.0-3.56","2d_cat_multi_stim_exp1","2022-5-3","9:9:1","25","75","3","9","10","40","30","120","81","19","[""Asian""]","No","Male","2070072","null","null","learn_feedback","","","learn_feedback","26.6667","60","out","","","","","","","","","","","","","","","","","","","","","","",""
"","","","","","canvas-keyboard-response","296","366849","0.0-12.0-4.56","2d_cat_multi_stim_exp1","2022-5-3","9:9:1","25","75","3","9","10","40","30","120","81","19","[""Asian""]","No","Male","2070072","null","null","","","","clear_screen","","","","","","","","","","","","","","","","","","","","","","","","","",""
"","","","","","canvas-keyboard-response","297","367357","0.0-12.0-0.57","2d_cat_multi_stim_exp1","2022-5-3","9:9:1","25","75","3","9","10","40","30","120","81","19","[""Asian""]","No","Male","2070072","null","null","","","","fixation","","","","","","","","","","","","","","","","","","","","","","","","","",""
"","","","","","canvas-keyboard-response","298","367867","0.0-12.0-1.57","2d_cat_multi_stim_exp1","2022-5-3","9:9:1","25","75","3","9","10","40","30","120","81","19","[""Asian""]","No","Male","2070072","null","null","","","","clear_screen","","","","","","","","","","","","","","","","","","","","","","","","","",""
"","","","","","canvas-keyboard-response","299","368750","0.0-12.0-2.57","2d_cat_multi_stim_exp1","2022-5-3","9:9:1","25","75","3","9","10","40","30","120","81","19","[""Asian""]","No","Male","2070072","875","i","learn","","","learn_trial","20","90","out","0","1","","","","","","","","","","","","","","","","","","","","",""
"","","","","","canvas-keyboard-response","300","369264","0.0-12.0-3.57","2d_cat_multi_stim_exp1","2022-5-3","9:9:1","25","75","3","9","10","40","30","120","81","19","[""Asian""]","No","Male","2070072","null","null","learn_feedback","","","learn_feedback","20","90","out","","","","","","","","","","","","","","","","","","","","","","",""
"","","","","","canvas-keyboard-response","301","369322","0.0-12.0-4.57","2d_cat_multi_stim_exp1","2022-5-3","9:9:1","25","75","3","9","10","40","30","120","81","19","[""Asian""]","No","Male","2070072","null","null","","","","clear_screen","","","","","","","","","","","","","","","","","","","","","","","","","",""
