"success","timeout","failed_images","failed_audio","failed_video","trial_type","trial_index","time_elapsed","internal_node_id","exp_name","date","time","angle_mean_in","radius_mean_in","angle_sd_in","radius_sd_in","angle_min_out","angle_max_out","radius_min_out","radius_max_out","sub_n","age","race","ethnicity","gender","exp_duration","rt","response","exp_trial_type","stimulus","view_history","screen_id","angle","radius","distribution","choice","correct","order","angle_a","radius_a","angle_b","radius_b","angle_c","radius_c","jkl_correct","transfer_trial_type","choice_set","abc_correct","tc_correct","tc_angle","tdc_a","tdc_b","tdc_c","pair","category_a","category_b","category_c","question_order"
"true","false","[]","[]","[]","preload","0","35","0.0-0.0","2d_cat_multi_stim_exp1","2022-5-4","15:41:39","25","75","3","9","10","40","30","120","94","21","[""Other""]","No","Female","3236002","","","","","","","","","","","","","","","","","","","","","","","","","","","","","","","",""
"","","","","","survey-html-form","1","1714","0.0-1.0","2d_cat_multi_stim_exp1","2022-5-4","15:41:39","25","75","3","9","10","40","30","120","94","21","[""Other""]","No","Female","3236002","1645","{""response"":""94""}","enter-sub-number","","","","","","","","","","","","","","","","","","","","","","","","","","","","",""
"true","","","","","fullscreen","2","3285","0.0-2.0","2d_cat_multi_stim_exp1","2022-5-4","15:41:39","25","75","3","9","10","40","30","120","94","21","[""Other""]","No","Female","3236002","","","","","","","","","","","","","","","","","","","","","","","","","","","","","","","",""
"","","","","","image-button-response","3","1032184","0.0-3.0","2d_cat_multi_stim_exp1","2022-5-4","15:41:39","25","75","3","9","10","40","30","120","94","21","[""Other""]","No","Female","3236002","1028891","0","","consent.png","","","","","","","","","","","","","","","","","","","","","","","","","","","",""
"","","","","","html-button-response","4","1035935","0.0-4.0","2d_cat_multi_stim_exp1","2022-5-4","15:41:39","25","75","3","9","10","40","30","120","94","21","[""Other""]","No","Female","3236002","3745","0","","<div style= ""font-size:25px;"" <p> <strong> Welcome to the experiment! </strong><br> <p style=""color:#8B0000; font-size:25px;""><strong> Please do NOT exit full screen until you are done with the experiment. </strong> </p><p style=""font-size:25px;color:#8B0000;""> <strong> The experiment will be canceled and your data will be lost <br> if you try to go back or refresh the page at any point during the experiment.</strong> </p><br><p> <strong> Thanks in advance for your contribution to our research! </strong></p>","","","","","","","","","","","","","","","","","","","","","","","","","","","",""
"","","","","","instructions","5","1082862","0.0-5.0","2d_cat_multi_stim_exp1","2022-5-4","15:41:39","25","75","3","9","10","40","30","120","94","21","[""Other""]","No","Female","3236002","46922","","","","[{""page_index"":0,""viewing_time"":8387},{""page_index"":1,""viewing_time"":3136},{""page_index"":2,""viewing_time"":17136},{""page_index"":3,""viewing_time"":18263}]","instructions_1","","","","","","","","","","","","","","","","","","","","","","","","","",""
"","","","","","instructions","6","1085207","0.0-6.0","2d_cat_multi_stim_exp1","2022-5-4","15:41:39","25","75","3","9","10","40","30","120","94","21","[""Other""]","No","Female","3236002","2344","","","","[{""page_index"":0,""viewing_time"":2343}]","Click to see the kinds of turtles that will appear in the study.","","","","","","","","","","","","","","","","","","","","","","","","","",""
"","","","","","canvas-keyboard-response","7","1100232","0.0-7.0","2d_cat_multi_stim_exp1","2022-5-4","15:41:39","25","75","3","9","10","40","30","120","94","21","[""Other""]","No","Female","3236002","null","null","","","","demo_range","","","","","","","","","","","","","","","","","","","","","","","","","",""
"","","","","","instructions","8","1105894","0.0-8.0","2d_cat_multi_stim_exp1","2022-5-4","15:41:39","25","75","3","9","10","40","30","120","94","21","[""Other""]","No","Female","3236002","5161","","","","[{""page_index"":0,""viewing_time"":5161}]","Click to see some turtles in the subspecies.","","","","","","","","","","","","","","","","","","","","","","","","","",""
"","","","","","canvas-keyboard-response","9","1120916","0.0-9.0","2d_cat_multi_stim_exp1","2022-5-4","15:41:39","25","75","3","9","10","40","30","120","94","21","[""Other""]","No","Female","3236002","null","null","","","","demo_in","","","","","","","","","","","","","","","","","","","","","","","","","",""
"","","","","","instructions","10","1156758","0.0-10.0","2d_cat_multi_stim_exp1","2022-5-4","15:41:39","25","75","3","9","10","40","30","120","94","21","[""Other""]","No","Female","3236002","35341","","","","[{""page_index"":0,""viewing_time"":6653},{""page_index"":1,""viewing_time"":19927},{""page_index"":2,""viewing_time"":8760}]","instructions_2","","","","","","","","","","","","","","","","","","","","","","","","","",""
"","","","","","instructions","11","1158182","0.0-11.0","2d_cat_multi_stim_exp1","2022-5-4","15:41:39","25","75","3","9","10","40","30","120","94","21","[""Other""]","No","Female","3236002","1423","","","","[{""page_index"":0,""viewing_time"":1423}]","Click to begin the first phase of the experiment.","","","","","","","","","","","","","","","","","","","","","","","","","",""
"","","","","","canvas-keyboard-response","12","1158692","0.0-12.0-0.0","2d_cat_multi_stim_exp1","2022-5-4","15:41:39","25","75","3","9","10","40","30","120","94","21","[""Other""]","No","Female","3236002","null","null","","","","fixation","","","","","","","","","","","","","","","","","","","","","","","","","",""
"","","","","","canvas-keyboard-response","13","1159202","0.0-12.0-1.0","2d_cat_multi_stim_exp1","2022-5-4","15:41:39","25","75","3","9","10","40","30","120","94","21","[""Other""]","No","Female","3236002","null","null","","","","clear_screen","","","","","","","","","","","","","","","","","","","","","","","","","",""
"","","","","","canvas-keyboard-response","14","1162420","0.0-12.0-2.0","2d_cat_multi_stim_exp1","2022-5-4","15:41:39","25","75","3","9","10","40","30","120","94","21","[""Other""]","No","Female","3236002","3206","u","learn","","","learn_trial","20","60","out","1","0","","","","","","","","","","","","","","","","","","","","",""
"","","","","","canvas-keyboard-response","15","1163432","0.0-12.0-3.0","2d_cat_multi_stim_exp1","2022-5-4","15:41:39","25","75","3","9","10","40","30","120","94","21","[""Other""]","No","Female","3236002","null","null","learn_feedback","","","learn_feedback","20","60","out","","","","","","","","","","","","","","","","","","","","","","",""
"","","","","","canvas-keyboard-response","16","1163492","0.0-12.0-4.0","2d_cat_multi_stim_exp1","2022-5-4","15:41:39","25","75","3","9","10","40","30","120","94","21","[""Other""]","No","Female","3236002","null","null","","","","clear_screen","","","","","","","","","","","","","","","","","","","","","","","","","",""
"","","","","","canvas-keyboard-response","17","1164003","0.0-12.0-0.1","2d_cat_multi_stim_exp1","2022-5-4","15:41:39","25","75","3","9","10","40","30","120","94","21","[""Other""]","No","Female","3236002","null","null","","","","fixation","","","","","","","","","","","","","","","","","","","","","","","","","",""
"","","","","","canvas-keyboard-response","18","1164515","0.0-12.0-1.1","2d_cat_multi_stim_exp1","2022-5-4","15:41:39","25","75","3","9","10","40","30","120","94","21","[""Other""]","No","Female","3236002","null","null","","","","clear_screen","","","","","","","","","","","","","","","","","","","","","","","","","",""
"","","","","","canvas-keyboard-response","19","1168132","0.0-12.0-2.1","2d_cat_multi_stim_exp1","2022-5-4","15:41:39","25","75","3","9","10","40","30","120","94","21","[""Other""]","No","Female","3236002","3606","u","learn","","","learn_trial","30","30","out","1","0","","","","","","","","","","","","","","","","","","","","",""
"","","","","","canvas-keyboard-response","20","1169142","0.0-12.0-3.1","2d_cat_multi_stim_exp1","2022-5-4","15:41:39","25","75","3","9","10","40","30","120","94","21","[""Other""]","No","Female","3236002","null","null","learn_feedback","","","learn_feedback","30","30","out","","","","","","","","","","","","","","","","","","","","","","",""
"","","","","","canvas-keyboard-response","21","1169202","0.0-12.0-4.1","2d_cat_multi_stim_exp1","2022-5-4","15:41:39","25","75","3","9","10","40","30","120","94","21","[""Other""]","No","Female","3236002","null","null","","","","clear_screen","","","","","","","","","","","","","","","","","","","","","","","","","",""
"","","","","","canvas-keyboard-response","22","1169711","0.0-12.0-0.2","2d_cat_multi_stim_exp1","2022-5-4","15:41:39","25","75","3","9","10","40","30","120","94","21","[""Other""]","No","Female","3236002","null","null","","","","fixation","","","","","","","","","","","","","","","","","","","","","","","","","",""
"","","","","","canvas-keyboard-response","23","1170221","0.0-12.0-1.2","2d_cat_multi_stim_exp1","2022-5-4","15:41:39","25","75","3","9","10","40","30","120","94","21","[""Other""]","No","Female","3236002","null","null","","","","clear_screen","","","","","","","","","","","","","","","","","","","","","","","","","",""
"","","","","","canvas-keyboard-response","24","1170899","0.0-12.0-2.2","2d_cat_multi_stim_exp1","2022-5-4","15:41:39","25","75","3","9","10","40","30","120","94","21","[""Other""]","No","Female","3236002","669","i","learn","","","learn_trial","25","75","in","0","0","","","","","","","","","","","","","","","","","","","","",""
"","","","","","canvas-keyboard-response","25","1171910","0.0-12.0-3.2","2d_cat_multi_stim_exp1","2022-5-4","15:41:39","25","75","3","9","10","40","30","120","94","21","[""Other""]","No","Female","3236002","null","null","learn_feedback","","","learn_feedback","25","75","in","","","","","","","","","","","","","","","","","","","","","","",""
"","","","","","canvas-keyboard-response","26","1171970","0.0-12.0-4.2","2d_cat_multi_stim_exp1","2022-5-4","15:41:39","25","75","3","9","10","40","30","120","94","21","[""Other""]","No","Female","3236002","null","null","","","","clear_screen","","","","","","","","","","","","","","","","","","","","","","","","","",""
"","","","","","canvas-keyboard-response","27","1172480","0.0-12.0-0.3","2d_cat_multi_stim_exp1","2022-5-4","15:41:39","25","75","3","9","10","40","30","120","94","21","[""Other""]","No","Female","3236002","null","null","","","","fixation","","","","","","","","","","","","","","","","","","","","","","","","","",""
"","","","","","canvas-keyboard-response","28","1172989","0.0-12.0-1.3","2d_cat_multi_stim_exp1","2022-5-4","15:41:39","25","75","3","9","10","40","30","120","94","21","[""Other""]","No","Female","3236002","null","null","","","","clear_screen","","","","","","","","","","","","","","","","","","","","","","","","","",""
"","","","","","canvas-keyboard-response","29","1174467","0.0-12.0-2.3","2d_cat_multi_stim_exp1","2022-5-4","15:41:39","25","75","3","9","10","40","30","120","94","21","[""Other""]","No","Female","3236002","1469","i","learn","","","learn_trial","25","75","in","0","0","","","","","","","","","","","","","","","","","","","","",""
"","","","","","canvas-keyboard-response","30","1175480","0.0-12.0-3.3","2d_cat_multi_stim_exp1","2022-5-4","15:41:39","25","75","3","9","10","40","30","120","94","21","[""Other""]","No","Female","3236002","null","null","learn_feedback","","","learn_feedback","25","75","in","","","","","","","","","","","","","","","","","","","","","","",""
"","","","","","canvas-keyboard-response","31","1175539","0.0-12.0-4.3","2d_cat_multi_stim_exp1","2022-5-4","15:41:39","25","75","3","9","10","40","30","120","94","21","[""Other""]","No","Female","3236002","null","null","","","","clear_screen","","","","","","","","","","","","","","","","","","","","","","","","","",""
"","","","","","canvas-keyboard-response","32","1176048","0.0-12.0-0.4","2d_cat_multi_stim_exp1","2022-5-4","15:41:39","25","75","3","9","10","40","30","120","94","21","[""Other""]","No","Female","3236002","null","null","","","","fixation","","","","","","","","","","","","","","","","","","","","","","","","","",""
"","","","","","canvas-keyboard-response","33","1176558","0.0-12.0-1.4","2d_cat_multi_stim_exp1","2022-5-4","15:41:39","25","75","3","9","10","40","30","120","94","21","[""Other""]","No","Female","3236002","null","null","","","","clear_screen","","","","","","","","","","","","","","","","","","","","","","","","","",""
"","","","","","canvas-keyboard-response","34","1180100","0.0-12.0-2.4","2d_cat_multi_stim_exp1","2022-5-4","15:41:39","25","75","3","9","10","40","30","120","94","21","[""Other""]","No","Female","3236002","3532","u","learn","","","learn_trial","36.6667","110","out","1","0","","","","","","","","","","","","","","","","","","","","",""
"","","","","","canvas-keyboard-response","35","1181109","0.0-12.0-3.4","2d_cat_multi_stim_exp1","2022-5-4","15:41:39","25","75","3","9","10","40","30","120","94","21","[""Other""]","No","Female","3236002","null","null","learn_feedback","","","learn_feedback","36.6667","110","out","","","","","","","","","","","","","","","","","","","","","","",""
"","","","","","canvas-keyboard-response","36","1181168","0.0-12.0-4.4","2d_cat_multi_stim_exp1","2022-5-4","15:41:39","25","75","3","9","10","40","30","120","94","21","[""Other""]","No","Female","3236002","null","null","","","","clear_screen","","","","","","","","","","","","","","","","","","","","","","","","","",""
"","","","","","canvas-keyboard-response","37","1181677","0.0-12.0-0.5","2d_cat_multi_stim_exp1","2022-5-4","15:41:39","25","75","3","9","10","40","30","120","94","21","[""Other""]","No","Female","3236002","null","null","","","","fixation","","","","","","","","","","","","","","","","","","","","","","","","","",""
"","","","","","canvas-keyboard-response","38","1182186","0.0-12.0-1.5","2d_cat_multi_stim_exp1","2022-5-4","15:41:39","25","75","3","9","10","40","30","120","94","21","[""Other""]","No","Female","3236002","null","null","","","","clear_screen","","","","","","","","","","","","","","","","","","","","","","","","","",""
"","","","","","canvas-keyboard-response","39","1184003","0.0-12.0-2.5","2d_cat_multi_stim_exp1","2022-5-4","15:41:39","25","75","3","9","10","40","30","120","94","21","[""Other""]","No","Female","3236002","1806","i","learn","","","learn_trial","25","75","in","0","0","","","","","","","","","","","","","","","","","","","","",""
"","","","","","canvas-keyboard-response","40","1185012","0.0-12.0-3.5","2d_cat_multi_stim_exp1","2022-5-4","15:41:39","25","75","3","9","10","40","30","120","94","21","[""Other""]","No","Female","3236002","null","null","learn_feedback","","","learn_feedback","25","75","in","","","","","","","","","","","","","","","","","","","","","","",""
"","","","","","canvas-keyboard-response","41","1185070","0.0-12.0-4.5","2d_cat_multi_stim_exp1","2022-5-4","15:41:39","25","75","3","9","10","40","30","120","94","21","[""Other""]","No","Female","3236002","null","null","","","","clear_screen","","","","","","","","","","","","","","","","","","","","","","","","","",""
"","","","","","canvas-keyboard-response","42","1185580","0.0-12.0-0.6","2d_cat_multi_stim_exp1","2022-5-4","15:41:39","25","75","3","9","10","40","30","120","94","21","[""Other""]","No","Female","3236002","null","null","","","","fixation","","","","","","","","","","","","","","","","","","","","","","","","","",""
"","","","","","canvas-keyboard-response","43","1186088","0.0-12.0-1.6","2d_cat_multi_stim_exp1","2022-5-4","15:41:39","25","75","3","9","10","40","30","120","94","21","[""Other""]","No","Female","3236002","null","null","","","","clear_screen","","","","","","","","","","","","","","","","","","","","","","","","","",""
"","","","","","canvas-keyboard-response","44","1188642","0.0-12.0-2.6","2d_cat_multi_stim_exp1","2022-5-4","15:41:39","25","75","3","9","10","40","30","120","94","21","[""Other""]","No","Female","3236002","2541","u","learn","","","learn_trial","25","93","in","1","1","","","","","","","","","","","","","","","","","","","","",""
"","","","","","canvas-keyboard-response","45","1189154","0.0-12.0-3.6","2d_cat_multi_stim_exp1","2022-5-4","15:41:39","25","75","3","9","10","40","30","120","94","21","[""Other""]","No","Female","3236002","null","null","learn_feedback","","","learn_feedback","25","93","in","","","","","","","","","","","","","","","","","","","","","","",""
"","","","","","canvas-keyboard-response","46","1189212","0.0-12.0-4.6","2d_cat_multi_stim_exp1","2022-5-4","15:41:39","25","75","3","9","10","40","30","120","94","21","[""Other""]","No","Female","3236002","null","null","","","","clear_screen","","","","","","","","","","","","","","","","","","","","","","","","","",""
"","","","","","canvas-keyboard-response","47","1189722","0.0-12.0-0.7","2d_cat_multi_stim_exp1","2022-5-4","15:41:39","25","75","3","9","10","40","30","120","94","21","[""Other""]","No","Female","3236002","null","null","","","","fixation","","","","","","","","","","","","","","","","","","","","","","","","","",""
"","","","","","canvas-keyboard-response","48","1190231","0.0-12.0-1.7","2d_cat_multi_stim_exp1","2022-5-4","15:41:39","25","75","3","9","10","40","30","120","94","21","[""Other""]","No","Female","3236002","null","null","","","","clear_screen","","","","","","","","","","","","","","","","","","","","","","","","","",""
"","","","","","canvas-keyboard-response","49","1192098","0.0-12.0-2.7","2d_cat_multi_stim_exp1","2022-5-4","15:41:39","25","75","3","9","10","40","30","120","94","21","[""Other""]","No","Female","3236002","1857","i","learn","","","learn_trial","22.2971","71.095","in","0","0","","","","","","","","","","","","","","","","","","","","",""
"","","","","","canvas-keyboard-response","50","1193110","0.0-12.0-3.7","2d_cat_multi_stim_exp1","2022-5-4","15:41:39","25","75","3","9","10","40","30","120","94","21","[""Other""]","No","Female","3236002","null","null","learn_feedback","","","learn_feedback","22.2971","71.095","in","","","","","","","","","","","","","","","","","","","","","","",""
"","","","","","canvas-keyboard-response","51","1193171","0.0-12.0-4.7","2d_cat_multi_stim_exp1","2022-5-4","15:41:39","25","75","3","9","10","40","30","120","94","21","[""Other""]","No","Female","3236002","null","null","","","","clear_screen","","","","","","","","","","","","","","","","","","","","","","","","","",""
"","","","","","canvas-keyboard-response","52","1193679","0.0-12.0-0.8","2d_cat_multi_stim_exp1","2022-5-4","15:41:39","25","75","3","9","10","40","30","120","94","21","[""Other""]","No","Female","3236002","null","null","","","","fixation","","","","","","","","","","","","","","","","","","","","","","","","","",""
"","","","","","canvas-keyboard-response","53","1194189","0.0-12.0-1.8","2d_cat_multi_stim_exp1","2022-5-4","15:41:39","25","75","3","9","10","40","30","120","94","21","[""Other""]","No","Female","3236002","null","null","","","","clear_screen","","","","","","","","","","","","","","","","","","","","","","","","","",""
"","","","","","canvas-keyboard-response","54","1195346","0.0-12.0-2.8","2d_cat_multi_stim_exp1","2022-5-4","15:41:39","25","75","3","9","10","40","30","120","94","21","[""Other""]","No","Female","3236002","1150","u","learn","","","learn_trial","10","90","out","1","0","","","","","","","","","","","","","","","","","","","","",""
"","","","","","canvas-keyboard-response","55","1196356","0.0-12.0-3.8","2d_cat_multi_stim_exp1","2022-5-4","15:41:39","25","75","3","9","10","40","30","120","94","21","[""Other""]","No","Female","3236002","null","null","learn_feedback","","","learn_feedback","10","90","out","","","","","","","","","","","","","","","","","","","","","","",""
"","","","","","canvas-keyboard-response","56","1196415","0.0-12.0-4.8","2d_cat_multi_stim_exp1","2022-5-4","15:41:39","25","75","3","9","10","40","30","120","94","21","[""Other""]","No","Female","3236002","null","null","","","","clear_screen","","","","","","","","","","","","","","","","","","","","","","","","","",""
"","","","","","canvas-keyboard-response","57","1196924","0.0-12.0-0.9","2d_cat_multi_stim_exp1","2022-5-4","15:41:39","25","75","3","9","10","40","30","120","94","21","[""Other""]","No","Female","3236002","null","null","","","","fixation","","","","","","","","","","","","","","","","","","","","","","","","","",""
"","","","","","canvas-keyboard-response","58","1197435","0.0-12.0-1.9","2d_cat_multi_stim_exp1","2022-5-4","15:41:39","25","75","3","9","10","40","30","120","94","21","[""Other""]","No","Female","3236002","null","null","","","","clear_screen","","","","","","","","","","","","","","","","","","","","","","","","","",""
"","","","","","canvas-keyboard-response","59","1199579","0.0-12.0-2.9","2d_cat_multi_stim_exp1","2022-5-4","15:41:39","25","75","3","9","10","40","30","120","94","21","[""Other""]","No","Female","3236002","2132","u","learn","","","learn_trial","23.3333","80","out","1","0","","","","","","","","","","","","","","","","","","","","",""
"","","","","","canvas-keyboard-response","60","1200590","0.0-12.0-3.9","2d_cat_multi_stim_exp1","2022-5-4","15:41:39","25","75","3","9","10","40","30","120","94","21","[""Other""]","No","Female","3236002","null","null","learn_feedback","","","learn_feedback","23.3333","80","out","","","","","","","","","","","","","","","","","","","","","","",""
"","","","","","canvas-keyboard-response","61","1200650","0.0-12.0-4.9","2d_cat_multi_stim_exp1","2022-5-4","15:41:39","25","75","3","9","10","40","30","120","94","21","[""Other""]","No","Female","3236002","null","null","","","","clear_screen","","","","","","","","","","","","","","","","","","","","","","","","","",""
"","","","","","canvas-keyboard-response","62","1201161","0.0-12.0-0.10","2d_cat_multi_stim_exp1","2022-5-4","15:41:39","25","75","3","9","10","40","30","120","94","21","[""Other""]","No","Female","3236002","null","null","","","","fixation","","","","","","","","","","","","","","","","","","","","","","","","","",""
"","","","","","canvas-keyboard-response","63","1201671","0.0-12.0-1.10","2d_cat_multi_stim_exp1","2022-5-4","15:41:39","25","75","3","9","10","40","30","120","94","21","[""Other""]","No","Female","3236002","null","null","","","","clear_screen","","","","","","","","","","","","","","","","","","","","","","","","","",""
"","","","","","canvas-keyboard-response","64","1202060","0.0-12.0-2.10","2d_cat_multi_stim_exp1","2022-5-4","15:41:39","25","75","3","9","10","40","30","120","94","21","[""Other""]","No","Female","3236002","377","u","learn","","","learn_trial","36.6667","70","out","1","0","","","","","","","","","","","","","","","","","","","","",""
"","","","","","canvas-keyboard-response","65","1203069","0.0-12.0-3.10","2d_cat_multi_stim_exp1","2022-5-4","15:41:39","25","75","3","9","10","40","30","120","94","21","[""Other""]","No","Female","3236002","null","null","learn_feedback","","","learn_feedback","36.6667","70","out","","","","","","","","","","","","","","","","","","","","","","",""
"","","","","","canvas-keyboard-response","66","1203129","0.0-12.0-4.10","2d_cat_multi_stim_exp1","2022-5-4","15:41:39","25","75","3","9","10","40","30","120","94","21","[""Other""]","No","Female","3236002","null","null","","","","clear_screen","","","","","","","","","","","","","","","","","","","","","","","","","",""
"","","","","","canvas-keyboard-response","67","1203639","0.0-12.0-0.11","2d_cat_multi_stim_exp1","2022-5-4","15:41:39","25","75","3","9","10","40","30","120","94","21","[""Other""]","No","Female","3236002","null","null","","","","fixation","","","","","","","","","","","","","","","","","","","","","","","","","",""
"","","","","","canvas-keyboard-response","68","1204149","0.0-12.0-1.11","2d_cat_multi_stim_exp1","2022-5-4","15:41:39","25","75","3","9","10","40","30","120","94","21","[""Other""]","No","Female","3236002","null","null","","","","clear_screen","","","","","","","","","","","","","","","","","","","","","","","","","",""
"","","","","","canvas-keyboard-response","69","1204523","0.0-12.0-2.11","2d_cat_multi_stim_exp1","2022-5-4","15:41:39","25","75","3","9","10","40","30","120","94","21","[""Other""]","No","Female","3236002","364","u","learn","","","learn_trial","16.6667","30","out","1","0","","","","","","","","","","","","","","","","","","","","",""
"","","","","","canvas-keyboard-response","70","1205533","0.0-12.0-3.11","2d_cat_multi_stim_exp1","2022-5-4","15:41:39","25","75","3","9","10","40","30","120","94","21","[""Other""]","No","Female","3236002","null","null","learn_feedback","","","learn_feedback","16.6667","30","out","","","","","","","","","","","","","","","","","","","","","","",""
"","","","","","canvas-keyboard-response","71","1205592","0.0-12.0-4.11","2d_cat_multi_stim_exp1","2022-5-4","15:41:39","25","75","3","9","10","40","30","120","94","21","[""Other""]","No","Female","3236002","null","null","","","","clear_screen","","","","","","","","","","","","","","","","","","","","","","","","","",""
"","","","","","canvas-keyboard-response","72","1206102","0.0-12.0-0.12","2d_cat_multi_stim_exp1","2022-5-4","15:41:39","25","75","3","9","10","40","30","120","94","21","[""Other""]","No","Female","3236002","null","null","","","","fixation","","","","","","","","","","","","","","","","","","","","","","","","","",""
"","","","","","canvas-keyboard-response","73","1206613","0.0-12.0-1.12","2d_cat_multi_stim_exp1","2022-5-4","15:41:39","25","75","3","9","10","40","30","120","94","21","[""Other""]","No","Female","3236002","null","null","","","","clear_screen","","","","","","","","","","","","","","","","","","","","","","","","","",""
"","","","","","canvas-keyboard-response","74","1206643","0.0-12.0-2.12","2d_cat_multi_stim_exp1","2022-5-4","15:41:39","25","75","3","9","10","40","30","120","94","21","[""Other""]","No","Female","3236002","21","i","learn","","","learn_trial","33.3333","120","out","0","1","","","","","","","","","","","","","","","","","","","","",""
"","","","","","canvas-keyboard-response","75","1207153","0.0-12.0-3.12","2d_cat_multi_stim_exp1","2022-5-4","15:41:39","25","75","3","9","10","40","30","120","94","21","[""Other""]","No","Female","3236002","null","null","learn_feedback","","","learn_feedback","33.3333","120","out","","","","","","","","","","","","","","","","","","","","","","",""
"","","","","","canvas-keyboard-response","76","1207212","0.0-12.0-4.12","2d_cat_multi_stim_exp1","2022-5-4","15:41:39","25","75","3","9","10","40","30","120","94","21","[""Other""]","No","Female","3236002","null","null","","","","clear_screen","","","","","","","","","","","","","","","","","","","","","","","","","",""
"","","","","","canvas-keyboard-response","77","1207721","0.0-12.0-0.13","2d_cat_multi_stim_exp1","2022-5-4","15:41:39","25","75","3","9","10","40","30","120","94","21","[""Other""]","No","Female","3236002","null","null","","","","fixation","","","","","","","","","","","","","","","","","","","","","","","","","",""
"","","","","","canvas-keyboard-response","78","1208230","0.0-12.0-1.13","2d_cat_multi_stim_exp1","2022-5-4","15:41:39","25","75","3","9","10","40","30","120","94","21","[""Other""]","No","Female","3236002","null","null","","","","clear_screen","","","","","","","","","","","","","","","","","","","","","","","","","",""
"","","","","","canvas-keyboard-response","79","1209107","0.0-12.0-2.13","2d_cat_multi_stim_exp1","2022-5-4","15:41:39","25","75","3","9","10","40","30","120","94","21","[""Other""]","No","Female","3236002","868","i","learn","","","learn_trial","33.3333","30","out","0","1","","","","","","","","","","","","","","","","","","","","",""
"","","","","","canvas-keyboard-response","80","1209616","0.0-12.0-3.13","2d_cat_multi_stim_exp1","2022-5-4","15:41:39","25","75","3","9","10","40","30","120","94","21","[""Other""]","No","Female","3236002","null","null","learn_feedback","","","learn_feedback","33.3333","30","out","","","","","","","","","","","","","","","","","","","","","","",""
"","","","","","canvas-keyboard-response","81","1209675","0.0-12.0-4.13","2d_cat_multi_stim_exp1","2022-5-4","15:41:39","25","75","3","9","10","40","30","120","94","21","[""Other""]","No","Female","3236002","null","null","","","","clear_screen","","","","","","","","","","","","","","","","","","","","","","","","","",""
"","","","","","canvas-keyboard-response","82","1210184","0.0-12.0-0.14","2d_cat_multi_stim_exp1","2022-5-4","15:41:39","25","75","3","9","10","40","30","120","94","21","[""Other""]","No","Female","3236002","null","null","","","","fixation","","","","","","","","","","","","","","","","","","","","","","","","","",""
"","","","","","canvas-keyboard-response","83","1210694","0.0-12.0-1.14","2d_cat_multi_stim_exp1","2022-5-4","15:41:39","25","75","3","9","10","40","30","120","94","21","[""Other""]","No","Female","3236002","null","null","","","","clear_screen","","","","","","","","","","","","","","","","","","","","","","","","","",""
"","","","","","canvas-keyboard-response","84","1211554","0.0-12.0-2.14","2d_cat_multi_stim_exp1","2022-5-4","15:41:39","25","75","3","9","10","40","30","120","94","21","[""Other""]","No","Female","3236002","851","i","learn","","","learn_trial","40","50","out","0","1","","","","","","","","","","","","","","","","","","","","",""
"","","","","","canvas-keyboard-response","85","1212064","0.0-12.0-3.14","2d_cat_multi_stim_exp1","2022-5-4","15:41:39","25","75","3","9","10","40","30","120","94","21","[""Other""]","No","Female","3236002","null","null","learn_feedback","","","learn_feedback","40","50","out","","","","","","","","","","","","","","","","","","","","","","",""
"","","","","","canvas-keyboard-response","86","1212123","0.0-12.0-4.14","2d_cat_multi_stim_exp1","2022-5-4","15:41:39","25","75","3","9","10","40","30","120","94","21","[""Other""]","No","Female","3236002","null","null","","","","clear_screen","","","","","","","","","","","","","","","","","","","","","","","","","",""
"","","","","","canvas-keyboard-response","87","1212632","0.0-12.0-0.15","2d_cat_multi_stim_exp1","2022-5-4","15:41:39","25","75","3","9","10","40","30","120","94","21","[""Other""]","No","Female","3236002","null","null","","","","fixation","","","","","","","","","","","","","","","","","","","","","","","","","",""
"","","","","","canvas-keyboard-response","88","1213142","0.0-12.0-1.15","2d_cat_multi_stim_exp1","2022-5-4","15:41:39","25","75","3","9","10","40","30","120","94","21","[""Other""]","No","Female","3236002","null","null","","","","clear_screen","","","","","","","","","","","","","","","","","","","","","","","","","",""
"","","","","","canvas-keyboard-response","89","1213882","0.0-12.0-2.15","2d_cat_multi_stim_exp1","2022-5-4","15:41:39","25","75","3","9","10","40","30","120","94","21","[""Other""]","No","Female","3236002","730","u","learn","","","learn_trial","25.9271","66.4405","in","1","1","","","","","","","","","","","","","","","","","","","","",""
"","","","","","canvas-keyboard-response","90","1214392","0.0-12.0-3.15","2d_cat_multi_stim_exp1","2022-5-4","15:41:39","25","75","3","9","10","40","30","120","94","21","[""Other""]","No","Female","3236002","null","null","learn_feedback","","","learn_feedback","25.9271","66.4405","in","","","","","","","","","","","","","","","","","","","","","","",""
"","","","","","canvas-keyboard-response","91","1214451","0.0-12.0-4.15","2d_cat_multi_stim_exp1","2022-5-4","15:41:39","25","75","3","9","10","40","30","120","94","21","[""Other""]","No","Female","3236002","null","null","","","","clear_screen","","","","","","","","","","","","","","","","","","","","","","","","","",""
"","","","","","canvas-keyboard-response","92","1214960","0.0-12.0-0.16","2d_cat_multi_stim_exp1","2022-5-4","15:41:39","25","75","3","9","10","40","30","120","94","21","[""Other""]","No","Female","3236002","null","null","","","","fixation","","","","","","","","","","","","","","","","","","","","","","","","","",""
"","","","","","canvas-keyboard-response","93","1215470","0.0-12.0-1.16","2d_cat_multi_stim_exp1","2022-5-4","15:41:39","25","75","3","9","10","40","30","120","94","21","[""Other""]","No","Female","3236002","null","null","","","","clear_screen","","","","","","","","","","","","","","","","","","","","","","","","","",""
"","","","","","canvas-keyboard-response","94","1216347","0.0-12.0-2.16","2d_cat_multi_stim_exp1","2022-5-4","15:41:39","25","75","3","9","10","40","30","120","94","21","[""Other""]","No","Female","3236002","866","i","learn","","","learn_trial","25","75","in","0","0","","","","","","","","","","","","","","","","","","","","",""
"","","","","","canvas-keyboard-response","95","1217357","0.0-12.0-3.16","2d_cat_multi_stim_exp1","2022-5-4","15:41:39","25","75","3","9","10","40","30","120","94","21","[""Other""]","No","Female","3236002","null","null","learn_feedback","","","learn_feedback","25","75","in","","","","","","","","","","","","","","","","","","","","","","",""
"","","","","","canvas-keyboard-response","96","1217416","0.0-12.0-4.16","2d_cat_multi_stim_exp1","2022-5-4","15:41:39","25","75","3","9","10","40","30","120","94","21","[""Other""]","No","Female","3236002","null","null","","","","clear_screen","","","","","","","","","","","","","","","","","","","","","","","","","",""
"","","","","","canvas-keyboard-response","97","1217924","0.0-12.0-0.17","2d_cat_multi_stim_exp1","2022-5-4","15:41:39","25","75","3","9","10","40","30","120","94","21","[""Other""]","No","Female","3236002","null","null","","","","fixation","","","","","","","","","","","","","","","","","","","","","","","","","",""
"","","","","","canvas-keyboard-response","98","1218433","0.0-12.0-1.17","2d_cat_multi_stim_exp1","2022-5-4","15:41:39","25","75","3","9","10","40","30","120","94","21","[""Other""]","No","Female","3236002","null","null","","","","clear_screen","","","","","","","","","","","","","","","","","","","","","","","","","",""
"","","","","","canvas-keyboard-response","99","1218906","0.0-12.0-2.17","2d_cat_multi_stim_exp1","2022-5-4","15:41:39","25","75","3","9","10","40","30","120","94","21","[""Other""]","No","Female","3236002","463","u","learn","","","learn_trial","23.3473","67.4888","in","1","1","","","","","","","","","","","","","","","","","","","","",""
"","","","","","canvas-keyboard-response","100","1219416","0.0-12.0-3.17","2d_cat_multi_stim_exp1","2022-5-4","15:41:39","25","75","3","9","10","40","30","120","94","21","[""Other""]","No","Female","3236002","null","null","learn_feedback","","","learn_feedback","23.3473","67.4888","in","","","","","","","","","","","","","","","","","","","","","","",""
"","","","","","canvas-keyboard-response","101","1219475","0.0-12.0-4.17","2d_cat_multi_stim_exp1","2022-5-4","15:41:39","25","75","3","9","10","40","30","120","94","21","[""Other""]","No","Female","3236002","null","null","","","","clear_screen","","","","","","","","","","","","","","","","","","","","","","","","","",""
"","","","","","canvas-keyboard-response","102","1219986","0.0-12.0-0.18","2d_cat_multi_stim_exp1","2022-5-4","15:41:39","25","75","3","9","10","40","30","120","94","21","[""Other""]","No","Female","3236002","null","null","","","","fixation","","","","","","","","","","","","","","","","","","","","","","","","","",""
"","","","","","canvas-keyboard-response","103","1220496","0.0-12.0-1.18","2d_cat_multi_stim_exp1","2022-5-4","15:41:39","25","75","3","9","10","40","30","120","94","21","[""Other""]","No","Female","3236002","null","null","","","","clear_screen","","","","","","","","","","","","","","","","","","","","","","","","","",""
"","","","","","canvas-keyboard-response","104","1221234","0.0-12.0-2.18","2d_cat_multi_stim_exp1","2022-5-4","15:41:39","25","75","3","9","10","40","30","120","94","21","[""Other""]","No","Female","3236002","729","u","learn","","","learn_trial","22.5729","80.2901","in","1","1","","","","","","","","","","","","","","","","","","","","",""
"","","","","","canvas-keyboard-response","105","1221744","0.0-12.0-3.18","2d_cat_multi_stim_exp1","2022-5-4","15:41:39","25","75","3","9","10","40","30","120","94","21","[""Other""]","No","Female","3236002","null","null","learn_feedback","","","learn_feedback","22.5729","80.2901","in","","","","","","","","","","","","","","","","","","","","","","",""
"","","","","","canvas-keyboard-response","106","1221803","0.0-12.0-4.18","2d_cat_multi_stim_exp1","2022-5-4","15:41:39","25","75","3","9","10","40","30","120","94","21","[""Other""]","No","Female","3236002","null","null","","","","clear_screen","","","","","","","","","","","","","","","","","","","","","","","","","",""
"","","","","","canvas-keyboard-response","107","1222311","0.0-12.0-0.19","2d_cat_multi_stim_exp1","2022-5-4","15:41:39","25","75","3","9","10","40","30","120","94","21","[""Other""]","No","Female","3236002","null","null","","","","fixation","","","","","","","","","","","","","","","","","","","","","","","","","",""
"","","","","","canvas-keyboard-response","108","1222820","0.0-12.0-1.19","2d_cat_multi_stim_exp1","2022-5-4","15:41:39","25","75","3","9","10","40","30","120","94","21","[""Other""]","No","Female","3236002","null","null","","","","clear_screen","","","","","","","","","","","","","","","","","","","","","","","","","",""
"","","","","","canvas-keyboard-response","109","1224282","0.0-12.0-2.19","2d_cat_multi_stim_exp1","2022-5-4","15:41:39","25","75","3","9","10","40","30","120","94","21","[""Other""]","No","Female","3236002","1452","i","learn","","","learn_trial","40","120","out","0","1","","","","","","","","","","","","","","","","","","","","",""
"","","","","","canvas-keyboard-response","110","1224792","0.0-12.0-3.19","2d_cat_multi_stim_exp1","2022-5-4","15:41:39","25","75","3","9","10","40","30","120","94","21","[""Other""]","No","Female","3236002","null","null","learn_feedback","","","learn_feedback","40","120","out","","","","","","","","","","","","","","","","","","","","","","",""
"","","","","","canvas-keyboard-response","111","1224851","0.0-12.0-4.19","2d_cat_multi_stim_exp1","2022-5-4","15:41:39","25","75","3","9","10","40","30","120","94","21","[""Other""]","No","Female","3236002","null","null","","","","clear_screen","","","","","","","","","","","","","","","","","","","","","","","","","",""
"","","","","","canvas-keyboard-response","112","1225360","0.0-12.0-0.20","2d_cat_multi_stim_exp1","2022-5-4","15:41:39","25","75","3","9","10","40","30","120","94","21","[""Other""]","No","Female","3236002","null","null","","","","fixation","","","","","","","","","","","","","","","","","","","","","","","","","",""
"","","","","","canvas-keyboard-response","113","1225874","0.0-12.0-1.20","2d_cat_multi_stim_exp1","2022-5-4","15:41:39","25","75","3","9","10","40","30","120","94","21","[""Other""]","No","Female","3236002","null","null","","","","clear_screen","","","","","","","","","","","","","","","","","","","","","","","","","",""
"","","","","","canvas-keyboard-response","114","1226770","0.0-12.0-2.20","2d_cat_multi_stim_exp1","2022-5-4","15:41:39","25","75","3","9","10","40","30","120","94","21","[""Other""]","No","Female","3236002","886","i","learn","","","learn_trial","36.6667","30","out","0","1","","","","","","","","","","","","","","","","","","","","",""
"","","","","","canvas-keyboard-response","115","1227280","0.0-12.0-3.20","2d_cat_multi_stim_exp1","2022-5-4","15:41:39","25","75","3","9","10","40","30","120","94","21","[""Other""]","No","Female","3236002","null","null","learn_feedback","","","learn_feedback","36.6667","30","out","","","","","","","","","","","","","","","","","","","","","","",""
"","","","","","canvas-keyboard-response","116","1227339","0.0-12.0-4.20","2d_cat_multi_stim_exp1","2022-5-4","15:41:39","25","75","3","9","10","40","30","120","94","21","[""Other""]","No","Female","3236002","null","null","","","","clear_screen","","","","","","","","","","","","","","","","","","","","","","","","","",""
"","","","","","canvas-keyboard-response","117","1227848","0.0-12.0-0.21","2d_cat_multi_stim_exp1","2022-5-4","15:41:39","25","75","3","9","10","40","30","120","94","21","[""Other""]","No","Female","3236002","null","null","","","","fixation","","","","","","","","","","","","","","","","","","","","","","","","","",""
"","","","","","canvas-keyboard-response","118","1228358","0.0-12.0-1.21","2d_cat_multi_stim_exp1","2022-5-4","15:41:39","25","75","3","9","10","40","30","120","94","21","[""Other""]","No","Female","3236002","null","null","","","","clear_screen","","","","","","","","","","","","","","","","","","","","","","","","","",""
"","","","","","canvas-keyboard-response","119","1229074","0.0-12.0-2.21","2d_cat_multi_stim_exp1","2022-5-4","15:41:39","25","75","3","9","10","40","30","120","94","21","[""Other""]","No","Female","3236002","708","i","learn","","","learn_trial","25","75","in","0","0","","","","","","","","","","","","","","","","","","","","",""
"","","","","","canvas-keyboard-response","120","1230084","0.0-12.0-3.21","2d_cat_multi_stim_exp1","2022-5-4","15:41:39","25","75","3","9","10","40","30","120","94","21","[""Other""]","No","Female","3236002","null","null","learn_feedback","","","learn_feedback","25","75","in","","","","","","","","","","","","","","","","","","","","","","",""
"","","","","","canvas-keyboard-response","121","1230144","0.0-12.0-4.21","2d_cat_multi_stim_exp1","2022-5-4","15:41:39","25","75","3","9","10","40","30","120","94","21","[""Other""]","No","Female","3236002","null","null","","","","clear_screen","","","","","","","","","","","","","","","","","","","","","","","","","",""
"","","","","","canvas-keyboard-response","122","1230653","0.0-12.0-0.22","2d_cat_multi_stim_exp1","2022-5-4","15:41:39","25","75","3","9","10","40","30","120","94","21","[""Other""]","No","Female","3236002","null","null","","","","fixation","","","","","","","","","","","","","","","","","","","","","","","","","",""
"","","","","","canvas-keyboard-response","123","1231163","0.0-12.0-1.22","2d_cat_multi_stim_exp1","2022-5-4","15:41:39","25","75","3","9","10","40","30","120","94","21","[""Other""]","No","Female","3236002","null","null","","","","clear_screen","","","","","","","","","","","","","","","","","","","","","","","","","",""
"","","","","","canvas-keyboard-response","124","1232498","0.0-12.0-2.22","2d_cat_multi_stim_exp1","2022-5-4","15:41:39","25","75","3","9","10","40","30","120","94","21","[""Other""]","No","Female","3236002","1327","i","learn","","","learn_trial","25","75","in","0","0","","","","","","","","","","","","","","","","","","","","",""
"","","","","","canvas-keyboard-response","125","1233509","0.0-12.0-3.22","2d_cat_multi_stim_exp1","2022-5-4","15:41:39","25","75","3","9","10","40","30","120","94","21","[""Other""]","No","Female","3236002","null","null","learn_feedback","","","learn_feedback","25","75","in","","","","","","","","","","","","","","","","","","","","","","",""
"","","","","","canvas-keyboard-response","126","1233567","0.0-12.0-4.22","2d_cat_multi_stim_exp1","2022-5-4","15:41:39","25","75","3","9","10","40","30","120","94","21","[""Other""]","No","Female","3236002","null","null","","","","clear_screen","","","","","","","","","","","","","","","","","","","","","","","","","",""
"","","","","","canvas-keyboard-response","127","1234077","0.0-12.0-0.23","2d_cat_multi_stim_exp1","2022-5-4","15:41:39","25","75","3","9","10","40","30","120","94","21","[""Other""]","No","Female","3236002","null","null","","","","fixation","","","","","","","","","","","","","","","","","","","","","","","","","",""
"","","","","","canvas-keyboard-response","128","1234585","0.0-12.0-1.23","2d_cat_multi_stim_exp1","2022-5-4","15:41:39","25","75","3","9","10","40","30","120","94","21","[""Other""]","No","Female","3236002","null","null","","","","clear_screen","","","","","","","","","","","","","","","","","","","","","","","","","",""
"","","","","","canvas-keyboard-response","129","1235179","0.0-12.0-2.23","2d_cat_multi_stim_exp1","2022-5-4","15:41:39","25","75","3","9","10","40","30","120","94","21","[""Other""]","No","Female","3236002","583","u","learn","","","learn_trial","40","110","out","1","0","","","","","","","","","","","","","","","","","","","","",""
"","","","","","canvas-keyboard-response","130","1236193","0.0-12.0-3.23","2d_cat_multi_stim_exp1","2022-5-4","15:41:39","25","75","3","9","10","40","30","120","94","21","[""Other""]","No","Female","3236002","null","null","learn_feedback","","","learn_feedback","40","110","out","","","","","","","","","","","","","","","","","","","","","","",""
"","","","","","canvas-keyboard-response","131","1236254","0.0-12.0-4.23","2d_cat_multi_stim_exp1","2022-5-4","15:41:39","25","75","3","9","10","40","30","120","94","21","[""Other""]","No","Female","3236002","null","null","","","","clear_screen","","","","","","","","","","","","","","","","","","","","","","","","","",""
"","","","","","canvas-keyboard-response","132","1236764","0.0-12.0-0.24","2d_cat_multi_stim_exp1","2022-5-4","15:41:39","25","75","3","9","10","40","30","120","94","21","[""Other""]","No","Female","3236002","null","null","","","","fixation","","","","","","","","","","","","","","","","","","","","","","","","","",""
"","","","","","canvas-keyboard-response","133","1237275","0.0-12.0-1.24","2d_cat_multi_stim_exp1","2022-5-4","15:41:39","25","75","3","9","10","40","30","120","94","21","[""Other""]","No","Female","3236002","null","null","","","","clear_screen","","","","","","","","","","","","","","","","","","","","","","","","","",""
"","","","","","canvas-keyboard-response","134","1238212","0.0-12.0-2.24","2d_cat_multi_stim_exp1","2022-5-4","15:41:39","25","75","3","9","10","40","30","120","94","21","[""Other""]","No","Female","3236002","928","u","learn","","","learn_trial","10","100","out","1","0","","","","","","","","","","","","","","","","","","","","",""
"","","","","","canvas-keyboard-response","135","1239224","0.0-12.0-3.24","2d_cat_multi_stim_exp1","2022-5-4","15:41:39","25","75","3","9","10","40","30","120","94","21","[""Other""]","No","Female","3236002","null","null","learn_feedback","","","learn_feedback","10","100","out","","","","","","","","","","","","","","","","","","","","","","",""
"","","","","","canvas-keyboard-response","136","1239283","0.0-12.0-4.24","2d_cat_multi_stim_exp1","2022-5-4","15:41:39","25","75","3","9","10","40","30","120","94","21","[""Other""]","No","Female","3236002","null","null","","","","clear_screen","","","","","","","","","","","","","","","","","","","","","","","","","",""
"","","","","","canvas-keyboard-response","137","1239792","0.0-12.0-0.25","2d_cat_multi_stim_exp1","2022-5-4","15:41:39","25","75","3","9","10","40","30","120","94","21","[""Other""]","No","Female","3236002","null","null","","","","fixation","","","","","","","","","","","","","","","","","","","","","","","","","",""
"","","","","","canvas-keyboard-response","138","1240302","0.0-12.0-1.25","2d_cat_multi_stim_exp1","2022-5-4","15:41:39","25","75","3","9","10","40","30","120","94","21","[""Other""]","No","Female","3236002","null","null","","","","clear_screen","","","","","","","","","","","","","","","","","","","","","","","","","",""
"","","","","","canvas-keyboard-response","139","1241139","0.0-12.0-2.25","2d_cat_multi_stim_exp1","2022-5-4","15:41:39","25","75","3","9","10","40","30","120","94","21","[""Other""]","No","Female","3236002","826","i","learn","","","learn_trial","25","75","in","0","0","","","","","","","","","","","","","","","","","","","","",""
"","","","","","canvas-keyboard-response","140","1242150","0.0-12.0-3.25","2d_cat_multi_stim_exp1","2022-5-4","15:41:39","25","75","3","9","10","40","30","120","94","21","[""Other""]","No","Female","3236002","null","null","learn_feedback","","","learn_feedback","25","75","in","","","","","","","","","","","","","","","","","","","","","","",""
"","","","","","canvas-keyboard-response","141","1242210","0.0-12.0-4.25","2d_cat_multi_stim_exp1","2022-5-4","15:41:39","25","75","3","9","10","40","30","120","94","21","[""Other""]","No","Female","3236002","null","null","","","","clear_screen","","","","","","","","","","","","","","","","","","","","","","","","","",""
"","","","","","canvas-keyboard-response","142","1242721","0.0-12.0-0.26","2d_cat_multi_stim_exp1","2022-5-4","15:41:39","25","75","3","9","10","40","30","120","94","21","[""Other""]","No","Female","3236002","null","null","","","","fixation","","","","","","","","","","","","","","","","","","","","","","","","","",""
"","","","","","canvas-keyboard-response","143","1243230","0.0-12.0-1.26","2d_cat_multi_stim_exp1","2022-5-4","15:41:39","25","75","3","9","10","40","30","120","94","21","[""Other""]","No","Female","3236002","null","null","","","","clear_screen","","","","","","","","","","","","","","","","","","","","","","","","","",""
"","","","","","canvas-keyboard-response","144","1243723","0.0-12.0-2.26","2d_cat_multi_stim_exp1","2022-5-4","15:41:39","25","75","3","9","10","40","30","120","94","21","[""Other""]","No","Female","3236002","482","u","learn","","","learn_trial","22.0121","74.1932","in","1","1","","","","","","","","","","","","","","","","","","","","",""
"","","","","","canvas-keyboard-response","145","1244235","0.0-12.0-3.26","2d_cat_multi_stim_exp1","2022-5-4","15:41:39","25","75","3","9","10","40","30","120","94","21","[""Other""]","No","Female","3236002","null","null","learn_feedback","","","learn_feedback","22.0121","74.1932","in","","","","","","","","","","","","","","","","","","","","","","",""
"","","","","","canvas-keyboard-response","146","1244295","0.0-12.0-4.26","2d_cat_multi_stim_exp1","2022-5-4","15:41:39","25","75","3","9","10","40","30","120","94","21","[""Other""]","No","Female","3236002","null","null","","","","clear_screen","","","","","","","","","","","","","","","","","","","","","","","","","",""
"","","","","","canvas-keyboard-response","147","1244804","0.0-12.0-0.27","2d_cat_multi_stim_exp1","2022-5-4","15:41:39","25","75","3","9","10","40","30","120","94","21","[""Other""]","No","Female","3236002","null","null","","","","fixation","","","","","","","","","","","","","","","","","","","","","","","","","",""
"","","","","","canvas-keyboard-response","148","1245313","0.0-12.0-1.27","2d_cat_multi_stim_exp1","2022-5-4","15:41:39","25","75","3","9","10","40","30","120","94","21","[""Other""]","No","Female","3236002","null","null","","","","clear_screen","","","","","","","","","","","","","","","","","","","","","","","","","",""
"","","","","","canvas-keyboard-response","149","1245914","0.0-12.0-2.27","2d_cat_multi_stim_exp1","2022-5-4","15:41:39","25","75","3","9","10","40","30","120","94","21","[""Other""]","No","Female","3236002","590","u","learn","","","learn_trial","36.6667","100","out","1","0","","","","","","","","","","","","","","","","","","","","",""
"","","","","","canvas-keyboard-response","150","1246924","0.0-12.0-3.27","2d_cat_multi_stim_exp1","2022-5-4","15:41:39","25","75","3","9","10","40","30","120","94","21","[""Other""]","No","Female","3236002","null","null","learn_feedback","","","learn_feedback","36.6667","100","out","","","","","","","","","","","","","","","","","","","","","","",""
"","","","","","canvas-keyboard-response","151","1246983","0.0-12.0-4.27","2d_cat_multi_stim_exp1","2022-5-4","15:41:39","25","75","3","9","10","40","30","120","94","21","[""Other""]","No","Female","3236002","null","null","","","","clear_screen","","","","","","","","","","","","","","","","","","","","","","","","","",""
"","","","","","canvas-keyboard-response","152","1247492","0.0-12.0-0.28","2d_cat_multi_stim_exp1","2022-5-4","15:41:39","25","75","3","9","10","40","30","120","94","21","[""Other""]","No","Female","3236002","null","null","","","","fixation","","","","","","","","","","","","","","","","","","","","","","","","","",""
"","","","","","canvas-keyboard-response","153","1248001","0.0-12.0-1.28","2d_cat_multi_stim_exp1","2022-5-4","15:41:39","25","75","3","9","10","40","30","120","94","21","[""Other""]","No","Female","3236002","null","null","","","","clear_screen","","","","","","","","","","","","","","","","","","","","","","","","","",""
"","","","","","canvas-keyboard-response","154","1248299","0.0-12.0-2.28","2d_cat_multi_stim_exp1","2022-5-4","15:41:39","25","75","3","9","10","40","30","120","94","21","[""Other""]","No","Female","3236002","289","i","learn","","","learn_trial","25","75","in","0","0","","","","","","","","","","","","","","","","","","","","",""
"","","","","","canvas-keyboard-response","155","1249308","0.0-12.0-3.28","2d_cat_multi_stim_exp1","2022-5-4","15:41:39","25","75","3","9","10","40","30","120","94","21","[""Other""]","No","Female","3236002","null","null","learn_feedback","","","learn_feedback","25","75","in","","","","","","","","","","","","","","","","","","","","","","",""
"","","","","","canvas-keyboard-response","156","1249367","0.0-12.0-4.28","2d_cat_multi_stim_exp1","2022-5-4","15:41:39","25","75","3","9","10","40","30","120","94","21","[""Other""]","No","Female","3236002","null","null","","","","clear_screen","","","","","","","","","","","","","","","","","","","","","","","","","",""
"","","","","","canvas-keyboard-response","157","1249876","0.0-12.0-0.29","2d_cat_multi_stim_exp1","2022-5-4","15:41:39","25","75","3","9","10","40","30","120","94","21","[""Other""]","No","Female","3236002","null","null","","","","fixation","","","","","","","","","","","","","","","","","","","","","","","","","",""
"","","","","","canvas-keyboard-response","158","1250386","0.0-12.0-1.29","2d_cat_multi_stim_exp1","2022-5-4","15:41:39","25","75","3","9","10","40","30","120","94","21","[""Other""]","No","Female","3236002","null","null","","","","clear_screen","","","","","","","","","","","","","","","","","","","","","","","","","",""
"","","","","","canvas-keyboard-response","159","1251355","0.0-12.0-2.29","2d_cat_multi_stim_exp1","2022-5-4","15:41:39","25","75","3","9","10","40","30","120","94","21","[""Other""]","No","Female","3236002","959","i","learn","","","learn_trial","26.6667","40","out","0","1","","","","","","","","","","","","","","","","","","","","",""
"","","","","","canvas-keyboard-response","160","1251865","0.0-12.0-3.29","2d_cat_multi_stim_exp1","2022-5-4","15:41:39","25","75","3","9","10","40","30","120","94","21","[""Other""]","No","Female","3236002","null","null","learn_feedback","","","learn_feedback","26.6667","40","out","","","","","","","","","","","","","","","","","","","","","","",""
"","","","","","canvas-keyboard-response","161","1251924","0.0-12.0-4.29","2d_cat_multi_stim_exp1","2022-5-4","15:41:39","25","75","3","9","10","40","30","120","94","21","[""Other""]","No","Female","3236002","null","null","","","","clear_screen","","","","","","","","","","","","","","","","","","","","","","","","","",""
"","","","","","canvas-keyboard-response","162","1252432","0.0-12.0-0.30","2d_cat_multi_stim_exp1","2022-5-4","15:41:39","25","75","3","9","10","40","30","120","94","21","[""Other""]","No","Female","3236002","null","null","","","","fixation","","","","","","","","","","","","","","","","","","","","","","","","","",""
"","","","","","canvas-keyboard-response","163","1252943","0.0-12.0-1.30","2d_cat_multi_stim_exp1","2022-5-4","15:41:39","25","75","3","9","10","40","30","120","94","21","[""Other""]","No","Female","3236002","null","null","","","","clear_screen","","","","","","","","","","","","","","","","","","","","","","","","","",""
"","","","","","canvas-keyboard-response","164","1253970","0.0-12.0-2.30","2d_cat_multi_stim_exp1","2022-5-4","15:41:39","25","75","3","9","10","40","30","120","94","21","[""Other""]","No","Female","3236002","1018","i","learn","","","learn_trial","25","75","in","0","0","","","","","","","","","","","","","","","","","","","","",""
"","","","","","canvas-keyboard-response","165","1254980","0.0-12.0-3.30","2d_cat_multi_stim_exp1","2022-5-4","15:41:39","25","75","3","9","10","40","30","120","94","21","[""Other""]","No","Female","3236002","null","null","learn_feedback","","","learn_feedback","25","75","in","","","","","","","","","","","","","","","","","","","","","","",""
"","","","","","canvas-keyboard-response","166","1255039","0.0-12.0-4.30","2d_cat_multi_stim_exp1","2022-5-4","15:41:39","25","75","3","9","10","40","30","120","94","21","[""Other""]","No","Female","3236002","null","null","","","","clear_screen","","","","","","","","","","","","","","","","","","","","","","","","","",""
"","","","","","canvas-keyboard-response","167","1255548","0.0-12.0-0.31","2d_cat_multi_stim_exp1","2022-5-4","15:41:39","25","75","3","9","10","40","30","120","94","21","[""Other""]","No","Female","3236002","null","null","","","","fixation","","","","","","","","","","","","","","","","","","","","","","","","","",""
"","","","","","canvas-keyboard-response","168","1256058","0.0-12.0-1.31","2d_cat_multi_stim_exp1","2022-5-4","15:41:39","25","75","3","9","10","40","30","120","94","21","[""Other""]","No","Female","3236002","null","null","","","","clear_screen","","","","","","","","","","","","","","","","","","","","","","","","","",""
"","","","","","canvas-keyboard-response","169","1256834","0.0-12.0-2.31","2d_cat_multi_stim_exp1","2022-5-4","15:41:39","25","75","3","9","10","40","30","120","94","21","[""Other""]","No","Female","3236002","766","u","learn","","","learn_trial","20","80","out","1","0","","","","","","","","","","","","","","","","","","","","",""
"","","","","","canvas-keyboard-response","170","1257844","0.0-12.0-3.31","2d_cat_multi_stim_exp1","2022-5-4","15:41:39","25","75","3","9","10","40","30","120","94","21","[""Other""]","No","Female","3236002","null","null","learn_feedback","","","learn_feedback","20","80","out","","","","","","","","","","","","","","","","","","","","","","",""
"","","","","","canvas-keyboard-response","171","1257904","0.0-12.0-4.31","2d_cat_multi_stim_exp1","2022-5-4","15:41:39","25","75","3","9","10","40","30","120","94","21","[""Other""]","No","Female","3236002","null","null","","","","clear_screen","","","","","","","","","","","","","","","","","","","","","","","","","",""
"","","","","","canvas-keyboard-response","172","1258413","0.0-12.0-0.32","2d_cat_multi_stim_exp1","2022-5-4","15:41:39","25","75","3","9","10","40","30","120","94","21","[""Other""]","No","Female","3236002","null","null","","","","fixation","","","","","","","","","","","","","","","","","","","","","","","","","",""
"","","","","","canvas-keyboard-response","173","1258922","0.0-12.0-1.32","2d_cat_multi_stim_exp1","2022-5-4","15:41:39","25","75","3","9","10","40","30","120","94","21","[""Other""]","No","Female","3236002","null","null","","","","clear_screen","","","","","","","","","","","","","","","","","","","","","","","","","",""
"","","","","","canvas-keyboard-response","174","1259667","0.0-12.0-2.32","2d_cat_multi_stim_exp1","2022-5-4","15:41:39","25","75","3","9","10","40","30","120","94","21","[""Other""]","No","Female","3236002","735","i","learn","","","learn_trial","20","40","out","0","1","","","","","","","","","","","","","","","","","","","","",""
"","","","","","canvas-keyboard-response","175","1260176","0.0-12.0-3.32","2d_cat_multi_stim_exp1","2022-5-4","15:41:39","25","75","3","9","10","40","30","120","94","21","[""Other""]","No","Female","3236002","null","null","learn_feedback","","","learn_feedback","20","40","out","","","","","","","","","","","","","","","","","","","","","","",""
"","","","","","canvas-keyboard-response","176","1260239","0.0-12.0-4.32","2d_cat_multi_stim_exp1","2022-5-4","15:41:39","25","75","3","9","10","40","30","120","94","21","[""Other""]","No","Female","3236002","null","null","","","","clear_screen","","","","","","","","","","","","","","","","","","","","","","","","","",""
"","","","","","canvas-keyboard-response","177","1260745","0.0-12.0-0.33","2d_cat_multi_stim_exp1","2022-5-4","15:41:39","25","75","3","9","10","40","30","120","94","21","[""Other""]","No","Female","3236002","null","null","","","","fixation","","","","","","","","","","","","","","","","","","","","","","","","","",""
"","","","","","canvas-keyboard-response","178","1261254","0.0-12.0-1.33","2d_cat_multi_stim_exp1","2022-5-4","15:41:39","25","75","3","9","10","40","30","120","94","21","[""Other""]","No","Female","3236002","null","null","","","","clear_screen","","","","","","","","","","","","","","","","","","","","","","","","","",""
"","","","","","canvas-keyboard-response","179","1263442","0.0-12.0-2.33","2d_cat_multi_stim_exp1","2022-5-4","15:41:39","25","75","3","9","10","40","30","120","94","21","[""Other""]","No","Female","3236002","2179","i","learn","","","learn_trial","25","75","in","0","0","","","","","","","","","","","","","","","","","","","","",""
"","","","","","canvas-keyboard-response","180","1264453","0.0-12.0-3.33","2d_cat_multi_stim_exp1","2022-5-4","15:41:39","25","75","3","9","10","40","30","120","94","21","[""Other""]","No","Female","3236002","null","null","learn_feedback","","","learn_feedback","25","75","in","","","","","","","","","","","","","","","","","","","","","","",""
"","","","","","canvas-keyboard-response","181","1264511","0.0-12.0-4.33","2d_cat_multi_stim_exp1","2022-5-4","15:41:39","25","75","3","9","10","40","30","120","94","21","[""Other""]","No","Female","3236002","null","null","","","","clear_screen","","","","","","","","","","","","","","","","","","","","","","","","","",""
"","","","","","canvas-keyboard-response","182","1265020","0.0-12.0-0.34","2d_cat_multi_stim_exp1","2022-5-4","15:41:39","25","75","3","9","10","40","30","120","94","21","[""Other""]","No","Female","3236002","null","null","","","","fixation","","","","","","","","","","","","","","","","","","","","","","","","","",""
"","","","","","canvas-keyboard-response","183","1265530","0.0-12.0-1.34","2d_cat_multi_stim_exp1","2022-5-4","15:41:39","25","75","3","9","10","40","30","120","94","21","[""Other""]","No","Female","3236002","null","null","","","","clear_screen","","","","","","","","","","","","","","","","","","","","","","","","","",""
"","","","","","canvas-keyboard-response","184","1269202","0.0-12.0-2.34","2d_cat_multi_stim_exp1","2022-5-4","15:41:39","25","75","3","9","10","40","30","120","94","21","[""Other""]","No","Female","3236002","3662","u","learn","","","learn_trial","36.6667","120","out","1","0","","","","","","","","","","","","","","","","","","","","",""
"","","","","","canvas-keyboard-response","185","1270212","0.0-12.0-3.34","2d_cat_multi_stim_exp1","2022-5-4","15:41:39","25","75","3","9","10","40","30","120","94","21","[""Other""]","No","Female","3236002","null","null","learn_feedback","","","learn_feedback","36.6667","120","out","","","","","","","","","","","","","","","","","","","","","","",""
"","","","","","canvas-keyboard-response","186","1270271","0.0-12.0-4.34","2d_cat_multi_stim_exp1","2022-5-4","15:41:39","25","75","3","9","10","40","30","120","94","21","[""Other""]","No","Female","3236002","null","null","","","","clear_screen","","","","","","","","","","","","","","","","","","","","","","","","","",""
"","","","","","canvas-keyboard-response","187","1270780","0.0-12.0-0.35","2d_cat_multi_stim_exp1","2022-5-4","15:41:39","25","75","3","9","10","40","30","120","94","21","[""Other""]","No","Female","3236002","null","null","","","","fixation","","","","","","","","","","","","","","","","","","","","","","","","","",""
"","","","","","canvas-keyboard-response","188","1271290","0.0-12.0-1.35","2d_cat_multi_stim_exp1","2022-5-4","15:41:39","25","75","3","9","10","40","30","120","94","21","[""Other""]","No","Female","3236002","null","null","","","","clear_screen","","","","","","","","","","","","","","","","","","","","","","","","","",""
"","","","","","canvas-keyboard-response","189","1273930","0.0-12.0-2.35","2d_cat_multi_stim_exp1","2022-5-4","15:41:39","25","75","3","9","10","40","30","120","94","21","[""Other""]","No","Female","3236002","2630","i","learn","","","learn_trial","10","40","out","0","1","","","","","","","","","","","","","","","","","","","","",""
"","","","","","canvas-keyboard-response","190","1274440","0.0-12.0-3.35","2d_cat_multi_stim_exp1","2022-5-4","15:41:39","25","75","3","9","10","40","30","120","94","21","[""Other""]","No","Female","3236002","null","null","learn_feedback","","","learn_feedback","10","40","out","","","","","","","","","","","","","","","","","","","","","","",""
"","","","","","canvas-keyboard-response","191","1274499","0.0-12.0-4.35","2d_cat_multi_stim_exp1","2022-5-4","15:41:39","25","75","3","9","10","40","30","120","94","21","[""Other""]","No","Female","3236002","null","null","","","","clear_screen","","","","","","","","","","","","","","","","","","","","","","","","","",""
"","","","","","canvas-keyboard-response","192","1275010","0.0-12.0-0.36","2d_cat_multi_stim_exp1","2022-5-4","15:41:39","25","75","3","9","10","40","30","120","94","21","[""Other""]","No","Female","3236002","null","null","","","","fixation","","","","","","","","","","","","","","","","","","","","","","","","","",""
"","","","","","canvas-keyboard-response","193","1275520","0.0-12.0-1.36","2d_cat_multi_stim_exp1","2022-5-4","15:41:39","25","75","3","9","10","40","30","120","94","21","[""Other""]","No","Female","3236002","null","null","","","","clear_screen","","","","","","","","","","","","","","","","","","","","","","","","","",""
"","","","","","canvas-keyboard-response","194","1276563","0.0-12.0-2.36","2d_cat_multi_stim_exp1","2022-5-4","15:41:39","25","75","3","9","10","40","30","120","94","21","[""Other""]","No","Female","3236002","1032","i","learn","","","learn_trial","22.1081","72.6057","in","0","0","","","","","","","","","","","","","","","","","","","","",""
"","","","","","canvas-keyboard-response","195","1277572","0.0-12.0-3.36","2d_cat_multi_stim_exp1","2022-5-4","15:41:39","25","75","3","9","10","40","30","120","94","21","[""Other""]","No","Female","3236002","null","null","learn_feedback","","","learn_feedback","22.1081","72.6057","in","","","","","","","","","","","","","","","","","","","","","","",""
"","","","","","canvas-keyboard-response","196","1277631","0.0-12.0-4.36","2d_cat_multi_stim_exp1","2022-5-4","15:41:39","25","75","3","9","10","40","30","120","94","21","[""Other""]","No","Female","3236002","null","null","","","","clear_screen","","","","","","","","","","","","","","","","","","","","","","","","","",""
"","","","","","canvas-keyboard-response","197","1278139","0.0-12.0-0.37","2d_cat_multi_stim_exp1","2022-5-4","15:41:39","25","75","3","9","10","40","30","120","94","21","[""Other""]","No","Female","3236002","null","null","","","","fixation","","","","","","","","","","","","","","","","","","","","","","","","","",""
"","","","","","canvas-keyboard-response","198","1278649","0.0-12.0-1.37","2d_cat_multi_stim_exp1","2022-5-4","15:41:39","25","75","3","9","10","40","30","120","94","21","[""Other""]","No","Female","3236002","null","null","","","","clear_screen","","","","","","","","","","","","","","","","","","","","","","","","","",""
"","","","","","canvas-keyboard-response","199","1279474","0.0-12.0-2.37","2d_cat_multi_stim_exp1","2022-5-4","15:41:39","25","75","3","9","10","40","30","120","94","21","[""Other""]","No","Female","3236002","816","u","learn","","","learn_trial","24.8654","66.0091","in","1","1","","","","","","","","","","","","","","","","","","","","",""
"","","","","","canvas-keyboard-response","200","1279984","0.0-12.0-3.37","2d_cat_multi_stim_exp1","2022-5-4","15:41:39","25","75","3","9","10","40","30","120","94","21","[""Other""]","No","Female","3236002","null","null","learn_feedback","","","learn_feedback","24.8654","66.0091","in","","","","","","","","","","","","","","","","","","","","","","",""
"","","","","","canvas-keyboard-response","201","1280042","0.0-12.0-4.37","2d_cat_multi_stim_exp1","2022-5-4","15:41:39","25","75","3","9","10","40","30","120","94","21","[""Other""]","No","Female","3236002","null","null","","","","clear_screen","","","","","","","","","","","","","","","","","","","","","","","","","",""
"","","","","","canvas-keyboard-response","202","1280552","0.0-12.0-0.38","2d_cat_multi_stim_exp1","2022-5-4","15:41:39","25","75","3","9","10","40","30","120","94","21","[""Other""]","No","Female","3236002","null","null","","","","fixation","","","","","","","","","","","","","","","","","","","","","","","","","",""
"","","","","","canvas-keyboard-response","203","1281062","0.0-12.0-1.38","2d_cat_multi_stim_exp1","2022-5-4","15:41:39","25","75","3","9","10","40","30","120","94","21","[""Other""]","No","Female","3236002","null","null","","","","clear_screen","","","","","","","","","","","","","","","","","","","","","","","","","",""
"","","","","","canvas-keyboard-response","204","1281850","0.0-12.0-2.38","2d_cat_multi_stim_exp1","2022-5-4","15:41:39","25","75","3","9","10","40","30","120","94","21","[""Other""]","No","Female","3236002","779","u","learn","","","learn_trial","25","75","in","1","1","","","","","","","","","","","","","","","","","","","","",""
"","","","","","canvas-keyboard-response","205","1282360","0.0-12.0-3.38","2d_cat_multi_stim_exp1","2022-5-4","15:41:39","25","75","3","9","10","40","30","120","94","21","[""Other""]","No","Female","3236002","null","null","learn_feedback","","","learn_feedback","25","75","in","","","","","","","","","","","","","","","","","","","","","","",""
"","","","","","canvas-keyboard-response","206","1282419","0.0-12.0-4.38","2d_cat_multi_stim_exp1","2022-5-4","15:41:39","25","75","3","9","10","40","30","120","94","21","[""Other""]","No","Female","3236002","null","null","","","","clear_screen","","","","","","","","","","","","","","","","","","","","","","","","","",""
"","","","","","canvas-keyboard-response","207","1282927","0.0-12.0-0.39","2d_cat_multi_stim_exp1","2022-5-4","15:41:39","25","75","3","9","10","40","30","120","94","21","[""Other""]","No","Female","3236002","null","null","","","","fixation","","","","","","","","","","","","","","","","","","","","","","","","","",""
"","","","","","canvas-keyboard-response","208","1283441","0.0-12.0-1.39","2d_cat_multi_stim_exp1","2022-5-4","15:41:39","25","75","3","9","10","40","30","120","94","21","[""Other""]","No","Female","3236002","null","null","","","","clear_screen","","","","","","","","","","","","","","","","","","","","","","","","","",""
"","","","","","canvas-keyboard-response","209","1284323","0.0-12.0-2.39","2d_cat_multi_stim_exp1","2022-5-4","15:41:39","25","75","3","9","10","40","30","120","94","21","[""Other""]","No","Female","3236002","873","u","learn","","","learn_trial","23.3333","50","out","1","0","","","","","","","","","","","","","","","","","","","","",""
"","","","","","canvas-keyboard-response","210","1285332","0.0-12.0-3.39","2d_cat_multi_stim_exp1","2022-5-4","15:41:39","25","75","3","9","10","40","30","120","94","21","[""Other""]","No","Female","3236002","null","null","learn_feedback","","","learn_feedback","23.3333","50","out","","","","","","","","","","","","","","","","","","","","","","",""
"","","","","","canvas-keyboard-response","211","1285392","0.0-12.0-4.39","2d_cat_multi_stim_exp1","2022-5-4","15:41:39","25","75","3","9","10","40","30","120","94","21","[""Other""]","No","Female","3236002","null","null","","","","clear_screen","","","","","","","","","","","","","","","","","","","","","","","","","",""
"","","","","","canvas-keyboard-response","212","1285902","0.0-12.0-0.40","2d_cat_multi_stim_exp1","2022-5-4","15:41:39","25","75","3","9","10","40","30","120","94","21","[""Other""]","No","Female","3236002","null","null","","","","fixation","","","","","","","","","","","","","","","","","","","","","","","","","",""
"","","","","","canvas-keyboard-response","213","1286417","0.0-12.0-1.40","2d_cat_multi_stim_exp1","2022-5-4","15:41:39","25","75","3","9","10","40","30","120","94","21","[""Other""]","No","Female","3236002","null","null","","","","clear_screen","","","","","","","","","","","","","","","","","","","","","","","","","",""
"","","","","","canvas-keyboard-response","214","1286986","0.0-12.0-2.40","2d_cat_multi_stim_exp1","2022-5-4","15:41:39","25","75","3","9","10","40","30","120","94","21","[""Other""]","No","Female","3236002","558","i","learn","","","learn_trial","25","75","in","0","0","","","","","","","","","","","","","","","","","","","","",""
"","","","","","canvas-keyboard-response","215","1287998","0.0-12.0-3.40","2d_cat_multi_stim_exp1","2022-5-4","15:41:39","25","75","3","9","10","40","30","120","94","21","[""Other""]","No","Female","3236002","null","null","learn_feedback","","","learn_feedback","25","75","in","","","","","","","","","","","","","","","","","","","","","","",""
"","","","","","canvas-keyboard-response","216","1288059","0.0-12.0-4.40","2d_cat_multi_stim_exp1","2022-5-4","15:41:39","25","75","3","9","10","40","30","120","94","21","[""Other""]","No","Female","3236002","null","null","","","","clear_screen","","","","","","","","","","","","","","","","","","","","","","","","","",""
"","","","","","canvas-keyboard-response","217","1288568","0.0-12.0-0.41","2d_cat_multi_stim_exp1","2022-5-4","15:41:39","25","75","3","9","10","40","30","120","94","21","[""Other""]","No","Female","3236002","null","null","","","","fixation","","","","","","","","","","","","","","","","","","","","","","","","","",""
"","","","","","canvas-keyboard-response","218","1289078","0.0-12.0-1.41","2d_cat_multi_stim_exp1","2022-5-4","15:41:39","25","75","3","9","10","40","30","120","94","21","[""Other""]","No","Female","3236002","null","null","","","","clear_screen","","","","","","","","","","","","","","","","","","","","","","","","","",""
"","","","","","canvas-keyboard-response","219","1290658","0.0-12.0-2.41","2d_cat_multi_stim_exp1","2022-5-4","15:41:39","25","75","3","9","10","40","30","120","94","21","[""Other""]","No","Female","3236002","1568","u","learn","","","learn_trial","36.6667","60","out","1","0","","","","","","","","","","","","","","","","","","","","",""
"","","","","","canvas-keyboard-response","220","1291669","0.0-12.0-3.41","2d_cat_multi_stim_exp1","2022-5-4","15:41:39","25","75","3","9","10","40","30","120","94","21","[""Other""]","No","Female","3236002","null","null","learn_feedback","","","learn_feedback","36.6667","60","out","","","","","","","","","","","","","","","","","","","","","","",""
"","","","","","canvas-keyboard-response","221","1291728","0.0-12.0-4.41","2d_cat_multi_stim_exp1","2022-5-4","15:41:39","25","75","3","9","10","40","30","120","94","21","[""Other""]","No","Female","3236002","null","null","","","","clear_screen","","","","","","","","","","","","","","","","","","","","","","","","","",""
"","","","","","canvas-keyboard-response","222","1292238","0.0-12.0-0.42","2d_cat_multi_stim_exp1","2022-5-4","15:41:39","25","75","3","9","10","40","30","120","94","21","[""Other""]","No","Female","3236002","null","null","","","","fixation","","","","","","","","","","","","","","","","","","","","","","","","","",""
"","","","","","canvas-keyboard-response","223","1292748","0.0-12.0-1.42","2d_cat_multi_stim_exp1","2022-5-4","15:41:39","25","75","3","9","10","40","30","120","94","21","[""Other""]","No","Female","3236002","null","null","","","","clear_screen","","","","","","","","","","","","","","","","","","","","","","","","","",""
"","","","","","canvas-keyboard-response","224","1293458","0.0-12.0-2.42","2d_cat_multi_stim_exp1","2022-5-4","15:41:39","25","75","3","9","10","40","30","120","94","21","[""Other""]","No","Female","3236002","700","i","learn","","","learn_trial","25","75","in","0","0","","","","","","","","","","","","","","","","","","","","",""
"","","","","","canvas-keyboard-response","225","1294468","0.0-12.0-3.42","2d_cat_multi_stim_exp1","2022-5-4","15:41:39","25","75","3","9","10","40","30","120","94","21","[""Other""]","No","Female","3236002","null","null","learn_feedback","","","learn_feedback","25","75","in","","","","","","","","","","","","","","","","","","","","","","",""
"","","","","","canvas-keyboard-response","226","1294527","0.0-12.0-4.42","2d_cat_multi_stim_exp1","2022-5-4","15:41:39","25","75","3","9","10","40","30","120","94","21","[""Other""]","No","Female","3236002","null","null","","","","clear_screen","","","","","","","","","","","","","","","","","","","","","","","","","",""
"","","","","","canvas-keyboard-response","227","1295036","0.0-12.0-0.43","2d_cat_multi_stim_exp1","2022-5-4","15:41:39","25","75","3","9","10","40","30","120","94","21","[""Other""]","No","Female","3236002","null","null","","","","fixation","","","","","","","","","","","","","","","","","","","","","","","","","",""
"","","","","","canvas-keyboard-response","228","1295546","0.0-12.0-1.43","2d_cat_multi_stim_exp1","2022-5-4","15:41:39","25","75","3","9","10","40","30","120","94","21","[""Other""]","No","Female","3236002","null","null","","","","clear_screen","","","","","","","","","","","","","","","","","","","","","","","","","",""
"","","","","","canvas-keyboard-response","229","1296074","0.0-12.0-2.43","2d_cat_multi_stim_exp1","2022-5-4","15:41:39","25","75","3","9","10","40","30","120","94","21","[""Other""]","No","Female","3236002","519","u","learn","","","learn_trial","33.3333","80","out","1","0","","","","","","","","","","","","","","","","","","","","",""
"","","","","","canvas-keyboard-response","230","1297084","0.0-12.0-3.43","2d_cat_multi_stim_exp1","2022-5-4","15:41:39","25","75","3","9","10","40","30","120","94","21","[""Other""]","No","Female","3236002","null","null","learn_feedback","","","learn_feedback","33.3333","80","out","","","","","","","","","","","","","","","","","","","","","","",""
"","","","","","canvas-keyboard-response","231","1297143","0.0-12.0-4.43","2d_cat_multi_stim_exp1","2022-5-4","15:41:39","25","75","3","9","10","40","30","120","94","21","[""Other""]","No","Female","3236002","null","null","","","","clear_screen","","","","","","","","","","","","","","","","","","","","","","","","","",""
"","","","","","canvas-keyboard-response","232","1297652","0.0-12.0-0.44","2d_cat_multi_stim_exp1","2022-5-4","15:41:39","25","75","3","9","10","40","30","120","94","21","[""Other""]","No","Female","3236002","null","null","","","","fixation","","","","","","","","","","","","","","","","","","","","","","","","","",""
"","","","","","canvas-keyboard-response","233","1298162","0.0-12.0-1.44","2d_cat_multi_stim_exp1","2022-5-4","15:41:39","25","75","3","9","10","40","30","120","94","21","[""Other""]","No","Female","3236002","null","null","","","","clear_screen","","","","","","","","","","","","","","","","","","","","","","","","","",""
"","","","","","canvas-keyboard-response","234","1299890","0.0-12.0-2.44","2d_cat_multi_stim_exp1","2022-5-4","15:41:39","25","75","3","9","10","40","30","120","94","21","[""Other""]","No","Female","3236002","1716","i","learn","","","learn_trial","25","75","in","0","0","","","","","","","","","","","","","","","","","","","","",""
"","","","","","canvas-keyboard-response","235","1300900","0.0-12.0-3.44","2d_cat_multi_stim_exp1","2022-5-4","15:41:39","25","75","3","9","10","40","30","120","94","21","[""Other""]","No","Female","3236002","null","null","learn_feedback","","","learn_feedback","25","75","in","","","","","","","","","","","","","","","","","","","","","","",""
"","","","","","canvas-keyboard-response","236","1300960","0.0-12.0-4.44","2d_cat_multi_stim_exp1","2022-5-4","15:41:39","25","75","3","9","10","40","30","120","94","21","[""Other""]","No","Female","3236002","null","null","","","","clear_screen","","","","","","","","","","","","","","","","","","","","","","","","","",""
"","","","","","canvas-keyboard-response","237","1301469","0.0-12.0-0.45","2d_cat_multi_stim_exp1","2022-5-4","15:41:39","25","75","3","9","10","40","30","120","94","21","[""Other""]","No","Female","3236002","null","null","","","","fixation","","","","","","","","","","","","","","","","","","","","","","","","","",""
"","","","","","canvas-keyboard-response","238","1301979","0.0-12.0-1.45","2d_cat_multi_stim_exp1","2022-5-4","15:41:39","25","75","3","9","10","40","30","120","94","21","[""Other""]","No","Female","3236002","null","null","","","","clear_screen","","","","","","","","","","","","","","","","","","","","","","","","","",""
"","","","","","canvas-keyboard-response","239","1304282","0.0-12.0-2.45","2d_cat_multi_stim_exp1","2022-5-4","15:41:39","25","75","3","9","10","40","30","120","94","21","[""Other""]","No","Female","3236002","2292","i","learn","","","learn_trial","13.3333","70","out","0","1","","","","","","","","","","","","","","","","","","","","",""
"","","","","","canvas-keyboard-response","240","1304792","0.0-12.0-3.45","2d_cat_multi_stim_exp1","2022-5-4","15:41:39","25","75","3","9","10","40","30","120","94","21","[""Other""]","No","Female","3236002","null","null","learn_feedback","","","learn_feedback","13.3333","70","out","","","","","","","","","","","","","","","","","","","","","","",""
"","","","","","canvas-keyboard-response","241","1304851","0.0-12.0-4.45","2d_cat_multi_stim_exp1","2022-5-4","15:41:39","25","75","3","9","10","40","30","120","94","21","[""Other""]","No","Female","3236002","null","null","","","","clear_screen","","","","","","","","","","","","","","","","","","","","","","","","","",""
"","","","","","canvas-keyboard-response","242","1305360","0.0-12.0-0.46","2d_cat_multi_stim_exp1","2022-5-4","15:41:39","25","75","3","9","10","40","30","120","94","21","[""Other""]","No","Female","3236002","null","null","","","","fixation","","","","","","","","","","","","","","","","","","","","","","","","","",""
"","","","","","canvas-keyboard-response","243","1305870","0.0-12.0-1.46","2d_cat_multi_stim_exp1","2022-5-4","15:41:39","25","75","3","9","10","40","30","120","94","21","[""Other""]","No","Female","3236002","null","null","","","","clear_screen","","","","","","","","","","","","","","","","","","","","","","","","","",""
"","","","","","canvas-keyboard-response","244","1306674","0.0-12.0-2.46","2d_cat_multi_stim_exp1","2022-5-4","15:41:39","25","75","3","9","10","40","30","120","94","21","[""Other""]","No","Female","3236002","795","i","learn","","","learn_trial","13.3333","30","out","0","1","","","","","","","","","","","","","","","","","","","","",""
"","","","","","canvas-keyboard-response","245","1307184","0.0-12.0-3.46","2d_cat_multi_stim_exp1","2022-5-4","15:41:39","25","75","3","9","10","40","30","120","94","21","[""Other""]","No","Female","3236002","null","null","learn_feedback","","","learn_feedback","13.3333","30","out","","","","","","","","","","","","","","","","","","","","","","",""
"","","","","","canvas-keyboard-response","246","1307243","0.0-12.0-4.46","2d_cat_multi_stim_exp1","2022-5-4","15:41:39","25","75","3","9","10","40","30","120","94","21","[""Other""]","No","Female","3236002","null","null","","","","clear_screen","","","","","","","","","","","","","","","","","","","","","","","","","",""
"","","","","","canvas-keyboard-response","247","1307751","0.0-12.0-0.47","2d_cat_multi_stim_exp1","2022-5-4","15:41:39","25","75","3","9","10","40","30","120","94","21","[""Other""]","No","Female","3236002","null","null","","","","fixation","","","","","","","","","","","","","","","","","","","","","","","","","",""
"","","","","","canvas-keyboard-response","248","1308261","0.0-12.0-1.47","2d_cat_multi_stim_exp1","2022-5-4","15:41:39","25","75","3","9","10","40","30","120","94","21","[""Other""]","No","Female","3236002","null","null","","","","clear_screen","","","","","","","","","","","","","","","","","","","","","","","","","",""
"","","","","","canvas-keyboard-response","249","1308778","0.0-12.0-2.47","2d_cat_multi_stim_exp1","2022-5-4","15:41:39","25","75","3","9","10","40","30","120","94","21","[""Other""]","No","Female","3236002","507","u","learn","","","learn_trial","25","75","in","1","1","","","","","","","","","","","","","","","","","","","","",""
"","","","","","canvas-keyboard-response","250","1309290","0.0-12.0-3.47","2d_cat_multi_stim_exp1","2022-5-4","15:41:39","25","75","3","9","10","40","30","120","94","21","[""Other""]","No","Female","3236002","null","null","learn_feedback","","","learn_feedback","25","75","in","","","","","","","","","","","","","","","","","","","","","","",""
"","","","","","canvas-keyboard-response","251","1309349","0.0-12.0-4.47","2d_cat_multi_stim_exp1","2022-5-4","15:41:39","25","75","3","9","10","40","30","120","94","21","[""Other""]","No","Female","3236002","null","null","","","","clear_screen","","","","","","","","","","","","","","","","","","","","","","","","","",""
"","","","","","canvas-keyboard-response","252","1309859","0.0-12.0-0.48","2d_cat_multi_stim_exp1","2022-5-4","15:41:39","25","75","3","9","10","40","30","120","94","21","[""Other""]","No","Female","3236002","null","null","","","","fixation","","","","","","","","","","","","","","","","","","","","","","","","","",""
"","","","","","canvas-keyboard-response","253","1310368","0.0-12.0-1.48","2d_cat_multi_stim_exp1","2022-5-4","15:41:39","25","75","3","9","10","40","30","120","94","21","[""Other""]","No","Female","3236002","null","null","","","","clear_screen","","","","","","","","","","","","","","","","","","","","","","","","","",""
"","","","","","canvas-keyboard-response","254","1311148","0.0-12.0-2.48","2d_cat_multi_stim_exp1","2022-5-4","15:41:39","25","75","3","9","10","40","30","120","94","21","[""Other""]","No","Female","3236002","769","u","learn","","","learn_trial","25","75","in","1","1","","","","","","","","","","","","","","","","","","","","",""
"","","","","","canvas-keyboard-response","255","1311658","0.0-12.0-3.48","2d_cat_multi_stim_exp1","2022-5-4","15:41:39","25","75","3","9","10","40","30","120","94","21","[""Other""]","No","Female","3236002","null","null","learn_feedback","","","learn_feedback","25","75","in","","","","","","","","","","","","","","","","","","","","","","",""
"","","","","","canvas-keyboard-response","256","1311718","0.0-12.0-4.48","2d_cat_multi_stim_exp1","2022-5-4","15:41:39","25","75","3","9","10","40","30","120","94","21","[""Other""]","No","Female","3236002","null","null","","","","clear_screen","","","","","","","","","","","","","","","","","","","","","","","","","",""
"","","","","","canvas-keyboard-response","257","1312227","0.0-12.0-0.49","2d_cat_multi_stim_exp1","2022-5-4","15:41:39","25","75","3","9","10","40","30","120","94","21","[""Other""]","No","Female","3236002","null","null","","","","fixation","","","","","","","","","","","","","","","","","","","","","","","","","",""
"","","","","","canvas-keyboard-response","258","1312737","0.0-12.0-1.49","2d_cat_multi_stim_exp1","2022-5-4","15:41:39","25","75","3","9","10","40","30","120","94","21","[""Other""]","No","Female","3236002","null","null","","","","clear_screen","","","","","","","","","","","","","","","","","","","","","","","","","",""
"","","","","","canvas-keyboard-response","259","1313907","0.0-12.0-2.49","2d_cat_multi_stim_exp1","2022-5-4","15:41:39","25","75","3","9","10","40","30","120","94","21","[""Other""]","No","Female","3236002","1160","u","learn","","","learn_trial","23.3333","40","out","1","0","","","","","","","","","","","","","","","","","","","","",""
"","","","","","canvas-keyboard-response","260","1314916","0.0-12.0-3.49","2d_cat_multi_stim_exp1","2022-5-4","15:41:39","25","75","3","9","10","40","30","120","94","21","[""Other""]","No","Female","3236002","null","null","learn_feedback","","","learn_feedback","23.3333","40","out","","","","","","","","","","","","","","","","","","","","","","",""
"","","","","","canvas-keyboard-response","261","1314975","0.0-12.0-4.49","2d_cat_multi_stim_exp1","2022-5-4","15:41:39","25","75","3","9","10","40","30","120","94","21","[""Other""]","No","Female","3236002","null","null","","","","clear_screen","","","","","","","","","","","","","","","","","","","","","","","","","",""
"","","","","","canvas-keyboard-response","262","1315484","0.0-12.0-0.50","2d_cat_multi_stim_exp1","2022-5-4","15:41:39","25","75","3","9","10","40","30","120","94","21","[""Other""]","No","Female","3236002","null","null","","","","fixation","","","","","","","","","","","","","","","","","","","","","","","","","",""
"","","","","","canvas-keyboard-response","263","1315993","0.0-12.0-1.50","2d_cat_multi_stim_exp1","2022-5-4","15:41:39","25","75","3","9","10","40","30","120","94","21","[""Other""]","No","Female","3236002","null","null","","","","clear_screen","","","","","","","","","","","","","","","","","","","","","","","","","",""
"","","","","","canvas-keyboard-response","264","1317154","0.0-12.0-2.50","2d_cat_multi_stim_exp1","2022-5-4","15:41:39","25","75","3","9","10","40","30","120","94","21","[""Other""]","No","Female","3236002","1150","i","learn","","","learn_trial","20","90","out","0","1","","","","","","","","","","","","","","","","","","","","",""
"","","","","","canvas-keyboard-response","265","1317668","0.0-12.0-3.50","2d_cat_multi_stim_exp1","2022-5-4","15:41:39","25","75","3","9","10","40","30","120","94","21","[""Other""]","No","Female","3236002","null","null","learn_feedback","","","learn_feedback","20","90","out","","","","","","","","","","","","","","","","","","","","","","",""
"","","","","","canvas-keyboard-response","266","1317726","0.0-12.0-4.50","2d_cat_multi_stim_exp1","2022-5-4","15:41:39","25","75","3","9","10","40","30","120","94","21","[""Other""]","No","Female","3236002","null","null","","","","clear_screen","","","","","","","","","","","","","","","","","","","","","","","","","",""
"","","","","","canvas-keyboard-response","267","1318235","0.0-12.0-0.51","2d_cat_multi_stim_exp1","2022-5-4","15:41:39","25","75","3","9","10","40","30","120","94","21","[""Other""]","No","Female","3236002","null","null","","","","fixation","","","","","","","","","","","","","","","","","","","","","","","","","",""
"","","","","","canvas-keyboard-response","268","1318745","0.0-12.0-1.51","2d_cat_multi_stim_exp1","2022-5-4","15:41:39","25","75","3","9","10","40","30","120","94","21","[""Other""]","No","Female","3236002","null","null","","","","clear_screen","","","","","","","","","","","","","","","","","","","","","","","","","",""
"","","","","","canvas-keyboard-response","269","1319498","0.0-12.0-2.51","2d_cat_multi_stim_exp1","2022-5-4","15:41:39","25","75","3","9","10","40","30","120","94","21","[""Other""]","No","Female","3236002","743","u","learn","","","learn_trial","20.7574","62.2721","in","1","1","","","","","","","","","","","","","","","","","","","","",""
"","","","","","canvas-keyboard-response","270","1320008","0.0-12.0-3.51","2d_cat_multi_stim_exp1","2022-5-4","15:41:39","25","75","3","9","10","40","30","120","94","21","[""Other""]","No","Female","3236002","null","null","learn_feedback","","","learn_feedback","20.7574","62.2721","in","","","","","","","","","","","","","","","","","","","","","","",""
"","","","","","canvas-keyboard-response","271","1320066","0.0-12.0-4.51","2d_cat_multi_stim_exp1","2022-5-4","15:41:39","25","75","3","9","10","40","30","120","94","21","[""Other""]","No","Female","3236002","null","null","","","","clear_screen","","","","","","","","","","","","","","","","","","","","","","","","","",""
"","","","","","canvas-keyboard-response","272","1320575","0.0-12.0-0.52","2d_cat_multi_stim_exp1","2022-5-4","15:41:39","25","75","3","9","10","40","30","120","94","21","[""Other""]","No","Female","3236002","null","null","","","","fixation","","","","","","","","","","","","","","","","","","","","","","","","","",""
"","","","","","canvas-keyboard-response","273","1321085","0.0-12.0-1.52","2d_cat_multi_stim_exp1","2022-5-4","15:41:39","25","75","3","9","10","40","30","120","94","21","[""Other""]","No","Female","3236002","null","null","","","","clear_screen","","","","","","","","","","","","","","","","","","","","","","","","","",""
"","","","","","canvas-keyboard-response","274","1323530","0.0-12.0-2.52","2d_cat_multi_stim_exp1","2022-5-4","15:41:39","25","75","3","9","10","40","30","120","94","21","[""Other""]","No","Female","3236002","2436","u","learn","","","learn_trial","25","75","in","1","1","","","","","","","","","","","","","","","","","","","","",""
"","","","","","canvas-keyboard-response","275","1324041","0.0-12.0-3.52","2d_cat_multi_stim_exp1","2022-5-4","15:41:39","25","75","3","9","10","40","30","120","94","21","[""Other""]","No","Female","3236002","null","null","learn_feedback","","","learn_feedback","25","75","in","","","","","","","","","","","","","","","","","","","","","","",""
"","","","","","canvas-keyboard-response","276","1324100","0.0-12.0-4.52","2d_cat_multi_stim_exp1","2022-5-4","15:41:39","25","75","3","9","10","40","30","120","94","21","[""Other""]","No","Female","3236002","null","null","","","","clear_screen","","","","","","","","","","","","","","","","","","","","","","","","","",""
"","","","","","canvas-keyboard-response","277","1324608","0.0-12.0-0.53","2d_cat_multi_stim_exp1","2022-5-4","15:41:39","25","75","3","9","10","40","30","120","94","21","[""Other""]","No","Female","3236002","null","null","","","","fixation","","","","","","","","","","","","","","","","","","","","","","","","","",""
"","","","","","canvas-keyboard-response","278","1325119","0.0-12.0-1.53","2d_cat_multi_stim_exp1","2022-5-4","15:41:39","25","75","3","9","10","40","30","120","94","21","[""Other""]","No","Female","3236002","null","null","","","","clear_screen","","","","","","","","","","","","","","","","","","","","","","","","","",""
"","","","","","canvas-keyboard-response","279","1325674","0.0-12.0-2.53","2d_cat_multi_stim_exp1","2022-5-4","15:41:39","25","75","3","9","10","40","30","120","94","21","[""Other""]","No","Female","3236002","546","u","learn","","","learn_trial","23.3333","60","out","1","0","","","","","","","","","","","","","","","","","","","","",""
"","","","","","canvas-keyboard-response","280","1326686","0.0-12.0-3.53","2d_cat_multi_stim_exp1","2022-5-4","15:41:39","25","75","3","9","10","40","30","120","94","21","[""Other""]","No","Female","3236002","null","null","learn_feedback","","","learn_feedback","23.3333","60","out","","","","","","","","","","","","","","","","","","","","","","",""
"","","","","","canvas-keyboard-response","281","1326746","0.0-12.0-4.53","2d_cat_multi_stim_exp1","2022-5-4","15:41:39","25","75","3","9","10","40","30","120","94","21","[""Other""]","No","Female","3236002","null","null","","","","clear_screen","","","","","","","","","","","","","","","","","","","","","","","","","",""
"","","","","","canvas-keyboard-response","282","1327255","0.0-12.0-0.54","2d_cat_multi_stim_exp1","2022-5-4","15:41:39","25","75","3","9","10","40","30","120","94","21","[""Other""]","No","Female","3236002","null","null","","","","fixation","","","","","","","","","","","","","","","","","","","","","","","","","",""
"","","","","","canvas-keyboard-response","283","1327764","0.0-12.0-1.54","2d_cat_multi_stim_exp1","2022-5-4","15:41:39","25","75","3","9","10","40","30","120","94","21","[""Other""]","No","Female","3236002","null","null","","","","clear_screen","","","","","","","","","","","","","","","","","","","","","","","","","",""
"","","","","","canvas-keyboard-response","284","1328362","0.0-12.0-2.54","2d_cat_multi_stim_exp1","2022-5-4","15:41:39","25","75","3","9","10","40","30","120","94","21","[""Other""]","No","Female","3236002","588","i","learn","","","learn_trial","23.3333","120","out","0","1","","","","","","","","","","","","","","","","","","","","",""
"","","","","","canvas-keyboard-response","285","1328872","0.0-12.0-3.54","2d_cat_multi_stim_exp1","2022-5-4","15:41:39","25","75","3","9","10","40","30","120","94","21","[""Other""]","No","Female","3236002","null","null","learn_feedback","","","learn_feedback","23.3333","120","out","","","","","","","","","","","","","","","","","","","","","","",""
"","","","","","canvas-keyboard-response","286","1328931","0.0-12.0-4.54","2d_cat_multi_stim_exp1","2022-5-4","15:41:39","25","75","3","9","10","40","30","120","94","21","[""Other""]","No","Female","3236002","null","null","","","","clear_screen","","","","","","","","","","","","","","","","","","","","","","","","","",""
"","","","","","canvas-keyboard-response","287","1329439","0.0-12.0-0.55","2d_cat_multi_stim_exp1","2022-5-4","15:41:39","25","75","3","9","10","40","30","120","94","21","[""Other""]","No","Female","3236002","null","null","","","","fixation","","","","","","","","","","","","","","","","","","","","","","","","","",""
"","","","","","canvas-keyboard-response","288","1329949","0.0-12.0-1.55","2d_cat_multi_stim_exp1","2022-5-4","15:41:39","25","75","3","9","10","40","30","120","94","21","[""Other""]","No","Female","3236002","null","null","","","","clear_screen","","","","","","","","","","","","","","","","","","","","","","","","","",""
"","","","","","canvas-keyboard-response","289","1330874","0.0-12.0-2.55","2d_cat_multi_stim_exp1","2022-5-4","15:41:39","25","75","3","9","10","40","30","120","94","21","[""Other""]","No","Female","3236002","915","i","learn","","","learn_trial","20","100","out","0","1","","","","","","","","","","","","","","","","","","","","",""
"","","","","","canvas-keyboard-response","290","1331384","0.0-12.0-3.55","2d_cat_multi_stim_exp1","2022-5-4","15:41:39","25","75","3","9","10","40","30","120","94","21","[""Other""]","No","Female","3236002","null","null","learn_feedback","","","learn_feedback","20","100","out","","","","","","","","","","","","","","","","","","","","","","",""
"","","","","","canvas-keyboard-response","291","1331443","0.0-12.0-4.55","2d_cat_multi_stim_exp1","2022-5-4","15:41:39","25","75","3","9","10","40","30","120","94","21","[""Other""]","No","Female","3236002","null","null","","","","clear_screen","","","","","","","","","","","","","","","","","","","","","","","","","",""
"","","","","","canvas-keyboard-response","292","1331953","0.0-12.0-0.56","2d_cat_multi_stim_exp1","2022-5-4","15:41:39","25","75","3","9","10","40","30","120","94","21","[""Other""]","No","Female","3236002","null","null","","","","fixation","","","","","","","","","","","","","","","","","","","","","","","","","",""
"","","","","","canvas-keyboard-response","293","1332463","0.0-12.0-1.56","2d_cat_multi_stim_exp1","2022-5-4","15:41:39","25","75","3","9","10","40","30","120","94","21","[""Other""]","No","Female","3236002","null","null","","","","clear_screen","","","","","","","","","","","","","","","","","","","","","","","","","",""
"","","","","","canvas-keyboard-response","294","1333209","0.0-12.0-2.56","2d_cat_multi_stim_exp1","2022-5-4","15:41:39","25","75","3","9","10","40","30","120","94","21","[""Other""]","No","Female","3236002","737","u","learn","","","learn_trial","23.8209","66.7243","in","1","1","","","","","","","","","","","","","","","","","","","","",""
"","","","","","canvas-keyboard-response","295","1333722","0.0-12.0-3.56","2d_cat_multi_stim_exp1","2022-5-4","15:41:39","25","75","3","9","10","40","30","120","94","21","[""Other""]","No","Female","3236002","null","null","learn_feedback","","","learn_feedback","23.8209","66.7243","in","","","","","","","","","","","","","","","","","","","","","","",""
"","","","","","canvas-keyboard-response","296","1333784","0.0-12.0-4.56","2d_cat_multi_stim_exp1","2022-5-4","15:41:39","25","75","3","9","10","40","30","120","94","21","[""Other""]","No","Female","3236002","null","null","","","","clear_screen","","","","","","","","","","","","","","","","","","","","","","","","","",""
