"success","timeout","failed_images","failed_audio","failed_video","trial_type","trial_index","time_elapsed","internal_node_id","exp_name","date","time","angle_mean_in","radius_mean_in","angle_sd_in","radius_sd_in","angle_min_out","angle_max_out","radius_min_out","radius_max_out","sub_n","age","race","ethnicity","gender","exp_duration","rt","response","exp_trial_type","stimulus","view_history","screen_id","angle","radius","distribution","choice","correct","order","angle_a","radius_a","angle_b","radius_b","angle_c","radius_c","jkl_correct","transfer_trial_type","choice_set","abc_correct","tc_correct","tc_angle","tdc_a","tdc_b","tdc_c","pair","category_a","category_b","category_c","question_order"
"true","false","[]","[]","[]","preload","0","46","0.0-0.0","2d_cat_multi_stim_exp1","2022-4-8","15:3:21","25","75","3","9","10","40","30","120","21","21","[""White""]","Yes","Female","1675631","","","","","","","","","","","","","","","","","","","","","","","","","","","","","","","",""
"","","","","","survey-html-form","1","4249","0.0-1.0","2d_cat_multi_stim_exp1","2022-4-8","15:3:21","25","75","3","9","10","40","30","120","21","21","[""White""]","Yes","Female","1675631","4182","{""response"":""21""}","enter-sub-number","","","","","","","","","","","","","","","","","","","","","","","","","","","","",""
"true","","","","","fullscreen","2","8073","0.0-2.0","2d_cat_multi_stim_exp1","2022-4-8","15:3:21","25","75","3","9","10","40","30","120","21","21","[""White""]","Yes","Female","1675631","","","","","","","","","","","","","","","","","","","","","","","","","","","","","","","",""
"","","","","","image-button-response","3","56009","0.0-3.0","2d_cat_multi_stim_exp1","2022-4-8","15:3:21","25","75","3","9","10","40","30","120","21","21","[""White""]","Yes","Female","1675631","47928","0","","consent.png","","","","","","","","","","","","","","","","","","","","","","","","","","","",""
"","","","","","html-button-response","4","61368","0.0-4.0","2d_cat_multi_stim_exp1","2022-4-8","15:3:21","25","75","3","9","10","40","30","120","21","21","[""White""]","Yes","Female","1675631","5354","0","","<div style= ""font-size:25px;"" <p> <strong> Welcome to the experiment! </strong><br> <p style=""color:#8B0000; font-size:25px;""><strong> Please do NOT exit full screen until you are done with the experiment. </strong> </p><p style=""font-size:25px;color:#8B0000;""> <strong> The experiment will be canceled and your data will be lost <br> if you try to go back or refresh the page at any point during the experiment.</strong> </p><br><p> <strong> Thanks in advance for your contribution to our research! </strong></p>","","","","","","","","","","","","","","","","","","","","","","","","","","","",""
"","","","","","instructions","5","104505","0.0-5.0","2d_cat_multi_stim_exp1","2022-4-8","15:3:21","25","75","3","9","10","40","30","120","21","21","[""White""]","Yes","Female","1675631","43131","","","","[{""page_index"":0,""viewing_time"":4852},{""page_index"":1,""viewing_time"":3192},{""page_index"":2,""viewing_time"":11824},{""page_index"":3,""viewing_time"":23263}]","instructions_1","","","","","","","","","","","","","","","","","","","","","","","","","",""
"","","","","","instructions","6","107832","0.0-6.0","2d_cat_multi_stim_exp1","2022-4-8","15:3:21","25","75","3","9","10","40","30","120","21","21","[""White""]","Yes","Female","1675631","3323","","","","[{""page_index"":0,""viewing_time"":3323}]","Click to see the kinds of turtles that will appear in the study.","","","","","","","","","","","","","","","","","","","","","","","","","",""
"","","","","","canvas-keyboard-response","7","122853","0.0-7.0","2d_cat_multi_stim_exp1","2022-4-8","15:3:21","25","75","3","9","10","40","30","120","21","21","[""White""]","Yes","Female","1675631","null","null","","","","demo_range","","","","","","","","","","","","","","","","","","","","","","","","","",""
"","","","","","instructions","8","126128","0.0-8.0","2d_cat_multi_stim_exp1","2022-4-8","15:3:21","25","75","3","9","10","40","30","120","21","21","[""White""]","Yes","Female","1675631","2772","","","","[{""page_index"":0,""viewing_time"":2771}]","Click to see some turtles in the subspecies.","","","","","","","","","","","","","","","","","","","","","","","","","",""
"","","","","","canvas-keyboard-response","9","141146","0.0-9.0","2d_cat_multi_stim_exp1","2022-4-8","15:3:21","25","75","3","9","10","40","30","120","21","21","[""White""]","Yes","Female","1675631","null","null","","","","demo_in","","","","","","","","","","","","","","","","","","","","","","","","","",""
"","","","","","instructions","10","201319","0.0-10.0","2d_cat_multi_stim_exp1","2022-4-8","15:3:21","25","75","3","9","10","40","30","120","21","21","[""White""]","Yes","Female","1675631","59671","","","","[{""page_index"":0,""viewing_time"":10431},{""page_index"":1,""viewing_time"":33176},{""page_index"":2,""viewing_time"":4391},{""page_index"":1,""viewing_time"":4201},{""page_index"":2,""viewing_time"":5176},{""page_index"":1,""viewing_time"":1064},{""page_index"":2,""viewing_time"":1231}]","instructions_2","","","","","","","","","","","","","","","","","","","","","","","","","",""
"","","","","","instructions","11","202584","0.0-11.0","2d_cat_multi_stim_exp1","2022-4-8","15:3:21","25","75","3","9","10","40","30","120","21","21","[""White""]","Yes","Female","1675631","1264","","","","[{""page_index"":0,""viewing_time"":1264}]","Click to begin the first phase of the experiment.","","","","","","","","","","","","","","","","","","","","","","","","","",""
"","","","","","canvas-keyboard-response","12","203093","0.0-12.0-0.0","2d_cat_multi_stim_exp1","2022-4-8","15:3:21","25","75","3","9","10","40","30","120","21","21","[""White""]","Yes","Female","1675631","null","null","","","","fixation","","","","","","","","","","","","","","","","","","","","","","","","","",""
"","","","","","canvas-keyboard-response","13","203603","0.0-12.0-1.0","2d_cat_multi_stim_exp1","2022-4-8","15:3:21","25","75","3","9","10","40","30","120","21","21","[""White""]","Yes","Female","1675631","null","null","","","","clear_screen","","","","","","","","","","","","","","","","","","","","","","","","","",""
"","","","","","canvas-keyboard-response","14","210279","0.0-12.0-2.0","2d_cat_multi_stim_exp1","2022-4-8","15:3:21","25","75","3","9","10","40","30","120","21","21","[""White""]","Yes","Female","1675631","6666","u","learn","","","learn_trial","23.3333","110","out","1","0","","","","","","","","","","","","","","","","","","","","",""
"","","","","","canvas-keyboard-response","15","211296","0.0-12.0-3.0","2d_cat_multi_stim_exp1","2022-4-8","15:3:21","25","75","3","9","10","40","30","120","21","21","[""White""]","Yes","Female","1675631","null","null","learn_feedback","","","learn_feedback","23.3333","110","out","","","","","","","","","","","","","","","","","","","","","","",""
"","","","","","canvas-keyboard-response","16","211354","0.0-12.0-4.0","2d_cat_multi_stim_exp1","2022-4-8","15:3:21","25","75","3","9","10","40","30","120","21","21","[""White""]","Yes","Female","1675631","null","null","","","","clear_screen","","","","","","","","","","","","","","","","","","","","","","","","","",""
"","","","","","canvas-keyboard-response","17","211863","0.0-12.0-0.1","2d_cat_multi_stim_exp1","2022-4-8","15:3:21","25","75","3","9","10","40","30","120","21","21","[""White""]","Yes","Female","1675631","null","null","","","","fixation","","","","","","","","","","","","","","","","","","","","","","","","","",""
"","","","","","canvas-keyboard-response","18","212372","0.0-12.0-1.1","2d_cat_multi_stim_exp1","2022-4-8","15:3:21","25","75","3","9","10","40","30","120","21","21","[""White""]","Yes","Female","1675631","null","null","","","","clear_screen","","","","","","","","","","","","","","","","","","","","","","","","","",""
"","","","","","canvas-keyboard-response","19","214192","0.0-12.0-2.1","2d_cat_multi_stim_exp1","2022-4-8","15:3:21","25","75","3","9","10","40","30","120","21","21","[""White""]","Yes","Female","1675631","1812","i","learn","","","learn_trial","30","120","out","0","1","","","","","","","","","","","","","","","","","","","","",""
"","","","","","canvas-keyboard-response","20","214702","0.0-12.0-3.1","2d_cat_multi_stim_exp1","2022-4-8","15:3:21","25","75","3","9","10","40","30","120","21","21","[""White""]","Yes","Female","1675631","null","null","learn_feedback","","","learn_feedback","30","120","out","","","","","","","","","","","","","","","","","","","","","","",""
"","","","","","canvas-keyboard-response","21","214760","0.0-12.0-4.1","2d_cat_multi_stim_exp1","2022-4-8","15:3:21","25","75","3","9","10","40","30","120","21","21","[""White""]","Yes","Female","1675631","null","null","","","","clear_screen","","","","","","","","","","","","","","","","","","","","","","","","","",""
"","","","","","canvas-keyboard-response","22","215269","0.0-12.0-0.2","2d_cat_multi_stim_exp1","2022-4-8","15:3:21","25","75","3","9","10","40","30","120","21","21","[""White""]","Yes","Female","1675631","null","null","","","","fixation","","","","","","","","","","","","","","","","","","","","","","","","","",""
"","","","","","canvas-keyboard-response","23","215777","0.0-12.0-1.2","2d_cat_multi_stim_exp1","2022-4-8","15:3:21","25","75","3","9","10","40","30","120","21","21","[""White""]","Yes","Female","1675631","null","null","","","","clear_screen","","","","","","","","","","","","","","","","","","","","","","","","","",""
"","","","","","canvas-keyboard-response","24","216944","0.0-12.0-2.2","2d_cat_multi_stim_exp1","2022-4-8","15:3:21","25","75","3","9","10","40","30","120","21","21","[""White""]","Yes","Female","1675631","1158","u","learn","","","learn_trial","27.5753","70.3839","in","1","1","","","","","","","","","","","","","","","","","","","","",""
"","","","","","canvas-keyboard-response","25","217454","0.0-12.0-3.2","2d_cat_multi_stim_exp1","2022-4-8","15:3:21","25","75","3","9","10","40","30","120","21","21","[""White""]","Yes","Female","1675631","null","null","learn_feedback","","","learn_feedback","27.5753","70.3839","in","","","","","","","","","","","","","","","","","","","","","","",""
"","","","","","canvas-keyboard-response","26","217517","0.0-12.0-4.2","2d_cat_multi_stim_exp1","2022-4-8","15:3:21","25","75","3","9","10","40","30","120","21","21","[""White""]","Yes","Female","1675631","null","null","","","","clear_screen","","","","","","","","","","","","","","","","","","","","","","","","","",""
"","","","","","canvas-keyboard-response","27","218025","0.0-12.0-0.3","2d_cat_multi_stim_exp1","2022-4-8","15:3:21","25","75","3","9","10","40","30","120","21","21","[""White""]","Yes","Female","1675631","null","null","","","","fixation","","","","","","","","","","","","","","","","","","","","","","","","","",""
"","","","","","canvas-keyboard-response","28","218534","0.0-12.0-1.3","2d_cat_multi_stim_exp1","2022-4-8","15:3:21","25","75","3","9","10","40","30","120","21","21","[""White""]","Yes","Female","1675631","null","null","","","","clear_screen","","","","","","","","","","","","","","","","","","","","","","","","","",""
"","","","","","canvas-keyboard-response","29","219783","0.0-12.0-2.3","2d_cat_multi_stim_exp1","2022-4-8","15:3:21","25","75","3","9","10","40","30","120","21","21","[""White""]","Yes","Female","1675631","1242","u","learn","","","learn_trial","25","75","in","1","1","","","","","","","","","","","","","","","","","","","","",""
"","","","","","canvas-keyboard-response","30","220295","0.0-12.0-3.3","2d_cat_multi_stim_exp1","2022-4-8","15:3:21","25","75","3","9","10","40","30","120","21","21","[""White""]","Yes","Female","1675631","null","null","learn_feedback","","","learn_feedback","25","75","in","","","","","","","","","","","","","","","","","","","","","","",""
"","","","","","canvas-keyboard-response","31","220354","0.0-12.0-4.3","2d_cat_multi_stim_exp1","2022-4-8","15:3:21","25","75","3","9","10","40","30","120","21","21","[""White""]","Yes","Female","1675631","null","null","","","","clear_screen","","","","","","","","","","","","","","","","","","","","","","","","","",""
"","","","","","canvas-keyboard-response","32","220861","0.0-12.0-0.4","2d_cat_multi_stim_exp1","2022-4-8","15:3:21","25","75","3","9","10","40","30","120","21","21","[""White""]","Yes","Female","1675631","null","null","","","","fixation","","","","","","","","","","","","","","","","","","","","","","","","","",""
"","","","","","canvas-keyboard-response","33","221370","0.0-12.0-1.4","2d_cat_multi_stim_exp1","2022-4-8","15:3:21","25","75","3","9","10","40","30","120","21","21","[""White""]","Yes","Female","1675631","null","null","","","","clear_screen","","","","","","","","","","","","","","","","","","","","","","","","","",""
"","","","","","canvas-keyboard-response","34","222280","0.0-12.0-2.4","2d_cat_multi_stim_exp1","2022-4-8","15:3:21","25","75","3","9","10","40","30","120","21","21","[""White""]","Yes","Female","1675631","901","u","learn","","","learn_trial","27.2592","80.9214","in","1","1","","","","","","","","","","","","","","","","","","","","",""
"","","","","","canvas-keyboard-response","35","222789","0.0-12.0-3.4","2d_cat_multi_stim_exp1","2022-4-8","15:3:21","25","75","3","9","10","40","30","120","21","21","[""White""]","Yes","Female","1675631","null","null","learn_feedback","","","learn_feedback","27.2592","80.9214","in","","","","","","","","","","","","","","","","","","","","","","",""
"","","","","","canvas-keyboard-response","36","222847","0.0-12.0-4.4","2d_cat_multi_stim_exp1","2022-4-8","15:3:21","25","75","3","9","10","40","30","120","21","21","[""White""]","Yes","Female","1675631","null","null","","","","clear_screen","","","","","","","","","","","","","","","","","","","","","","","","","",""
"","","","","","canvas-keyboard-response","37","223355","0.0-12.0-0.5","2d_cat_multi_stim_exp1","2022-4-8","15:3:21","25","75","3","9","10","40","30","120","21","21","[""White""]","Yes","Female","1675631","null","null","","","","fixation","","","","","","","","","","","","","","","","","","","","","","","","","",""
"","","","","","canvas-keyboard-response","38","223864","0.0-12.0-1.5","2d_cat_multi_stim_exp1","2022-4-8","15:3:21","25","75","3","9","10","40","30","120","21","21","[""White""]","Yes","Female","1675631","null","null","","","","clear_screen","","","","","","","","","","","","","","","","","","","","","","","","","",""
"","","","","","canvas-keyboard-response","39","224809","0.0-12.0-2.5","2d_cat_multi_stim_exp1","2022-4-8","15:3:21","25","75","3","9","10","40","30","120","21","21","[""White""]","Yes","Female","1675631","935","i","learn","","","learn_trial","27.9518","73.393","in","0","0","","","","","","","","","","","","","","","","","","","","",""
"","","","","","canvas-keyboard-response","40","225820","0.0-12.0-3.5","2d_cat_multi_stim_exp1","2022-4-8","15:3:21","25","75","3","9","10","40","30","120","21","21","[""White""]","Yes","Female","1675631","null","null","learn_feedback","","","learn_feedback","27.9518","73.393","in","","","","","","","","","","","","","","","","","","","","","","",""
"","","","","","canvas-keyboard-response","41","225880","0.0-12.0-4.5","2d_cat_multi_stim_exp1","2022-4-8","15:3:21","25","75","3","9","10","40","30","120","21","21","[""White""]","Yes","Female","1675631","null","null","","","","clear_screen","","","","","","","","","","","","","","","","","","","","","","","","","",""
"","","","","","canvas-keyboard-response","42","226389","0.0-12.0-0.6","2d_cat_multi_stim_exp1","2022-4-8","15:3:21","25","75","3","9","10","40","30","120","21","21","[""White""]","Yes","Female","1675631","null","null","","","","fixation","","","","","","","","","","","","","","","","","","","","","","","","","",""
"","","","","","canvas-keyboard-response","43","226899","0.0-12.0-1.6","2d_cat_multi_stim_exp1","2022-4-8","15:3:21","25","75","3","9","10","40","30","120","21","21","[""White""]","Yes","Female","1675631","null","null","","","","clear_screen","","","","","","","","","","","","","","","","","","","","","","","","","",""
"","","","","","canvas-keyboard-response","44","227831","0.0-12.0-2.6","2d_cat_multi_stim_exp1","2022-4-8","15:3:21","25","75","3","9","10","40","30","120","21","21","[""White""]","Yes","Female","1675631","924","i","learn","","","learn_trial","10","120","out","0","1","","","","","","","","","","","","","","","","","","","","",""
"","","","","","canvas-keyboard-response","45","228341","0.0-12.0-3.6","2d_cat_multi_stim_exp1","2022-4-8","15:3:21","25","75","3","9","10","40","30","120","21","21","[""White""]","Yes","Female","1675631","null","null","learn_feedback","","","learn_feedback","10","120","out","","","","","","","","","","","","","","","","","","","","","","",""
"","","","","","canvas-keyboard-response","46","228400","0.0-12.0-4.6","2d_cat_multi_stim_exp1","2022-4-8","15:3:21","25","75","3","9","10","40","30","120","21","21","[""White""]","Yes","Female","1675631","null","null","","","","clear_screen","","","","","","","","","","","","","","","","","","","","","","","","","",""
"","","","","","canvas-keyboard-response","47","228916","0.0-12.0-0.7","2d_cat_multi_stim_exp1","2022-4-8","15:3:21","25","75","3","9","10","40","30","120","21","21","[""White""]","Yes","Female","1675631","null","null","","","","fixation","","","","","","","","","","","","","","","","","","","","","","","","","",""
"","","","","","canvas-keyboard-response","48","229425","0.0-12.0-1.7","2d_cat_multi_stim_exp1","2022-4-8","15:3:21","25","75","3","9","10","40","30","120","21","21","[""White""]","Yes","Female","1675631","null","null","","","","clear_screen","","","","","","","","","","","","","","","","","","","","","","","","","",""
"","","","","","canvas-keyboard-response","49","230120","0.0-12.0-2.7","2d_cat_multi_stim_exp1","2022-4-8","15:3:21","25","75","3","9","10","40","30","120","21","21","[""White""]","Yes","Female","1675631","686","u","learn","","","learn_trial","25.9271","83.5595","in","1","1","","","","","","","","","","","","","","","","","","","","",""
"","","","","","canvas-keyboard-response","50","230630","0.0-12.0-3.7","2d_cat_multi_stim_exp1","2022-4-8","15:3:21","25","75","3","9","10","40","30","120","21","21","[""White""]","Yes","Female","1675631","null","null","learn_feedback","","","learn_feedback","25.9271","83.5595","in","","","","","","","","","","","","","","","","","","","","","","",""
"","","","","","canvas-keyboard-response","51","230690","0.0-12.0-4.7","2d_cat_multi_stim_exp1","2022-4-8","15:3:21","25","75","3","9","10","40","30","120","21","21","[""White""]","Yes","Female","1675631","null","null","","","","clear_screen","","","","","","","","","","","","","","","","","","","","","","","","","",""
"","","","","","canvas-keyboard-response","52","231197","0.0-12.0-0.8","2d_cat_multi_stim_exp1","2022-4-8","15:3:21","25","75","3","9","10","40","30","120","21","21","[""White""]","Yes","Female","1675631","null","null","","","","fixation","","","","","","","","","","","","","","","","","","","","","","","","","",""
"","","","","","canvas-keyboard-response","53","231706","0.0-12.0-1.8","2d_cat_multi_stim_exp1","2022-4-8","15:3:21","25","75","3","9","10","40","30","120","21","21","[""White""]","Yes","Female","1675631","null","null","","","","clear_screen","","","","","","","","","","","","","","","","","","","","","","","","","",""
"","","","","","canvas-keyboard-response","54","232688","0.0-12.0-2.8","2d_cat_multi_stim_exp1","2022-4-8","15:3:21","25","75","3","9","10","40","30","120","21","21","[""White""]","Yes","Female","1675631","973","i","learn","","","learn_trial","40","110","out","0","1","","","","","","","","","","","","","","","","","","","","",""
"","","","","","canvas-keyboard-response","55","233197","0.0-12.0-3.8","2d_cat_multi_stim_exp1","2022-4-8","15:3:21","25","75","3","9","10","40","30","120","21","21","[""White""]","Yes","Female","1675631","null","null","learn_feedback","","","learn_feedback","40","110","out","","","","","","","","","","","","","","","","","","","","","","",""
"","","","","","canvas-keyboard-response","56","233255","0.0-12.0-4.8","2d_cat_multi_stim_exp1","2022-4-8","15:3:21","25","75","3","9","10","40","30","120","21","21","[""White""]","Yes","Female","1675631","null","null","","","","clear_screen","","","","","","","","","","","","","","","","","","","","","","","","","",""
"","","","","","canvas-keyboard-response","57","233764","0.0-12.0-0.9","2d_cat_multi_stim_exp1","2022-4-8","15:3:21","25","75","3","9","10","40","30","120","21","21","[""White""]","Yes","Female","1675631","null","null","","","","fixation","","","","","","","","","","","","","","","","","","","","","","","","","",""
"","","","","","canvas-keyboard-response","58","234272","0.0-12.0-1.9","2d_cat_multi_stim_exp1","2022-4-8","15:3:21","25","75","3","9","10","40","30","120","21","21","[""White""]","Yes","Female","1675631","null","null","","","","clear_screen","","","","","","","","","","","","","","","","","","","","","","","","","",""
"","","","","","canvas-keyboard-response","59","235975","0.0-12.0-2.9","2d_cat_multi_stim_exp1","2022-4-8","15:3:21","25","75","3","9","10","40","30","120","21","21","[""White""]","Yes","Female","1675631","1694","u","learn","","","learn_trial","25.4027","66.0815","in","1","1","","","","","","","","","","","","","","","","","","","","",""
"","","","","","canvas-keyboard-response","60","236484","0.0-12.0-3.9","2d_cat_multi_stim_exp1","2022-4-8","15:3:21","25","75","3","9","10","40","30","120","21","21","[""White""]","Yes","Female","1675631","null","null","learn_feedback","","","learn_feedback","25.4027","66.0815","in","","","","","","","","","","","","","","","","","","","","","","",""
"","","","","","canvas-keyboard-response","61","236542","0.0-12.0-4.9","2d_cat_multi_stim_exp1","2022-4-8","15:3:21","25","75","3","9","10","40","30","120","21","21","[""White""]","Yes","Female","1675631","null","null","","","","clear_screen","","","","","","","","","","","","","","","","","","","","","","","","","",""
"","","","","","canvas-keyboard-response","62","237050","0.0-12.0-0.10","2d_cat_multi_stim_exp1","2022-4-8","15:3:21","25","75","3","9","10","40","30","120","21","21","[""White""]","Yes","Female","1675631","null","null","","","","fixation","","","","","","","","","","","","","","","","","","","","","","","","","",""
"","","","","","canvas-keyboard-response","63","237559","0.0-12.0-1.10","2d_cat_multi_stim_exp1","2022-4-8","15:3:21","25","75","3","9","10","40","30","120","21","21","[""White""]","Yes","Female","1675631","null","null","","","","clear_screen","","","","","","","","","","","","","","","","","","","","","","","","","",""
"","","","","","canvas-keyboard-response","64","239024","0.0-12.0-2.10","2d_cat_multi_stim_exp1","2022-4-8","15:3:21","25","75","3","9","10","40","30","120","21","21","[""White""]","Yes","Female","1675631","1456","u","learn","","","learn_trial","23.3473","82.5112","in","1","1","","","","","","","","","","","","","","","","","","","","",""
"","","","","","canvas-keyboard-response","65","239533","0.0-12.0-3.10","2d_cat_multi_stim_exp1","2022-4-8","15:3:21","25","75","3","9","10","40","30","120","21","21","[""White""]","Yes","Female","1675631","null","null","learn_feedback","","","learn_feedback","23.3473","82.5112","in","","","","","","","","","","","","","","","","","","","","","","",""
"","","","","","canvas-keyboard-response","66","239591","0.0-12.0-4.10","2d_cat_multi_stim_exp1","2022-4-8","15:3:21","25","75","3","9","10","40","30","120","21","21","[""White""]","Yes","Female","1675631","null","null","","","","clear_screen","","","","","","","","","","","","","","","","","","","","","","","","","",""
"","","","","","canvas-keyboard-response","67","240099","0.0-12.0-0.11","2d_cat_multi_stim_exp1","2022-4-8","15:3:21","25","75","3","9","10","40","30","120","21","21","[""White""]","Yes","Female","1675631","null","null","","","","fixation","","","","","","","","","","","","","","","","","","","","","","","","","",""
"","","","","","canvas-keyboard-response","68","240607","0.0-12.0-1.11","2d_cat_multi_stim_exp1","2022-4-8","15:3:21","25","75","3","9","10","40","30","120","21","21","[""White""]","Yes","Female","1675631","null","null","","","","clear_screen","","","","","","","","","","","","","","","","","","","","","","","","","",""
"","","","","","canvas-keyboard-response","69","241103","0.0-12.0-2.11","2d_cat_multi_stim_exp1","2022-4-8","15:3:21","25","75","3","9","10","40","30","120","21","21","[""White""]","Yes","Female","1675631","487","u","learn","","","learn_trial","25","75","in","1","1","","","","","","","","","","","","","","","","","","","","",""
"","","","","","canvas-keyboard-response","70","241612","0.0-12.0-3.11","2d_cat_multi_stim_exp1","2022-4-8","15:3:21","25","75","3","9","10","40","30","120","21","21","[""White""]","Yes","Female","1675631","null","null","learn_feedback","","","learn_feedback","25","75","in","","","","","","","","","","","","","","","","","","","","","","",""
"","","","","","canvas-keyboard-response","71","241671","0.0-12.0-4.11","2d_cat_multi_stim_exp1","2022-4-8","15:3:21","25","75","3","9","10","40","30","120","21","21","[""White""]","Yes","Female","1675631","null","null","","","","clear_screen","","","","","","","","","","","","","","","","","","","","","","","","","",""
"","","","","","canvas-keyboard-response","72","242178","0.0-12.0-0.12","2d_cat_multi_stim_exp1","2022-4-8","15:3:21","25","75","3","9","10","40","30","120","21","21","[""White""]","Yes","Female","1675631","null","null","","","","fixation","","","","","","","","","","","","","","","","","","","","","","","","","",""
"","","","","","canvas-keyboard-response","73","242687","0.0-12.0-1.12","2d_cat_multi_stim_exp1","2022-4-8","15:3:21","25","75","3","9","10","40","30","120","21","21","[""White""]","Yes","Female","1675631","null","null","","","","clear_screen","","","","","","","","","","","","","","","","","","","","","","","","","",""
"","","","","","canvas-keyboard-response","74","243312","0.0-12.0-2.12","2d_cat_multi_stim_exp1","2022-4-8","15:3:21","25","75","3","9","10","40","30","120","21","21","[""White""]","Yes","Female","1675631","616","u","learn","","","learn_trial","23.3333","80","out","1","0","","","","","","","","","","","","","","","","","","","","",""
"","","","","","canvas-keyboard-response","75","244321","0.0-12.0-3.12","2d_cat_multi_stim_exp1","2022-4-8","15:3:21","25","75","3","9","10","40","30","120","21","21","[""White""]","Yes","Female","1675631","null","null","learn_feedback","","","learn_feedback","23.3333","80","out","","","","","","","","","","","","","","","","","","","","","","",""
"","","","","","canvas-keyboard-response","76","244379","0.0-12.0-4.12","2d_cat_multi_stim_exp1","2022-4-8","15:3:21","25","75","3","9","10","40","30","120","21","21","[""White""]","Yes","Female","1675631","null","null","","","","clear_screen","","","","","","","","","","","","","","","","","","","","","","","","","",""
"","","","","","canvas-keyboard-response","77","244887","0.0-12.0-0.13","2d_cat_multi_stim_exp1","2022-4-8","15:3:21","25","75","3","9","10","40","30","120","21","21","[""White""]","Yes","Female","1675631","null","null","","","","fixation","","","","","","","","","","","","","","","","","","","","","","","","","",""
"","","","","","canvas-keyboard-response","78","245399","0.0-12.0-1.13","2d_cat_multi_stim_exp1","2022-4-8","15:3:21","25","75","3","9","10","40","30","120","21","21","[""White""]","Yes","Female","1675631","null","null","","","","clear_screen","","","","","","","","","","","","","","","","","","","","","","","","","",""
"","","","","","canvas-keyboard-response","79","246336","0.0-12.0-2.13","2d_cat_multi_stim_exp1","2022-4-8","15:3:21","25","75","3","9","10","40","30","120","21","21","[""White""]","Yes","Female","1675631","928","i","learn","","","learn_trial","20.7574","87.7279","in","0","0","","","","","","","","","","","","","","","","","","","","",""
"","","","","","canvas-keyboard-response","80","247345","0.0-12.0-3.13","2d_cat_multi_stim_exp1","2022-4-8","15:3:21","25","75","3","9","10","40","30","120","21","21","[""White""]","Yes","Female","1675631","null","null","learn_feedback","","","learn_feedback","20.7574","87.7279","in","","","","","","","","","","","","","","","","","","","","","","",""
"","","","","","canvas-keyboard-response","81","247402","0.0-12.0-4.13","2d_cat_multi_stim_exp1","2022-4-8","15:3:21","25","75","3","9","10","40","30","120","21","21","[""White""]","Yes","Female","1675631","null","null","","","","clear_screen","","","","","","","","","","","","","","","","","","","","","","","","","",""
"","","","","","canvas-keyboard-response","82","247910","0.0-12.0-0.14","2d_cat_multi_stim_exp1","2022-4-8","15:3:21","25","75","3","9","10","40","30","120","21","21","[""White""]","Yes","Female","1675631","null","null","","","","fixation","","","","","","","","","","","","","","","","","","","","","","","","","",""
"","","","","","canvas-keyboard-response","83","248419","0.0-12.0-1.14","2d_cat_multi_stim_exp1","2022-4-8","15:3:21","25","75","3","9","10","40","30","120","21","21","[""White""]","Yes","Female","1675631","null","null","","","","clear_screen","","","","","","","","","","","","","","","","","","","","","","","","","",""
"","","","","","canvas-keyboard-response","84","248871","0.0-12.0-2.14","2d_cat_multi_stim_exp1","2022-4-8","15:3:21","25","75","3","9","10","40","30","120","21","21","[""White""]","Yes","Female","1675631","444","u","learn","","","learn_trial","31","75","in","1","1","","","","","","","","","","","","","","","","","","","","",""
"","","","","","canvas-keyboard-response","85","249381","0.0-12.0-3.14","2d_cat_multi_stim_exp1","2022-4-8","15:3:21","25","75","3","9","10","40","30","120","21","21","[""White""]","Yes","Female","1675631","null","null","learn_feedback","","","learn_feedback","31","75","in","","","","","","","","","","","","","","","","","","","","","","",""
"","","","","","canvas-keyboard-response","86","249438","0.0-12.0-4.14","2d_cat_multi_stim_exp1","2022-4-8","15:3:21","25","75","3","9","10","40","30","120","21","21","[""White""]","Yes","Female","1675631","null","null","","","","clear_screen","","","","","","","","","","","","","","","","","","","","","","","","","",""
"","","","","","canvas-keyboard-response","87","249946","0.0-12.0-0.15","2d_cat_multi_stim_exp1","2022-4-8","15:3:21","25","75","3","9","10","40","30","120","21","21","[""White""]","Yes","Female","1675631","null","null","","","","fixation","","","","","","","","","","","","","","","","","","","","","","","","","",""
"","","","","","canvas-keyboard-response","88","250454","0.0-12.0-1.15","2d_cat_multi_stim_exp1","2022-4-8","15:3:21","25","75","3","9","10","40","30","120","21","21","[""White""]","Yes","Female","1675631","null","null","","","","clear_screen","","","","","","","","","","","","","","","","","","","","","","","","","",""
"","","","","","canvas-keyboard-response","89","251575","0.0-12.0-2.15","2d_cat_multi_stim_exp1","2022-4-8","15:3:21","25","75","3","9","10","40","30","120","21","21","[""White""]","Yes","Female","1675631","1112","i","learn","","","learn_trial","16.6667","80","out","0","1","","","","","","","","","","","","","","","","","","","","",""
"","","","","","canvas-keyboard-response","90","252084","0.0-12.0-3.15","2d_cat_multi_stim_exp1","2022-4-8","15:3:21","25","75","3","9","10","40","30","120","21","21","[""White""]","Yes","Female","1675631","null","null","learn_feedback","","","learn_feedback","16.6667","80","out","","","","","","","","","","","","","","","","","","","","","","",""
"","","","","","canvas-keyboard-response","91","252142","0.0-12.0-4.15","2d_cat_multi_stim_exp1","2022-4-8","15:3:21","25","75","3","9","10","40","30","120","21","21","[""White""]","Yes","Female","1675631","null","null","","","","clear_screen","","","","","","","","","","","","","","","","","","","","","","","","","",""
"","","","","","canvas-keyboard-response","92","252650","0.0-12.0-0.16","2d_cat_multi_stim_exp1","2022-4-8","15:3:21","25","75","3","9","10","40","30","120","21","21","[""White""]","Yes","Female","1675631","null","null","","","","fixation","","","","","","","","","","","","","","","","","","","","","","","","","",""
"","","","","","canvas-keyboard-response","93","253158","0.0-12.0-1.16","2d_cat_multi_stim_exp1","2022-4-8","15:3:21","25","75","3","9","10","40","30","120","21","21","[""White""]","Yes","Female","1675631","null","null","","","","clear_screen","","","","","","","","","","","","","","","","","","","","","","","","","",""
"","","","","","canvas-keyboard-response","94","254122","0.0-12.0-2.16","2d_cat_multi_stim_exp1","2022-4-8","15:3:21","25","75","3","9","10","40","30","120","21","21","[""White""]","Yes","Female","1675631","954","u","learn","","","learn_trial","36.6667","90","out","1","0","","","","","","","","","","","","","","","","","","","","",""
"","","","","","canvas-keyboard-response","95","255130","0.0-12.0-3.16","2d_cat_multi_stim_exp1","2022-4-8","15:3:21","25","75","3","9","10","40","30","120","21","21","[""White""]","Yes","Female","1675631","null","null","learn_feedback","","","learn_feedback","36.6667","90","out","","","","","","","","","","","","","","","","","","","","","","",""
"","","","","","canvas-keyboard-response","96","255189","0.0-12.0-4.16","2d_cat_multi_stim_exp1","2022-4-8","15:3:21","25","75","3","9","10","40","30","120","21","21","[""White""]","Yes","Female","1675631","null","null","","","","clear_screen","","","","","","","","","","","","","","","","","","","","","","","","","",""
"","","","","","canvas-keyboard-response","97","255696","0.0-12.0-0.17","2d_cat_multi_stim_exp1","2022-4-8","15:3:21","25","75","3","9","10","40","30","120","21","21","[""White""]","Yes","Female","1675631","null","null","","","","fixation","","","","","","","","","","","","","","","","","","","","","","","","","",""
"","","","","","canvas-keyboard-response","98","256205","0.0-12.0-1.17","2d_cat_multi_stim_exp1","2022-4-8","15:3:21","25","75","3","9","10","40","30","120","21","21","[""White""]","Yes","Female","1675631","null","null","","","","clear_screen","","","","","","","","","","","","","","","","","","","","","","","","","",""
"","","","","","canvas-keyboard-response","99","256495","0.0-12.0-2.17","2d_cat_multi_stim_exp1","2022-4-8","15:3:21","25","75","3","9","10","40","30","120","21","21","[""White""]","Yes","Female","1675631","281","i","learn","","","learn_trial","25","75","in","0","0","","","","","","","","","","","","","","","","","","","","",""
"","","","","","canvas-keyboard-response","100","257505","0.0-12.0-3.17","2d_cat_multi_stim_exp1","2022-4-8","15:3:21","25","75","3","9","10","40","30","120","21","21","[""White""]","Yes","Female","1675631","null","null","learn_feedback","","","learn_feedback","25","75","in","","","","","","","","","","","","","","","","","","","","","","",""
"","","","","","canvas-keyboard-response","101","257563","0.0-12.0-4.17","2d_cat_multi_stim_exp1","2022-4-8","15:3:21","25","75","3","9","10","40","30","120","21","21","[""White""]","Yes","Female","1675631","null","null","","","","clear_screen","","","","","","","","","","","","","","","","","","","","","","","","","",""
"","","","","","canvas-keyboard-response","102","258071","0.0-12.0-0.18","2d_cat_multi_stim_exp1","2022-4-8","15:3:21","25","75","3","9","10","40","30","120","21","21","[""White""]","Yes","Female","1675631","null","null","","","","fixation","","","","","","","","","","","","","","","","","","","","","","","","","",""
"","","","","","canvas-keyboard-response","103","258580","0.0-12.0-1.18","2d_cat_multi_stim_exp1","2022-4-8","15:3:21","25","75","3","9","10","40","30","120","21","21","[""White""]","Yes","Female","1675631","null","null","","","","clear_screen","","","","","","","","","","","","","","","","","","","","","","","","","",""
"","","","","","canvas-keyboard-response","104","259384","0.0-12.0-2.18","2d_cat_multi_stim_exp1","2022-4-8","15:3:21","25","75","3","9","10","40","30","120","21","21","[""White""]","Yes","Female","1675631","795","i","learn","","","learn_trial","16.6667","90","out","0","1","","","","","","","","","","","","","","","","","","","","",""
"","","","","","canvas-keyboard-response","105","259892","0.0-12.0-3.18","2d_cat_multi_stim_exp1","2022-4-8","15:3:21","25","75","3","9","10","40","30","120","21","21","[""White""]","Yes","Female","1675631","null","null","learn_feedback","","","learn_feedback","16.6667","90","out","","","","","","","","","","","","","","","","","","","","","","",""
"","","","","","canvas-keyboard-response","106","259950","0.0-12.0-4.18","2d_cat_multi_stim_exp1","2022-4-8","15:3:21","25","75","3","9","10","40","30","120","21","21","[""White""]","Yes","Female","1675631","null","null","","","","clear_screen","","","","","","","","","","","","","","","","","","","","","","","","","",""
"","","","","","canvas-keyboard-response","107","260459","0.0-12.0-0.19","2d_cat_multi_stim_exp1","2022-4-8","15:3:21","25","75","3","9","10","40","30","120","21","21","[""White""]","Yes","Female","1675631","null","null","","","","fixation","","","","","","","","","","","","","","","","","","","","","","","","","",""
"","","","","","canvas-keyboard-response","108","260966","0.0-12.0-1.19","2d_cat_multi_stim_exp1","2022-4-8","15:3:21","25","75","3","9","10","40","30","120","21","21","[""White""]","Yes","Female","1675631","null","null","","","","clear_screen","","","","","","","","","","","","","","","","","","","","","","","","","",""
"","","","","","canvas-keyboard-response","109","261839","0.0-12.0-2.19","2d_cat_multi_stim_exp1","2022-4-8","15:3:21","25","75","3","9","10","40","30","120","21","21","[""White""]","Yes","Female","1675631","864","i","learn","","","learn_trial","36.6667","60","out","0","1","","","","","","","","","","","","","","","","","","","","",""
"","","","","","canvas-keyboard-response","110","262352","0.0-12.0-3.19","2d_cat_multi_stim_exp1","2022-4-8","15:3:21","25","75","3","9","10","40","30","120","21","21","[""White""]","Yes","Female","1675631","null","null","learn_feedback","","","learn_feedback","36.6667","60","out","","","","","","","","","","","","","","","","","","","","","","",""
"","","","","","canvas-keyboard-response","111","262409","0.0-12.0-4.19","2d_cat_multi_stim_exp1","2022-4-8","15:3:21","25","75","3","9","10","40","30","120","21","21","[""White""]","Yes","Female","1675631","null","null","","","","clear_screen","","","","","","","","","","","","","","","","","","","","","","","","","",""
"","","","","","canvas-keyboard-response","112","262917","0.0-12.0-0.20","2d_cat_multi_stim_exp1","2022-4-8","15:3:21","25","75","3","9","10","40","30","120","21","21","[""White""]","Yes","Female","1675631","null","null","","","","fixation","","","","","","","","","","","","","","","","","","","","","","","","","",""
"","","","","","canvas-keyboard-response","113","263425","0.0-12.0-1.20","2d_cat_multi_stim_exp1","2022-4-8","15:3:21","25","75","3","9","10","40","30","120","21","21","[""White""]","Yes","Female","1675631","null","null","","","","clear_screen","","","","","","","","","","","","","","","","","","","","","","","","","",""
"","","","","","canvas-keyboard-response","114","264071","0.0-12.0-2.20","2d_cat_multi_stim_exp1","2022-4-8","15:3:21","25","75","3","9","10","40","30","120","21","21","[""White""]","Yes","Female","1675631","637","i","learn","","","learn_trial","30","50","out","0","1","","","","","","","","","","","","","","","","","","","","",""
"","","","","","canvas-keyboard-response","115","264580","0.0-12.0-3.20","2d_cat_multi_stim_exp1","2022-4-8","15:3:21","25","75","3","9","10","40","30","120","21","21","[""White""]","Yes","Female","1675631","null","null","learn_feedback","","","learn_feedback","30","50","out","","","","","","","","","","","","","","","","","","","","","","",""
"","","","","","canvas-keyboard-response","116","264638","0.0-12.0-4.20","2d_cat_multi_stim_exp1","2022-4-8","15:3:21","25","75","3","9","10","40","30","120","21","21","[""White""]","Yes","Female","1675631","null","null","","","","clear_screen","","","","","","","","","","","","","","","","","","","","","","","","","",""
"","","","","","canvas-keyboard-response","117","265146","0.0-12.0-0.21","2d_cat_multi_stim_exp1","2022-4-8","15:3:21","25","75","3","9","10","40","30","120","21","21","[""White""]","Yes","Female","1675631","null","null","","","","fixation","","","","","","","","","","","","","","","","","","","","","","","","","",""
"","","","","","canvas-keyboard-response","118","265655","0.0-12.0-1.21","2d_cat_multi_stim_exp1","2022-4-8","15:3:21","25","75","3","9","10","40","30","120","21","21","[""White""]","Yes","Female","1675631","null","null","","","","clear_screen","","","","","","","","","","","","","","","","","","","","","","","","","",""
"","","","","","canvas-keyboard-response","119","266487","0.0-12.0-2.21","2d_cat_multi_stim_exp1","2022-4-8","15:3:21","25","75","3","9","10","40","30","120","21","21","[""White""]","Yes","Female","1675631","825","u","learn","","","learn_trial","25","75","in","1","1","","","","","","","","","","","","","","","","","","","","",""
"","","","","","canvas-keyboard-response","120","266996","0.0-12.0-3.21","2d_cat_multi_stim_exp1","2022-4-8","15:3:21","25","75","3","9","10","40","30","120","21","21","[""White""]","Yes","Female","1675631","null","null","learn_feedback","","","learn_feedback","25","75","in","","","","","","","","","","","","","","","","","","","","","","",""
"","","","","","canvas-keyboard-response","121","267054","0.0-12.0-4.21","2d_cat_multi_stim_exp1","2022-4-8","15:3:21","25","75","3","9","10","40","30","120","21","21","[""White""]","Yes","Female","1675631","null","null","","","","clear_screen","","","","","","","","","","","","","","","","","","","","","","","","","",""
"","","","","","canvas-keyboard-response","122","267563","0.0-12.0-0.22","2d_cat_multi_stim_exp1","2022-4-8","15:3:21","25","75","3","9","10","40","30","120","21","21","[""White""]","Yes","Female","1675631","null","null","","","","fixation","","","","","","","","","","","","","","","","","","","","","","","","","",""
"","","","","","canvas-keyboard-response","123","268072","0.0-12.0-1.22","2d_cat_multi_stim_exp1","2022-4-8","15:3:21","25","75","3","9","10","40","30","120","21","21","[""White""]","Yes","Female","1675631","null","null","","","","clear_screen","","","","","","","","","","","","","","","","","","","","","","","","","",""
"","","","","","canvas-keyboard-response","124","268702","0.0-12.0-2.22","2d_cat_multi_stim_exp1","2022-4-8","15:3:21","25","75","3","9","10","40","30","120","21","21","[""White""]","Yes","Female","1675631","622","i","learn","","","learn_trial","33.3333","110","out","0","1","","","","","","","","","","","","","","","","","","","","",""
"","","","","","canvas-keyboard-response","125","269210","0.0-12.0-3.22","2d_cat_multi_stim_exp1","2022-4-8","15:3:21","25","75","3","9","10","40","30","120","21","21","[""White""]","Yes","Female","1675631","null","null","learn_feedback","","","learn_feedback","33.3333","110","out","","","","","","","","","","","","","","","","","","","","","","",""
"","","","","","canvas-keyboard-response","126","269271","0.0-12.0-4.22","2d_cat_multi_stim_exp1","2022-4-8","15:3:21","25","75","3","9","10","40","30","120","21","21","[""White""]","Yes","Female","1675631","null","null","","","","clear_screen","","","","","","","","","","","","","","","","","","","","","","","","","",""
"","","","","","canvas-keyboard-response","127","269781","0.0-12.0-0.23","2d_cat_multi_stim_exp1","2022-4-8","15:3:21","25","75","3","9","10","40","30","120","21","21","[""White""]","Yes","Female","1675631","null","null","","","","fixation","","","","","","","","","","","","","","","","","","","","","","","","","",""
"","","","","","canvas-keyboard-response","128","270296","0.0-12.0-1.23","2d_cat_multi_stim_exp1","2022-4-8","15:3:21","25","75","3","9","10","40","30","120","21","21","[""White""]","Yes","Female","1675631","null","null","","","","clear_screen","","","","","","","","","","","","","","","","","","","","","","","","","",""
"","","","","","canvas-keyboard-response","129","271152","0.0-12.0-2.23","2d_cat_multi_stim_exp1","2022-4-8","15:3:21","25","75","3","9","10","40","30","120","21","21","[""White""]","Yes","Female","1675631","845","i","learn","","","learn_trial","36.6667","70","out","0","1","","","","","","","","","","","","","","","","","","","","",""
"","","","","","canvas-keyboard-response","130","271661","0.0-12.0-3.23","2d_cat_multi_stim_exp1","2022-4-8","15:3:21","25","75","3","9","10","40","30","120","21","21","[""White""]","Yes","Female","1675631","null","null","learn_feedback","","","learn_feedback","36.6667","70","out","","","","","","","","","","","","","","","","","","","","","","",""
"","","","","","canvas-keyboard-response","131","271720","0.0-12.0-4.23","2d_cat_multi_stim_exp1","2022-4-8","15:3:21","25","75","3","9","10","40","30","120","21","21","[""White""]","Yes","Female","1675631","null","null","","","","clear_screen","","","","","","","","","","","","","","","","","","","","","","","","","",""
"","","","","","canvas-keyboard-response","132","272229","0.0-12.0-0.24","2d_cat_multi_stim_exp1","2022-4-8","15:3:21","25","75","3","9","10","40","30","120","21","21","[""White""]","Yes","Female","1675631","null","null","","","","fixation","","","","","","","","","","","","","","","","","","","","","","","","","",""
"","","","","","canvas-keyboard-response","133","272739","0.0-12.0-1.24","2d_cat_multi_stim_exp1","2022-4-8","15:3:21","25","75","3","9","10","40","30","120","21","21","[""White""]","Yes","Female","1675631","null","null","","","","clear_screen","","","","","","","","","","","","","","","","","","","","","","","","","",""
"","","","","","canvas-keyboard-response","134","273504","0.0-12.0-2.24","2d_cat_multi_stim_exp1","2022-4-8","15:3:21","25","75","3","9","10","40","30","120","21","21","[""White""]","Yes","Female","1675631","756","u","learn","","","learn_trial","23.3333","70","out","1","0","","","","","","","","","","","","","","","","","","","","",""
"","","","","","canvas-keyboard-response","135","274514","0.0-12.0-3.24","2d_cat_multi_stim_exp1","2022-4-8","15:3:21","25","75","3","9","10","40","30","120","21","21","[""White""]","Yes","Female","1675631","null","null","learn_feedback","","","learn_feedback","23.3333","70","out","","","","","","","","","","","","","","","","","","","","","","",""
"","","","","","canvas-keyboard-response","136","274573","0.0-12.0-4.24","2d_cat_multi_stim_exp1","2022-4-8","15:3:21","25","75","3","9","10","40","30","120","21","21","[""White""]","Yes","Female","1675631","null","null","","","","clear_screen","","","","","","","","","","","","","","","","","","","","","","","","","",""
"","","","","","canvas-keyboard-response","137","275087","0.0-12.0-0.25","2d_cat_multi_stim_exp1","2022-4-8","15:3:21","25","75","3","9","10","40","30","120","21","21","[""White""]","Yes","Female","1675631","null","null","","","","fixation","","","","","","","","","","","","","","","","","","","","","","","","","",""
"","","","","","canvas-keyboard-response","138","275596","0.0-12.0-1.25","2d_cat_multi_stim_exp1","2022-4-8","15:3:21","25","75","3","9","10","40","30","120","21","21","[""White""]","Yes","Female","1675631","null","null","","","","clear_screen","","","","","","","","","","","","","","","","","","","","","","","","","",""
"","","","","","canvas-keyboard-response","139","276311","0.0-12.0-2.25","2d_cat_multi_stim_exp1","2022-4-8","15:3:21","25","75","3","9","10","40","30","120","21","21","[""White""]","Yes","Female","1675631","707","i","learn","","","learn_trial","22.0121","74.1932","in","0","0","","","","","","","","","","","","","","","","","","","","",""
"","","","","","canvas-keyboard-response","140","277321","0.0-12.0-3.25","2d_cat_multi_stim_exp1","2022-4-8","15:3:21","25","75","3","9","10","40","30","120","21","21","[""White""]","Yes","Female","1675631","null","null","learn_feedback","","","learn_feedback","22.0121","74.1932","in","","","","","","","","","","","","","","","","","","","","","","",""
"","","","","","canvas-keyboard-response","141","277378","0.0-12.0-4.25","2d_cat_multi_stim_exp1","2022-4-8","15:3:21","25","75","3","9","10","40","30","120","21","21","[""White""]","Yes","Female","1675631","null","null","","","","clear_screen","","","","","","","","","","","","","","","","","","","","","","","","","",""
"","","","","","canvas-keyboard-response","142","277887","0.0-12.0-0.26","2d_cat_multi_stim_exp1","2022-4-8","15:3:21","25","75","3","9","10","40","30","120","21","21","[""White""]","Yes","Female","1675631","null","null","","","","fixation","","","","","","","","","","","","","","","","","","","","","","","","","",""
"","","","","","canvas-keyboard-response","143","278395","0.0-12.0-1.26","2d_cat_multi_stim_exp1","2022-4-8","15:3:21","25","75","3","9","10","40","30","120","21","21","[""White""]","Yes","Female","1675631","null","null","","","","clear_screen","","","","","","","","","","","","","","","","","","","","","","","","","",""
"","","","","","canvas-keyboard-response","144","280079","0.0-12.0-2.26","2d_cat_multi_stim_exp1","2022-4-8","15:3:21","25","75","3","9","10","40","30","120","21","21","[""White""]","Yes","Female","1675631","1676","u","learn","","","learn_trial","22.2971","78.905","in","1","1","","","","","","","","","","","","","","","","","","","","",""
"","","","","","canvas-keyboard-response","145","280589","0.0-12.0-3.26","2d_cat_multi_stim_exp1","2022-4-8","15:3:21","25","75","3","9","10","40","30","120","21","21","[""White""]","Yes","Female","1675631","null","null","learn_feedback","","","learn_feedback","22.2971","78.905","in","","","","","","","","","","","","","","","","","","","","","","",""
"","","","","","canvas-keyboard-response","146","280647","0.0-12.0-4.26","2d_cat_multi_stim_exp1","2022-4-8","15:3:21","25","75","3","9","10","40","30","120","21","21","[""White""]","Yes","Female","1675631","null","null","","","","clear_screen","","","","","","","","","","","","","","","","","","","","","","","","","",""
"","","","","","canvas-keyboard-response","147","281155","0.0-12.0-0.27","2d_cat_multi_stim_exp1","2022-4-8","15:3:21","25","75","3","9","10","40","30","120","21","21","[""White""]","Yes","Female","1675631","null","null","","","","fixation","","","","","","","","","","","","","","","","","","","","","","","","","",""
"","","","","","canvas-keyboard-response","148","281663","0.0-12.0-1.27","2d_cat_multi_stim_exp1","2022-4-8","15:3:21","25","75","3","9","10","40","30","120","21","21","[""White""]","Yes","Female","1675631","null","null","","","","clear_screen","","","","","","","","","","","","","","","","","","","","","","","","","",""
"","","","","","canvas-keyboard-response","149","282472","0.0-12.0-2.27","2d_cat_multi_stim_exp1","2022-4-8","15:3:21","25","75","3","9","10","40","30","120","21","21","[""White""]","Yes","Female","1675631","800","u","learn","","","learn_trial","26.8705","67.9635","in","1","1","","","","","","","","","","","","","","","","","","","","",""
"","","","","","canvas-keyboard-response","150","282980","0.0-12.0-3.27","2d_cat_multi_stim_exp1","2022-4-8","15:3:21","25","75","3","9","10","40","30","120","21","21","[""White""]","Yes","Female","1675631","null","null","learn_feedback","","","learn_feedback","26.8705","67.9635","in","","","","","","","","","","","","","","","","","","","","","","",""
"","","","","","canvas-keyboard-response","151","283038","0.0-12.0-4.27","2d_cat_multi_stim_exp1","2022-4-8","15:3:21","25","75","3","9","10","40","30","120","21","21","[""White""]","Yes","Female","1675631","null","null","","","","clear_screen","","","","","","","","","","","","","","","","","","","","","","","","","",""
"","","","","","canvas-keyboard-response","152","283551","0.0-12.0-0.28","2d_cat_multi_stim_exp1","2022-4-8","15:3:21","25","75","3","9","10","40","30","120","21","21","[""White""]","Yes","Female","1675631","null","null","","","","fixation","","","","","","","","","","","","","","","","","","","","","","","","","",""
"","","","","","canvas-keyboard-response","153","284060","0.0-12.0-1.28","2d_cat_multi_stim_exp1","2022-4-8","15:3:21","25","75","3","9","10","40","30","120","21","21","[""White""]","Yes","Female","1675631","null","null","","","","clear_screen","","","","","","","","","","","","","","","","","","","","","","","","","",""
"","","","","","canvas-keyboard-response","154","285103","0.0-12.0-2.28","2d_cat_multi_stim_exp1","2022-4-8","15:3:21","25","75","3","9","10","40","30","120","21","21","[""White""]","Yes","Female","1675631","1034","u","learn","","","learn_trial","25","75","in","1","1","","","","","","","","","","","","","","","","","","","","",""
"","","","","","canvas-keyboard-response","155","285612","0.0-12.0-3.28","2d_cat_multi_stim_exp1","2022-4-8","15:3:21","25","75","3","9","10","40","30","120","21","21","[""White""]","Yes","Female","1675631","null","null","learn_feedback","","","learn_feedback","25","75","in","","","","","","","","","","","","","","","","","","","","","","",""
"","","","","","canvas-keyboard-response","156","285670","0.0-12.0-4.28","2d_cat_multi_stim_exp1","2022-4-8","15:3:21","25","75","3","9","10","40","30","120","21","21","[""White""]","Yes","Female","1675631","null","null","","","","clear_screen","","","","","","","","","","","","","","","","","","","","","","","","","",""
"","","","","","canvas-keyboard-response","157","286178","0.0-12.0-0.29","2d_cat_multi_stim_exp1","2022-4-8","15:3:21","25","75","3","9","10","40","30","120","21","21","[""White""]","Yes","Female","1675631","null","null","","","","fixation","","","","","","","","","","","","","","","","","","","","","","","","","",""
"","","","","","canvas-keyboard-response","158","286686","0.0-12.0-1.29","2d_cat_multi_stim_exp1","2022-4-8","15:3:21","25","75","3","9","10","40","30","120","21","21","[""White""]","Yes","Female","1675631","null","null","","","","clear_screen","","","","","","","","","","","","","","","","","","","","","","","","","",""
"","","","","","canvas-keyboard-response","159","287567","0.0-12.0-2.29","2d_cat_multi_stim_exp1","2022-4-8","15:3:21","25","75","3","9","10","40","30","120","21","21","[""White""]","Yes","Female","1675631","872","i","learn","","","learn_trial","40","100","out","0","1","","","","","","","","","","","","","","","","","","","","",""
"","","","","","canvas-keyboard-response","160","288076","0.0-12.0-3.29","2d_cat_multi_stim_exp1","2022-4-8","15:3:21","25","75","3","9","10","40","30","120","21","21","[""White""]","Yes","Female","1675631","null","null","learn_feedback","","","learn_feedback","40","100","out","","","","","","","","","","","","","","","","","","","","","","",""
"","","","","","canvas-keyboard-response","161","288133","0.0-12.0-4.29","2d_cat_multi_stim_exp1","2022-4-8","15:3:21","25","75","3","9","10","40","30","120","21","21","[""White""]","Yes","Female","1675631","null","null","","","","clear_screen","","","","","","","","","","","","","","","","","","","","","","","","","",""
"","","","","","canvas-keyboard-response","162","288642","0.0-12.0-0.30","2d_cat_multi_stim_exp1","2022-4-8","15:3:21","25","75","3","9","10","40","30","120","21","21","[""White""]","Yes","Female","1675631","null","null","","","","fixation","","","","","","","","","","","","","","","","","","","","","","","","","",""
"","","","","","canvas-keyboard-response","163","289151","0.0-12.0-1.30","2d_cat_multi_stim_exp1","2022-4-8","15:3:21","25","75","3","9","10","40","30","120","21","21","[""White""]","Yes","Female","1675631","null","null","","","","clear_screen","","","","","","","","","","","","","","","","","","","","","","","","","",""
"","","","","","canvas-keyboard-response","164","289975","0.0-12.0-2.30","2d_cat_multi_stim_exp1","2022-4-8","15:3:21","25","75","3","9","10","40","30","120","21","21","[""White""]","Yes","Female","1675631","815","i","learn","","","learn_trial","33.3333","30","out","0","1","","","","","","","","","","","","","","","","","","","","",""
"","","","","","canvas-keyboard-response","165","290485","0.0-12.0-3.30","2d_cat_multi_stim_exp1","2022-4-8","15:3:21","25","75","3","9","10","40","30","120","21","21","[""White""]","Yes","Female","1675631","null","null","learn_feedback","","","learn_feedback","33.3333","30","out","","","","","","","","","","","","","","","","","","","","","","",""
"","","","","","canvas-keyboard-response","166","290542","0.0-12.0-4.30","2d_cat_multi_stim_exp1","2022-4-8","15:3:21","25","75","3","9","10","40","30","120","21","21","[""White""]","Yes","Female","1675631","null","null","","","","clear_screen","","","","","","","","","","","","","","","","","","","","","","","","","",""
"","","","","","canvas-keyboard-response","167","291050","0.0-12.0-0.31","2d_cat_multi_stim_exp1","2022-4-8","15:3:21","25","75","3","9","10","40","30","120","21","21","[""White""]","Yes","Female","1675631","null","null","","","","fixation","","","","","","","","","","","","","","","","","","","","","","","","","",""
"","","","","","canvas-keyboard-response","168","291560","0.0-12.0-1.31","2d_cat_multi_stim_exp1","2022-4-8","15:3:21","25","75","3","9","10","40","30","120","21","21","[""White""]","Yes","Female","1675631","null","null","","","","clear_screen","","","","","","","","","","","","","","","","","","","","","","","","","",""
"","","","","","canvas-keyboard-response","169","292687","0.0-12.0-2.31","2d_cat_multi_stim_exp1","2022-4-8","15:3:21","25","75","3","9","10","40","30","120","21","21","[""White""]","Yes","Female","1675631","1119","u","learn","","","learn_trial","25","75","in","1","1","","","","","","","","","","","","","","","","","","","","",""
"","","","","","canvas-keyboard-response","170","293196","0.0-12.0-3.31","2d_cat_multi_stim_exp1","2022-4-8","15:3:21","25","75","3","9","10","40","30","120","21","21","[""White""]","Yes","Female","1675631","null","null","learn_feedback","","","learn_feedback","25","75","in","","","","","","","","","","","","","","","","","","","","","","",""
"","","","","","canvas-keyboard-response","171","293255","0.0-12.0-4.31","2d_cat_multi_stim_exp1","2022-4-8","15:3:21","25","75","3","9","10","40","30","120","21","21","[""White""]","Yes","Female","1675631","null","null","","","","clear_screen","","","","","","","","","","","","","","","","","","","","","","","","","",""
"","","","","","canvas-keyboard-response","172","293763","0.0-12.0-0.32","2d_cat_multi_stim_exp1","2022-4-8","15:3:21","25","75","3","9","10","40","30","120","21","21","[""White""]","Yes","Female","1675631","null","null","","","","fixation","","","","","","","","","","","","","","","","","","","","","","","","","",""
"","","","","","canvas-keyboard-response","173","294272","0.0-12.0-1.32","2d_cat_multi_stim_exp1","2022-4-8","15:3:21","25","75","3","9","10","40","30","120","21","21","[""White""]","Yes","Female","1675631","null","null","","","","clear_screen","","","","","","","","","","","","","","","","","","","","","","","","","",""
"","","","","","canvas-keyboard-response","174","294895","0.0-12.0-2.32","2d_cat_multi_stim_exp1","2022-4-8","15:3:21","25","75","3","9","10","40","30","120","21","21","[""White""]","Yes","Female","1675631","614","i","learn","","","learn_trial","13.3333","80","out","0","1","","","","","","","","","","","","","","","","","","","","",""
"","","","","","canvas-keyboard-response","175","295403","0.0-12.0-3.32","2d_cat_multi_stim_exp1","2022-4-8","15:3:21","25","75","3","9","10","40","30","120","21","21","[""White""]","Yes","Female","1675631","null","null","learn_feedback","","","learn_feedback","13.3333","80","out","","","","","","","","","","","","","","","","","","","","","","",""
"","","","","","canvas-keyboard-response","176","295462","0.0-12.0-4.32","2d_cat_multi_stim_exp1","2022-4-8","15:3:21","25","75","3","9","10","40","30","120","21","21","[""White""]","Yes","Female","1675631","null","null","","","","clear_screen","","","","","","","","","","","","","","","","","","","","","","","","","",""
"","","","","","canvas-keyboard-response","177","295970","0.0-12.0-0.33","2d_cat_multi_stim_exp1","2022-4-8","15:3:21","25","75","3","9","10","40","30","120","21","21","[""White""]","Yes","Female","1675631","null","null","","","","fixation","","","","","","","","","","","","","","","","","","","","","","","","","",""
"","","","","","canvas-keyboard-response","178","296478","0.0-12.0-1.33","2d_cat_multi_stim_exp1","2022-4-8","15:3:21","25","75","3","9","10","40","30","120","21","21","[""White""]","Yes","Female","1675631","null","null","","","","clear_screen","","","","","","","","","","","","","","","","","","","","","","","","","",""
"","","","","","canvas-keyboard-response","179","297343","0.0-12.0-2.33","2d_cat_multi_stim_exp1","2022-4-8","15:3:21","25","75","3","9","10","40","30","120","21","21","[""White""]","Yes","Female","1675631","856","i","learn","","","learn_trial","26.6667","60","out","0","1","","","","","","","","","","","","","","","","","","","","",""
"","","","","","canvas-keyboard-response","180","297853","0.0-12.0-3.33","2d_cat_multi_stim_exp1","2022-4-8","15:3:21","25","75","3","9","10","40","30","120","21","21","[""White""]","Yes","Female","1675631","null","null","learn_feedback","","","learn_feedback","26.6667","60","out","","","","","","","","","","","","","","","","","","","","","","",""
"","","","","","canvas-keyboard-response","181","297916","0.0-12.0-4.33","2d_cat_multi_stim_exp1","2022-4-8","15:3:21","25","75","3","9","10","40","30","120","21","21","[""White""]","Yes","Female","1675631","null","null","","","","clear_screen","","","","","","","","","","","","","","","","","","","","","","","","","",""
"","","","","","canvas-keyboard-response","182","298425","0.0-12.0-0.34","2d_cat_multi_stim_exp1","2022-4-8","15:3:21","25","75","3","9","10","40","30","120","21","21","[""White""]","Yes","Female","1675631","null","null","","","","fixation","","","","","","","","","","","","","","","","","","","","","","","","","",""
"","","","","","canvas-keyboard-response","183","298934","0.0-12.0-1.34","2d_cat_multi_stim_exp1","2022-4-8","15:3:21","25","75","3","9","10","40","30","120","21","21","[""White""]","Yes","Female","1675631","null","null","","","","clear_screen","","","","","","","","","","","","","","","","","","","","","","","","","",""
"","","","","","canvas-keyboard-response","184","299647","0.0-12.0-2.34","2d_cat_multi_stim_exp1","2022-4-8","15:3:21","25","75","3","9","10","40","30","120","21","21","[""White""]","Yes","Female","1675631","705","i","learn","","","learn_trial","40","30","out","0","1","","","","","","","","","","","","","","","","","","","","",""
"","","","","","canvas-keyboard-response","185","300156","0.0-12.0-3.34","2d_cat_multi_stim_exp1","2022-4-8","15:3:21","25","75","3","9","10","40","30","120","21","21","[""White""]","Yes","Female","1675631","null","null","learn_feedback","","","learn_feedback","40","30","out","","","","","","","","","","","","","","","","","","","","","","",""
"","","","","","canvas-keyboard-response","186","300214","0.0-12.0-4.34","2d_cat_multi_stim_exp1","2022-4-8","15:3:21","25","75","3","9","10","40","30","120","21","21","[""White""]","Yes","Female","1675631","null","null","","","","clear_screen","","","","","","","","","","","","","","","","","","","","","","","","","",""
"","","","","","canvas-keyboard-response","187","300723","0.0-12.0-0.35","2d_cat_multi_stim_exp1","2022-4-8","15:3:21","25","75","3","9","10","40","30","120","21","21","[""White""]","Yes","Female","1675631","null","null","","","","fixation","","","","","","","","","","","","","","","","","","","","","","","","","",""
"","","","","","canvas-keyboard-response","188","301232","0.0-12.0-1.35","2d_cat_multi_stim_exp1","2022-4-8","15:3:21","25","75","3","9","10","40","30","120","21","21","[""White""]","Yes","Female","1675631","null","null","","","","clear_screen","","","","","","","","","","","","","","","","","","","","","","","","","",""
"","","","","","canvas-keyboard-response","189","301975","0.0-12.0-2.35","2d_cat_multi_stim_exp1","2022-4-8","15:3:21","25","75","3","9","10","40","30","120","21","21","[""White""]","Yes","Female","1675631","733","u","learn","","","learn_trial","25","75","in","1","1","","","","","","","","","","","","","","","","","","","","",""
"","","","","","canvas-keyboard-response","190","302484","0.0-12.0-3.35","2d_cat_multi_stim_exp1","2022-4-8","15:3:21","25","75","3","9","10","40","30","120","21","21","[""White""]","Yes","Female","1675631","null","null","learn_feedback","","","learn_feedback","25","75","in","","","","","","","","","","","","","","","","","","","","","","",""
"","","","","","canvas-keyboard-response","191","302542","0.0-12.0-4.35","2d_cat_multi_stim_exp1","2022-4-8","15:3:21","25","75","3","9","10","40","30","120","21","21","[""White""]","Yes","Female","1675631","null","null","","","","clear_screen","","","","","","","","","","","","","","","","","","","","","","","","","",""
"","","","","","canvas-keyboard-response","192","303050","0.0-12.0-0.36","2d_cat_multi_stim_exp1","2022-4-8","15:3:21","25","75","3","9","10","40","30","120","21","21","[""White""]","Yes","Female","1675631","null","null","","","","fixation","","","","","","","","","","","","","","","","","","","","","","","","","",""
"","","","","","canvas-keyboard-response","193","303558","0.0-12.0-1.36","2d_cat_multi_stim_exp1","2022-4-8","15:3:21","25","75","3","9","10","40","30","120","21","21","[""White""]","Yes","Female","1675631","null","null","","","","clear_screen","","","","","","","","","","","","","","","","","","","","","","","","","",""
"","","","","","canvas-keyboard-response","194","304255","0.0-12.0-2.36","2d_cat_multi_stim_exp1","2022-4-8","15:3:21","25","75","3","9","10","40","30","120","21","21","[""White""]","Yes","Female","1675631","687","i","learn","","","learn_trial","20.7574","62.2721","in","0","0","","","","","","","","","","","","","","","","","","","","",""
"","","","","","canvas-keyboard-response","195","305264","0.0-12.0-3.36","2d_cat_multi_stim_exp1","2022-4-8","15:3:21","25","75","3","9","10","40","30","120","21","21","[""White""]","Yes","Female","1675631","null","null","learn_feedback","","","learn_feedback","20.7574","62.2721","in","","","","","","","","","","","","","","","","","","","","","","",""
"","","","","","canvas-keyboard-response","196","305322","0.0-12.0-4.36","2d_cat_multi_stim_exp1","2022-4-8","15:3:21","25","75","3","9","10","40","30","120","21","21","[""White""]","Yes","Female","1675631","null","null","","","","clear_screen","","","","","","","","","","","","","","","","","","","","","","","","","",""
"","","","","","canvas-keyboard-response","197","305832","0.0-12.0-0.37","2d_cat_multi_stim_exp1","2022-4-8","15:3:21","25","75","3","9","10","40","30","120","21","21","[""White""]","Yes","Female","1675631","null","null","","","","fixation","","","","","","","","","","","","","","","","","","","","","","","","","",""
"","","","","","canvas-keyboard-response","198","306344","0.0-12.0-1.37","2d_cat_multi_stim_exp1","2022-4-8","15:3:21","25","75","3","9","10","40","30","120","21","21","[""White""]","Yes","Female","1675631","null","null","","","","clear_screen","","","","","","","","","","","","","","","","","","","","","","","","","",""
"","","","","","canvas-keyboard-response","199","307087","0.0-12.0-2.37","2d_cat_multi_stim_exp1","2022-4-8","15:3:21","25","75","3","9","10","40","30","120","21","21","[""White""]","Yes","Female","1675631","730","i","learn","","","learn_trial","40","70","out","0","1","","","","","","","","","","","","","","","","","","","","",""
"","","","","","canvas-keyboard-response","200","307598","0.0-12.0-3.37","2d_cat_multi_stim_exp1","2022-4-8","15:3:21","25","75","3","9","10","40","30","120","21","21","[""White""]","Yes","Female","1675631","null","null","learn_feedback","","","learn_feedback","40","70","out","","","","","","","","","","","","","","","","","","","","","","",""
"","","","","","canvas-keyboard-response","201","307658","0.0-12.0-4.37","2d_cat_multi_stim_exp1","2022-4-8","15:3:21","25","75","3","9","10","40","30","120","21","21","[""White""]","Yes","Female","1675631","null","null","","","","clear_screen","","","","","","","","","","","","","","","","","","","","","","","","","",""
"","","","","","canvas-keyboard-response","202","308166","0.0-12.0-0.38","2d_cat_multi_stim_exp1","2022-4-8","15:3:21","25","75","3","9","10","40","30","120","21","21","[""White""]","Yes","Female","1675631","null","null","","","","fixation","","","","","","","","","","","","","","","","","","","","","","","","","",""
"","","","","","canvas-keyboard-response","203","308676","0.0-12.0-1.38","2d_cat_multi_stim_exp1","2022-4-8","15:3:21","25","75","3","9","10","40","30","120","21","21","[""White""]","Yes","Female","1675631","null","null","","","","clear_screen","","","","","","","","","","","","","","","","","","","","","","","","","",""
"","","","","","canvas-keyboard-response","204","309367","0.0-12.0-2.38","2d_cat_multi_stim_exp1","2022-4-8","15:3:21","25","75","3","9","10","40","30","120","21","21","[""White""]","Yes","Female","1675631","682","u","learn","","","learn_trial","26.6667","120","out","1","0","","","","","","","","","","","","","","","","","","","","",""
"","","","","","canvas-keyboard-response","205","310376","0.0-12.0-3.38","2d_cat_multi_stim_exp1","2022-4-8","15:3:21","25","75","3","9","10","40","30","120","21","21","[""White""]","Yes","Female","1675631","null","null","learn_feedback","","","learn_feedback","26.6667","120","out","","","","","","","","","","","","","","","","","","","","","","",""
"","","","","","canvas-keyboard-response","206","310435","0.0-12.0-4.38","2d_cat_multi_stim_exp1","2022-4-8","15:3:21","25","75","3","9","10","40","30","120","21","21","[""White""]","Yes","Female","1675631","null","null","","","","clear_screen","","","","","","","","","","","","","","","","","","","","","","","","","",""
"","","","","","canvas-keyboard-response","207","310944","0.0-12.0-0.39","2d_cat_multi_stim_exp1","2022-4-8","15:3:21","25","75","3","9","10","40","30","120","21","21","[""White""]","Yes","Female","1675631","null","null","","","","fixation","","","","","","","","","","","","","","","","","","","","","","","","","",""
"","","","","","canvas-keyboard-response","208","311453","0.0-12.0-1.39","2d_cat_multi_stim_exp1","2022-4-8","15:3:21","25","75","3","9","10","40","30","120","21","21","[""White""]","Yes","Female","1675631","null","null","","","","clear_screen","","","","","","","","","","","","","","","","","","","","","","","","","",""
"","","","","","canvas-keyboard-response","209","312255","0.0-12.0-2.39","2d_cat_multi_stim_exp1","2022-4-8","15:3:21","25","75","3","9","10","40","30","120","21","21","[""White""]","Yes","Female","1675631","793","i","learn","","","learn_trial","13.3333","70","out","0","1","","","","","","","","","","","","","","","","","","","","",""
"","","","","","canvas-keyboard-response","210","312765","0.0-12.0-3.39","2d_cat_multi_stim_exp1","2022-4-8","15:3:21","25","75","3","9","10","40","30","120","21","21","[""White""]","Yes","Female","1675631","null","null","learn_feedback","","","learn_feedback","13.3333","70","out","","","","","","","","","","","","","","","","","","","","","","",""
"","","","","","canvas-keyboard-response","211","312823","0.0-12.0-4.39","2d_cat_multi_stim_exp1","2022-4-8","15:3:21","25","75","3","9","10","40","30","120","21","21","[""White""]","Yes","Female","1675631","null","null","","","","clear_screen","","","","","","","","","","","","","","","","","","","","","","","","","",""
"","","","","","canvas-keyboard-response","212","313331","0.0-12.0-0.40","2d_cat_multi_stim_exp1","2022-4-8","15:3:21","25","75","3","9","10","40","30","120","21","21","[""White""]","Yes","Female","1675631","null","null","","","","fixation","","","","","","","","","","","","","","","","","","","","","","","","","",""
"","","","","","canvas-keyboard-response","213","313840","0.0-12.0-1.40","2d_cat_multi_stim_exp1","2022-4-8","15:3:21","25","75","3","9","10","40","30","120","21","21","[""White""]","Yes","Female","1675631","null","null","","","","clear_screen","","","","","","","","","","","","","","","","","","","","","","","","","",""
"","","","","","canvas-keyboard-response","214","314631","0.0-12.0-2.40","2d_cat_multi_stim_exp1","2022-4-8","15:3:21","25","75","3","9","10","40","30","120","21","21","[""White""]","Yes","Female","1675631","781","u","learn","","","learn_trial","23.3333","90","out","1","0","","","","","","","","","","","","","","","","","","","","",""
"","","","","","canvas-keyboard-response","215","315641","0.0-12.0-3.40","2d_cat_multi_stim_exp1","2022-4-8","15:3:21","25","75","3","9","10","40","30","120","21","21","[""White""]","Yes","Female","1675631","null","null","learn_feedback","","","learn_feedback","23.3333","90","out","","","","","","","","","","","","","","","","","","","","","","",""
"","","","","","canvas-keyboard-response","216","315699","0.0-12.0-4.40","2d_cat_multi_stim_exp1","2022-4-8","15:3:21","25","75","3","9","10","40","30","120","21","21","[""White""]","Yes","Female","1675631","null","null","","","","clear_screen","","","","","","","","","","","","","","","","","","","","","","","","","",""
"","","","","","canvas-keyboard-response","217","316208","0.0-12.0-0.41","2d_cat_multi_stim_exp1","2022-4-8","15:3:21","25","75","3","9","10","40","30","120","21","21","[""White""]","Yes","Female","1675631","null","null","","","","fixation","","","","","","","","","","","","","","","","","","","","","","","","","",""
"","","","","","canvas-keyboard-response","218","316716","0.0-12.0-1.41","2d_cat_multi_stim_exp1","2022-4-8","15:3:21","25","75","3","9","10","40","30","120","21","21","[""White""]","Yes","Female","1675631","null","null","","","","clear_screen","","","","","","","","","","","","","","","","","","","","","","","","","",""
"","","","","","canvas-keyboard-response","219","317351","0.0-12.0-2.41","2d_cat_multi_stim_exp1","2022-4-8","15:3:21","25","75","3","9","10","40","30","120","21","21","[""White""]","Yes","Female","1675631","625","i","learn","","","learn_trial","33.3333","90","out","0","1","","","","","","","","","","","","","","","","","","","","",""
"","","","","","canvas-keyboard-response","220","317860","0.0-12.0-3.41","2d_cat_multi_stim_exp1","2022-4-8","15:3:21","25","75","3","9","10","40","30","120","21","21","[""White""]","Yes","Female","1675631","null","null","learn_feedback","","","learn_feedback","33.3333","90","out","","","","","","","","","","","","","","","","","","","","","","",""
"","","","","","canvas-keyboard-response","221","317918","0.0-12.0-4.41","2d_cat_multi_stim_exp1","2022-4-8","15:3:21","25","75","3","9","10","40","30","120","21","21","[""White""]","Yes","Female","1675631","null","null","","","","clear_screen","","","","","","","","","","","","","","","","","","","","","","","","","",""
"","","","","","canvas-keyboard-response","222","318426","0.0-12.0-0.42","2d_cat_multi_stim_exp1","2022-4-8","15:3:21","25","75","3","9","10","40","30","120","21","21","[""White""]","Yes","Female","1675631","null","null","","","","fixation","","","","","","","","","","","","","","","","","","","","","","","","","",""
"","","","","","canvas-keyboard-response","223","318935","0.0-12.0-1.42","2d_cat_multi_stim_exp1","2022-4-8","15:3:21","25","75","3","9","10","40","30","120","21","21","[""White""]","Yes","Female","1675631","null","null","","","","clear_screen","","","","","","","","","","","","","","","","","","","","","","","","","",""
"","","","","","canvas-keyboard-response","224","319855","0.0-12.0-2.42","2d_cat_multi_stim_exp1","2022-4-8","15:3:21","25","75","3","9","10","40","30","120","21","21","[""White""]","Yes","Female","1675631","910","u","learn","","","learn_trial","25","75","in","1","1","","","","","","","","","","","","","","","","","","","","",""
"","","","","","canvas-keyboard-response","225","320364","0.0-12.0-3.42","2d_cat_multi_stim_exp1","2022-4-8","15:3:21","25","75","3","9","10","40","30","120","21","21","[""White""]","Yes","Female","1675631","null","null","learn_feedback","","","learn_feedback","25","75","in","","","","","","","","","","","","","","","","","","","","","","",""
"","","","","","canvas-keyboard-response","226","320422","0.0-12.0-4.42","2d_cat_multi_stim_exp1","2022-4-8","15:3:21","25","75","3","9","10","40","30","120","21","21","[""White""]","Yes","Female","1675631","null","null","","","","clear_screen","","","","","","","","","","","","","","","","","","","","","","","","","",""
"","","","","","canvas-keyboard-response","227","320930","0.0-12.0-0.43","2d_cat_multi_stim_exp1","2022-4-8","15:3:21","25","75","3","9","10","40","30","120","21","21","[""White""]","Yes","Female","1675631","null","null","","","","fixation","","","","","","","","","","","","","","","","","","","","","","","","","",""
"","","","","","canvas-keyboard-response","228","321439","0.0-12.0-1.43","2d_cat_multi_stim_exp1","2022-4-8","15:3:21","25","75","3","9","10","40","30","120","21","21","[""White""]","Yes","Female","1675631","null","null","","","","clear_screen","","","","","","","","","","","","","","","","","","","","","","","","","",""
"","","","","","canvas-keyboard-response","229","322294","0.0-12.0-2.43","2d_cat_multi_stim_exp1","2022-4-8","15:3:21","25","75","3","9","10","40","30","120","21","21","[""White""]","Yes","Female","1675631","844","i","learn","","","learn_trial","25","93","in","0","0","","","","","","","","","","","","","","","","","","","","",""
"","","","","","canvas-keyboard-response","230","323304","0.0-12.0-3.43","2d_cat_multi_stim_exp1","2022-4-8","15:3:21","25","75","3","9","10","40","30","120","21","21","[""White""]","Yes","Female","1675631","null","null","learn_feedback","","","learn_feedback","25","93","in","","","","","","","","","","","","","","","","","","","","","","",""
"","","","","","canvas-keyboard-response","231","323362","0.0-12.0-4.43","2d_cat_multi_stim_exp1","2022-4-8","15:3:21","25","75","3","9","10","40","30","120","21","21","[""White""]","Yes","Female","1675631","null","null","","","","clear_screen","","","","","","","","","","","","","","","","","","","","","","","","","",""
"","","","","","canvas-keyboard-response","232","323871","0.0-12.0-0.44","2d_cat_multi_stim_exp1","2022-4-8","15:3:21","25","75","3","9","10","40","30","120","21","21","[""White""]","Yes","Female","1675631","null","null","","","","fixation","","","","","","","","","","","","","","","","","","","","","","","","","",""
"","","","","","canvas-keyboard-response","233","324379","0.0-12.0-1.44","2d_cat_multi_stim_exp1","2022-4-8","15:3:21","25","75","3","9","10","40","30","120","21","21","[""White""]","Yes","Female","1675631","null","null","","","","clear_screen","","","","","","","","","","","","","","","","","","","","","","","","","",""
"","","","","","canvas-keyboard-response","234","325079","0.0-12.0-2.44","2d_cat_multi_stim_exp1","2022-4-8","15:3:21","25","75","3","9","10","40","30","120","21","21","[""White""]","Yes","Female","1675631","691","i","learn","","","learn_trial","30","60","out","0","1","","","","","","","","","","","","","","","","","","","","",""
"","","","","","canvas-keyboard-response","235","325588","0.0-12.0-3.44","2d_cat_multi_stim_exp1","2022-4-8","15:3:21","25","75","3","9","10","40","30","120","21","21","[""White""]","Yes","Female","1675631","null","null","learn_feedback","","","learn_feedback","30","60","out","","","","","","","","","","","","","","","","","","","","","","",""
"","","","","","canvas-keyboard-response","236","325646","0.0-12.0-4.44","2d_cat_multi_stim_exp1","2022-4-8","15:3:21","25","75","3","9","10","40","30","120","21","21","[""White""]","Yes","Female","1675631","null","null","","","","clear_screen","","","","","","","","","","","","","","","","","","","","","","","","","",""
"","","","","","canvas-keyboard-response","237","326154","0.0-12.0-0.45","2d_cat_multi_stim_exp1","2022-4-8","15:3:21","25","75","3","9","10","40","30","120","21","21","[""White""]","Yes","Female","1675631","null","null","","","","fixation","","","","","","","","","","","","","","","","","","","","","","","","","",""
"","","","","","canvas-keyboard-response","238","326662","0.0-12.0-1.45","2d_cat_multi_stim_exp1","2022-4-8","15:3:21","25","75","3","9","10","40","30","120","21","21","[""White""]","Yes","Female","1675631","null","null","","","","clear_screen","","","","","","","","","","","","","","","","","","","","","","","","","",""
"","","","","","canvas-keyboard-response","239","328183","0.0-12.0-2.45","2d_cat_multi_stim_exp1","2022-4-8","15:3:21","25","75","3","9","10","40","30","120","21","21","[""White""]","Yes","Female","1675631","1511","i","learn","","","learn_trial","26.6667","100","out","0","1","","","","","","","","","","","","","","","","","","","","",""
"","","","","","canvas-keyboard-response","240","328692","0.0-12.0-3.45","2d_cat_multi_stim_exp1","2022-4-8","15:3:21","25","75","3","9","10","40","30","120","21","21","[""White""]","Yes","Female","1675631","null","null","learn_feedback","","","learn_feedback","26.6667","100","out","","","","","","","","","","","","","","","","","","","","","","",""
"","","","","","canvas-keyboard-response","241","328750","0.0-12.0-4.45","2d_cat_multi_stim_exp1","2022-4-8","15:3:21","25","75","3","9","10","40","30","120","21","21","[""White""]","Yes","Female","1675631","null","null","","","","clear_screen","","","","","","","","","","","","","","","","","","","","","","","","","",""
"","","","","","canvas-keyboard-response","242","329258","0.0-12.0-0.46","2d_cat_multi_stim_exp1","2022-4-8","15:3:21","25","75","3","9","10","40","30","120","21","21","[""White""]","Yes","Female","1675631","null","null","","","","fixation","","","","","","","","","","","","","","","","","","","","","","","","","",""
"","","","","","canvas-keyboard-response","243","329766","0.0-12.0-1.46","2d_cat_multi_stim_exp1","2022-4-8","15:3:21","25","75","3","9","10","40","30","120","21","21","[""White""]","Yes","Female","1675631","null","null","","","","clear_screen","","","","","","","","","","","","","","","","","","","","","","","","","",""
"","","","","","canvas-keyboard-response","244","330463","0.0-12.0-2.46","2d_cat_multi_stim_exp1","2022-4-8","15:3:21","25","75","3","9","10","40","30","120","21","21","[""White""]","Yes","Female","1675631","686","u","learn","","","learn_trial","25","75","in","1","1","","","","","","","","","","","","","","","","","","","","",""
"","","","","","canvas-keyboard-response","245","330972","0.0-12.0-3.46","2d_cat_multi_stim_exp1","2022-4-8","15:3:21","25","75","3","9","10","40","30","120","21","21","[""White""]","Yes","Female","1675631","null","null","learn_feedback","","","learn_feedback","25","75","in","","","","","","","","","","","","","","","","","","","","","","",""
"","","","","","canvas-keyboard-response","246","331030","0.0-12.0-4.46","2d_cat_multi_stim_exp1","2022-4-8","15:3:21","25","75","3","9","10","40","30","120","21","21","[""White""]","Yes","Female","1675631","null","null","","","","clear_screen","","","","","","","","","","","","","","","","","","","","","","","","","",""
"","","","","","canvas-keyboard-response","247","331538","0.0-12.0-0.47","2d_cat_multi_stim_exp1","2022-4-8","15:3:21","25","75","3","9","10","40","30","120","21","21","[""White""]","Yes","Female","1675631","null","null","","","","fixation","","","","","","","","","","","","","","","","","","","","","","","","","",""
"","","","","","canvas-keyboard-response","248","332046","0.0-12.0-1.47","2d_cat_multi_stim_exp1","2022-4-8","15:3:21","25","75","3","9","10","40","30","120","21","21","[""White""]","Yes","Female","1675631","null","null","","","","clear_screen","","","","","","","","","","","","","","","","","","","","","","","","","",""
"","","","","","canvas-keyboard-response","249","332639","0.0-12.0-2.47","2d_cat_multi_stim_exp1","2022-4-8","15:3:21","25","75","3","9","10","40","30","120","21","21","[""White""]","Yes","Female","1675631","582","i","learn","","","learn_trial","26.4216","82.9254","in","0","0","","","","","","","","","","","","","","","","","","","","",""
"","","","","","canvas-keyboard-response","250","333649","0.0-12.0-3.47","2d_cat_multi_stim_exp1","2022-4-8","15:3:21","25","75","3","9","10","40","30","120","21","21","[""White""]","Yes","Female","1675631","null","null","learn_feedback","","","learn_feedback","26.4216","82.9254","in","","","","","","","","","","","","","","","","","","","","","","",""
"","","","","","canvas-keyboard-response","251","333706","0.0-12.0-4.47","2d_cat_multi_stim_exp1","2022-4-8","15:3:21","25","75","3","9","10","40","30","120","21","21","[""White""]","Yes","Female","1675631","null","null","","","","clear_screen","","","","","","","","","","","","","","","","","","","","","","","","","",""
"","","","","","canvas-keyboard-response","252","334214","0.0-12.0-0.48","2d_cat_multi_stim_exp1","2022-4-8","15:3:21","25","75","3","9","10","40","30","120","21","21","[""White""]","Yes","Female","1675631","null","null","","","","fixation","","","","","","","","","","","","","","","","","","","","","","","","","",""
"","","","","","canvas-keyboard-response","253","334722","0.0-12.0-1.48","2d_cat_multi_stim_exp1","2022-4-8","15:3:21","25","75","3","9","10","40","30","120","21","21","[""White""]","Yes","Female","1675631","null","null","","","","clear_screen","","","","","","","","","","","","","","","","","","","","","","","","","",""
"","","","","","canvas-keyboard-response","254","338559","0.0-12.0-2.48","2d_cat_multi_stim_exp1","2022-4-8","15:3:21","25","75","3","9","10","40","30","120","21","21","[""White""]","Yes","Female","1675631","3828","u","learn","","","learn_trial","26.4216","67.0746","in","1","1","","","","","","","","","","","","","","","","","","","","",""
"","","","","","canvas-keyboard-response","255","339068","0.0-12.0-3.48","2d_cat_multi_stim_exp1","2022-4-8","15:3:21","25","75","3","9","10","40","30","120","21","21","[""White""]","Yes","Female","1675631","null","null","learn_feedback","","","learn_feedback","26.4216","67.0746","in","","","","","","","","","","","","","","","","","","","","","","",""
"","","","","","canvas-keyboard-response","256","339127","0.0-12.0-4.48","2d_cat_multi_stim_exp1","2022-4-8","15:3:21","25","75","3","9","10","40","30","120","21","21","[""White""]","Yes","Female","1675631","null","null","","","","clear_screen","","","","","","","","","","","","","","","","","","","","","","","","","",""
"","","","","","canvas-keyboard-response","257","339634","0.0-12.0-0.49","2d_cat_multi_stim_exp1","2022-4-8","15:3:21","25","75","3","9","10","40","30","120","21","21","[""White""]","Yes","Female","1675631","null","null","","","","fixation","","","","","","","","","","","","","","","","","","","","","","","","","",""
"","","","","","canvas-keyboard-response","258","340142","0.0-12.0-1.49","2d_cat_multi_stim_exp1","2022-4-8","15:3:21","25","75","3","9","10","40","30","120","21","21","[""White""]","Yes","Female","1675631","null","null","","","","clear_screen","","","","","","","","","","","","","","","","","","","","","","","","","",""
"","","","","","canvas-keyboard-response","259","340839","0.0-12.0-2.49","2d_cat_multi_stim_exp1","2022-4-8","15:3:21","25","75","3","9","10","40","30","120","21","21","[""White""]","Yes","Female","1675631","683","i","learn","","","learn_trial","30","70","out","0","1","","","","","","","","","","","","","","","","","","","","",""
"","","","","","canvas-keyboard-response","260","341348","0.0-12.0-3.49","2d_cat_multi_stim_exp1","2022-4-8","15:3:21","25","75","3","9","10","40","30","120","21","21","[""White""]","Yes","Female","1675631","null","null","learn_feedback","","","learn_feedback","30","70","out","","","","","","","","","","","","","","","","","","","","","","",""
"","","","","","canvas-keyboard-response","261","341407","0.0-12.0-4.49","2d_cat_multi_stim_exp1","2022-4-8","15:3:21","25","75","3","9","10","40","30","120","21","21","[""White""]","Yes","Female","1675631","null","null","","","","clear_screen","","","","","","","","","","","","","","","","","","","","","","","","","",""
"","","","","","canvas-keyboard-response","262","341915","0.0-12.0-0.50","2d_cat_multi_stim_exp1","2022-4-8","15:3:21","25","75","3","9","10","40","30","120","21","21","[""White""]","Yes","Female","1675631","null","null","","","","fixation","","","","","","","","","","","","","","","","","","","","","","","","","",""
"","","","","","canvas-keyboard-response","263","342424","0.0-12.0-1.50","2d_cat_multi_stim_exp1","2022-4-8","15:3:21","25","75","3","9","10","40","30","120","21","21","[""White""]","Yes","Female","1675631","null","null","","","","clear_screen","","","","","","","","","","","","","","","","","","","","","","","","","",""
"","","","","","canvas-keyboard-response","264","343174","0.0-12.0-2.50","2d_cat_multi_stim_exp1","2022-4-8","15:3:21","25","75","3","9","10","40","30","120","21","21","[""White""]","Yes","Female","1675631","742","i","learn","","","learn_trial","27.8087","71.8376","in","0","0","","","","","","","","","","","","","","","","","","","","",""
"","","","","","canvas-keyboard-response","265","344184","0.0-12.0-3.50","2d_cat_multi_stim_exp1","2022-4-8","15:3:21","25","75","3","9","10","40","30","120","21","21","[""White""]","Yes","Female","1675631","null","null","learn_feedback","","","learn_feedback","27.8087","71.8376","in","","","","","","","","","","","","","","","","","","","","","","",""
"","","","","","canvas-keyboard-response","266","344242","0.0-12.0-4.50","2d_cat_multi_stim_exp1","2022-4-8","15:3:21","25","75","3","9","10","40","30","120","21","21","[""White""]","Yes","Female","1675631","null","null","","","","clear_screen","","","","","","","","","","","","","","","","","","","","","","","","","",""
"","","","","","canvas-keyboard-response","267","344751","0.0-12.0-0.51","2d_cat_multi_stim_exp1","2022-4-8","15:3:21","25","75","3","9","10","40","30","120","21","21","[""White""]","Yes","Female","1675631","null","null","","","","fixation","","","","","","","","","","","","","","","","","","","","","","","","","",""
"","","","","","canvas-keyboard-response","268","345258","0.0-12.0-1.51","2d_cat_multi_stim_exp1","2022-4-8","15:3:21","25","75","3","9","10","40","30","120","21","21","[""White""]","Yes","Female","1675631","null","null","","","","clear_screen","","","","","","","","","","","","","","","","","","","","","","","","","",""
"","","","","","canvas-keyboard-response","269","345983","0.0-12.0-2.51","2d_cat_multi_stim_exp1","2022-4-8","15:3:21","25","75","3","9","10","40","30","120","21","21","[""White""]","Yes","Female","1675631","716","u","learn","","","learn_trial","25","75","in","1","1","","","","","","","","","","","","","","","","","","","","",""
"","","","","","canvas-keyboard-response","270","346491","0.0-12.0-3.51","2d_cat_multi_stim_exp1","2022-4-8","15:3:21","25","75","3","9","10","40","30","120","21","21","[""White""]","Yes","Female","1675631","null","null","learn_feedback","","","learn_feedback","25","75","in","","","","","","","","","","","","","","","","","","","","","","",""
"","","","","","canvas-keyboard-response","271","346549","0.0-12.0-4.51","2d_cat_multi_stim_exp1","2022-4-8","15:3:21","25","75","3","9","10","40","30","120","21","21","[""White""]","Yes","Female","1675631","null","null","","","","clear_screen","","","","","","","","","","","","","","","","","","","","","","","","","",""
"","","","","","canvas-keyboard-response","272","347057","0.0-12.0-0.52","2d_cat_multi_stim_exp1","2022-4-8","15:3:21","25","75","3","9","10","40","30","120","21","21","[""White""]","Yes","Female","1675631","null","null","","","","fixation","","","","","","","","","","","","","","","","","","","","","","","","","",""
"","","","","","canvas-keyboard-response","273","347566","0.0-12.0-1.52","2d_cat_multi_stim_exp1","2022-4-8","15:3:21","25","75","3","9","10","40","30","120","21","21","[""White""]","Yes","Female","1675631","null","null","","","","clear_screen","","","","","","","","","","","","","","","","","","","","","","","","","",""
"","","","","","canvas-keyboard-response","274","348174","0.0-12.0-2.52","2d_cat_multi_stim_exp1","2022-4-8","15:3:21","25","75","3","9","10","40","30","120","21","21","[""White""]","Yes","Female","1675631","596","i","learn","","","learn_trial","30","40","out","0","1","","","","","","","","","","","","","","","","","","","","",""
"","","","","","canvas-keyboard-response","275","348683","0.0-12.0-3.52","2d_cat_multi_stim_exp1","2022-4-8","15:3:21","25","75","3","9","10","40","30","120","21","21","[""White""]","Yes","Female","1675631","null","null","learn_feedback","","","learn_feedback","30","40","out","","","","","","","","","","","","","","","","","","","","","","",""
"","","","","","canvas-keyboard-response","276","348742","0.0-12.0-4.52","2d_cat_multi_stim_exp1","2022-4-8","15:3:21","25","75","3","9","10","40","30","120","21","21","[""White""]","Yes","Female","1675631","null","null","","","","clear_screen","","","","","","","","","","","","","","","","","","","","","","","","","",""
"","","","","","canvas-keyboard-response","277","349250","0.0-12.0-0.53","2d_cat_multi_stim_exp1","2022-4-8","15:3:21","25","75","3","9","10","40","30","120","21","21","[""White""]","Yes","Female","1675631","null","null","","","","fixation","","","","","","","","","","","","","","","","","","","","","","","","","",""
"","","","","","canvas-keyboard-response","278","349758","0.0-12.0-1.53","2d_cat_multi_stim_exp1","2022-4-8","15:3:21","25","75","3","9","10","40","30","120","21","21","[""White""]","Yes","Female","1675631","null","null","","","","clear_screen","","","","","","","","","","","","","","","","","","","","","","","","","",""
"","","","","","canvas-keyboard-response","279","350494","0.0-12.0-2.53","2d_cat_multi_stim_exp1","2022-4-8","15:3:21","25","75","3","9","10","40","30","120","21","21","[""White""]","Yes","Female","1675631","727","u","learn","","","learn_trial","25","75","in","1","1","","","","","","","","","","","","","","","","","","","","",""
"","","","","","canvas-keyboard-response","280","351004","0.0-12.0-3.53","2d_cat_multi_stim_exp1","2022-4-8","15:3:21","25","75","3","9","10","40","30","120","21","21","[""White""]","Yes","Female","1675631","null","null","learn_feedback","","","learn_feedback","25","75","in","","","","","","","","","","","","","","","","","","","","","","",""
"","","","","","canvas-keyboard-response","281","351063","0.0-12.0-4.53","2d_cat_multi_stim_exp1","2022-4-8","15:3:21","25","75","3","9","10","40","30","120","21","21","[""White""]","Yes","Female","1675631","null","null","","","","clear_screen","","","","","","","","","","","","","","","","","","","","","","","","","",""
"","","","","","canvas-keyboard-response","282","351572","0.0-12.0-0.54","2d_cat_multi_stim_exp1","2022-4-8","15:3:21","25","75","3","9","10","40","30","120","21","21","[""White""]","Yes","Female","1675631","null","null","","","","fixation","","","","","","","","","","","","","","","","","","","","","","","","","",""
"","","","","","canvas-keyboard-response","283","352080","0.0-12.0-1.54","2d_cat_multi_stim_exp1","2022-4-8","15:3:21","25","75","3","9","10","40","30","120","21","21","[""White""]","Yes","Female","1675631","null","null","","","","clear_screen","","","","","","","","","","","","","","","","","","","","","","","","","",""
"","","","","","canvas-keyboard-response","284","352695","0.0-12.0-2.54","2d_cat_multi_stim_exp1","2022-4-8","15:3:21","25","75","3","9","10","40","30","120","21","21","[""White""]","Yes","Female","1675631","605","i","learn","","","learn_trial","33.3333","70","out","0","1","","","","","","","","","","","","","","","","","","","","",""
"","","","","","canvas-keyboard-response","285","353204","0.0-12.0-3.54","2d_cat_multi_stim_exp1","2022-4-8","15:3:21","25","75","3","9","10","40","30","120","21","21","[""White""]","Yes","Female","1675631","null","null","learn_feedback","","","learn_feedback","33.3333","70","out","","","","","","","","","","","","","","","","","","","","","","",""
"","","","","","canvas-keyboard-response","286","353263","0.0-12.0-4.54","2d_cat_multi_stim_exp1","2022-4-8","15:3:21","25","75","3","9","10","40","30","120","21","21","[""White""]","Yes","Female","1675631","null","null","","","","clear_screen","","","","","","","","","","","","","","","","","","","","","","","","","",""
"","","","","","canvas-keyboard-response","287","353771","0.0-12.0-0.55","2d_cat_multi_stim_exp1","2022-4-8","15:3:21","25","75","3","9","10","40","30","120","21","21","[""White""]","Yes","Female","1675631","null","null","","","","fixation","","","","","","","","","","","","","","","","","","","","","","","","","",""
"","","","","","canvas-keyboard-response","288","354280","0.0-12.0-1.55","2d_cat_multi_stim_exp1","2022-4-8","15:3:21","25","75","3","9","10","40","30","120","21","21","[""White""]","Yes","Female","1675631","null","null","","","","clear_screen","","","","","","","","","","","","","","","","","","","","","","","","","",""
"","","","","","canvas-keyboard-response","289","354904","0.0-12.0-2.55","2d_cat_multi_stim_exp1","2022-4-8","15:3:21","25","75","3","9","10","40","30","120","21","21","[""White""]","Yes","Female","1675631","614","i","learn","","","learn_trial","25","75","in","0","0","","","","","","","","","","","","","","","","","","","","",""
"","","","","","canvas-keyboard-response","290","355916","0.0-12.0-3.55","2d_cat_multi_stim_exp1","2022-4-8","15:3:21","25","75","3","9","10","40","30","120","21","21","[""White""]","Yes","Female","1675631","null","null","learn_feedback","","","learn_feedback","25","75","in","","","","","","","","","","","","","","","","","","","","","","",""
"","","","","","canvas-keyboard-response","291","355980","0.0-12.0-4.55","2d_cat_multi_stim_exp1","2022-4-8","15:3:21","25","75","3","9","10","40","30","120","21","21","[""White""]","Yes","Female","1675631","null","null","","","","clear_screen","","","","","","","","","","","","","","","","","","","","","","","","","",""
"","","","","","canvas-keyboard-response","292","356491","0.0-12.0-0.56","2d_cat_multi_stim_exp1","2022-4-8","15:3:21","25","75","3","9","10","40","30","120","21","21","[""White""]","Yes","Female","1675631","null","null","","","","fixation","","","","","","","","","","","","","","","","","","","","","","","","","",""
"","","","","","canvas-keyboard-response","293","357001","0.0-12.0-1.56","2d_cat_multi_stim_exp1","2022-4-8","15:3:21","25","75","3","9","10","40","30","120","21","21","[""White""]","Yes","Female","1675631","null","null","","","","clear_screen","","","","","","","","","","","","","","","","","","","","","","","","","",""
"","","","","","canvas-keyboard-response","294","357878","0.0-12.0-2.56","2d_cat_multi_stim_exp1","2022-4-8","15:3:21","25","75","3","9","10","40","30","120","21","21","[""White""]","Yes","Female","1675631","868","i","learn","","","learn_trial","19","75","in","0","0","","","","","","","","","","","","","","","","","","","","",""
"","","","","","canvas-keyboard-response","295","358888","0.0-12.0-3.56","2d_cat_multi_stim_exp1","2022-4-8","15:3:21","25","75","3","9","10","40","30","120","21","21","[""White""]","Yes","Female","1675631","null","null","learn_feedback","","","learn_feedback","19","75","in","","","","","","","","","","","","","","","","","","","","","","",""
"","","","","","canvas-keyboard-response","296","358947","0.0-12.0-4.56","2d_cat_multi_stim_exp1","2022-4-8","15:3:21","25","75","3","9","10","40","30","120","21","21","[""White""]","Yes","Female","1675631","null","null","","","","clear_screen","","","","","","","","","","","","","","","","","","","","","","","","","",""
