"success","timeout","failed_images","failed_audio","failed_video","trial_type","trial_index","time_elapsed","internal_node_id","exp_name","date","time","angle_mean_in","radius_mean_in","angle_sd_in","radius_sd_in","angle_min_out","angle_max_out","radius_min_out","radius_max_out","sub_n","age","race","ethnicity","gender","exp_duration","rt","response","exp_trial_type","stimulus","view_history","screen_id","angle","radius","distribution","correct","choice","order","angle_a","radius_a","angle_b","radius_b","angle_c","radius_c","jkl_correct","transfer_trial_type","choice_set","abc_correct","tc_correct","tc_angle","tdc_a","tdc_b","tdc_c","pair","category_a","category_b","category_c","question_order"
"true","false","[]","[]","[]","preload","0","29","0.0-0.0","2d_cat_multi_stim_exp1","2022-4-13","10:24:3","25","75","3","9","10","40","30","120","32","19","[""Other""]","Yes","Female","2532330","","","","","","","","","","","","","","","","","","","","","","","","","","","","","","","",""
"","","","","","survey-html-form","1","3339","0.0-1.0","2d_cat_multi_stim_exp1","2022-4-13","10:24:3","25","75","3","9","10","40","30","120","32","19","[""Other""]","Yes","Female","2532330","3296","{""response"":""32""}","enter-sub-number","","","","","","","","","","","","","","","","","","","","","","","","","","","","",""
"true","","","","","fullscreen","2","5559","0.0-2.0","2d_cat_multi_stim_exp1","2022-4-13","10:24:3","25","75","3","9","10","40","30","120","32","19","[""Other""]","Yes","Female","2532330","","","","","","","","","","","","","","","","","","","","","","","","","","","","","","","",""
"","","","","","image-button-response","3","112296","0.0-3.0","2d_cat_multi_stim_exp1","2022-4-13","10:24:3","25","75","3","9","10","40","30","120","32","19","[""Other""]","Yes","Female","2532330","106729","0","","consent.png","","","","","","","","","","","","","","","","","","","","","","","","","","","",""
"","","","","","html-button-response","4","123326","0.0-4.0","2d_cat_multi_stim_exp1","2022-4-13","10:24:3","25","75","3","9","10","40","30","120","32","19","[""Other""]","Yes","Female","2532330","11026","0","","<div style= ""font-size:25px;"" <p> <strong> Welcome to the experiment! </strong><br> <p style=""color:#8B0000; font-size:25px;""><strong> Please do NOT exit full screen until you are done with the experiment. </strong> </p><p style=""font-size:25px;color:#8B0000;""> <strong> The experiment will be canceled and your data will be lost <br> if you try to go back or refresh the page at any point during the experiment.</strong> </p><br><p> <strong> Thanks in advance for your contribution to our research! </strong></p>","","","","","","","","","","","","","","","","","","","","","","","","","","","",""
"","","","","","instructions","5","217838","0.0-5.0","2d_cat_multi_stim_exp1","2022-4-13","10:24:3","25","75","3","9","10","40","30","120","32","19","[""Other""]","Yes","Female","2532330","94506","","","","[{""page_index"":0,""viewing_time"":12449},{""page_index"":1,""viewing_time"":5065},{""page_index"":2,""viewing_time"":19328},{""page_index"":3,""viewing_time"":57664}]","instructions_1","","","","","","","","","","","","","","","","","","","","","","","","","",""
"","","","","","instructions","6","236447","0.0-6.0","2d_cat_multi_stim_exp1","2022-4-13","10:24:3","25","75","3","9","10","40","30","120","32","19","[""Other""]","Yes","Female","2532330","18603","","","","[{""page_index"":0,""viewing_time"":18602}]","Click to see the kinds of turtles that will appear in the study.","","","","","","","","","","","","","","","","","","","","","","","","","",""
"","","","","","canvas-keyboard-response","7","251464","0.0-7.0","2d_cat_multi_stim_exp1","2022-4-13","10:24:3","25","75","3","9","10","40","30","120","32","19","[""Other""]","Yes","Female","2532330","null","null","","","","demo_range","","","","","","","","","","","","","","","","","","","","","","","","","",""
"","","","","","instructions","8","255974","0.0-8.0","2d_cat_multi_stim_exp1","2022-4-13","10:24:3","25","75","3","9","10","40","30","120","32","19","[""Other""]","Yes","Female","2532330","4008","","","","[{""page_index"":0,""viewing_time"":4008}]","Click to see some turtles in the subspecies.","","","","","","","","","","","","","","","","","","","","","","","","","",""
"","","","","","canvas-keyboard-response","9","270990","0.0-9.0","2d_cat_multi_stim_exp1","2022-4-13","10:24:3","25","75","3","9","10","40","30","120","32","19","[""Other""]","Yes","Female","2532330","null","null","","","","demo_in","","","","","","","","","","","","","","","","","","","","","","","","","",""
"","","","","","instructions","10","379039","0.0-10.0","2d_cat_multi_stim_exp1","2022-4-13","10:24:3","25","75","3","9","10","40","30","120","32","19","[""Other""]","Yes","Female","2532330","107547","","","","[{""page_index"":0,""viewing_time"":9074},{""page_index"":1,""viewing_time"":72119},{""page_index"":2,""viewing_time"":26353}]","instructions_2","","","","","","","","","","","","","","","","","","","","","","","","","",""
"","","","","","instructions","11","380838","0.0-11.0","2d_cat_multi_stim_exp1","2022-4-13","10:24:3","25","75","3","9","10","40","30","120","32","19","[""Other""]","Yes","Female","2532330","1797","","","","[{""page_index"":0,""viewing_time"":1796}]","Click to begin the first phase of the experiment.","","","","","","","","","","","","","","","","","","","","","","","","","",""
"","","","","","canvas-keyboard-response","12","381349","0.0-12.0-0.0","2d_cat_multi_stim_exp1","2022-4-13","10:24:3","25","75","3","9","10","40","30","120","32","19","[""Other""]","Yes","Female","2532330","null","null","","","","fixation","","","","","","","","","","","","","","","","","","","","","","","","","",""
"","","","","","canvas-keyboard-response","13","381861","0.0-12.0-1.0","2d_cat_multi_stim_exp1","2022-4-13","10:24:3","25","75","3","9","10","40","30","120","32","19","[""Other""]","Yes","Female","2532330","null","null","","","","clear_screen","","","","","","","","","","","","","","","","","","","","","","","","","",""
"","","","","","canvas-keyboard-response","14","385559","0.0-12.0-2.0","2d_cat_multi_stim_exp1","2022-4-13","10:24:3","25","75","3","9","10","40","30","120","32","19","[""Other""]","Yes","Female","2532330","3686","i","learn","","","learn_trial","28","75","in","0","0","","","","","","","","","","","","","","","","","","","","",""
"","","","","","canvas-keyboard-response","15","386573","0.0-12.0-3.0","2d_cat_multi_stim_exp1","2022-4-13","10:24:3","25","75","3","9","10","40","30","120","32","19","[""Other""]","Yes","Female","2532330","null","null","learn_feedback","","","learn_feedback","28","75","in","","","","","","","","","","","","","","","","","","","","","","",""
"","","","","","canvas-keyboard-response","16","386636","0.0-12.0-4.0","2d_cat_multi_stim_exp1","2022-4-13","10:24:3","25","75","3","9","10","40","30","120","32","19","[""Other""]","Yes","Female","2532330","null","null","","","","clear_screen","","","","","","","","","","","","","","","","","","","","","","","","","",""
"","","","","","canvas-keyboard-response","17","387146","0.0-12.0-0.1","2d_cat_multi_stim_exp1","2022-4-13","10:24:3","25","75","3","9","10","40","30","120","32","19","[""Other""]","Yes","Female","2532330","null","null","","","","fixation","","","","","","","","","","","","","","","","","","","","","","","","","",""
"","","","","","canvas-keyboard-response","18","387662","0.0-12.0-1.1","2d_cat_multi_stim_exp1","2022-4-13","10:24:3","25","75","3","9","10","40","30","120","32","19","[""Other""]","Yes","Female","2532330","null","null","","","","clear_screen","","","","","","","","","","","","","","","","","","","","","","","","","",""
"","","","","","canvas-keyboard-response","19","389124","0.0-12.0-2.1","2d_cat_multi_stim_exp1","2022-4-13","10:24:3","25","75","3","9","10","40","30","120","32","19","[""Other""]","Yes","Female","2532330","1453","u","learn","","","learn_trial","36.6667","90","out","0","1","","","","","","","","","","","","","","","","","","","","",""
"","","","","","canvas-keyboard-response","20","390129","0.0-12.0-3.1","2d_cat_multi_stim_exp1","2022-4-13","10:24:3","25","75","3","9","10","40","30","120","32","19","[""Other""]","Yes","Female","2532330","null","null","learn_feedback","","","learn_feedback","36.6667","90","out","","","","","","","","","","","","","","","","","","","","","","",""
"","","","","","canvas-keyboard-response","21","390188","0.0-12.0-4.1","2d_cat_multi_stim_exp1","2022-4-13","10:24:3","25","75","3","9","10","40","30","120","32","19","[""Other""]","Yes","Female","2532330","null","null","","","","clear_screen","","","","","","","","","","","","","","","","","","","","","","","","","",""
"","","","","","canvas-keyboard-response","22","390699","0.0-12.0-0.2","2d_cat_multi_stim_exp1","2022-4-13","10:24:3","25","75","3","9","10","40","30","120","32","19","[""Other""]","Yes","Female","2532330","null","null","","","","fixation","","","","","","","","","","","","","","","","","","","","","","","","","",""
"","","","","","canvas-keyboard-response","23","391210","0.0-12.0-1.2","2d_cat_multi_stim_exp1","2022-4-13","10:24:3","25","75","3","9","10","40","30","120","32","19","[""Other""]","Yes","Female","2532330","null","null","","","","clear_screen","","","","","","","","","","","","","","","","","","","","","","","","","",""
"","","","","","canvas-keyboard-response","24","395070","0.0-12.0-2.2","2d_cat_multi_stim_exp1","2022-4-13","10:24:3","25","75","3","9","10","40","30","120","32","19","[""Other""]","Yes","Female","2532330","3851","i","learn","","","learn_trial","27.2592","80.9214","in","0","0","","","","","","","","","","","","","","","","","","","","",""
"","","","","","canvas-keyboard-response","25","396082","0.0-12.0-3.2","2d_cat_multi_stim_exp1","2022-4-13","10:24:3","25","75","3","9","10","40","30","120","32","19","[""Other""]","Yes","Female","2532330","null","null","learn_feedback","","","learn_feedback","27.2592","80.9214","in","","","","","","","","","","","","","","","","","","","","","","",""
"","","","","","canvas-keyboard-response","26","396143","0.0-12.0-4.2","2d_cat_multi_stim_exp1","2022-4-13","10:24:3","25","75","3","9","10","40","30","120","32","19","[""Other""]","Yes","Female","2532330","null","null","","","","clear_screen","","","","","","","","","","","","","","","","","","","","","","","","","",""
"","","","","","canvas-keyboard-response","27","396653","0.0-12.0-0.3","2d_cat_multi_stim_exp1","2022-4-13","10:24:3","25","75","3","9","10","40","30","120","32","19","[""Other""]","Yes","Female","2532330","null","null","","","","fixation","","","","","","","","","","","","","","","","","","","","","","","","","",""
"","","","","","canvas-keyboard-response","28","397167","0.0-12.0-1.3","2d_cat_multi_stim_exp1","2022-4-13","10:24:3","25","75","3","9","10","40","30","120","32","19","[""Other""]","Yes","Female","2532330","null","null","","","","clear_screen","","","","","","","","","","","","","","","","","","","","","","","","","",""
"","","","","","canvas-keyboard-response","29","399678","0.0-12.0-2.3","2d_cat_multi_stim_exp1","2022-4-13","10:24:3","25","75","3","9","10","40","30","120","32","19","[""Other""]","Yes","Female","2532330","2502","u","learn","","","learn_trial","40","30","out","0","1","","","","","","","","","","","","","","","","","","","","",""
"","","","","","canvas-keyboard-response","30","400691","0.0-12.0-3.3","2d_cat_multi_stim_exp1","2022-4-13","10:24:3","25","75","3","9","10","40","30","120","32","19","[""Other""]","Yes","Female","2532330","null","null","learn_feedback","","","learn_feedback","40","30","out","","","","","","","","","","","","","","","","","","","","","","",""
"","","","","","canvas-keyboard-response","31","400751","0.0-12.0-4.3","2d_cat_multi_stim_exp1","2022-4-13","10:24:3","25","75","3","9","10","40","30","120","32","19","[""Other""]","Yes","Female","2532330","null","null","","","","clear_screen","","","","","","","","","","","","","","","","","","","","","","","","","",""
"","","","","","canvas-keyboard-response","32","401261","0.0-12.0-0.4","2d_cat_multi_stim_exp1","2022-4-13","10:24:3","25","75","3","9","10","40","30","120","32","19","[""Other""]","Yes","Female","2532330","null","null","","","","fixation","","","","","","","","","","","","","","","","","","","","","","","","","",""
"","","","","","canvas-keyboard-response","33","401774","0.0-12.0-1.4","2d_cat_multi_stim_exp1","2022-4-13","10:24:3","25","75","3","9","10","40","30","120","32","19","[""Other""]","Yes","Female","2532330","null","null","","","","clear_screen","","","","","","","","","","","","","","","","","","","","","","","","","",""
"","","","","","canvas-keyboard-response","34","407263","0.0-12.0-2.4","2d_cat_multi_stim_exp1","2022-4-13","10:24:3","25","75","3","9","10","40","30","120","32","19","[""Other""]","Yes","Female","2532330","5481","u","learn","","","learn_trial","25","93","in","1","1","","","","","","","","","","","","","","","","","","","","",""
"","","","","","canvas-keyboard-response","35","407775","0.0-12.0-3.4","2d_cat_multi_stim_exp1","2022-4-13","10:24:3","25","75","3","9","10","40","30","120","32","19","[""Other""]","Yes","Female","2532330","null","null","learn_feedback","","","learn_feedback","25","93","in","","","","","","","","","","","","","","","","","","","","","","",""
"","","","","","canvas-keyboard-response","36","407835","0.0-12.0-4.4","2d_cat_multi_stim_exp1","2022-4-13","10:24:3","25","75","3","9","10","40","30","120","32","19","[""Other""]","Yes","Female","2532330","null","null","","","","clear_screen","","","","","","","","","","","","","","","","","","","","","","","","","",""
"","","","","","canvas-keyboard-response","37","408345","0.0-12.0-0.5","2d_cat_multi_stim_exp1","2022-4-13","10:24:3","25","75","3","9","10","40","30","120","32","19","[""Other""]","Yes","Female","2532330","null","null","","","","fixation","","","","","","","","","","","","","","","","","","","","","","","","","",""
"","","","","","canvas-keyboard-response","38","408854","0.0-12.0-1.5","2d_cat_multi_stim_exp1","2022-4-13","10:24:3","25","75","3","9","10","40","30","120","32","19","[""Other""]","Yes","Female","2532330","null","null","","","","clear_screen","","","","","","","","","","","","","","","","","","","","","","","","","",""
"","","","","","canvas-keyboard-response","39","409654","0.0-12.0-2.5","2d_cat_multi_stim_exp1","2022-4-13","10:24:3","25","75","3","9","10","40","30","120","32","19","[""Other""]","Yes","Female","2532330","790","u","learn","","","learn_trial","27.9518","73.393","in","1","1","","","","","","","","","","","","","","","","","","","","",""
"","","","","","canvas-keyboard-response","40","410163","0.0-12.0-3.5","2d_cat_multi_stim_exp1","2022-4-13","10:24:3","25","75","3","9","10","40","30","120","32","19","[""Other""]","Yes","Female","2532330","null","null","learn_feedback","","","learn_feedback","27.9518","73.393","in","","","","","","","","","","","","","","","","","","","","","","",""
"","","","","","canvas-keyboard-response","41","410226","0.0-12.0-4.5","2d_cat_multi_stim_exp1","2022-4-13","10:24:3","25","75","3","9","10","40","30","120","32","19","[""Other""]","Yes","Female","2532330","null","null","","","","clear_screen","","","","","","","","","","","","","","","","","","","","","","","","","",""
"","","","","","canvas-keyboard-response","42","410734","0.0-12.0-0.6","2d_cat_multi_stim_exp1","2022-4-13","10:24:3","25","75","3","9","10","40","30","120","32","19","[""Other""]","Yes","Female","2532330","null","null","","","","fixation","","","","","","","","","","","","","","","","","","","","","","","","","",""
"","","","","","canvas-keyboard-response","43","411242","0.0-12.0-1.6","2d_cat_multi_stim_exp1","2022-4-13","10:24:3","25","75","3","9","10","40","30","120","32","19","[""Other""]","Yes","Female","2532330","null","null","","","","clear_screen","","","","","","","","","","","","","","","","","","","","","","","","","",""
"","","","","","canvas-keyboard-response","44","411878","0.0-12.0-2.6","2d_cat_multi_stim_exp1","2022-4-13","10:24:3","25","75","3","9","10","40","30","120","32","19","[""Other""]","Yes","Female","2532330","623","u","learn","","","learn_trial","26.8705","67.9635","in","1","1","","","","","","","","","","","","","","","","","","","","",""
"","","","","","canvas-keyboard-response","45","412390","0.0-12.0-3.6","2d_cat_multi_stim_exp1","2022-4-13","10:24:3","25","75","3","9","10","40","30","120","32","19","[""Other""]","Yes","Female","2532330","null","null","learn_feedback","","","learn_feedback","26.8705","67.9635","in","","","","","","","","","","","","","","","","","","","","","","",""
"","","","","","canvas-keyboard-response","46","412454","0.0-12.0-4.6","2d_cat_multi_stim_exp1","2022-4-13","10:24:3","25","75","3","9","10","40","30","120","32","19","[""Other""]","Yes","Female","2532330","null","null","","","","clear_screen","","","","","","","","","","","","","","","","","","","","","","","","","",""
"","","","","","canvas-keyboard-response","47","412963","0.0-12.0-0.7","2d_cat_multi_stim_exp1","2022-4-13","10:24:3","25","75","3","9","10","40","30","120","32","19","[""Other""]","Yes","Female","2532330","null","null","","","","fixation","","","","","","","","","","","","","","","","","","","","","","","","","",""
"","","","","","canvas-keyboard-response","48","413477","0.0-12.0-1.7","2d_cat_multi_stim_exp1","2022-4-13","10:24:3","25","75","3","9","10","40","30","120","32","19","[""Other""]","Yes","Female","2532330","null","null","","","","clear_screen","","","","","","","","","","","","","","","","","","","","","","","","","",""
"","","","","","canvas-keyboard-response","49","414621","0.0-12.0-2.7","2d_cat_multi_stim_exp1","2022-4-13","10:24:3","25","75","3","9","10","40","30","120","32","19","[""Other""]","Yes","Female","2532330","1133","i","learn","","","learn_trial","20","110","out","1","0","","","","","","","","","","","","","","","","","","","","",""
"","","","","","canvas-keyboard-response","50","415135","0.0-12.0-3.7","2d_cat_multi_stim_exp1","2022-4-13","10:24:3","25","75","3","9","10","40","30","120","32","19","[""Other""]","Yes","Female","2532330","null","null","learn_feedback","","","learn_feedback","20","110","out","","","","","","","","","","","","","","","","","","","","","","",""
"","","","","","canvas-keyboard-response","51","415195","0.0-12.0-4.7","2d_cat_multi_stim_exp1","2022-4-13","10:24:3","25","75","3","9","10","40","30","120","32","19","[""Other""]","Yes","Female","2532330","null","null","","","","clear_screen","","","","","","","","","","","","","","","","","","","","","","","","","",""
"","","","","","canvas-keyboard-response","52","415705","0.0-12.0-0.8","2d_cat_multi_stim_exp1","2022-4-13","10:24:3","25","75","3","9","10","40","30","120","32","19","[""Other""]","Yes","Female","2532330","null","null","","","","fixation","","","","","","","","","","","","","","","","","","","","","","","","","",""
"","","","","","canvas-keyboard-response","53","416215","0.0-12.0-1.8","2d_cat_multi_stim_exp1","2022-4-13","10:24:3","25","75","3","9","10","40","30","120","32","19","[""Other""]","Yes","Female","2532330","null","null","","","","clear_screen","","","","","","","","","","","","","","","","","","","","","","","","","",""
"","","","","","canvas-keyboard-response","54","417646","0.0-12.0-2.8","2d_cat_multi_stim_exp1","2022-4-13","10:24:3","25","75","3","9","10","40","30","120","32","19","[""Other""]","Yes","Female","2532330","1421","i","learn","","","learn_trial","23.8209","66.7243","in","0","0","","","","","","","","","","","","","","","","","","","","",""
"","","","","","canvas-keyboard-response","55","418657","0.0-12.0-3.8","2d_cat_multi_stim_exp1","2022-4-13","10:24:3","25","75","3","9","10","40","30","120","32","19","[""Other""]","Yes","Female","2532330","null","null","learn_feedback","","","learn_feedback","23.8209","66.7243","in","","","","","","","","","","","","","","","","","","","","","","",""
"","","","","","canvas-keyboard-response","56","418716","0.0-12.0-4.8","2d_cat_multi_stim_exp1","2022-4-13","10:24:3","25","75","3","9","10","40","30","120","32","19","[""Other""]","Yes","Female","2532330","null","null","","","","clear_screen","","","","","","","","","","","","","","","","","","","","","","","","","",""
"","","","","","canvas-keyboard-response","57","419226","0.0-12.0-0.9","2d_cat_multi_stim_exp1","2022-4-13","10:24:3","25","75","3","9","10","40","30","120","32","19","[""Other""]","Yes","Female","2532330","null","null","","","","fixation","","","","","","","","","","","","","","","","","","","","","","","","","",""
"","","","","","canvas-keyboard-response","58","419739","0.0-12.0-1.9","2d_cat_multi_stim_exp1","2022-4-13","10:24:3","25","75","3","9","10","40","30","120","32","19","[""Other""]","Yes","Female","2532330","null","null","","","","clear_screen","","","","","","","","","","","","","","","","","","","","","","","","","",""
"","","","","","canvas-keyboard-response","59","420366","0.0-12.0-2.9","2d_cat_multi_stim_exp1","2022-4-13","10:24:3","25","75","3","9","10","40","30","120","32","19","[""Other""]","Yes","Female","2532330","619","u","learn","","","learn_trial","25","75","in","1","1","","","","","","","","","","","","","","","","","","","","",""
"","","","","","canvas-keyboard-response","60","420876","0.0-12.0-3.9","2d_cat_multi_stim_exp1","2022-4-13","10:24:3","25","75","3","9","10","40","30","120","32","19","[""Other""]","Yes","Female","2532330","null","null","learn_feedback","","","learn_feedback","25","75","in","","","","","","","","","","","","","","","","","","","","","","",""
"","","","","","canvas-keyboard-response","61","420935","0.0-12.0-4.9","2d_cat_multi_stim_exp1","2022-4-13","10:24:3","25","75","3","9","10","40","30","120","32","19","[""Other""]","Yes","Female","2532330","null","null","","","","clear_screen","","","","","","","","","","","","","","","","","","","","","","","","","",""
"","","","","","canvas-keyboard-response","62","421445","0.0-12.0-0.10","2d_cat_multi_stim_exp1","2022-4-13","10:24:3","25","75","3","9","10","40","30","120","32","19","[""Other""]","Yes","Female","2532330","null","null","","","","fixation","","","","","","","","","","","","","","","","","","","","","","","","","",""
"","","","","","canvas-keyboard-response","63","421962","0.0-12.0-1.10","2d_cat_multi_stim_exp1","2022-4-13","10:24:3","25","75","3","9","10","40","30","120","32","19","[""Other""]","Yes","Female","2532330","null","null","","","","clear_screen","","","","","","","","","","","","","","","","","","","","","","","","","",""
"","","","","","canvas-keyboard-response","64","422679","0.0-12.0-2.10","2d_cat_multi_stim_exp1","2022-4-13","10:24:3","25","75","3","9","10","40","30","120","32","19","[""Other""]","Yes","Female","2532330","704","u","learn","","","learn_trial","26.8705","82.0365","in","1","1","","","","","","","","","","","","","","","","","","","","",""
"","","","","","canvas-keyboard-response","65","423188","0.0-12.0-3.10","2d_cat_multi_stim_exp1","2022-4-13","10:24:3","25","75","3","9","10","40","30","120","32","19","[""Other""]","Yes","Female","2532330","null","null","learn_feedback","","","learn_feedback","26.8705","82.0365","in","","","","","","","","","","","","","","","","","","","","","","",""
"","","","","","canvas-keyboard-response","66","423249","0.0-12.0-4.10","2d_cat_multi_stim_exp1","2022-4-13","10:24:3","25","75","3","9","10","40","30","120","32","19","[""Other""]","Yes","Female","2532330","null","null","","","","clear_screen","","","","","","","","","","","","","","","","","","","","","","","","","",""
"","","","","","canvas-keyboard-response","67","423761","0.0-12.0-0.11","2d_cat_multi_stim_exp1","2022-4-13","10:24:3","25","75","3","9","10","40","30","120","32","19","[""Other""]","Yes","Female","2532330","null","null","","","","fixation","","","","","","","","","","","","","","","","","","","","","","","","","",""
"","","","","","canvas-keyboard-response","68","424275","0.0-12.0-1.11","2d_cat_multi_stim_exp1","2022-4-13","10:24:3","25","75","3","9","10","40","30","120","32","19","[""Other""]","Yes","Female","2532330","null","null","","","","clear_screen","","","","","","","","","","","","","","","","","","","","","","","","","",""
"","","","","","canvas-keyboard-response","69","424934","0.0-12.0-2.11","2d_cat_multi_stim_exp1","2022-4-13","10:24:3","25","75","3","9","10","40","30","120","32","19","[""Other""]","Yes","Female","2532330","646","u","learn","","","learn_trial","25","75","in","1","1","","","","","","","","","","","","","","","","","","","","",""
"","","","","","canvas-keyboard-response","70","425445","0.0-12.0-3.11","2d_cat_multi_stim_exp1","2022-4-13","10:24:3","25","75","3","9","10","40","30","120","32","19","[""Other""]","Yes","Female","2532330","null","null","learn_feedback","","","learn_feedback","25","75","in","","","","","","","","","","","","","","","","","","","","","","",""
"","","","","","canvas-keyboard-response","71","425504","0.0-12.0-4.11","2d_cat_multi_stim_exp1","2022-4-13","10:24:3","25","75","3","9","10","40","30","120","32","19","[""Other""]","Yes","Female","2532330","null","null","","","","clear_screen","","","","","","","","","","","","","","","","","","","","","","","","","",""
"","","","","","canvas-keyboard-response","72","426015","0.0-12.0-0.12","2d_cat_multi_stim_exp1","2022-4-13","10:24:3","25","75","3","9","10","40","30","120","32","19","[""Other""]","Yes","Female","2532330","null","null","","","","fixation","","","","","","","","","","","","","","","","","","","","","","","","","",""
"","","","","","canvas-keyboard-response","73","426530","0.0-12.0-1.12","2d_cat_multi_stim_exp1","2022-4-13","10:24:3","25","75","3","9","10","40","30","120","32","19","[""Other""]","Yes","Female","2532330","null","null","","","","clear_screen","","","","","","","","","","","","","","","","","","","","","","","","","",""
"","","","","","canvas-keyboard-response","74","427590","0.0-12.0-2.12","2d_cat_multi_stim_exp1","2022-4-13","10:24:3","25","75","3","9","10","40","30","120","32","19","[""Other""]","Yes","Female","2532330","1049","i","learn","","","learn_trial","23.3333","110","out","1","0","","","","","","","","","","","","","","","","","","","","",""
"","","","","","canvas-keyboard-response","75","428102","0.0-12.0-3.12","2d_cat_multi_stim_exp1","2022-4-13","10:24:3","25","75","3","9","10","40","30","120","32","19","[""Other""]","Yes","Female","2532330","null","null","learn_feedback","","","learn_feedback","23.3333","110","out","","","","","","","","","","","","","","","","","","","","","","",""
"","","","","","canvas-keyboard-response","76","428166","0.0-12.0-4.12","2d_cat_multi_stim_exp1","2022-4-13","10:24:3","25","75","3","9","10","40","30","120","32","19","[""Other""]","Yes","Female","2532330","null","null","","","","clear_screen","","","","","","","","","","","","","","","","","","","","","","","","","",""
"","","","","","canvas-keyboard-response","77","428675","0.0-12.0-0.13","2d_cat_multi_stim_exp1","2022-4-13","10:24:3","25","75","3","9","10","40","30","120","32","19","[""Other""]","Yes","Female","2532330","null","null","","","","fixation","","","","","","","","","","","","","","","","","","","","","","","","","",""
"","","","","","canvas-keyboard-response","78","429187","0.0-12.0-1.13","2d_cat_multi_stim_exp1","2022-4-13","10:24:3","25","75","3","9","10","40","30","120","32","19","[""Other""]","Yes","Female","2532330","null","null","","","","clear_screen","","","","","","","","","","","","","","","","","","","","","","","","","",""
"","","","","","canvas-keyboard-response","79","429910","0.0-12.0-2.13","2d_cat_multi_stim_exp1","2022-4-13","10:24:3","25","75","3","9","10","40","30","120","32","19","[""Other""]","Yes","Female","2532330","710","u","learn","","","learn_trial","25","75","in","1","1","","","","","","","","","","","","","","","","","","","","",""
"","","","","","canvas-keyboard-response","80","430421","0.0-12.0-3.13","2d_cat_multi_stim_exp1","2022-4-13","10:24:3","25","75","3","9","10","40","30","120","32","19","[""Other""]","Yes","Female","2532330","null","null","learn_feedback","","","learn_feedback","25","75","in","","","","","","","","","","","","","","","","","","","","","","",""
"","","","","","canvas-keyboard-response","81","430484","0.0-12.0-4.13","2d_cat_multi_stim_exp1","2022-4-13","10:24:3","25","75","3","9","10","40","30","120","32","19","[""Other""]","Yes","Female","2532330","null","null","","","","clear_screen","","","","","","","","","","","","","","","","","","","","","","","","","",""
"","","","","","canvas-keyboard-response","82","430993","0.0-12.0-0.14","2d_cat_multi_stim_exp1","2022-4-13","10:24:3","25","75","3","9","10","40","30","120","32","19","[""Other""]","Yes","Female","2532330","null","null","","","","fixation","","","","","","","","","","","","","","","","","","","","","","","","","",""
"","","","","","canvas-keyboard-response","83","431502","0.0-12.0-1.14","2d_cat_multi_stim_exp1","2022-4-13","10:24:3","25","75","3","9","10","40","30","120","32","19","[""Other""]","Yes","Female","2532330","null","null","","","","clear_screen","","","","","","","","","","","","","","","","","","","","","","","","","",""
"","","","","","canvas-keyboard-response","84","432086","0.0-12.0-2.14","2d_cat_multi_stim_exp1","2022-4-13","10:24:3","25","75","3","9","10","40","30","120","32","19","[""Other""]","Yes","Female","2532330","574","u","learn","","","learn_trial","22.1081","77.3943","in","1","1","","","","","","","","","","","","","","","","","","","","",""
"","","","","","canvas-keyboard-response","85","432595","0.0-12.0-3.14","2d_cat_multi_stim_exp1","2022-4-13","10:24:3","25","75","3","9","10","40","30","120","32","19","[""Other""]","Yes","Female","2532330","null","null","learn_feedback","","","learn_feedback","22.1081","77.3943","in","","","","","","","","","","","","","","","","","","","","","","",""
"","","","","","canvas-keyboard-response","86","432659","0.0-12.0-4.14","2d_cat_multi_stim_exp1","2022-4-13","10:24:3","25","75","3","9","10","40","30","120","32","19","[""Other""]","Yes","Female","2532330","null","null","","","","clear_screen","","","","","","","","","","","","","","","","","","","","","","","","","",""
"","","","","","canvas-keyboard-response","87","433170","0.0-12.0-0.15","2d_cat_multi_stim_exp1","2022-4-13","10:24:3","25","75","3","9","10","40","30","120","32","19","[""Other""]","Yes","Female","2532330","null","null","","","","fixation","","","","","","","","","","","","","","","","","","","","","","","","","",""
"","","","","","canvas-keyboard-response","88","433682","0.0-12.0-1.15","2d_cat_multi_stim_exp1","2022-4-13","10:24:3","25","75","3","9","10","40","30","120","32","19","[""Other""]","Yes","Female","2532330","null","null","","","","clear_screen","","","","","","","","","","","","","","","","","","","","","","","","","",""
"","","","","","canvas-keyboard-response","89","434254","0.0-12.0-2.15","2d_cat_multi_stim_exp1","2022-4-13","10:24:3","25","75","3","9","10","40","30","120","32","19","[""Other""]","Yes","Female","2532330","560","u","learn","","","learn_trial","25","75","in","1","1","","","","","","","","","","","","","","","","","","","","",""
"","","","","","canvas-keyboard-response","90","434765","0.0-12.0-3.15","2d_cat_multi_stim_exp1","2022-4-13","10:24:3","25","75","3","9","10","40","30","120","32","19","[""Other""]","Yes","Female","2532330","null","null","learn_feedback","","","learn_feedback","25","75","in","","","","","","","","","","","","","","","","","","","","","","",""
"","","","","","canvas-keyboard-response","91","434828","0.0-12.0-4.15","2d_cat_multi_stim_exp1","2022-4-13","10:24:3","25","75","3","9","10","40","30","120","32","19","[""Other""]","Yes","Female","2532330","null","null","","","","clear_screen","","","","","","","","","","","","","","","","","","","","","","","","","",""
"","","","","","canvas-keyboard-response","92","435336","0.0-12.0-0.16","2d_cat_multi_stim_exp1","2022-4-13","10:24:3","25","75","3","9","10","40","30","120","32","19","[""Other""]","Yes","Female","2532330","null","null","","","","fixation","","","","","","","","","","","","","","","","","","","","","","","","","",""
"","","","","","canvas-keyboard-response","93","435848","0.0-12.0-1.16","2d_cat_multi_stim_exp1","2022-4-13","10:24:3","25","75","3","9","10","40","30","120","32","19","[""Other""]","Yes","Female","2532330","null","null","","","","clear_screen","","","","","","","","","","","","","","","","","","","","","","","","","",""
"","","","","","canvas-keyboard-response","94","436653","0.0-12.0-2.16","2d_cat_multi_stim_exp1","2022-4-13","10:24:3","25","75","3","9","10","40","30","120","32","19","[""Other""]","Yes","Female","2532330","793","i","learn","","","learn_trial","36.6667","120","out","1","0","","","","","","","","","","","","","","","","","","","","",""
"","","","","","canvas-keyboard-response","95","437165","0.0-12.0-3.16","2d_cat_multi_stim_exp1","2022-4-13","10:24:3","25","75","3","9","10","40","30","120","32","19","[""Other""]","Yes","Female","2532330","null","null","learn_feedback","","","learn_feedback","36.6667","120","out","","","","","","","","","","","","","","","","","","","","","","",""
"","","","","","canvas-keyboard-response","96","437229","0.0-12.0-4.16","2d_cat_multi_stim_exp1","2022-4-13","10:24:3","25","75","3","9","10","40","30","120","32","19","[""Other""]","Yes","Female","2532330","null","null","","","","clear_screen","","","","","","","","","","","","","","","","","","","","","","","","","",""
"","","","","","canvas-keyboard-response","97","437735","0.0-12.0-0.17","2d_cat_multi_stim_exp1","2022-4-13","10:24:3","25","75","3","9","10","40","30","120","32","19","[""Other""]","Yes","Female","2532330","null","null","","","","fixation","","","","","","","","","","","","","","","","","","","","","","","","","",""
"","","","","","canvas-keyboard-response","98","438249","0.0-12.0-1.17","2d_cat_multi_stim_exp1","2022-4-13","10:24:3","25","75","3","9","10","40","30","120","32","19","[""Other""]","Yes","Female","2532330","null","null","","","","clear_screen","","","","","","","","","","","","","","","","","","","","","","","","","",""
"","","","","","canvas-keyboard-response","99","438959","0.0-12.0-2.17","2d_cat_multi_stim_exp1","2022-4-13","10:24:3","25","75","3","9","10","40","30","120","32","19","[""Other""]","Yes","Female","2532330","700","u","learn","","","learn_trial","25","75","in","1","1","","","","","","","","","","","","","","","","","","","","",""
"","","","","","canvas-keyboard-response","100","439468","0.0-12.0-3.17","2d_cat_multi_stim_exp1","2022-4-13","10:24:3","25","75","3","9","10","40","30","120","32","19","[""Other""]","Yes","Female","2532330","null","null","learn_feedback","","","learn_feedback","25","75","in","","","","","","","","","","","","","","","","","","","","","","",""
"","","","","","canvas-keyboard-response","101","439527","0.0-12.0-4.17","2d_cat_multi_stim_exp1","2022-4-13","10:24:3","25","75","3","9","10","40","30","120","32","19","[""Other""]","Yes","Female","2532330","null","null","","","","clear_screen","","","","","","","","","","","","","","","","","","","","","","","","","",""
"","","","","","canvas-keyboard-response","102","440037","0.0-12.0-0.18","2d_cat_multi_stim_exp1","2022-4-13","10:24:3","25","75","3","9","10","40","30","120","32","19","[""Other""]","Yes","Female","2532330","null","null","","","","fixation","","","","","","","","","","","","","","","","","","","","","","","","","",""
"","","","","","canvas-keyboard-response","103","440547","0.0-12.0-1.18","2d_cat_multi_stim_exp1","2022-4-13","10:24:3","25","75","3","9","10","40","30","120","32","19","[""Other""]","Yes","Female","2532330","null","null","","","","clear_screen","","","","","","","","","","","","","","","","","","","","","","","","","",""
"","","","","","canvas-keyboard-response","104","441238","0.0-12.0-2.18","2d_cat_multi_stim_exp1","2022-4-13","10:24:3","25","75","3","9","10","40","30","120","32","19","[""Other""]","Yes","Female","2532330","682","u","learn","","","learn_trial","26.4216","67.0746","in","1","1","","","","","","","","","","","","","","","","","","","","",""
"","","","","","canvas-keyboard-response","105","441746","0.0-12.0-3.18","2d_cat_multi_stim_exp1","2022-4-13","10:24:3","25","75","3","9","10","40","30","120","32","19","[""Other""]","Yes","Female","2532330","null","null","learn_feedback","","","learn_feedback","26.4216","67.0746","in","","","","","","","","","","","","","","","","","","","","","","",""
"","","","","","canvas-keyboard-response","106","441809","0.0-12.0-4.18","2d_cat_multi_stim_exp1","2022-4-13","10:24:3","25","75","3","9","10","40","30","120","32","19","[""Other""]","Yes","Female","2532330","null","null","","","","clear_screen","","","","","","","","","","","","","","","","","","","","","","","","","",""
"","","","","","canvas-keyboard-response","107","442317","0.0-12.0-0.19","2d_cat_multi_stim_exp1","2022-4-13","10:24:3","25","75","3","9","10","40","30","120","32","19","[""Other""]","Yes","Female","2532330","null","null","","","","fixation","","","","","","","","","","","","","","","","","","","","","","","","","",""
"","","","","","canvas-keyboard-response","108","442827","0.0-12.0-1.19","2d_cat_multi_stim_exp1","2022-4-13","10:24:3","25","75","3","9","10","40","30","120","32","19","[""Other""]","Yes","Female","2532330","null","null","","","","clear_screen","","","","","","","","","","","","","","","","","","","","","","","","","",""
"","","","","","canvas-keyboard-response","109","443702","0.0-12.0-2.19","2d_cat_multi_stim_exp1","2022-4-13","10:24:3","25","75","3","9","10","40","30","120","32","19","[""Other""]","Yes","Female","2532330","867","i","learn","","","learn_trial","23.3333","50","out","1","0","","","","","","","","","","","","","","","","","","","","",""
"","","","","","canvas-keyboard-response","110","444212","0.0-12.0-3.19","2d_cat_multi_stim_exp1","2022-4-13","10:24:3","25","75","3","9","10","40","30","120","32","19","[""Other""]","Yes","Female","2532330","null","null","learn_feedback","","","learn_feedback","23.3333","50","out","","","","","","","","","","","","","","","","","","","","","","",""
"","","","","","canvas-keyboard-response","111","444273","0.0-12.0-4.19","2d_cat_multi_stim_exp1","2022-4-13","10:24:3","25","75","3","9","10","40","30","120","32","19","[""Other""]","Yes","Female","2532330","null","null","","","","clear_screen","","","","","","","","","","","","","","","","","","","","","","","","","",""
"","","","","","canvas-keyboard-response","112","444785","0.0-12.0-0.20","2d_cat_multi_stim_exp1","2022-4-13","10:24:3","25","75","3","9","10","40","30","120","32","19","[""Other""]","Yes","Female","2532330","null","null","","","","fixation","","","","","","","","","","","","","","","","","","","","","","","","","",""
"","","","","","canvas-keyboard-response","113","445298","0.0-12.0-1.20","2d_cat_multi_stim_exp1","2022-4-13","10:24:3","25","75","3","9","10","40","30","120","32","19","[""Other""]","Yes","Female","2532330","null","null","","","","clear_screen","","","","","","","","","","","","","","","","","","","","","","","","","",""
"","","","","","canvas-keyboard-response","114","445853","0.0-12.0-2.20","2d_cat_multi_stim_exp1","2022-4-13","10:24:3","25","75","3","9","10","40","30","120","32","19","[""Other""]","Yes","Female","2532330","545","u","learn","","","learn_trial","25","75","in","1","1","","","","","","","","","","","","","","","","","","","","",""
"","","","","","canvas-keyboard-response","115","446364","0.0-12.0-3.20","2d_cat_multi_stim_exp1","2022-4-13","10:24:3","25","75","3","9","10","40","30","120","32","19","[""Other""]","Yes","Female","2532330","null","null","learn_feedback","","","learn_feedback","25","75","in","","","","","","","","","","","","","","","","","","","","","","",""
"","","","","","canvas-keyboard-response","116","446423","0.0-12.0-4.20","2d_cat_multi_stim_exp1","2022-4-13","10:24:3","25","75","3","9","10","40","30","120","32","19","[""Other""]","Yes","Female","2532330","null","null","","","","clear_screen","","","","","","","","","","","","","","","","","","","","","","","","","",""
"","","","","","canvas-keyboard-response","117","446935","0.0-12.0-0.21","2d_cat_multi_stim_exp1","2022-4-13","10:24:3","25","75","3","9","10","40","30","120","32","19","[""Other""]","Yes","Female","2532330","null","null","","","","fixation","","","","","","","","","","","","","","","","","","","","","","","","","",""
"","","","","","canvas-keyboard-response","118","447449","0.0-12.0-1.21","2d_cat_multi_stim_exp1","2022-4-13","10:24:3","25","75","3","9","10","40","30","120","32","19","[""Other""]","Yes","Female","2532330","null","null","","","","clear_screen","","","","","","","","","","","","","","","","","","","","","","","","","",""
"","","","","","canvas-keyboard-response","119","449749","0.0-12.0-2.21","2d_cat_multi_stim_exp1","2022-4-13","10:24:3","25","75","3","9","10","40","30","120","32","19","[""Other""]","Yes","Female","2532330","2291","i","learn","","","learn_trial","20","50","out","1","0","","","","","","","","","","","","","","","","","","","","",""
"","","","","","canvas-keyboard-response","120","450259","0.0-12.0-3.21","2d_cat_multi_stim_exp1","2022-4-13","10:24:3","25","75","3","9","10","40","30","120","32","19","[""Other""]","Yes","Female","2532330","null","null","learn_feedback","","","learn_feedback","20","50","out","","","","","","","","","","","","","","","","","","","","","","",""
"","","","","","canvas-keyboard-response","121","450317","0.0-12.0-4.21","2d_cat_multi_stim_exp1","2022-4-13","10:24:3","25","75","3","9","10","40","30","120","32","19","[""Other""]","Yes","Female","2532330","null","null","","","","clear_screen","","","","","","","","","","","","","","","","","","","","","","","","","",""
"","","","","","canvas-keyboard-response","122","450828","0.0-12.0-0.22","2d_cat_multi_stim_exp1","2022-4-13","10:24:3","25","75","3","9","10","40","30","120","32","19","[""Other""]","Yes","Female","2532330","null","null","","","","fixation","","","","","","","","","","","","","","","","","","","","","","","","","",""
"","","","","","canvas-keyboard-response","123","451338","0.0-12.0-1.22","2d_cat_multi_stim_exp1","2022-4-13","10:24:3","25","75","3","9","10","40","30","120","32","19","[""Other""]","Yes","Female","2532330","null","null","","","","clear_screen","","","","","","","","","","","","","","","","","","","","","","","","","",""
"","","","","","canvas-keyboard-response","124","451798","0.0-12.0-2.22","2d_cat_multi_stim_exp1","2022-4-13","10:24:3","25","75","3","9","10","40","30","120","32","19","[""Other""]","Yes","Female","2532330","451","u","learn","","","learn_trial","25","75","in","1","1","","","","","","","","","","","","","","","","","","","","",""
"","","","","","canvas-keyboard-response","125","452309","0.0-12.0-3.22","2d_cat_multi_stim_exp1","2022-4-13","10:24:3","25","75","3","9","10","40","30","120","32","19","[""Other""]","Yes","Female","2532330","null","null","learn_feedback","","","learn_feedback","25","75","in","","","","","","","","","","","","","","","","","","","","","","",""
"","","","","","canvas-keyboard-response","126","452373","0.0-12.0-4.22","2d_cat_multi_stim_exp1","2022-4-13","10:24:3","25","75","3","9","10","40","30","120","32","19","[""Other""]","Yes","Female","2532330","null","null","","","","clear_screen","","","","","","","","","","","","","","","","","","","","","","","","","",""
"","","","","","canvas-keyboard-response","127","452880","0.0-12.0-0.23","2d_cat_multi_stim_exp1","2022-4-13","10:24:3","25","75","3","9","10","40","30","120","32","19","[""Other""]","Yes","Female","2532330","null","null","","","","fixation","","","","","","","","","","","","","","","","","","","","","","","","","",""
"","","","","","canvas-keyboard-response","128","453390","0.0-12.0-1.23","2d_cat_multi_stim_exp1","2022-4-13","10:24:3","25","75","3","9","10","40","30","120","32","19","[""Other""]","Yes","Female","2532330","null","null","","","","clear_screen","","","","","","","","","","","","","","","","","","","","","","","","","",""
"","","","","","canvas-keyboard-response","129","454366","0.0-12.0-2.23","2d_cat_multi_stim_exp1","2022-4-13","10:24:3","25","75","3","9","10","40","30","120","32","19","[""Other""]","Yes","Female","2532330","965","u","learn","","","learn_trial","27.8087","78.1624","in","1","1","","","","","","","","","","","","","","","","","","","","",""
"","","","","","canvas-keyboard-response","130","454874","0.0-12.0-3.23","2d_cat_multi_stim_exp1","2022-4-13","10:24:3","25","75","3","9","10","40","30","120","32","19","[""Other""]","Yes","Female","2532330","null","null","learn_feedback","","","learn_feedback","27.8087","78.1624","in","","","","","","","","","","","","","","","","","","","","","","",""
"","","","","","canvas-keyboard-response","131","454935","0.0-12.0-4.23","2d_cat_multi_stim_exp1","2022-4-13","10:24:3","25","75","3","9","10","40","30","120","32","19","[""Other""]","Yes","Female","2532330","null","null","","","","clear_screen","","","","","","","","","","","","","","","","","","","","","","","","","",""
"","","","","","canvas-keyboard-response","132","455446","0.0-12.0-0.24","2d_cat_multi_stim_exp1","2022-4-13","10:24:3","25","75","3","9","10","40","30","120","32","19","[""Other""]","Yes","Female","2532330","null","null","","","","fixation","","","","","","","","","","","","","","","","","","","","","","","","","",""
"","","","","","canvas-keyboard-response","133","455956","0.0-12.0-1.24","2d_cat_multi_stim_exp1","2022-4-13","10:24:3","25","75","3","9","10","40","30","120","32","19","[""Other""]","Yes","Female","2532330","null","null","","","","clear_screen","","","","","","","","","","","","","","","","","","","","","","","","","",""
"","","","","","canvas-keyboard-response","134","460150","0.0-12.0-2.24","2d_cat_multi_stim_exp1","2022-4-13","10:24:3","25","75","3","9","10","40","30","120","32","19","[""Other""]","Yes","Female","2532330","4186","i","learn","","","learn_trial","13.3333","80","out","1","0","","","","","","","","","","","","","","","","","","","","",""
"","","","","","canvas-keyboard-response","135","460661","0.0-12.0-3.24","2d_cat_multi_stim_exp1","2022-4-13","10:24:3","25","75","3","9","10","40","30","120","32","19","[""Other""]","Yes","Female","2532330","null","null","learn_feedback","","","learn_feedback","13.3333","80","out","","","","","","","","","","","","","","","","","","","","","","",""
"","","","","","canvas-keyboard-response","136","460722","0.0-12.0-4.24","2d_cat_multi_stim_exp1","2022-4-13","10:24:3","25","75","3","9","10","40","30","120","32","19","[""Other""]","Yes","Female","2532330","null","null","","","","clear_screen","","","","","","","","","","","","","","","","","","","","","","","","","",""
"","","","","","canvas-keyboard-response","137","461231","0.0-12.0-0.25","2d_cat_multi_stim_exp1","2022-4-13","10:24:3","25","75","3","9","10","40","30","120","32","19","[""Other""]","Yes","Female","2532330","null","null","","","","fixation","","","","","","","","","","","","","","","","","","","","","","","","","",""
"","","","","","canvas-keyboard-response","138","461745","0.0-12.0-1.25","2d_cat_multi_stim_exp1","2022-4-13","10:24:3","25","75","3","9","10","40","30","120","32","19","[""Other""]","Yes","Female","2532330","null","null","","","","clear_screen","","","","","","","","","","","","","","","","","","","","","","","","","",""
"","","","","","canvas-keyboard-response","139","463254","0.0-12.0-2.25","2d_cat_multi_stim_exp1","2022-4-13","10:24:3","25","75","3","9","10","40","30","120","32","19","[""Other""]","Yes","Female","2532330","1496","u","learn","","","learn_trial","25","75","in","1","1","","","","","","","","","","","","","","","","","","","","",""
"","","","","","canvas-keyboard-response","140","463765","0.0-12.0-3.25","2d_cat_multi_stim_exp1","2022-4-13","10:24:3","25","75","3","9","10","40","30","120","32","19","[""Other""]","Yes","Female","2532330","null","null","learn_feedback","","","learn_feedback","25","75","in","","","","","","","","","","","","","","","","","","","","","","",""
"","","","","","canvas-keyboard-response","141","463829","0.0-12.0-4.25","2d_cat_multi_stim_exp1","2022-4-13","10:24:3","25","75","3","9","10","40","30","120","32","19","[""Other""]","Yes","Female","2532330","null","null","","","","clear_screen","","","","","","","","","","","","","","","","","","","","","","","","","",""
"","","","","","canvas-keyboard-response","142","464337","0.0-12.0-0.26","2d_cat_multi_stim_exp1","2022-4-13","10:24:3","25","75","3","9","10","40","30","120","32","19","[""Other""]","Yes","Female","2532330","null","null","","","","fixation","","","","","","","","","","","","","","","","","","","","","","","","","",""
"","","","","","canvas-keyboard-response","143","464850","0.0-12.0-1.26","2d_cat_multi_stim_exp1","2022-4-13","10:24:3","25","75","3","9","10","40","30","120","32","19","[""Other""]","Yes","Female","2532330","null","null","","","","clear_screen","","","","","","","","","","","","","","","","","","","","","","","","","",""
"","","","","","canvas-keyboard-response","144","466007","0.0-12.0-2.26","2d_cat_multi_stim_exp1","2022-4-13","10:24:3","25","75","3","9","10","40","30","120","32","19","[""Other""]","Yes","Female","2532330","1148","i","learn","","","learn_trial","20","30","out","1","0","","","","","","","","","","","","","","","","","","","","",""
"","","","","","canvas-keyboard-response","145","466517","0.0-12.0-3.26","2d_cat_multi_stim_exp1","2022-4-13","10:24:3","25","75","3","9","10","40","30","120","32","19","[""Other""]","Yes","Female","2532330","null","null","learn_feedback","","","learn_feedback","20","30","out","","","","","","","","","","","","","","","","","","","","","","",""
"","","","","","canvas-keyboard-response","146","466581","0.0-12.0-4.26","2d_cat_multi_stim_exp1","2022-4-13","10:24:3","25","75","3","9","10","40","30","120","32","19","[""Other""]","Yes","Female","2532330","null","null","","","","clear_screen","","","","","","","","","","","","","","","","","","","","","","","","","",""
"","","","","","canvas-keyboard-response","147","467089","0.0-12.0-0.27","2d_cat_multi_stim_exp1","2022-4-13","10:24:3","25","75","3","9","10","40","30","120","32","19","[""Other""]","Yes","Female","2532330","null","null","","","","fixation","","","","","","","","","","","","","","","","","","","","","","","","","",""
"","","","","","canvas-keyboard-response","148","467600","0.0-12.0-1.27","2d_cat_multi_stim_exp1","2022-4-13","10:24:3","25","75","3","9","10","40","30","120","32","19","[""Other""]","Yes","Female","2532330","null","null","","","","clear_screen","","","","","","","","","","","","","","","","","","","","","","","","","",""
"","","","","","canvas-keyboard-response","149","468694","0.0-12.0-2.27","2d_cat_multi_stim_exp1","2022-4-13","10:24:3","25","75","3","9","10","40","30","120","32","19","[""Other""]","Yes","Female","2532330","1083","i","learn","","","learn_trial","36.6667","70","out","1","0","","","","","","","","","","","","","","","","","","","","",""
"","","","","","canvas-keyboard-response","150","469203","0.0-12.0-3.27","2d_cat_multi_stim_exp1","2022-4-13","10:24:3","25","75","3","9","10","40","30","120","32","19","[""Other""]","Yes","Female","2532330","null","null","learn_feedback","","","learn_feedback","36.6667","70","out","","","","","","","","","","","","","","","","","","","","","","",""
"","","","","","canvas-keyboard-response","151","469265","0.0-12.0-4.27","2d_cat_multi_stim_exp1","2022-4-13","10:24:3","25","75","3","9","10","40","30","120","32","19","[""Other""]","Yes","Female","2532330","null","null","","","","clear_screen","","","","","","","","","","","","","","","","","","","","","","","","","",""
"","","","","","canvas-keyboard-response","152","469774","0.0-12.0-0.28","2d_cat_multi_stim_exp1","2022-4-13","10:24:3","25","75","3","9","10","40","30","120","32","19","[""Other""]","Yes","Female","2532330","null","null","","","","fixation","","","","","","","","","","","","","","","","","","","","","","","","","",""
"","","","","","canvas-keyboard-response","153","470288","0.0-12.0-1.28","2d_cat_multi_stim_exp1","2022-4-13","10:24:3","25","75","3","9","10","40","30","120","32","19","[""Other""]","Yes","Female","2532330","null","null","","","","clear_screen","","","","","","","","","","","","","","","","","","","","","","","","","",""
"","","","","","canvas-keyboard-response","154","471806","0.0-12.0-2.28","2d_cat_multi_stim_exp1","2022-4-13","10:24:3","25","75","3","9","10","40","30","120","32","19","[""Other""]","Yes","Female","2532330","1508","u","learn","","","learn_trial","25","75","in","1","1","","","","","","","","","","","","","","","","","","","","",""
"","","","","","canvas-keyboard-response","155","472318","0.0-12.0-3.28","2d_cat_multi_stim_exp1","2022-4-13","10:24:3","25","75","3","9","10","40","30","120","32","19","[""Other""]","Yes","Female","2532330","null","null","learn_feedback","","","learn_feedback","25","75","in","","","","","","","","","","","","","","","","","","","","","","",""
"","","","","","canvas-keyboard-response","156","472379","0.0-12.0-4.28","2d_cat_multi_stim_exp1","2022-4-13","10:24:3","25","75","3","9","10","40","30","120","32","19","[""Other""]","Yes","Female","2532330","null","null","","","","clear_screen","","","","","","","","","","","","","","","","","","","","","","","","","",""
"","","","","","canvas-keyboard-response","157","472885","0.0-12.0-0.29","2d_cat_multi_stim_exp1","2022-4-13","10:24:3","25","75","3","9","10","40","30","120","32","19","[""Other""]","Yes","Female","2532330","null","null","","","","fixation","","","","","","","","","","","","","","","","","","","","","","","","","",""
"","","","","","canvas-keyboard-response","158","473396","0.0-12.0-1.29","2d_cat_multi_stim_exp1","2022-4-13","10:24:3","25","75","3","9","10","40","30","120","32","19","[""Other""]","Yes","Female","2532330","null","null","","","","clear_screen","","","","","","","","","","","","","","","","","","","","","","","","","",""
"","","","","","canvas-keyboard-response","159","474575","0.0-12.0-2.29","2d_cat_multi_stim_exp1","2022-4-13","10:24:3","25","75","3","9","10","40","30","120","32","19","[""Other""]","Yes","Female","2532330","1170","i","learn","","","learn_trial","26.6667","40","out","1","0","","","","","","","","","","","","","","","","","","","","",""
"","","","","","canvas-keyboard-response","160","475083","0.0-12.0-3.29","2d_cat_multi_stim_exp1","2022-4-13","10:24:3","25","75","3","9","10","40","30","120","32","19","[""Other""]","Yes","Female","2532330","null","null","learn_feedback","","","learn_feedback","26.6667","40","out","","","","","","","","","","","","","","","","","","","","","","",""
"","","","","","canvas-keyboard-response","161","475142","0.0-12.0-4.29","2d_cat_multi_stim_exp1","2022-4-13","10:24:3","25","75","3","9","10","40","30","120","32","19","[""Other""]","Yes","Female","2532330","null","null","","","","clear_screen","","","","","","","","","","","","","","","","","","","","","","","","","",""
"","","","","","canvas-keyboard-response","162","475649","0.0-12.0-0.30","2d_cat_multi_stim_exp1","2022-4-13","10:24:3","25","75","3","9","10","40","30","120","32","19","[""Other""]","Yes","Female","2532330","null","null","","","","fixation","","","","","","","","","","","","","","","","","","","","","","","","","",""
"","","","","","canvas-keyboard-response","163","476162","0.0-12.0-1.30","2d_cat_multi_stim_exp1","2022-4-13","10:24:3","25","75","3","9","10","40","30","120","32","19","[""Other""]","Yes","Female","2532330","null","null","","","","clear_screen","","","","","","","","","","","","","","","","","","","","","","","","","",""
"","","","","","canvas-keyboard-response","164","482742","0.0-12.0-2.30","2d_cat_multi_stim_exp1","2022-4-13","10:24:3","25","75","3","9","10","40","30","120","32","19","[""Other""]","Yes","Female","2532330","6570","u","learn","","","learn_trial","27.5753","79.6161","in","1","1","","","","","","","","","","","","","","","","","","","","",""
"","","","","","canvas-keyboard-response","165","483254","0.0-12.0-3.30","2d_cat_multi_stim_exp1","2022-4-13","10:24:3","25","75","3","9","10","40","30","120","32","19","[""Other""]","Yes","Female","2532330","null","null","learn_feedback","","","learn_feedback","27.5753","79.6161","in","","","","","","","","","","","","","","","","","","","","","","",""
"","","","","","canvas-keyboard-response","166","483314","0.0-12.0-4.30","2d_cat_multi_stim_exp1","2022-4-13","10:24:3","25","75","3","9","10","40","30","120","32","19","[""Other""]","Yes","Female","2532330","null","null","","","","clear_screen","","","","","","","","","","","","","","","","","","","","","","","","","",""
"","","","","","canvas-keyboard-response","167","483823","0.0-12.0-0.31","2d_cat_multi_stim_exp1","2022-4-13","10:24:3","25","75","3","9","10","40","30","120","32","19","[""Other""]","Yes","Female","2532330","null","null","","","","fixation","","","","","","","","","","","","","","","","","","","","","","","","","",""
"","","","","","canvas-keyboard-response","168","484338","0.0-12.0-1.31","2d_cat_multi_stim_exp1","2022-4-13","10:24:3","25","75","3","9","10","40","30","120","32","19","[""Other""]","Yes","Female","2532330","null","null","","","","clear_screen","","","","","","","","","","","","","","","","","","","","","","","","","",""
"","","","","","canvas-keyboard-response","169","485007","0.0-12.0-2.31","2d_cat_multi_stim_exp1","2022-4-13","10:24:3","25","75","3","9","10","40","30","120","32","19","[""Other""]","Yes","Female","2532330","658","u","learn","","","learn_trial","23.3473","67.4888","in","1","1","","","","","","","","","","","","","","","","","","","","",""
"","","","","","canvas-keyboard-response","170","485517","0.0-12.0-3.31","2d_cat_multi_stim_exp1","2022-4-13","10:24:3","25","75","3","9","10","40","30","120","32","19","[""Other""]","Yes","Female","2532330","null","null","learn_feedback","","","learn_feedback","23.3473","67.4888","in","","","","","","","","","","","","","","","","","","","","","","",""
"","","","","","canvas-keyboard-response","171","485573","0.0-12.0-4.31","2d_cat_multi_stim_exp1","2022-4-13","10:24:3","25","75","3","9","10","40","30","120","32","19","[""Other""]","Yes","Female","2532330","null","null","","","","clear_screen","","","","","","","","","","","","","","","","","","","","","","","","","",""
"","","","","","canvas-keyboard-response","172","486082","0.0-12.0-0.32","2d_cat_multi_stim_exp1","2022-4-13","10:24:3","25","75","3","9","10","40","30","120","32","19","[""Other""]","Yes","Female","2532330","null","null","","","","fixation","","","","","","","","","","","","","","","","","","","","","","","","","",""
"","","","","","canvas-keyboard-response","173","486595","0.0-12.0-1.32","2d_cat_multi_stim_exp1","2022-4-13","10:24:3","25","75","3","9","10","40","30","120","32","19","[""Other""]","Yes","Female","2532330","null","null","","","","clear_screen","","","","","","","","","","","","","","","","","","","","","","","","","",""
"","","","","","canvas-keyboard-response","174","487301","0.0-12.0-2.32","2d_cat_multi_stim_exp1","2022-4-13","10:24:3","25","75","3","9","10","40","30","120","32","19","[""Other""]","Yes","Female","2532330","695","i","learn","","","learn_trial","36.6667","40","out","1","0","","","","","","","","","","","","","","","","","","","","",""
"","","","","","canvas-keyboard-response","175","487810","0.0-12.0-3.32","2d_cat_multi_stim_exp1","2022-4-13","10:24:3","25","75","3","9","10","40","30","120","32","19","[""Other""]","Yes","Female","2532330","null","null","learn_feedback","","","learn_feedback","36.6667","40","out","","","","","","","","","","","","","","","","","","","","","","",""
"","","","","","canvas-keyboard-response","176","487873","0.0-12.0-4.32","2d_cat_multi_stim_exp1","2022-4-13","10:24:3","25","75","3","9","10","40","30","120","32","19","[""Other""]","Yes","Female","2532330","null","null","","","","clear_screen","","","","","","","","","","","","","","","","","","","","","","","","","",""
"","","","","","canvas-keyboard-response","177","488382","0.0-12.0-0.33","2d_cat_multi_stim_exp1","2022-4-13","10:24:3","25","75","3","9","10","40","30","120","32","19","[""Other""]","Yes","Female","2532330","null","null","","","","fixation","","","","","","","","","","","","","","","","","","","","","","","","","",""
"","","","","","canvas-keyboard-response","178","488894","0.0-12.0-1.33","2d_cat_multi_stim_exp1","2022-4-13","10:24:3","25","75","3","9","10","40","30","120","32","19","[""Other""]","Yes","Female","2532330","null","null","","","","clear_screen","","","","","","","","","","","","","","","","","","","","","","","","","",""
"","","","","","canvas-keyboard-response","179","489901","0.0-12.0-2.33","2d_cat_multi_stim_exp1","2022-4-13","10:24:3","25","75","3","9","10","40","30","120","32","19","[""Other""]","Yes","Female","2532330","999","i","learn","","","learn_trial","40","100","out","1","0","","","","","","","","","","","","","","","","","","","","",""
"","","","","","canvas-keyboard-response","180","490410","0.0-12.0-3.33","2d_cat_multi_stim_exp1","2022-4-13","10:24:3","25","75","3","9","10","40","30","120","32","19","[""Other""]","Yes","Female","2532330","null","null","learn_feedback","","","learn_feedback","40","100","out","","","","","","","","","","","","","","","","","","","","","","",""
"","","","","","canvas-keyboard-response","181","490471","0.0-12.0-4.33","2d_cat_multi_stim_exp1","2022-4-13","10:24:3","25","75","3","9","10","40","30","120","32","19","[""Other""]","Yes","Female","2532330","null","null","","","","clear_screen","","","","","","","","","","","","","","","","","","","","","","","","","",""
"","","","","","canvas-keyboard-response","182","490980","0.0-12.0-0.34","2d_cat_multi_stim_exp1","2022-4-13","10:24:3","25","75","3","9","10","40","30","120","32","19","[""Other""]","Yes","Female","2532330","null","null","","","","fixation","","","","","","","","","","","","","","","","","","","","","","","","","",""
"","","","","","canvas-keyboard-response","183","491491","0.0-12.0-1.34","2d_cat_multi_stim_exp1","2022-4-13","10:24:3","25","75","3","9","10","40","30","120","32","19","[""Other""]","Yes","Female","2532330","null","null","","","","clear_screen","","","","","","","","","","","","","","","","","","","","","","","","","",""
"","","","","","canvas-keyboard-response","184","492262","0.0-12.0-2.34","2d_cat_multi_stim_exp1","2022-4-13","10:24:3","25","75","3","9","10","40","30","120","32","19","[""Other""]","Yes","Female","2532330","761","u","learn","","","learn_trial","24.8654","83.9909","in","1","1","","","","","","","","","","","","","","","","","","","","",""
"","","","","","canvas-keyboard-response","185","492774","0.0-12.0-3.34","2d_cat_multi_stim_exp1","2022-4-13","10:24:3","25","75","3","9","10","40","30","120","32","19","[""Other""]","Yes","Female","2532330","null","null","learn_feedback","","","learn_feedback","24.8654","83.9909","in","","","","","","","","","","","","","","","","","","","","","","",""
"","","","","","canvas-keyboard-response","186","492839","0.0-12.0-4.34","2d_cat_multi_stim_exp1","2022-4-13","10:24:3","25","75","3","9","10","40","30","120","32","19","[""Other""]","Yes","Female","2532330","null","null","","","","clear_screen","","","","","","","","","","","","","","","","","","","","","","","","","",""
"","","","","","canvas-keyboard-response","187","493349","0.0-12.0-0.35","2d_cat_multi_stim_exp1","2022-4-13","10:24:3","25","75","3","9","10","40","30","120","32","19","[""Other""]","Yes","Female","2532330","null","null","","","","fixation","","","","","","","","","","","","","","","","","","","","","","","","","",""
"","","","","","canvas-keyboard-response","188","493859","0.0-12.0-1.35","2d_cat_multi_stim_exp1","2022-4-13","10:24:3","25","75","3","9","10","40","30","120","32","19","[""Other""]","Yes","Female","2532330","null","null","","","","clear_screen","","","","","","","","","","","","","","","","","","","","","","","","","",""
"","","","","","canvas-keyboard-response","189","495719","0.0-12.0-2.35","2d_cat_multi_stim_exp1","2022-4-13","10:24:3","25","75","3","9","10","40","30","120","32","19","[""Other""]","Yes","Female","2532330","1848","u","learn","","","learn_trial","25","75","in","1","1","","","","","","","","","","","","","","","","","","","","",""
"","","","","","canvas-keyboard-response","190","496227","0.0-12.0-3.35","2d_cat_multi_stim_exp1","2022-4-13","10:24:3","25","75","3","9","10","40","30","120","32","19","[""Other""]","Yes","Female","2532330","null","null","learn_feedback","","","learn_feedback","25","75","in","","","","","","","","","","","","","","","","","","","","","","",""
"","","","","","canvas-keyboard-response","191","496288","0.0-12.0-4.35","2d_cat_multi_stim_exp1","2022-4-13","10:24:3","25","75","3","9","10","40","30","120","32","19","[""Other""]","Yes","Female","2532330","null","null","","","","clear_screen","","","","","","","","","","","","","","","","","","","","","","","","","",""
"","","","","","canvas-keyboard-response","192","496798","0.0-12.0-0.36","2d_cat_multi_stim_exp1","2022-4-13","10:24:3","25","75","3","9","10","40","30","120","32","19","[""Other""]","Yes","Female","2532330","null","null","","","","fixation","","","","","","","","","","","","","","","","","","","","","","","","","",""
"","","","","","canvas-keyboard-response","193","497313","0.0-12.0-1.36","2d_cat_multi_stim_exp1","2022-4-13","10:24:3","25","75","3","9","10","40","30","120","32","19","[""Other""]","Yes","Female","2532330","null","null","","","","clear_screen","","","","","","","","","","","","","","","","","","","","","","","","","",""
"","","","","","canvas-keyboard-response","194","498110","0.0-12.0-2.36","2d_cat_multi_stim_exp1","2022-4-13","10:24:3","25","75","3","9","10","40","30","120","32","19","[""Other""]","Yes","Female","2532330","788","u","learn","","","learn_trial","25","75","in","1","1","","","","","","","","","","","","","","","","","","","","",""
"","","","","","canvas-keyboard-response","195","498620","0.0-12.0-3.36","2d_cat_multi_stim_exp1","2022-4-13","10:24:3","25","75","3","9","10","40","30","120","32","19","[""Other""]","Yes","Female","2532330","null","null","learn_feedback","","","learn_feedback","25","75","in","","","","","","","","","","","","","","","","","","","","","","",""
"","","","","","canvas-keyboard-response","196","498678","0.0-12.0-4.36","2d_cat_multi_stim_exp1","2022-4-13","10:24:3","25","75","3","9","10","40","30","120","32","19","[""Other""]","Yes","Female","2532330","null","null","","","","clear_screen","","","","","","","","","","","","","","","","","","","","","","","","","",""
"","","","","","canvas-keyboard-response","197","499188","0.0-12.0-0.37","2d_cat_multi_stim_exp1","2022-4-13","10:24:3","25","75","3","9","10","40","30","120","32","19","[""Other""]","Yes","Female","2532330","null","null","","","","fixation","","","","","","","","","","","","","","","","","","","","","","","","","",""
"","","","","","canvas-keyboard-response","198","499700","0.0-12.0-1.37","2d_cat_multi_stim_exp1","2022-4-13","10:24:3","25","75","3","9","10","40","30","120","32","19","[""Other""]","Yes","Female","2532330","null","null","","","","clear_screen","","","","","","","","","","","","","","","","","","","","","","","","","",""
"","","","","","canvas-keyboard-response","199","500429","0.0-12.0-2.37","2d_cat_multi_stim_exp1","2022-4-13","10:24:3","25","75","3","9","10","40","30","120","32","19","[""Other""]","Yes","Female","2532330","720","i","learn","","","learn_trial","13.3333","50","out","1","0","","","","","","","","","","","","","","","","","","","","",""
"","","","","","canvas-keyboard-response","200","500941","0.0-12.0-3.37","2d_cat_multi_stim_exp1","2022-4-13","10:24:3","25","75","3","9","10","40","30","120","32","19","[""Other""]","Yes","Female","2532330","null","null","learn_feedback","","","learn_feedback","13.3333","50","out","","","","","","","","","","","","","","","","","","","","","","",""
"","","","","","canvas-keyboard-response","201","501003","0.0-12.0-4.37","2d_cat_multi_stim_exp1","2022-4-13","10:24:3","25","75","3","9","10","40","30","120","32","19","[""Other""]","Yes","Female","2532330","null","null","","","","clear_screen","","","","","","","","","","","","","","","","","","","","","","","","","",""
"","","","","","canvas-keyboard-response","202","501514","0.0-12.0-0.38","2d_cat_multi_stim_exp1","2022-4-13","10:24:3","25","75","3","9","10","40","30","120","32","19","[""Other""]","Yes","Female","2532330","null","null","","","","fixation","","","","","","","","","","","","","","","","","","","","","","","","","",""
"","","","","","canvas-keyboard-response","203","502026","0.0-12.0-1.38","2d_cat_multi_stim_exp1","2022-4-13","10:24:3","25","75","3","9","10","40","30","120","32","19","[""Other""]","Yes","Female","2532330","null","null","","","","clear_screen","","","","","","","","","","","","","","","","","","","","","","","","","",""
"","","","","","canvas-keyboard-response","204","502430","0.0-12.0-2.38","2d_cat_multi_stim_exp1","2022-4-13","10:24:3","25","75","3","9","10","40","30","120","32","19","[""Other""]","Yes","Female","2532330","393","u","learn","","","learn_trial","25","75","in","1","1","","","","","","","","","","","","","","","","","","","","",""
"","","","","","canvas-keyboard-response","205","502943","0.0-12.0-3.38","2d_cat_multi_stim_exp1","2022-4-13","10:24:3","25","75","3","9","10","40","30","120","32","19","[""Other""]","Yes","Female","2532330","null","null","learn_feedback","","","learn_feedback","25","75","in","","","","","","","","","","","","","","","","","","","","","","",""
"","","","","","canvas-keyboard-response","206","503004","0.0-12.0-4.38","2d_cat_multi_stim_exp1","2022-4-13","10:24:3","25","75","3","9","10","40","30","120","32","19","[""Other""]","Yes","Female","2532330","null","null","","","","clear_screen","","","","","","","","","","","","","","","","","","","","","","","","","",""
"","","","","","canvas-keyboard-response","207","503515","0.0-12.0-0.39","2d_cat_multi_stim_exp1","2022-4-13","10:24:3","25","75","3","9","10","40","30","120","32","19","[""Other""]","Yes","Female","2532330","null","null","","","","fixation","","","","","","","","","","","","","","","","","","","","","","","","","",""
"","","","","","canvas-keyboard-response","208","504026","0.0-12.0-1.39","2d_cat_multi_stim_exp1","2022-4-13","10:24:3","25","75","3","9","10","40","30","120","32","19","[""Other""]","Yes","Female","2532330","null","null","","","","clear_screen","","","","","","","","","","","","","","","","","","","","","","","","","",""
"","","","","","canvas-keyboard-response","209","504550","0.0-12.0-2.39","2d_cat_multi_stim_exp1","2022-4-13","10:24:3","25","75","3","9","10","40","30","120","32","19","[""Other""]","Yes","Female","2532330","514","u","learn","","","learn_trial","25","75","in","1","1","","","","","","","","","","","","","","","","","","","","",""
"","","","","","canvas-keyboard-response","210","505058","0.0-12.0-3.39","2d_cat_multi_stim_exp1","2022-4-13","10:24:3","25","75","3","9","10","40","30","120","32","19","[""Other""]","Yes","Female","2532330","null","null","learn_feedback","","","learn_feedback","25","75","in","","","","","","","","","","","","","","","","","","","","","","",""
"","","","","","canvas-keyboard-response","211","505122","0.0-12.0-4.39","2d_cat_multi_stim_exp1","2022-4-13","10:24:3","25","75","3","9","10","40","30","120","32","19","[""Other""]","Yes","Female","2532330","null","null","","","","clear_screen","","","","","","","","","","","","","","","","","","","","","","","","","",""
"","","","","","canvas-keyboard-response","212","505630","0.0-12.0-0.40","2d_cat_multi_stim_exp1","2022-4-13","10:24:3","25","75","3","9","10","40","30","120","32","19","[""Other""]","Yes","Female","2532330","null","null","","","","fixation","","","","","","","","","","","","","","","","","","","","","","","","","",""
"","","","","","canvas-keyboard-response","213","506142","0.0-12.0-1.40","2d_cat_multi_stim_exp1","2022-4-13","10:24:3","25","75","3","9","10","40","30","120","32","19","[""Other""]","Yes","Female","2532330","null","null","","","","clear_screen","","","","","","","","","","","","","","","","","","","","","","","","","",""
"","","","","","canvas-keyboard-response","214","506886","0.0-12.0-2.40","2d_cat_multi_stim_exp1","2022-4-13","10:24:3","25","75","3","9","10","40","30","120","32","19","[""Other""]","Yes","Female","2532330","733","u","learn","","","learn_trial","20","60","out","0","1","","","","","","","","","","","","","","","","","","","","",""
"","","","","","canvas-keyboard-response","215","507897","0.0-12.0-3.40","2d_cat_multi_stim_exp1","2022-4-13","10:24:3","25","75","3","9","10","40","30","120","32","19","[""Other""]","Yes","Female","2532330","null","null","learn_feedback","","","learn_feedback","20","60","out","","","","","","","","","","","","","","","","","","","","","","",""
"","","","","","canvas-keyboard-response","216","507958","0.0-12.0-4.40","2d_cat_multi_stim_exp1","2022-4-13","10:24:3","25","75","3","9","10","40","30","120","32","19","[""Other""]","Yes","Female","2532330","null","null","","","","clear_screen","","","","","","","","","","","","","","","","","","","","","","","","","",""
"","","","","","canvas-keyboard-response","217","508470","0.0-12.0-0.41","2d_cat_multi_stim_exp1","2022-4-13","10:24:3","25","75","3","9","10","40","30","120","32","19","[""Other""]","Yes","Female","2532330","null","null","","","","fixation","","","","","","","","","","","","","","","","","","","","","","","","","",""
"","","","","","canvas-keyboard-response","218","508980","0.0-12.0-1.41","2d_cat_multi_stim_exp1","2022-4-13","10:24:3","25","75","3","9","10","40","30","120","32","19","[""Other""]","Yes","Female","2532330","null","null","","","","clear_screen","","","","","","","","","","","","","","","","","","","","","","","","","",""
"","","","","","canvas-keyboard-response","219","509462","0.0-12.0-2.41","2d_cat_multi_stim_exp1","2022-4-13","10:24:3","25","75","3","9","10","40","30","120","32","19","[""Other""]","Yes","Female","2532330","471","u","learn","","","learn_trial","33.3333","100","out","0","1","","","","","","","","","","","","","","","","","","","","",""
"","","","","","canvas-keyboard-response","220","510472","0.0-12.0-3.41","2d_cat_multi_stim_exp1","2022-4-13","10:24:3","25","75","3","9","10","40","30","120","32","19","[""Other""]","Yes","Female","2532330","null","null","learn_feedback","","","learn_feedback","33.3333","100","out","","","","","","","","","","","","","","","","","","","","","","",""
"","","","","","canvas-keyboard-response","221","510532","0.0-12.0-4.41","2d_cat_multi_stim_exp1","2022-4-13","10:24:3","25","75","3","9","10","40","30","120","32","19","[""Other""]","Yes","Female","2532330","null","null","","","","clear_screen","","","","","","","","","","","","","","","","","","","","","","","","","",""
"","","","","","canvas-keyboard-response","222","511040","0.0-12.0-0.42","2d_cat_multi_stim_exp1","2022-4-13","10:24:3","25","75","3","9","10","40","30","120","32","19","[""Other""]","Yes","Female","2532330","null","null","","","","fixation","","","","","","","","","","","","","","","","","","","","","","","","","",""
"","","","","","canvas-keyboard-response","223","511552","0.0-12.0-1.42","2d_cat_multi_stim_exp1","2022-4-13","10:24:3","25","75","3","9","10","40","30","120","32","19","[""Other""]","Yes","Female","2532330","null","null","","","","clear_screen","","","","","","","","","","","","","","","","","","","","","","","","","",""
"","","","","","canvas-keyboard-response","224","512342","0.0-12.0-2.42","2d_cat_multi_stim_exp1","2022-4-13","10:24:3","25","75","3","9","10","40","30","120","32","19","[""Other""]","Yes","Female","2532330","779","u","learn","","","learn_trial","25","75","in","1","1","","","","","","","","","","","","","","","","","","","","",""
"","","","","","canvas-keyboard-response","225","512855","0.0-12.0-3.42","2d_cat_multi_stim_exp1","2022-4-13","10:24:3","25","75","3","9","10","40","30","120","32","19","[""Other""]","Yes","Female","2532330","null","null","learn_feedback","","","learn_feedback","25","75","in","","","","","","","","","","","","","","","","","","","","","","",""
"","","","","","canvas-keyboard-response","226","512916","0.0-12.0-4.42","2d_cat_multi_stim_exp1","2022-4-13","10:24:3","25","75","3","9","10","40","30","120","32","19","[""Other""]","Yes","Female","2532330","null","null","","","","clear_screen","","","","","","","","","","","","","","","","","","","","","","","","","",""
"","","","","","canvas-keyboard-response","227","513425","0.0-12.0-0.43","2d_cat_multi_stim_exp1","2022-4-13","10:24:3","25","75","3","9","10","40","30","120","32","19","[""Other""]","Yes","Female","2532330","null","null","","","","fixation","","","","","","","","","","","","","","","","","","","","","","","","","",""
"","","","","","canvas-keyboard-response","228","513935","0.0-12.0-1.43","2d_cat_multi_stim_exp1","2022-4-13","10:24:3","25","75","3","9","10","40","30","120","32","19","[""Other""]","Yes","Female","2532330","null","null","","","","clear_screen","","","","","","","","","","","","","","","","","","","","","","","","","",""
"","","","","","canvas-keyboard-response","229","514654","0.0-12.0-2.43","2d_cat_multi_stim_exp1","2022-4-13","10:24:3","25","75","3","9","10","40","30","120","32","19","[""Other""]","Yes","Female","2532330","710","i","learn","","","learn_trial","26.6667","100","out","1","0","","","","","","","","","","","","","","","","","","","","",""
"","","","","","canvas-keyboard-response","230","515164","0.0-12.0-3.43","2d_cat_multi_stim_exp1","2022-4-13","10:24:3","25","75","3","9","10","40","30","120","32","19","[""Other""]","Yes","Female","2532330","null","null","learn_feedback","","","learn_feedback","26.6667","100","out","","","","","","","","","","","","","","","","","","","","","","",""
"","","","","","canvas-keyboard-response","231","515224","0.0-12.0-4.43","2d_cat_multi_stim_exp1","2022-4-13","10:24:3","25","75","3","9","10","40","30","120","32","19","[""Other""]","Yes","Female","2532330","null","null","","","","clear_screen","","","","","","","","","","","","","","","","","","","","","","","","","",""
"","","","","","canvas-keyboard-response","232","515734","0.0-12.0-0.44","2d_cat_multi_stim_exp1","2022-4-13","10:24:3","25","75","3","9","10","40","30","120","32","19","[""Other""]","Yes","Female","2532330","null","null","","","","fixation","","","","","","","","","","","","","","","","","","","","","","","","","",""
"","","","","","canvas-keyboard-response","233","516246","0.0-12.0-1.44","2d_cat_multi_stim_exp1","2022-4-13","10:24:3","25","75","3","9","10","40","30","120","32","19","[""Other""]","Yes","Female","2532330","null","null","","","","clear_screen","","","","","","","","","","","","","","","","","","","","","","","","","",""
"","","","","","canvas-keyboard-response","234","517014","0.0-12.0-2.44","2d_cat_multi_stim_exp1","2022-4-13","10:24:3","25","75","3","9","10","40","30","120","32","19","[""Other""]","Yes","Female","2532330","758","i","learn","","","learn_trial","26.6667","30","out","1","0","","","","","","","","","","","","","","","","","","","","",""
"","","","","","canvas-keyboard-response","235","517525","0.0-12.0-3.44","2d_cat_multi_stim_exp1","2022-4-13","10:24:3","25","75","3","9","10","40","30","120","32","19","[""Other""]","Yes","Female","2532330","null","null","learn_feedback","","","learn_feedback","26.6667","30","out","","","","","","","","","","","","","","","","","","","","","","",""
"","","","","","canvas-keyboard-response","236","517586","0.0-12.0-4.44","2d_cat_multi_stim_exp1","2022-4-13","10:24:3","25","75","3","9","10","40","30","120","32","19","[""Other""]","Yes","Female","2532330","null","null","","","","clear_screen","","","","","","","","","","","","","","","","","","","","","","","","","",""
"","","","","","canvas-keyboard-response","237","518096","0.0-12.0-0.45","2d_cat_multi_stim_exp1","2022-4-13","10:24:3","25","75","3","9","10","40","30","120","32","19","[""Other""]","Yes","Female","2532330","null","null","","","","fixation","","","","","","","","","","","","","","","","","","","","","","","","","",""
"","","","","","canvas-keyboard-response","238","518610","0.0-12.0-1.45","2d_cat_multi_stim_exp1","2022-4-13","10:24:3","25","75","3","9","10","40","30","120","32","19","[""Other""]","Yes","Female","2532330","null","null","","","","clear_screen","","","","","","","","","","","","","","","","","","","","","","","","","",""
"","","","","","canvas-keyboard-response","239","519887","0.0-12.0-2.45","2d_cat_multi_stim_exp1","2022-4-13","10:24:3","25","75","3","9","10","40","30","120","32","19","[""Other""]","Yes","Female","2532330","1267","i","learn","","","learn_trial","36.6667","60","out","1","0","","","","","","","","","","","","","","","","","","","","",""
"","","","","","canvas-keyboard-response","240","520393","0.0-12.0-3.45","2d_cat_multi_stim_exp1","2022-4-13","10:24:3","25","75","3","9","10","40","30","120","32","19","[""Other""]","Yes","Female","2532330","null","null","learn_feedback","","","learn_feedback","36.6667","60","out","","","","","","","","","","","","","","","","","","","","","","",""
"","","","","","canvas-keyboard-response","241","520452","0.0-12.0-4.45","2d_cat_multi_stim_exp1","2022-4-13","10:24:3","25","75","3","9","10","40","30","120","32","19","[""Other""]","Yes","Female","2532330","null","null","","","","clear_screen","","","","","","","","","","","","","","","","","","","","","","","","","",""
"","","","","","canvas-keyboard-response","242","520963","0.0-12.0-0.46","2d_cat_multi_stim_exp1","2022-4-13","10:24:3","25","75","3","9","10","40","30","120","32","19","[""Other""]","Yes","Female","2532330","null","null","","","","fixation","","","","","","","","","","","","","","","","","","","","","","","","","",""
"","","","","","canvas-keyboard-response","243","521478","0.0-12.0-1.46","2d_cat_multi_stim_exp1","2022-4-13","10:24:3","25","75","3","9","10","40","30","120","32","19","[""Other""]","Yes","Female","2532330","null","null","","","","clear_screen","","","","","","","","","","","","","","","","","","","","","","","","","",""
"","","","","","canvas-keyboard-response","244","522797","0.0-12.0-2.46","2d_cat_multi_stim_exp1","2022-4-13","10:24:3","25","75","3","9","10","40","30","120","32","19","[""Other""]","Yes","Female","2532330","1308","u","learn","","","learn_trial","25","75","in","1","1","","","","","","","","","","","","","","","","","","","","",""
"","","","","","canvas-keyboard-response","245","523312","0.0-12.0-3.46","2d_cat_multi_stim_exp1","2022-4-13","10:24:3","25","75","3","9","10","40","30","120","32","19","[""Other""]","Yes","Female","2532330","null","null","learn_feedback","","","learn_feedback","25","75","in","","","","","","","","","","","","","","","","","","","","","","",""
"","","","","","canvas-keyboard-response","246","523372","0.0-12.0-4.46","2d_cat_multi_stim_exp1","2022-4-13","10:24:3","25","75","3","9","10","40","30","120","32","19","[""Other""]","Yes","Female","2532330","null","null","","","","clear_screen","","","","","","","","","","","","","","","","","","","","","","","","","",""
"","","","","","canvas-keyboard-response","247","523882","0.0-12.0-0.47","2d_cat_multi_stim_exp1","2022-4-13","10:24:3","25","75","3","9","10","40","30","120","32","19","[""Other""]","Yes","Female","2532330","null","null","","","","fixation","","","","","","","","","","","","","","","","","","","","","","","","","",""
"","","","","","canvas-keyboard-response","248","524394","0.0-12.0-1.47","2d_cat_multi_stim_exp1","2022-4-13","10:24:3","25","75","3","9","10","40","30","120","32","19","[""Other""]","Yes","Female","2532330","null","null","","","","clear_screen","","","","","","","","","","","","","","","","","","","","","","","","","",""
"","","","","","canvas-keyboard-response","249","526174","0.0-12.0-2.47","2d_cat_multi_stim_exp1","2022-4-13","10:24:3","25","75","3","9","10","40","30","120","32","19","[""Other""]","Yes","Female","2532330","1770","i","learn","","","learn_trial","16.6667","60","out","1","0","","","","","","","","","","","","","","","","","","","","",""
"","","","","","canvas-keyboard-response","250","526685","0.0-12.0-3.47","2d_cat_multi_stim_exp1","2022-4-13","10:24:3","25","75","3","9","10","40","30","120","32","19","[""Other""]","Yes","Female","2532330","null","null","learn_feedback","","","learn_feedback","16.6667","60","out","","","","","","","","","","","","","","","","","","","","","","",""
"","","","","","canvas-keyboard-response","251","526749","0.0-12.0-4.47","2d_cat_multi_stim_exp1","2022-4-13","10:24:3","25","75","3","9","10","40","30","120","32","19","[""Other""]","Yes","Female","2532330","null","null","","","","clear_screen","","","","","","","","","","","","","","","","","","","","","","","","","",""
"","","","","","canvas-keyboard-response","252","527257","0.0-12.0-0.48","2d_cat_multi_stim_exp1","2022-4-13","10:24:3","25","75","3","9","10","40","30","120","32","19","[""Other""]","Yes","Female","2532330","null","null","","","","fixation","","","","","","","","","","","","","","","","","","","","","","","","","",""
"","","","","","canvas-keyboard-response","253","527771","0.0-12.0-1.48","2d_cat_multi_stim_exp1","2022-4-13","10:24:3","25","75","3","9","10","40","30","120","32","19","[""Other""]","Yes","Female","2532330","null","null","","","","clear_screen","","","","","","","","","","","","","","","","","","","","","","","","","",""
"","","","","","canvas-keyboard-response","254","531966","0.0-12.0-2.48","2d_cat_multi_stim_exp1","2022-4-13","10:24:3","25","75","3","9","10","40","30","120","32","19","[""Other""]","Yes","Female","2532330","4184","u","learn","","","learn_trial","23.8209","83.2757","in","1","1","","","","","","","","","","","","","","","","","","","","",""
"","","","","","canvas-keyboard-response","255","532477","0.0-12.0-3.48","2d_cat_multi_stim_exp1","2022-4-13","10:24:3","25","75","3","9","10","40","30","120","32","19","[""Other""]","Yes","Female","2532330","null","null","learn_feedback","","","learn_feedback","23.8209","83.2757","in","","","","","","","","","","","","","","","","","","","","","","",""
"","","","","","canvas-keyboard-response","256","532536","0.0-12.0-4.48","2d_cat_multi_stim_exp1","2022-4-13","10:24:3","25","75","3","9","10","40","30","120","32","19","[""Other""]","Yes","Female","2532330","null","null","","","","clear_screen","","","","","","","","","","","","","","","","","","","","","","","","","",""
"","","","","","canvas-keyboard-response","257","533046","0.0-12.0-0.49","2d_cat_multi_stim_exp1","2022-4-13","10:24:3","25","75","3","9","10","40","30","120","32","19","[""Other""]","Yes","Female","2532330","null","null","","","","fixation","","","","","","","","","","","","","","","","","","","","","","","","","",""
"","","","","","canvas-keyboard-response","258","533555","0.0-12.0-1.49","2d_cat_multi_stim_exp1","2022-4-13","10:24:3","25","75","3","9","10","40","30","120","32","19","[""Other""]","Yes","Female","2532330","null","null","","","","clear_screen","","","","","","","","","","","","","","","","","","","","","","","","","",""
"","","","","","canvas-keyboard-response","259","534431","0.0-12.0-2.49","2d_cat_multi_stim_exp1","2022-4-13","10:24:3","25","75","3","9","10","40","30","120","32","19","[""Other""]","Yes","Female","2532330","867","i","learn","","","learn_trial","33.3333","50","out","1","0","","","","","","","","","","","","","","","","","","","","",""
"","","","","","canvas-keyboard-response","260","534942","0.0-12.0-3.49","2d_cat_multi_stim_exp1","2022-4-13","10:24:3","25","75","3","9","10","40","30","120","32","19","[""Other""]","Yes","Female","2532330","null","null","learn_feedback","","","learn_feedback","33.3333","50","out","","","","","","","","","","","","","","","","","","","","","","",""
"","","","","","canvas-keyboard-response","261","535004","0.0-12.0-4.49","2d_cat_multi_stim_exp1","2022-4-13","10:24:3","25","75","3","9","10","40","30","120","32","19","[""Other""]","Yes","Female","2532330","null","null","","","","clear_screen","","","","","","","","","","","","","","","","","","","","","","","","","",""
"","","","","","canvas-keyboard-response","262","535517","0.0-12.0-0.50","2d_cat_multi_stim_exp1","2022-4-13","10:24:3","25","75","3","9","10","40","30","120","32","19","[""Other""]","Yes","Female","2532330","null","null","","","","fixation","","","","","","","","","","","","","","","","","","","","","","","","","",""
"","","","","","canvas-keyboard-response","263","536028","0.0-12.0-1.50","2d_cat_multi_stim_exp1","2022-4-13","10:24:3","25","75","3","9","10","40","30","120","32","19","[""Other""]","Yes","Female","2532330","null","null","","","","clear_screen","","","","","","","","","","","","","","","","","","","","","","","","","",""
"","","","","","canvas-keyboard-response","264","536974","0.0-12.0-2.50","2d_cat_multi_stim_exp1","2022-4-13","10:24:3","25","75","3","9","10","40","30","120","32","19","[""Other""]","Yes","Female","2532330","938","u","learn","","","learn_trial","25","75","in","1","1","","","","","","","","","","","","","","","","","","","","",""
"","","","","","canvas-keyboard-response","265","537483","0.0-12.0-3.50","2d_cat_multi_stim_exp1","2022-4-13","10:24:3","25","75","3","9","10","40","30","120","32","19","[""Other""]","Yes","Female","2532330","null","null","learn_feedback","","","learn_feedback","25","75","in","","","","","","","","","","","","","","","","","","","","","","",""
"","","","","","canvas-keyboard-response","266","537543","0.0-12.0-4.50","2d_cat_multi_stim_exp1","2022-4-13","10:24:3","25","75","3","9","10","40","30","120","32","19","[""Other""]","Yes","Female","2532330","null","null","","","","clear_screen","","","","","","","","","","","","","","","","","","","","","","","","","",""
"","","","","","canvas-keyboard-response","267","538052","0.0-12.0-0.51","2d_cat_multi_stim_exp1","2022-4-13","10:24:3","25","75","3","9","10","40","30","120","32","19","[""Other""]","Yes","Female","2532330","null","null","","","","fixation","","","","","","","","","","","","","","","","","","","","","","","","","",""
"","","","","","canvas-keyboard-response","268","538566","0.0-12.0-1.51","2d_cat_multi_stim_exp1","2022-4-13","10:24:3","25","75","3","9","10","40","30","120","32","19","[""Other""]","Yes","Female","2532330","null","null","","","","clear_screen","","","","","","","","","","","","","","","","","","","","","","","","","",""
"","","","","","canvas-keyboard-response","269","539854","0.0-12.0-2.51","2d_cat_multi_stim_exp1","2022-4-13","10:24:3","25","75","3","9","10","40","30","120","32","19","[""Other""]","Yes","Female","2532330","1278","i","learn","","","learn_trial","20","40","out","1","0","","","","","","","","","","","","","","","","","","","","",""
"","","","","","canvas-keyboard-response","270","540364","0.0-12.0-3.51","2d_cat_multi_stim_exp1","2022-4-13","10:24:3","25","75","3","9","10","40","30","120","32","19","[""Other""]","Yes","Female","2532330","null","null","learn_feedback","","","learn_feedback","20","40","out","","","","","","","","","","","","","","","","","","","","","","",""
"","","","","","canvas-keyboard-response","271","540423","0.0-12.0-4.51","2d_cat_multi_stim_exp1","2022-4-13","10:24:3","25","75","3","9","10","40","30","120","32","19","[""Other""]","Yes","Female","2532330","null","null","","","","clear_screen","","","","","","","","","","","","","","","","","","","","","","","","","",""
"","","","","","canvas-keyboard-response","272","540936","0.0-12.0-0.52","2d_cat_multi_stim_exp1","2022-4-13","10:24:3","25","75","3","9","10","40","30","120","32","19","[""Other""]","Yes","Female","2532330","null","null","","","","fixation","","","","","","","","","","","","","","","","","","","","","","","","","",""
"","","","","","canvas-keyboard-response","273","541447","0.0-12.0-1.52","2d_cat_multi_stim_exp1","2022-4-13","10:24:3","25","75","3","9","10","40","30","120","32","19","[""Other""]","Yes","Female","2532330","null","null","","","","clear_screen","","","","","","","","","","","","","","","","","","","","","","","","","",""
"","","","","","canvas-keyboard-response","274","542246","0.0-12.0-2.52","2d_cat_multi_stim_exp1","2022-4-13","10:24:3","25","75","3","9","10","40","30","120","32","19","[""Other""]","Yes","Female","2532330","787","u","learn","","","learn_trial","25.9271","83.5595","in","1","1","","","","","","","","","","","","","","","","","","","","",""
"","","","","","canvas-keyboard-response","275","542757","0.0-12.0-3.52","2d_cat_multi_stim_exp1","2022-4-13","10:24:3","25","75","3","9","10","40","30","120","32","19","[""Other""]","Yes","Female","2532330","null","null","learn_feedback","","","learn_feedback","25.9271","83.5595","in","","","","","","","","","","","","","","","","","","","","","","",""
"","","","","","canvas-keyboard-response","276","542820","0.0-12.0-4.52","2d_cat_multi_stim_exp1","2022-4-13","10:24:3","25","75","3","9","10","40","30","120","32","19","[""Other""]","Yes","Female","2532330","null","null","","","","clear_screen","","","","","","","","","","","","","","","","","","","","","","","","","",""
"","","","","","canvas-keyboard-response","277","543330","0.0-12.0-0.53","2d_cat_multi_stim_exp1","2022-4-13","10:24:3","25","75","3","9","10","40","30","120","32","19","[""Other""]","Yes","Female","2532330","null","null","","","","fixation","","","","","","","","","","","","","","","","","","","","","","","","","",""
"","","","","","canvas-keyboard-response","278","543840","0.0-12.0-1.53","2d_cat_multi_stim_exp1","2022-4-13","10:24:3","25","75","3","9","10","40","30","120","32","19","[""Other""]","Yes","Female","2532330","null","null","","","","clear_screen","","","","","","","","","","","","","","","","","","","","","","","","","",""
"","","","","","canvas-keyboard-response","279","546542","0.0-12.0-2.53","2d_cat_multi_stim_exp1","2022-4-13","10:24:3","25","75","3","9","10","40","30","120","32","19","[""Other""]","Yes","Female","2532330","2690","u","learn","","","learn_trial","25","75","in","1","1","","","","","","","","","","","","","","","","","","","","",""
"","","","","","canvas-keyboard-response","280","547052","0.0-12.0-3.53","2d_cat_multi_stim_exp1","2022-4-13","10:24:3","25","75","3","9","10","40","30","120","32","19","[""Other""]","Yes","Female","2532330","null","null","learn_feedback","","","learn_feedback","25","75","in","","","","","","","","","","","","","","","","","","","","","","",""
"","","","","","canvas-keyboard-response","281","547111","0.0-12.0-4.53","2d_cat_multi_stim_exp1","2022-4-13","10:24:3","25","75","3","9","10","40","30","120","32","19","[""Other""]","Yes","Female","2532330","null","null","","","","clear_screen","","","","","","","","","","","","","","","","","","","","","","","","","",""
"","","","","","canvas-keyboard-response","282","547621","0.0-12.0-0.54","2d_cat_multi_stim_exp1","2022-4-13","10:24:3","25","75","3","9","10","40","30","120","32","19","[""Other""]","Yes","Female","2532330","null","null","","","","fixation","","","","","","","","","","","","","","","","","","","","","","","","","",""
"","","","","","canvas-keyboard-response","283","548131","0.0-12.0-1.54","2d_cat_multi_stim_exp1","2022-4-13","10:24:3","25","75","3","9","10","40","30","120","32","19","[""Other""]","Yes","Female","2532330","null","null","","","","clear_screen","","","","","","","","","","","","","","","","","","","","","","","","","",""
"","","","","","canvas-keyboard-response","284","548846","0.0-12.0-2.54","2d_cat_multi_stim_exp1","2022-4-13","10:24:3","25","75","3","9","10","40","30","120","32","19","[""Other""]","Yes","Female","2532330","705","u","learn","","","learn_trial","25.4027","66.0815","in","1","1","","","","","","","","","","","","","","","","","","","","",""
"","","","","","canvas-keyboard-response","285","549358","0.0-12.0-3.54","2d_cat_multi_stim_exp1","2022-4-13","10:24:3","25","75","3","9","10","40","30","120","32","19","[""Other""]","Yes","Female","2532330","null","null","learn_feedback","","","learn_feedback","25.4027","66.0815","in","","","","","","","","","","","","","","","","","","","","","","",""
"","","","","","canvas-keyboard-response","286","549422","0.0-12.0-4.54","2d_cat_multi_stim_exp1","2022-4-13","10:24:3","25","75","3","9","10","40","30","120","32","19","[""Other""]","Yes","Female","2532330","null","null","","","","clear_screen","","","","","","","","","","","","","","","","","","","","","","","","","",""
"","","","","","canvas-keyboard-response","287","549934","0.0-12.0-0.55","2d_cat_multi_stim_exp1","2022-4-13","10:24:3","25","75","3","9","10","40","30","120","32","19","[""Other""]","Yes","Female","2532330","null","null","","","","fixation","","","","","","","","","","","","","","","","","","","","","","","","","",""
"","","","","","canvas-keyboard-response","288","550446","0.0-12.0-1.55","2d_cat_multi_stim_exp1","2022-4-13","10:24:3","25","75","3","9","10","40","30","120","32","19","[""Other""]","Yes","Female","2532330","null","null","","","","clear_screen","","","","","","","","","","","","","","","","","","","","","","","","","",""
"","","","","","canvas-keyboard-response","289","551190","0.0-12.0-2.55","2d_cat_multi_stim_exp1","2022-4-13","10:24:3","25","75","3","9","10","40","30","120","32","19","[""Other""]","Yes","Female","2532330","735","u","learn","","","learn_trial","26.4216","82.9254","in","1","1","","","","","","","","","","","","","","","","","","","","",""
"","","","","","canvas-keyboard-response","290","551699","0.0-12.0-3.55","2d_cat_multi_stim_exp1","2022-4-13","10:24:3","25","75","3","9","10","40","30","120","32","19","[""Other""]","Yes","Female","2532330","null","null","learn_feedback","","","learn_feedback","26.4216","82.9254","in","","","","","","","","","","","","","","","","","","","","","","",""
"","","","","","canvas-keyboard-response","291","551762","0.0-12.0-4.55","2d_cat_multi_stim_exp1","2022-4-13","10:24:3","25","75","3","9","10","40","30","120","32","19","[""Other""]","Yes","Female","2532330","null","null","","","","clear_screen","","","","","","","","","","","","","","","","","","","","","","","","","",""
"","","","","","canvas-keyboard-response","292","552271","0.0-12.0-0.56","2d_cat_multi_stim_exp1","2022-4-13","10:24:3","25","75","3","9","10","40","30","120","32","19","[""Other""]","Yes","Female","2532330","null","null","","","","fixation","","","","","","","","","","","","","","","","","","","","","","","","","",""
"","","","","","canvas-keyboard-response","293","552785","0.0-12.0-1.56","2d_cat_multi_stim_exp1","2022-4-13","10:24:3","25","75","3","9","10","40","30","120","32","19","[""Other""]","Yes","Female","2532330","null","null","","","","clear_screen","","","","","","","","","","","","","","","","","","","","","","","","","",""
"","","","","","canvas-keyboard-response","294","553678","0.0-12.0-2.56","2d_cat_multi_stim_exp1","2022-4-13","10:24:3","25","75","3","9","10","40","30","120","32","19","[""Other""]","Yes","Female","2532330","883","u","learn","","","learn_trial","33.3333","70","out","0","1","","","","","","","","","","","","","","","","","","","","",""
"","","","","","canvas-keyboard-response","295","554687","0.0-12.0-3.56","2d_cat_multi_stim_exp1","2022-4-13","10:24:3","25","75","3","9","10","40","30","120","32","19","[""Other""]","Yes","Female","2532330","null","null","learn_feedback","","","learn_feedback","33.3333","70","out","","","","","","","","","","","","","","","","","","","","","","",""
"","","","","","canvas-keyboard-response","296","554747","0.0-12.0-4.56","2d_cat_multi_stim_exp1","2022-4-13","10:24:3","25","75","3","9","10","40","30","120","32","19","[""Other""]","Yes","Female","2532330","null","null","","","","clear_screen","","","","","","","","","","","","","","","","","","","","","","","","","",""
