"success","timeout","failed_images","failed_audio","failed_video","trial_type","trial_index","time_elapsed","internal_node_id","exp_name","date","time","angle_mean_in","radius_mean_in","angle_sd_in","radius_sd_in","angle_min_out","angle_max_out","radius_min_out","radius_max_out","sub_n","age","race","ethnicity","gender","exp_duration","rt","response","exp_trial_type","stimulus","view_history","screen_id","angle","radius","distribution","choice","correct","order","angle_a","radius_a","angle_b","radius_b","angle_c","radius_c","jkl_correct","transfer_trial_type","choice_set","abc_correct","tc_correct","tc_angle","tdc_a","tdc_b","tdc_c","pair","category_a","category_b","category_c","question_order"
"true","false","[]","[]","[]","preload","0","43","0.0-0.0","2d_cat_multi_stim_exp1","2022-4-14","14:54:15","25","75","3","9","10","40","30","120","39","21","[""Asian""]","No","Female","1855557","","","","","","","","","","","","","","","","","","","","","","","","","","","","","","","",""
"","","","","","survey-html-form","1","3691","0.0-1.0","2d_cat_multi_stim_exp1","2022-4-14","14:54:15","25","75","3","9","10","40","30","120","39","21","[""Asian""]","No","Female","1855557","3618","{""response"":""39""}","enter-sub-number","","","","","","","","","","","","","","","","","","","","","","","","","","","","",""
"true","","","","","fullscreen","2","5684","0.0-2.0","2d_cat_multi_stim_exp1","2022-4-14","14:54:15","25","75","3","9","10","40","30","120","39","21","[""Asian""]","No","Female","1855557","","","","","","","","","","","","","","","","","","","","","","","","","","","","","","","",""
"","","","","","image-button-response","3","71172","0.0-3.0","2d_cat_multi_stim_exp1","2022-4-14","14:54:15","25","75","3","9","10","40","30","120","39","21","[""Asian""]","No","Female","1855557","65481","0","","consent.png","","","","","","","","","","","","","","","","","","","","","","","","","","","",""
"","","","","","html-button-response","4","105547","0.0-4.0","2d_cat_multi_stim_exp1","2022-4-14","14:54:15","25","75","3","9","10","40","30","120","39","21","[""Asian""]","No","Female","1855557","34370","0","","<div style= ""font-size:25px;"" <p> <strong> Welcome to the experiment! </strong><br> <p style=""color:#8B0000; font-size:25px;""><strong> Please do NOT exit full screen until you are done with the experiment. </strong> </p><p style=""font-size:25px;color:#8B0000;""> <strong> The experiment will be canceled and your data will be lost <br> if you try to go back or refresh the page at any point during the experiment.</strong> </p><br><p> <strong> Thanks in advance for your contribution to our research! </strong></p>","","","","","","","","","","","","","","","","","","","","","","","","","","","",""
"","","","","","instructions","5","182619","0.0-5.0","2d_cat_multi_stim_exp1","2022-4-14","14:54:15","25","75","3","9","10","40","30","120","39","21","[""Asian""]","No","Female","1855557","77066","","","","[{""page_index"":0,""viewing_time"":5130},{""page_index"":1,""viewing_time"":3607},{""page_index"":2,""viewing_time"":9521},{""page_index"":3,""viewing_time"":58808}]","instructions_1","","","","","","","","","","","","","","","","","","","","","","","","","",""
"","","","","","instructions","6","185595","0.0-6.0","2d_cat_multi_stim_exp1","2022-4-14","14:54:15","25","75","3","9","10","40","30","120","39","21","[""Asian""]","No","Female","1855557","2972","","","","[{""page_index"":0,""viewing_time"":2971}]","Click to see the kinds of turtles that will appear in the study.","","","","","","","","","","","","","","","","","","","","","","","","","",""
"","","","","","canvas-keyboard-response","7","200614","0.0-7.0","2d_cat_multi_stim_exp1","2022-4-14","14:54:15","25","75","3","9","10","40","30","120","39","21","[""Asian""]","No","Female","1855557","null","null","","","","demo_range","","","","","","","","","","","","","","","","","","","","","","","","","",""
"","","","","","instructions","8","203282","0.0-8.0","2d_cat_multi_stim_exp1","2022-4-14","14:54:15","25","75","3","9","10","40","30","120","39","21","[""Asian""]","No","Female","1855557","2167","","","","[{""page_index"":0,""viewing_time"":2167}]","Click to see some turtles in the subspecies.","","","","","","","","","","","","","","","","","","","","","","","","","",""
"","","","","","canvas-keyboard-response","9","218301","0.0-9.0","2d_cat_multi_stim_exp1","2022-4-14","14:54:15","25","75","3","9","10","40","30","120","39","21","[""Asian""]","No","Female","1855557","null","null","","","","demo_in","","","","","","","","","","","","","","","","","","","","","","","","","",""
"","","","","","instructions","10","268378","0.0-10.0","2d_cat_multi_stim_exp1","2022-4-14","14:54:15","25","75","3","9","10","40","30","120","39","21","[""Asian""]","No","Female","1855557","49575","","","","[{""page_index"":0,""viewing_time"":18679},{""page_index"":1,""viewing_time"":25136},{""page_index"":2,""viewing_time"":5760}]","instructions_2","","","","","","","","","","","","","","","","","","","","","","","","","",""
"","","","","","instructions","11","269530","0.0-11.0","2d_cat_multi_stim_exp1","2022-4-14","14:54:15","25","75","3","9","10","40","30","120","39","21","[""Asian""]","No","Female","1855557","1150","","","","[{""page_index"":0,""viewing_time"":1150}]","Click to begin the first phase of the experiment.","","","","","","","","","","","","","","","","","","","","","","","","","",""
"","","","","","canvas-keyboard-response","12","270040","0.0-12.0-0.0","2d_cat_multi_stim_exp1","2022-4-14","14:54:15","25","75","3","9","10","40","30","120","39","21","[""Asian""]","No","Female","1855557","null","null","","","","fixation","","","","","","","","","","","","","","","","","","","","","","","","","",""
"","","","","","canvas-keyboard-response","13","270549","0.0-12.0-1.0","2d_cat_multi_stim_exp1","2022-4-14","14:54:15","25","75","3","9","10","40","30","120","39","21","[""Asian""]","No","Female","1855557","null","null","","","","clear_screen","","","","","","","","","","","","","","","","","","","","","","","","","",""
"","","","","","canvas-keyboard-response","14","273843","0.0-12.0-2.0","2d_cat_multi_stim_exp1","2022-4-14","14:54:15","25","75","3","9","10","40","30","120","39","21","[""Asian""]","No","Female","1855557","3282","u","learn","","","learn_trial","26.8705","82.0365","in","1","1","","","","","","","","","","","","","","","","","","","","",""
"","","","","","canvas-keyboard-response","15","274360","0.0-12.0-3.0","2d_cat_multi_stim_exp1","2022-4-14","14:54:15","25","75","3","9","10","40","30","120","39","21","[""Asian""]","No","Female","1855557","null","null","learn_feedback","","","learn_feedback","26.8705","82.0365","in","","","","","","","","","","","","","","","","","","","","","","",""
"","","","","","canvas-keyboard-response","16","274418","0.0-12.0-4.0","2d_cat_multi_stim_exp1","2022-4-14","14:54:15","25","75","3","9","10","40","30","120","39","21","[""Asian""]","No","Female","1855557","null","null","","","","clear_screen","","","","","","","","","","","","","","","","","","","","","","","","","",""
"","","","","","canvas-keyboard-response","17","274927","0.0-12.0-0.1","2d_cat_multi_stim_exp1","2022-4-14","14:54:15","25","75","3","9","10","40","30","120","39","21","[""Asian""]","No","Female","1855557","null","null","","","","fixation","","","","","","","","","","","","","","","","","","","","","","","","","",""
"","","","","","canvas-keyboard-response","18","275435","0.0-12.0-1.1","2d_cat_multi_stim_exp1","2022-4-14","14:54:15","25","75","3","9","10","40","30","120","39","21","[""Asian""]","No","Female","1855557","null","null","","","","clear_screen","","","","","","","","","","","","","","","","","","","","","","","","","",""
"","","","","","canvas-keyboard-response","19","276386","0.0-12.0-2.1","2d_cat_multi_stim_exp1","2022-4-14","14:54:15","25","75","3","9","10","40","30","120","39","21","[""Asian""]","No","Female","1855557","941","i","learn","","","learn_trial","16.6667","40","out","0","1","","","","","","","","","","","","","","","","","","","","",""
"","","","","","canvas-keyboard-response","20","276897","0.0-12.0-3.1","2d_cat_multi_stim_exp1","2022-4-14","14:54:15","25","75","3","9","10","40","30","120","39","21","[""Asian""]","No","Female","1855557","null","null","learn_feedback","","","learn_feedback","16.6667","40","out","","","","","","","","","","","","","","","","","","","","","","",""
"","","","","","canvas-keyboard-response","21","276955","0.0-12.0-4.1","2d_cat_multi_stim_exp1","2022-4-14","14:54:15","25","75","3","9","10","40","30","120","39","21","[""Asian""]","No","Female","1855557","null","null","","","","clear_screen","","","","","","","","","","","","","","","","","","","","","","","","","",""
"","","","","","canvas-keyboard-response","22","277464","0.0-12.0-0.2","2d_cat_multi_stim_exp1","2022-4-14","14:54:15","25","75","3","9","10","40","30","120","39","21","[""Asian""]","No","Female","1855557","null","null","","","","fixation","","","","","","","","","","","","","","","","","","","","","","","","","",""
"","","","","","canvas-keyboard-response","23","277972","0.0-12.0-1.2","2d_cat_multi_stim_exp1","2022-4-14","14:54:15","25","75","3","9","10","40","30","120","39","21","[""Asian""]","No","Female","1855557","null","null","","","","clear_screen","","","","","","","","","","","","","","","","","","","","","","","","","",""
"","","","","","canvas-keyboard-response","24","279002","0.0-12.0-2.2","2d_cat_multi_stim_exp1","2022-4-14","14:54:15","25","75","3","9","10","40","30","120","39","21","[""Asian""]","No","Female","1855557","1021","i","learn","","","learn_trial","36.6667","50","out","0","1","","","","","","","","","","","","","","","","","","","","",""
"","","","","","canvas-keyboard-response","25","279512","0.0-12.0-3.2","2d_cat_multi_stim_exp1","2022-4-14","14:54:15","25","75","3","9","10","40","30","120","39","21","[""Asian""]","No","Female","1855557","null","null","learn_feedback","","","learn_feedback","36.6667","50","out","","","","","","","","","","","","","","","","","","","","","","",""
"","","","","","canvas-keyboard-response","26","279570","0.0-12.0-4.2","2d_cat_multi_stim_exp1","2022-4-14","14:54:15","25","75","3","9","10","40","30","120","39","21","[""Asian""]","No","Female","1855557","null","null","","","","clear_screen","","","","","","","","","","","","","","","","","","","","","","","","","",""
"","","","","","canvas-keyboard-response","27","280079","0.0-12.0-0.3","2d_cat_multi_stim_exp1","2022-4-14","14:54:15","25","75","3","9","10","40","30","120","39","21","[""Asian""]","No","Female","1855557","null","null","","","","fixation","","","","","","","","","","","","","","","","","","","","","","","","","",""
"","","","","","canvas-keyboard-response","28","280587","0.0-12.0-1.3","2d_cat_multi_stim_exp1","2022-4-14","14:54:15","25","75","3","9","10","40","30","120","39","21","[""Asian""]","No","Female","1855557","null","null","","","","clear_screen","","","","","","","","","","","","","","","","","","","","","","","","","",""
"","","","","","canvas-keyboard-response","29","281586","0.0-12.0-2.3","2d_cat_multi_stim_exp1","2022-4-14","14:54:15","25","75","3","9","10","40","30","120","39","21","[""Asian""]","No","Female","1855557","991","i","learn","","","learn_trial","10","120","out","0","1","","","","","","","","","","","","","","","","","","","","",""
"","","","","","canvas-keyboard-response","30","282097","0.0-12.0-3.3","2d_cat_multi_stim_exp1","2022-4-14","14:54:15","25","75","3","9","10","40","30","120","39","21","[""Asian""]","No","Female","1855557","null","null","learn_feedback","","","learn_feedback","10","120","out","","","","","","","","","","","","","","","","","","","","","","",""
"","","","","","canvas-keyboard-response","31","282157","0.0-12.0-4.3","2d_cat_multi_stim_exp1","2022-4-14","14:54:15","25","75","3","9","10","40","30","120","39","21","[""Asian""]","No","Female","1855557","null","null","","","","clear_screen","","","","","","","","","","","","","","","","","","","","","","","","","",""
"","","","","","canvas-keyboard-response","32","282667","0.0-12.0-0.4","2d_cat_multi_stim_exp1","2022-4-14","14:54:15","25","75","3","9","10","40","30","120","39","21","[""Asian""]","No","Female","1855557","null","null","","","","fixation","","","","","","","","","","","","","","","","","","","","","","","","","",""
"","","","","","canvas-keyboard-response","33","283177","0.0-12.0-1.4","2d_cat_multi_stim_exp1","2022-4-14","14:54:15","25","75","3","9","10","40","30","120","39","21","[""Asian""]","No","Female","1855557","null","null","","","","clear_screen","","","","","","","","","","","","","","","","","","","","","","","","","",""
"","","","","","canvas-keyboard-response","34","284034","0.0-12.0-2.4","2d_cat_multi_stim_exp1","2022-4-14","14:54:15","25","75","3","9","10","40","30","120","39","21","[""Asian""]","No","Female","1855557","848","i","learn","","","learn_trial","20","30","out","0","1","","","","","","","","","","","","","","","","","","","","",""
"","","","","","canvas-keyboard-response","35","284544","0.0-12.0-3.4","2d_cat_multi_stim_exp1","2022-4-14","14:54:15","25","75","3","9","10","40","30","120","39","21","[""Asian""]","No","Female","1855557","null","null","learn_feedback","","","learn_feedback","20","30","out","","","","","","","","","","","","","","","","","","","","","","",""
"","","","","","canvas-keyboard-response","36","284602","0.0-12.0-4.4","2d_cat_multi_stim_exp1","2022-4-14","14:54:15","25","75","3","9","10","40","30","120","39","21","[""Asian""]","No","Female","1855557","null","null","","","","clear_screen","","","","","","","","","","","","","","","","","","","","","","","","","",""
"","","","","","canvas-keyboard-response","37","285111","0.0-12.0-0.5","2d_cat_multi_stim_exp1","2022-4-14","14:54:15","25","75","3","9","10","40","30","120","39","21","[""Asian""]","No","Female","1855557","null","null","","","","fixation","","","","","","","","","","","","","","","","","","","","","","","","","",""
"","","","","","canvas-keyboard-response","38","285621","0.0-12.0-1.5","2d_cat_multi_stim_exp1","2022-4-14","14:54:15","25","75","3","9","10","40","30","120","39","21","[""Asian""]","No","Female","1855557","null","null","","","","clear_screen","","","","","","","","","","","","","","","","","","","","","","","","","",""
"","","","","","canvas-keyboard-response","39","288178","0.0-12.0-2.5","2d_cat_multi_stim_exp1","2022-4-14","14:54:15","25","75","3","9","10","40","30","120","39","21","[""Asian""]","No","Female","1855557","2548","i","learn","","","learn_trial","13.3333","60","out","0","1","","","","","","","","","","","","","","","","","","","","",""
"","","","","","canvas-keyboard-response","40","288688","0.0-12.0-3.5","2d_cat_multi_stim_exp1","2022-4-14","14:54:15","25","75","3","9","10","40","30","120","39","21","[""Asian""]","No","Female","1855557","null","null","learn_feedback","","","learn_feedback","13.3333","60","out","","","","","","","","","","","","","","","","","","","","","","",""
"","","","","","canvas-keyboard-response","41","288748","0.0-12.0-4.5","2d_cat_multi_stim_exp1","2022-4-14","14:54:15","25","75","3","9","10","40","30","120","39","21","[""Asian""]","No","Female","1855557","null","null","","","","clear_screen","","","","","","","","","","","","","","","","","","","","","","","","","",""
"","","","","","canvas-keyboard-response","42","289256","0.0-12.0-0.6","2d_cat_multi_stim_exp1","2022-4-14","14:54:15","25","75","3","9","10","40","30","120","39","21","[""Asian""]","No","Female","1855557","null","null","","","","fixation","","","","","","","","","","","","","","","","","","","","","","","","","",""
"","","","","","canvas-keyboard-response","43","289766","0.0-12.0-1.6","2d_cat_multi_stim_exp1","2022-4-14","14:54:15","25","75","3","9","10","40","30","120","39","21","[""Asian""]","No","Female","1855557","null","null","","","","clear_screen","","","","","","","","","","","","","","","","","","","","","","","","","",""
"","","","","","canvas-keyboard-response","44","290354","0.0-12.0-2.6","2d_cat_multi_stim_exp1","2022-4-14","14:54:15","25","75","3","9","10","40","30","120","39","21","[""Asian""]","No","Female","1855557","579","u","learn","","","learn_trial","16.6667","100","out","1","0","","","","","","","","","","","","","","","","","","","","",""
"","","","","","canvas-keyboard-response","45","291365","0.0-12.0-3.6","2d_cat_multi_stim_exp1","2022-4-14","14:54:15","25","75","3","9","10","40","30","120","39","21","[""Asian""]","No","Female","1855557","null","null","learn_feedback","","","learn_feedback","16.6667","100","out","","","","","","","","","","","","","","","","","","","","","","",""
"","","","","","canvas-keyboard-response","46","291423","0.0-12.0-4.6","2d_cat_multi_stim_exp1","2022-4-14","14:54:15","25","75","3","9","10","40","30","120","39","21","[""Asian""]","No","Female","1855557","null","null","","","","clear_screen","","","","","","","","","","","","","","","","","","","","","","","","","",""
"","","","","","canvas-keyboard-response","47","291932","0.0-12.0-0.7","2d_cat_multi_stim_exp1","2022-4-14","14:54:15","25","75","3","9","10","40","30","120","39","21","[""Asian""]","No","Female","1855557","null","null","","","","fixation","","","","","","","","","","","","","","","","","","","","","","","","","",""
"","","","","","canvas-keyboard-response","48","292440","0.0-12.0-1.7","2d_cat_multi_stim_exp1","2022-4-14","14:54:15","25","75","3","9","10","40","30","120","39","21","[""Asian""]","No","Female","1855557","null","null","","","","clear_screen","","","","","","","","","","","","","","","","","","","","","","","","","",""
"","","","","","canvas-keyboard-response","49","293602","0.0-12.0-2.7","2d_cat_multi_stim_exp1","2022-4-14","14:54:15","25","75","3","9","10","40","30","120","39","21","[""Asian""]","No","Female","1855557","1154","u","learn","","","learn_trial","16.6667","60","out","1","0","","","","","","","","","","","","","","","","","","","","",""
"","","","","","canvas-keyboard-response","50","294612","0.0-12.0-3.7","2d_cat_multi_stim_exp1","2022-4-14","14:54:15","25","75","3","9","10","40","30","120","39","21","[""Asian""]","No","Female","1855557","null","null","learn_feedback","","","learn_feedback","16.6667","60","out","","","","","","","","","","","","","","","","","","","","","","",""
"","","","","","canvas-keyboard-response","51","294670","0.0-12.0-4.7","2d_cat_multi_stim_exp1","2022-4-14","14:54:15","25","75","3","9","10","40","30","120","39","21","[""Asian""]","No","Female","1855557","null","null","","","","clear_screen","","","","","","","","","","","","","","","","","","","","","","","","","",""
"","","","","","canvas-keyboard-response","52","295178","0.0-12.0-0.8","2d_cat_multi_stim_exp1","2022-4-14","14:54:15","25","75","3","9","10","40","30","120","39","21","[""Asian""]","No","Female","1855557","null","null","","","","fixation","","","","","","","","","","","","","","","","","","","","","","","","","",""
"","","","","","canvas-keyboard-response","53","295686","0.0-12.0-1.8","2d_cat_multi_stim_exp1","2022-4-14","14:54:15","25","75","3","9","10","40","30","120","39","21","[""Asian""]","No","Female","1855557","null","null","","","","clear_screen","","","","","","","","","","","","","","","","","","","","","","","","","",""
"","","","","","canvas-keyboard-response","54","296611","0.0-12.0-2.8","2d_cat_multi_stim_exp1","2022-4-14","14:54:15","25","75","3","9","10","40","30","120","39","21","[""Asian""]","No","Female","1855557","916","u","learn","","","learn_trial","25","75","in","1","1","","","","","","","","","","","","","","","","","","","","",""
"","","","","","canvas-keyboard-response","55","297119","0.0-12.0-3.8","2d_cat_multi_stim_exp1","2022-4-14","14:54:15","25","75","3","9","10","40","30","120","39","21","[""Asian""]","No","Female","1855557","null","null","learn_feedback","","","learn_feedback","25","75","in","","","","","","","","","","","","","","","","","","","","","","",""
"","","","","","canvas-keyboard-response","56","297177","0.0-12.0-4.8","2d_cat_multi_stim_exp1","2022-4-14","14:54:15","25","75","3","9","10","40","30","120","39","21","[""Asian""]","No","Female","1855557","null","null","","","","clear_screen","","","","","","","","","","","","","","","","","","","","","","","","","",""
"","","","","","canvas-keyboard-response","57","297686","0.0-12.0-0.9","2d_cat_multi_stim_exp1","2022-4-14","14:54:15","25","75","3","9","10","40","30","120","39","21","[""Asian""]","No","Female","1855557","null","null","","","","fixation","","","","","","","","","","","","","","","","","","","","","","","","","",""
"","","","","","canvas-keyboard-response","58","298194","0.0-12.0-1.9","2d_cat_multi_stim_exp1","2022-4-14","14:54:15","25","75","3","9","10","40","30","120","39","21","[""Asian""]","No","Female","1855557","null","null","","","","clear_screen","","","","","","","","","","","","","","","","","","","","","","","","","",""
"","","","","","canvas-keyboard-response","59","298994","0.0-12.0-2.9","2d_cat_multi_stim_exp1","2022-4-14","14:54:15","25","75","3","9","10","40","30","120","39","21","[""Asian""]","No","Female","1855557","791","i","learn","","","learn_trial","16.6667","110","out","0","1","","","","","","","","","","","","","","","","","","","","",""
"","","","","","canvas-keyboard-response","60","299505","0.0-12.0-3.9","2d_cat_multi_stim_exp1","2022-4-14","14:54:15","25","75","3","9","10","40","30","120","39","21","[""Asian""]","No","Female","1855557","null","null","learn_feedback","","","learn_feedback","16.6667","110","out","","","","","","","","","","","","","","","","","","","","","","",""
"","","","","","canvas-keyboard-response","61","299564","0.0-12.0-4.9","2d_cat_multi_stim_exp1","2022-4-14","14:54:15","25","75","3","9","10","40","30","120","39","21","[""Asian""]","No","Female","1855557","null","null","","","","clear_screen","","","","","","","","","","","","","","","","","","","","","","","","","",""
"","","","","","canvas-keyboard-response","62","300070","0.0-12.0-0.10","2d_cat_multi_stim_exp1","2022-4-14","14:54:15","25","75","3","9","10","40","30","120","39","21","[""Asian""]","No","Female","1855557","null","null","","","","fixation","","","","","","","","","","","","","","","","","","","","","","","","","",""
"","","","","","canvas-keyboard-response","63","300579","0.0-12.0-1.10","2d_cat_multi_stim_exp1","2022-4-14","14:54:15","25","75","3","9","10","40","30","120","39","21","[""Asian""]","No","Female","1855557","null","null","","","","clear_screen","","","","","","","","","","","","","","","","","","","","","","","","","",""
"","","","","","canvas-keyboard-response","64","301651","0.0-12.0-2.10","2d_cat_multi_stim_exp1","2022-4-14","14:54:15","25","75","3","9","10","40","30","120","39","21","[""Asian""]","No","Female","1855557","1062","u","learn","","","learn_trial","26.6667","70","out","1","0","","","","","","","","","","","","","","","","","","","","",""
"","","","","","canvas-keyboard-response","65","302660","0.0-12.0-3.10","2d_cat_multi_stim_exp1","2022-4-14","14:54:15","25","75","3","9","10","40","30","120","39","21","[""Asian""]","No","Female","1855557","null","null","learn_feedback","","","learn_feedback","26.6667","70","out","","","","","","","","","","","","","","","","","","","","","","",""
"","","","","","canvas-keyboard-response","66","302718","0.0-12.0-4.10","2d_cat_multi_stim_exp1","2022-4-14","14:54:15","25","75","3","9","10","40","30","120","39","21","[""Asian""]","No","Female","1855557","null","null","","","","clear_screen","","","","","","","","","","","","","","","","","","","","","","","","","",""
"","","","","","canvas-keyboard-response","67","303226","0.0-12.0-0.11","2d_cat_multi_stim_exp1","2022-4-14","14:54:15","25","75","3","9","10","40","30","120","39","21","[""Asian""]","No","Female","1855557","null","null","","","","fixation","","","","","","","","","","","","","","","","","","","","","","","","","",""
"","","","","","canvas-keyboard-response","68","303735","0.0-12.0-1.11","2d_cat_multi_stim_exp1","2022-4-14","14:54:15","25","75","3","9","10","40","30","120","39","21","[""Asian""]","No","Female","1855557","null","null","","","","clear_screen","","","","","","","","","","","","","","","","","","","","","","","","","",""
"","","","","","canvas-keyboard-response","69","306018","0.0-12.0-2.11","2d_cat_multi_stim_exp1","2022-4-14","14:54:15","25","75","3","9","10","40","30","120","39","21","[""Asian""]","No","Female","1855557","2275","u","learn","","","learn_trial","26.4216","67.0746","in","1","1","","","","","","","","","","","","","","","","","","","","",""
"","","","","","canvas-keyboard-response","70","306527","0.0-12.0-3.11","2d_cat_multi_stim_exp1","2022-4-14","14:54:15","25","75","3","9","10","40","30","120","39","21","[""Asian""]","No","Female","1855557","null","null","learn_feedback","","","learn_feedback","26.4216","67.0746","in","","","","","","","","","","","","","","","","","","","","","","",""
"","","","","","canvas-keyboard-response","71","306585","0.0-12.0-4.11","2d_cat_multi_stim_exp1","2022-4-14","14:54:15","25","75","3","9","10","40","30","120","39","21","[""Asian""]","No","Female","1855557","null","null","","","","clear_screen","","","","","","","","","","","","","","","","","","","","","","","","","",""
"","","","","","canvas-keyboard-response","72","307093","0.0-12.0-0.12","2d_cat_multi_stim_exp1","2022-4-14","14:54:15","25","75","3","9","10","40","30","120","39","21","[""Asian""]","No","Female","1855557","null","null","","","","fixation","","","","","","","","","","","","","","","","","","","","","","","","","",""
"","","","","","canvas-keyboard-response","73","307601","0.0-12.0-1.12","2d_cat_multi_stim_exp1","2022-4-14","14:54:15","25","75","3","9","10","40","30","120","39","21","[""Asian""]","No","Female","1855557","null","null","","","","clear_screen","","","","","","","","","","","","","","","","","","","","","","","","","",""
"","","","","","canvas-keyboard-response","74","308882","0.0-12.0-2.12","2d_cat_multi_stim_exp1","2022-4-14","14:54:15","25","75","3","9","10","40","30","120","39","21","[""Asian""]","No","Female","1855557","1272","i","learn","","","learn_trial","20","80","out","0","1","","","","","","","","","","","","","","","","","","","","",""
"","","","","","canvas-keyboard-response","75","309391","0.0-12.0-3.12","2d_cat_multi_stim_exp1","2022-4-14","14:54:15","25","75","3","9","10","40","30","120","39","21","[""Asian""]","No","Female","1855557","null","null","learn_feedback","","","learn_feedback","20","80","out","","","","","","","","","","","","","","","","","","","","","","",""
"","","","","","canvas-keyboard-response","76","309449","0.0-12.0-4.12","2d_cat_multi_stim_exp1","2022-4-14","14:54:15","25","75","3","9","10","40","30","120","39","21","[""Asian""]","No","Female","1855557","null","null","","","","clear_screen","","","","","","","","","","","","","","","","","","","","","","","","","",""
"","","","","","canvas-keyboard-response","77","309958","0.0-12.0-0.13","2d_cat_multi_stim_exp1","2022-4-14","14:54:15","25","75","3","9","10","40","30","120","39","21","[""Asian""]","No","Female","1855557","null","null","","","","fixation","","","","","","","","","","","","","","","","","","","","","","","","","",""
"","","","","","canvas-keyboard-response","78","310467","0.0-12.0-1.13","2d_cat_multi_stim_exp1","2022-4-14","14:54:15","25","75","3","9","10","40","30","120","39","21","[""Asian""]","No","Female","1855557","null","null","","","","clear_screen","","","","","","","","","","","","","","","","","","","","","","","","","",""
"","","","","","canvas-keyboard-response","79","311498","0.0-12.0-2.13","2d_cat_multi_stim_exp1","2022-4-14","14:54:15","25","75","3","9","10","40","30","120","39","21","[""Asian""]","No","Female","1855557","1023","i","learn","","","learn_trial","10","70","out","0","1","","","","","","","","","","","","","","","","","","","","",""
"","","","","","canvas-keyboard-response","80","312007","0.0-12.0-3.13","2d_cat_multi_stim_exp1","2022-4-14","14:54:15","25","75","3","9","10","40","30","120","39","21","[""Asian""]","No","Female","1855557","null","null","learn_feedback","","","learn_feedback","10","70","out","","","","","","","","","","","","","","","","","","","","","","",""
"","","","","","canvas-keyboard-response","81","312064","0.0-12.0-4.13","2d_cat_multi_stim_exp1","2022-4-14","14:54:15","25","75","3","9","10","40","30","120","39","21","[""Asian""]","No","Female","1855557","null","null","","","","clear_screen","","","","","","","","","","","","","","","","","","","","","","","","","",""
"","","","","","canvas-keyboard-response","82","312573","0.0-12.0-0.14","2d_cat_multi_stim_exp1","2022-4-14","14:54:15","25","75","3","9","10","40","30","120","39","21","[""Asian""]","No","Female","1855557","null","null","","","","fixation","","","","","","","","","","","","","","","","","","","","","","","","","",""
"","","","","","canvas-keyboard-response","83","313081","0.0-12.0-1.14","2d_cat_multi_stim_exp1","2022-4-14","14:54:15","25","75","3","9","10","40","30","120","39","21","[""Asian""]","No","Female","1855557","null","null","","","","clear_screen","","","","","","","","","","","","","","","","","","","","","","","","","",""
"","","","","","canvas-keyboard-response","84","314082","0.0-12.0-2.14","2d_cat_multi_stim_exp1","2022-4-14","14:54:15","25","75","3","9","10","40","30","120","39","21","[""Asian""]","No","Female","1855557","992","i","learn","","","learn_trial","30","30","out","0","1","","","","","","","","","","","","","","","","","","","","",""
"","","","","","canvas-keyboard-response","85","314590","0.0-12.0-3.14","2d_cat_multi_stim_exp1","2022-4-14","14:54:15","25","75","3","9","10","40","30","120","39","21","[""Asian""]","No","Female","1855557","null","null","learn_feedback","","","learn_feedback","30","30","out","","","","","","","","","","","","","","","","","","","","","","",""
"","","","","","canvas-keyboard-response","86","314648","0.0-12.0-4.14","2d_cat_multi_stim_exp1","2022-4-14","14:54:15","25","75","3","9","10","40","30","120","39","21","[""Asian""]","No","Female","1855557","null","null","","","","clear_screen","","","","","","","","","","","","","","","","","","","","","","","","","",""
"","","","","","canvas-keyboard-response","87","315156","0.0-12.0-0.15","2d_cat_multi_stim_exp1","2022-4-14","14:54:15","25","75","3","9","10","40","30","120","39","21","[""Asian""]","No","Female","1855557","null","null","","","","fixation","","","","","","","","","","","","","","","","","","","","","","","","","",""
"","","","","","canvas-keyboard-response","88","315665","0.0-12.0-1.15","2d_cat_multi_stim_exp1","2022-4-14","14:54:15","25","75","3","9","10","40","30","120","39","21","[""Asian""]","No","Female","1855557","null","null","","","","clear_screen","","","","","","","","","","","","","","","","","","","","","","","","","",""
"","","","","","canvas-keyboard-response","89","316514","0.0-12.0-2.15","2d_cat_multi_stim_exp1","2022-4-14","14:54:15","25","75","3","9","10","40","30","120","39","21","[""Asian""]","No","Female","1855557","841","u","learn","","","learn_trial","22.0121","75.8068","in","1","1","","","","","","","","","","","","","","","","","","","","",""
"","","","","","canvas-keyboard-response","90","317022","0.0-12.0-3.15","2d_cat_multi_stim_exp1","2022-4-14","14:54:15","25","75","3","9","10","40","30","120","39","21","[""Asian""]","No","Female","1855557","null","null","learn_feedback","","","learn_feedback","22.0121","75.8068","in","","","","","","","","","","","","","","","","","","","","","","",""
"","","","","","canvas-keyboard-response","91","317080","0.0-12.0-4.15","2d_cat_multi_stim_exp1","2022-4-14","14:54:15","25","75","3","9","10","40","30","120","39","21","[""Asian""]","No","Female","1855557","null","null","","","","clear_screen","","","","","","","","","","","","","","","","","","","","","","","","","",""
"","","","","","canvas-keyboard-response","92","317588","0.0-12.0-0.16","2d_cat_multi_stim_exp1","2022-4-14","14:54:15","25","75","3","9","10","40","30","120","39","21","[""Asian""]","No","Female","1855557","null","null","","","","fixation","","","","","","","","","","","","","","","","","","","","","","","","","",""
"","","","","","canvas-keyboard-response","93","318098","0.0-12.0-1.16","2d_cat_multi_stim_exp1","2022-4-14","14:54:15","25","75","3","9","10","40","30","120","39","21","[""Asian""]","No","Female","1855557","null","null","","","","clear_screen","","","","","","","","","","","","","","","","","","","","","","","","","",""
"","","","","","canvas-keyboard-response","94","319098","0.0-12.0-2.16","2d_cat_multi_stim_exp1","2022-4-14","14:54:15","25","75","3","9","10","40","30","120","39","21","[""Asian""]","No","Female","1855557","987","u","learn","","","learn_trial","25","75","in","1","1","","","","","","","","","","","","","","","","","","","","",""
"","","","","","canvas-keyboard-response","95","319608","0.0-12.0-3.16","2d_cat_multi_stim_exp1","2022-4-14","14:54:15","25","75","3","9","10","40","30","120","39","21","[""Asian""]","No","Female","1855557","null","null","learn_feedback","","","learn_feedback","25","75","in","","","","","","","","","","","","","","","","","","","","","","",""
"","","","","","canvas-keyboard-response","96","319666","0.0-12.0-4.16","2d_cat_multi_stim_exp1","2022-4-14","14:54:15","25","75","3","9","10","40","30","120","39","21","[""Asian""]","No","Female","1855557","null","null","","","","clear_screen","","","","","","","","","","","","","","","","","","","","","","","","","",""
"","","","","","canvas-keyboard-response","97","320174","0.0-12.0-0.17","2d_cat_multi_stim_exp1","2022-4-14","14:54:15","25","75","3","9","10","40","30","120","39","21","[""Asian""]","No","Female","1855557","null","null","","","","fixation","","","","","","","","","","","","","","","","","","","","","","","","","",""
"","","","","","canvas-keyboard-response","98","320682","0.0-12.0-1.17","2d_cat_multi_stim_exp1","2022-4-14","14:54:15","25","75","3","9","10","40","30","120","39","21","[""Asian""]","No","Female","1855557","null","null","","","","clear_screen","","","","","","","","","","","","","","","","","","","","","","","","","",""
"","","","","","canvas-keyboard-response","99","321466","0.0-12.0-2.17","2d_cat_multi_stim_exp1","2022-4-14","14:54:15","25","75","3","9","10","40","30","120","39","21","[""Asian""]","No","Female","1855557","774","u","learn","","","learn_trial","30","70","out","1","0","","","","","","","","","","","","","","","","","","","","",""
"","","","","","canvas-keyboard-response","100","322475","0.0-12.0-3.17","2d_cat_multi_stim_exp1","2022-4-14","14:54:15","25","75","3","9","10","40","30","120","39","21","[""Asian""]","No","Female","1855557","null","null","learn_feedback","","","learn_feedback","30","70","out","","","","","","","","","","","","","","","","","","","","","","",""
"","","","","","canvas-keyboard-response","101","322532","0.0-12.0-4.17","2d_cat_multi_stim_exp1","2022-4-14","14:54:15","25","75","3","9","10","40","30","120","39","21","[""Asian""]","No","Female","1855557","null","null","","","","clear_screen","","","","","","","","","","","","","","","","","","","","","","","","","",""
"","","","","","canvas-keyboard-response","102","323040","0.0-12.0-0.18","2d_cat_multi_stim_exp1","2022-4-14","14:54:15","25","75","3","9","10","40","30","120","39","21","[""Asian""]","No","Female","1855557","null","null","","","","fixation","","","","","","","","","","","","","","","","","","","","","","","","","",""
"","","","","","canvas-keyboard-response","103","323549","0.0-12.0-1.18","2d_cat_multi_stim_exp1","2022-4-14","14:54:15","25","75","3","9","10","40","30","120","39","21","[""Asian""]","No","Female","1855557","null","null","","","","clear_screen","","","","","","","","","","","","","","","","","","","","","","","","","",""
"","","","","","canvas-keyboard-response","104","324754","0.0-12.0-2.18","2d_cat_multi_stim_exp1","2022-4-14","14:54:15","25","75","3","9","10","40","30","120","39","21","[""Asian""]","No","Female","1855557","1197","u","learn","","","learn_trial","25","75","in","1","1","","","","","","","","","","","","","","","","","","","","",""
"","","","","","canvas-keyboard-response","105","325263","0.0-12.0-3.18","2d_cat_multi_stim_exp1","2022-4-14","14:54:15","25","75","3","9","10","40","30","120","39","21","[""Asian""]","No","Female","1855557","null","null","learn_feedback","","","learn_feedback","25","75","in","","","","","","","","","","","","","","","","","","","","","","",""
"","","","","","canvas-keyboard-response","106","325320","0.0-12.0-4.18","2d_cat_multi_stim_exp1","2022-4-14","14:54:15","25","75","3","9","10","40","30","120","39","21","[""Asian""]","No","Female","1855557","null","null","","","","clear_screen","","","","","","","","","","","","","","","","","","","","","","","","","",""
"","","","","","canvas-keyboard-response","107","325829","0.0-12.0-0.19","2d_cat_multi_stim_exp1","2022-4-14","14:54:15","25","75","3","9","10","40","30","120","39","21","[""Asian""]","No","Female","1855557","null","null","","","","fixation","","","","","","","","","","","","","","","","","","","","","","","","","",""
"","","","","","canvas-keyboard-response","108","326337","0.0-12.0-1.19","2d_cat_multi_stim_exp1","2022-4-14","14:54:15","25","75","3","9","10","40","30","120","39","21","[""Asian""]","No","Female","1855557","null","null","","","","clear_screen","","","","","","","","","","","","","","","","","","","","","","","","","",""
"","","","","","canvas-keyboard-response","109","327626","0.0-12.0-2.19","2d_cat_multi_stim_exp1","2022-4-14","14:54:15","25","75","3","9","10","40","30","120","39","21","[""Asian""]","No","Female","1855557","1277","u","learn","","","learn_trial","27.2592","80.9214","in","1","1","","","","","","","","","","","","","","","","","","","","",""
"","","","","","canvas-keyboard-response","110","328135","0.0-12.0-3.19","2d_cat_multi_stim_exp1","2022-4-14","14:54:15","25","75","3","9","10","40","30","120","39","21","[""Asian""]","No","Female","1855557","null","null","learn_feedback","","","learn_feedback","27.2592","80.9214","in","","","","","","","","","","","","","","","","","","","","","","",""
"","","","","","canvas-keyboard-response","111","328193","0.0-12.0-4.19","2d_cat_multi_stim_exp1","2022-4-14","14:54:15","25","75","3","9","10","40","30","120","39","21","[""Asian""]","No","Female","1855557","null","null","","","","clear_screen","","","","","","","","","","","","","","","","","","","","","","","","","",""
"","","","","","canvas-keyboard-response","112","328700","0.0-12.0-0.20","2d_cat_multi_stim_exp1","2022-4-14","14:54:15","25","75","3","9","10","40","30","120","39","21","[""Asian""]","No","Female","1855557","null","null","","","","fixation","","","","","","","","","","","","","","","","","","","","","","","","","",""
"","","","","","canvas-keyboard-response","113","329209","0.0-12.0-1.20","2d_cat_multi_stim_exp1","2022-4-14","14:54:15","25","75","3","9","10","40","30","120","39","21","[""Asian""]","No","Female","1855557","null","null","","","","clear_screen","","","","","","","","","","","","","","","","","","","","","","","","","",""
"","","","","","canvas-keyboard-response","114","329970","0.0-12.0-2.20","2d_cat_multi_stim_exp1","2022-4-14","14:54:15","25","75","3","9","10","40","30","120","39","21","[""Asian""]","No","Female","1855557","751","i","learn","","","learn_trial","33.3333","80","out","0","1","","","","","","","","","","","","","","","","","","","","",""
"","","","","","canvas-keyboard-response","115","330478","0.0-12.0-3.20","2d_cat_multi_stim_exp1","2022-4-14","14:54:15","25","75","3","9","10","40","30","120","39","21","[""Asian""]","No","Female","1855557","null","null","learn_feedback","","","learn_feedback","33.3333","80","out","","","","","","","","","","","","","","","","","","","","","","",""
"","","","","","canvas-keyboard-response","116","330537","0.0-12.0-4.20","2d_cat_multi_stim_exp1","2022-4-14","14:54:15","25","75","3","9","10","40","30","120","39","21","[""Asian""]","No","Female","1855557","null","null","","","","clear_screen","","","","","","","","","","","","","","","","","","","","","","","","","",""
"","","","","","canvas-keyboard-response","117","331045","0.0-12.0-0.21","2d_cat_multi_stim_exp1","2022-4-14","14:54:15","25","75","3","9","10","40","30","120","39","21","[""Asian""]","No","Female","1855557","null","null","","","","fixation","","","","","","","","","","","","","","","","","","","","","","","","","",""
"","","","","","canvas-keyboard-response","118","331553","0.0-12.0-1.21","2d_cat_multi_stim_exp1","2022-4-14","14:54:15","25","75","3","9","10","40","30","120","39","21","[""Asian""]","No","Female","1855557","null","null","","","","clear_screen","","","","","","","","","","","","","","","","","","","","","","","","","",""
"","","","","","canvas-keyboard-response","119","332570","0.0-12.0-2.21","2d_cat_multi_stim_exp1","2022-4-14","14:54:15","25","75","3","9","10","40","30","120","39","21","[""Asian""]","No","Female","1855557","1009","u","learn","","","learn_trial","30","100","out","1","0","","","","","","","","","","","","","","","","","","","","",""
"","","","","","canvas-keyboard-response","120","333581","0.0-12.0-3.21","2d_cat_multi_stim_exp1","2022-4-14","14:54:15","25","75","3","9","10","40","30","120","39","21","[""Asian""]","No","Female","1855557","null","null","learn_feedback","","","learn_feedback","30","100","out","","","","","","","","","","","","","","","","","","","","","","",""
"","","","","","canvas-keyboard-response","121","333639","0.0-12.0-4.21","2d_cat_multi_stim_exp1","2022-4-14","14:54:15","25","75","3","9","10","40","30","120","39","21","[""Asian""]","No","Female","1855557","null","null","","","","clear_screen","","","","","","","","","","","","","","","","","","","","","","","","","",""
"","","","","","canvas-keyboard-response","122","334148","0.0-12.0-0.22","2d_cat_multi_stim_exp1","2022-4-14","14:54:15","25","75","3","9","10","40","30","120","39","21","[""Asian""]","No","Female","1855557","null","null","","","","fixation","","","","","","","","","","","","","","","","","","","","","","","","","",""
"","","","","","canvas-keyboard-response","123","334660","0.0-12.0-1.22","2d_cat_multi_stim_exp1","2022-4-14","14:54:15","25","75","3","9","10","40","30","120","39","21","[""Asian""]","No","Female","1855557","null","null","","","","clear_screen","","","","","","","","","","","","","","","","","","","","","","","","","",""
"","","","","","canvas-keyboard-response","124","335442","0.0-12.0-2.22","2d_cat_multi_stim_exp1","2022-4-14","14:54:15","25","75","3","9","10","40","30","120","39","21","[""Asian""]","No","Female","1855557","771","i","learn","","","learn_trial","36.6667","60","out","0","1","","","","","","","","","","","","","","","","","","","","",""
"","","","","","canvas-keyboard-response","125","335953","0.0-12.0-3.22","2d_cat_multi_stim_exp1","2022-4-14","14:54:15","25","75","3","9","10","40","30","120","39","21","[""Asian""]","No","Female","1855557","null","null","learn_feedback","","","learn_feedback","36.6667","60","out","","","","","","","","","","","","","","","","","","","","","","",""
"","","","","","canvas-keyboard-response","126","336012","0.0-12.0-4.22","2d_cat_multi_stim_exp1","2022-4-14","14:54:15","25","75","3","9","10","40","30","120","39","21","[""Asian""]","No","Female","1855557","null","null","","","","clear_screen","","","","","","","","","","","","","","","","","","","","","","","","","",""
"","","","","","canvas-keyboard-response","127","336520","0.0-12.0-0.23","2d_cat_multi_stim_exp1","2022-4-14","14:54:15","25","75","3","9","10","40","30","120","39","21","[""Asian""]","No","Female","1855557","null","null","","","","fixation","","","","","","","","","","","","","","","","","","","","","","","","","",""
"","","","","","canvas-keyboard-response","128","337030","0.0-12.0-1.23","2d_cat_multi_stim_exp1","2022-4-14","14:54:15","25","75","3","9","10","40","30","120","39","21","[""Asian""]","No","Female","1855557","null","null","","","","clear_screen","","","","","","","","","","","","","","","","","","","","","","","","","",""
"","","","","","canvas-keyboard-response","129","338570","0.0-12.0-2.23","2d_cat_multi_stim_exp1","2022-4-14","14:54:15","25","75","3","9","10","40","30","120","39","21","[""Asian""]","No","Female","1855557","1530","i","learn","","","learn_trial","29.2426","62.2721","in","0","0","","","","","","","","","","","","","","","","","","","","",""
"","","","","","canvas-keyboard-response","130","339581","0.0-12.0-3.23","2d_cat_multi_stim_exp1","2022-4-14","14:54:15","25","75","3","9","10","40","30","120","39","21","[""Asian""]","No","Female","1855557","null","null","learn_feedback","","","learn_feedback","29.2426","62.2721","in","","","","","","","","","","","","","","","","","","","","","","",""
"","","","","","canvas-keyboard-response","131","339640","0.0-12.0-4.23","2d_cat_multi_stim_exp1","2022-4-14","14:54:15","25","75","3","9","10","40","30","120","39","21","[""Asian""]","No","Female","1855557","null","null","","","","clear_screen","","","","","","","","","","","","","","","","","","","","","","","","","",""
"","","","","","canvas-keyboard-response","132","340149","0.0-12.0-0.24","2d_cat_multi_stim_exp1","2022-4-14","14:54:15","25","75","3","9","10","40","30","120","39","21","[""Asian""]","No","Female","1855557","null","null","","","","fixation","","","","","","","","","","","","","","","","","","","","","","","","","",""
"","","","","","canvas-keyboard-response","133","340659","0.0-12.0-1.24","2d_cat_multi_stim_exp1","2022-4-14","14:54:15","25","75","3","9","10","40","30","120","39","21","[""Asian""]","No","Female","1855557","null","null","","","","clear_screen","","","","","","","","","","","","","","","","","","","","","","","","","",""
"","","","","","canvas-keyboard-response","134","341746","0.0-12.0-2.24","2d_cat_multi_stim_exp1","2022-4-14","14:54:15","25","75","3","9","10","40","30","120","39","21","[""Asian""]","No","Female","1855557","1078","u","learn","","","learn_trial","25","75","in","1","1","","","","","","","","","","","","","","","","","","","","",""
"","","","","","canvas-keyboard-response","135","342255","0.0-12.0-3.24","2d_cat_multi_stim_exp1","2022-4-14","14:54:15","25","75","3","9","10","40","30","120","39","21","[""Asian""]","No","Female","1855557","null","null","learn_feedback","","","learn_feedback","25","75","in","","","","","","","","","","","","","","","","","","","","","","",""
"","","","","","canvas-keyboard-response","136","342314","0.0-12.0-4.24","2d_cat_multi_stim_exp1","2022-4-14","14:54:15","25","75","3","9","10","40","30","120","39","21","[""Asian""]","No","Female","1855557","null","null","","","","clear_screen","","","","","","","","","","","","","","","","","","","","","","","","","",""
"","","","","","canvas-keyboard-response","137","342822","0.0-12.0-0.25","2d_cat_multi_stim_exp1","2022-4-14","14:54:15","25","75","3","9","10","40","30","120","39","21","[""Asian""]","No","Female","1855557","null","null","","","","fixation","","","","","","","","","","","","","","","","","","","","","","","","","",""
"","","","","","canvas-keyboard-response","138","343331","0.0-12.0-1.25","2d_cat_multi_stim_exp1","2022-4-14","14:54:15","25","75","3","9","10","40","30","120","39","21","[""Asian""]","No","Female","1855557","null","null","","","","clear_screen","","","","","","","","","","","","","","","","","","","","","","","","","",""
"","","","","","canvas-keyboard-response","139","344074","0.0-12.0-2.25","2d_cat_multi_stim_exp1","2022-4-14","14:54:15","25","75","3","9","10","40","30","120","39","21","[""Asian""]","No","Female","1855557","735","u","learn","","","learn_trial","25","75","in","1","1","","","","","","","","","","","","","","","","","","","","",""
"","","","","","canvas-keyboard-response","140","344583","0.0-12.0-3.25","2d_cat_multi_stim_exp1","2022-4-14","14:54:15","25","75","3","9","10","40","30","120","39","21","[""Asian""]","No","Female","1855557","null","null","learn_feedback","","","learn_feedback","25","75","in","","","","","","","","","","","","","","","","","","","","","","",""
"","","","","","canvas-keyboard-response","141","344641","0.0-12.0-4.25","2d_cat_multi_stim_exp1","2022-4-14","14:54:15","25","75","3","9","10","40","30","120","39","21","[""Asian""]","No","Female","1855557","null","null","","","","clear_screen","","","","","","","","","","","","","","","","","","","","","","","","","",""
"","","","","","canvas-keyboard-response","142","345149","0.0-12.0-0.26","2d_cat_multi_stim_exp1","2022-4-14","14:54:15","25","75","3","9","10","40","30","120","39","21","[""Asian""]","No","Female","1855557","null","null","","","","fixation","","","","","","","","","","","","","","","","","","","","","","","","","",""
"","","","","","canvas-keyboard-response","143","345658","0.0-12.0-1.26","2d_cat_multi_stim_exp1","2022-4-14","14:54:15","25","75","3","9","10","40","30","120","39","21","[""Asian""]","No","Female","1855557","null","null","","","","clear_screen","","","","","","","","","","","","","","","","","","","","","","","","","",""
"","","","","","canvas-keyboard-response","144","346370","0.0-12.0-2.26","2d_cat_multi_stim_exp1","2022-4-14","14:54:15","25","75","3","9","10","40","30","120","39","21","[""Asian""]","No","Female","1855557","703","i","learn","","","learn_trial","16.6667","30","out","0","1","","","","","","","","","","","","","","","","","","","","",""
"","","","","","canvas-keyboard-response","145","346879","0.0-12.0-3.26","2d_cat_multi_stim_exp1","2022-4-14","14:54:15","25","75","3","9","10","40","30","120","39","21","[""Asian""]","No","Female","1855557","null","null","learn_feedback","","","learn_feedback","16.6667","30","out","","","","","","","","","","","","","","","","","","","","","","",""
"","","","","","canvas-keyboard-response","146","346937","0.0-12.0-4.26","2d_cat_multi_stim_exp1","2022-4-14","14:54:15","25","75","3","9","10","40","30","120","39","21","[""Asian""]","No","Female","1855557","null","null","","","","clear_screen","","","","","","","","","","","","","","","","","","","","","","","","","",""
"","","","","","canvas-keyboard-response","147","347445","0.0-12.0-0.27","2d_cat_multi_stim_exp1","2022-4-14","14:54:15","25","75","3","9","10","40","30","120","39","21","[""Asian""]","No","Female","1855557","null","null","","","","fixation","","","","","","","","","","","","","","","","","","","","","","","","","",""
"","","","","","canvas-keyboard-response","148","347954","0.0-12.0-1.27","2d_cat_multi_stim_exp1","2022-4-14","14:54:15","25","75","3","9","10","40","30","120","39","21","[""Asian""]","No","Female","1855557","null","null","","","","clear_screen","","","","","","","","","","","","","","","","","","","","","","","","","",""
"","","","","","canvas-keyboard-response","149","349130","0.0-12.0-2.27","2d_cat_multi_stim_exp1","2022-4-14","14:54:15","25","75","3","9","10","40","30","120","39","21","[""Asian""]","No","Female","1855557","1166","i","learn","","","learn_trial","19","75","in","0","0","","","","","","","","","","","","","","","","","","","","",""
"","","","","","canvas-keyboard-response","150","350139","0.0-12.0-3.27","2d_cat_multi_stim_exp1","2022-4-14","14:54:15","25","75","3","9","10","40","30","120","39","21","[""Asian""]","No","Female","1855557","null","null","learn_feedback","","","learn_feedback","19","75","in","","","","","","","","","","","","","","","","","","","","","","",""
"","","","","","canvas-keyboard-response","151","350197","0.0-12.0-4.27","2d_cat_multi_stim_exp1","2022-4-14","14:54:15","25","75","3","9","10","40","30","120","39","21","[""Asian""]","No","Female","1855557","null","null","","","","clear_screen","","","","","","","","","","","","","","","","","","","","","","","","","",""
"","","","","","canvas-keyboard-response","152","350705","0.0-12.0-0.28","2d_cat_multi_stim_exp1","2022-4-14","14:54:15","25","75","3","9","10","40","30","120","39","21","[""Asian""]","No","Female","1855557","null","null","","","","fixation","","","","","","","","","","","","","","","","","","","","","","","","","",""
"","","","","","canvas-keyboard-response","153","351215","0.0-12.0-1.28","2d_cat_multi_stim_exp1","2022-4-14","14:54:15","25","75","3","9","10","40","30","120","39","21","[""Asian""]","No","Female","1855557","null","null","","","","clear_screen","","","","","","","","","","","","","","","","","","","","","","","","","",""
"","","","","","canvas-keyboard-response","154","356850","0.0-12.0-2.28","2d_cat_multi_stim_exp1","2022-4-14","14:54:15","25","75","3","9","10","40","30","120","39","21","[""Asian""]","No","Female","1855557","5627","i","learn","","","learn_trial","30","90","out","0","1","","","","","","","","","","","","","","","","","","","","",""
"","","","","","canvas-keyboard-response","155","357359","0.0-12.0-3.28","2d_cat_multi_stim_exp1","2022-4-14","14:54:15","25","75","3","9","10","40","30","120","39","21","[""Asian""]","No","Female","1855557","null","null","learn_feedback","","","learn_feedback","30","90","out","","","","","","","","","","","","","","","","","","","","","","",""
"","","","","","canvas-keyboard-response","156","357417","0.0-12.0-4.28","2d_cat_multi_stim_exp1","2022-4-14","14:54:15","25","75","3","9","10","40","30","120","39","21","[""Asian""]","No","Female","1855557","null","null","","","","clear_screen","","","","","","","","","","","","","","","","","","","","","","","","","",""
"","","","","","canvas-keyboard-response","157","357926","0.0-12.0-0.29","2d_cat_multi_stim_exp1","2022-4-14","14:54:15","25","75","3","9","10","40","30","120","39","21","[""Asian""]","No","Female","1855557","null","null","","","","fixation","","","","","","","","","","","","","","","","","","","","","","","","","",""
"","","","","","canvas-keyboard-response","158","358434","0.0-12.0-1.29","2d_cat_multi_stim_exp1","2022-4-14","14:54:15","25","75","3","9","10","40","30","120","39","21","[""Asian""]","No","Female","1855557","null","null","","","","clear_screen","","","","","","","","","","","","","","","","","","","","","","","","","",""
"","","","","","canvas-keyboard-response","159","359169","0.0-12.0-2.29","2d_cat_multi_stim_exp1","2022-4-14","14:54:15","25","75","3","9","10","40","30","120","39","21","[""Asian""]","No","Female","1855557","726","u","learn","","","learn_trial","24.8654","83.9909","in","1","1","","","","","","","","","","","","","","","","","","","","",""
"","","","","","canvas-keyboard-response","160","359679","0.0-12.0-3.29","2d_cat_multi_stim_exp1","2022-4-14","14:54:15","25","75","3","9","10","40","30","120","39","21","[""Asian""]","No","Female","1855557","null","null","learn_feedback","","","learn_feedback","24.8654","83.9909","in","","","","","","","","","","","","","","","","","","","","","","",""
"","","","","","canvas-keyboard-response","161","359738","0.0-12.0-4.29","2d_cat_multi_stim_exp1","2022-4-14","14:54:15","25","75","3","9","10","40","30","120","39","21","[""Asian""]","No","Female","1855557","null","null","","","","clear_screen","","","","","","","","","","","","","","","","","","","","","","","","","",""
"","","","","","canvas-keyboard-response","162","360246","0.0-12.0-0.30","2d_cat_multi_stim_exp1","2022-4-14","14:54:15","25","75","3","9","10","40","30","120","39","21","[""Asian""]","No","Female","1855557","null","null","","","","fixation","","","","","","","","","","","","","","","","","","","","","","","","","",""
"","","","","","canvas-keyboard-response","163","360755","0.0-12.0-1.30","2d_cat_multi_stim_exp1","2022-4-14","14:54:15","25","75","3","9","10","40","30","120","39","21","[""Asian""]","No","Female","1855557","null","null","","","","clear_screen","","","","","","","","","","","","","","","","","","","","","","","","","",""
"","","","","","canvas-keyboard-response","164","361658","0.0-12.0-2.30","2d_cat_multi_stim_exp1","2022-4-14","14:54:15","25","75","3","9","10","40","30","120","39","21","[""Asian""]","No","Female","1855557","895","u","learn","","","learn_trial","25","75","in","1","1","","","","","","","","","","","","","","","","","","","","",""
"","","","","","canvas-keyboard-response","165","362166","0.0-12.0-3.30","2d_cat_multi_stim_exp1","2022-4-14","14:54:15","25","75","3","9","10","40","30","120","39","21","[""Asian""]","No","Female","1855557","null","null","learn_feedback","","","learn_feedback","25","75","in","","","","","","","","","","","","","","","","","","","","","","",""
"","","","","","canvas-keyboard-response","166","362223","0.0-12.0-4.30","2d_cat_multi_stim_exp1","2022-4-14","14:54:15","25","75","3","9","10","40","30","120","39","21","[""Asian""]","No","Female","1855557","null","null","","","","clear_screen","","","","","","","","","","","","","","","","","","","","","","","","","",""
"","","","","","canvas-keyboard-response","167","362731","0.0-12.0-0.31","2d_cat_multi_stim_exp1","2022-4-14","14:54:15","25","75","3","9","10","40","30","120","39","21","[""Asian""]","No","Female","1855557","null","null","","","","fixation","","","","","","","","","","","","","","","","","","","","","","","","","",""
"","","","","","canvas-keyboard-response","168","363240","0.0-12.0-1.31","2d_cat_multi_stim_exp1","2022-4-14","14:54:15","25","75","3","9","10","40","30","120","39","21","[""Asian""]","No","Female","1855557","null","null","","","","clear_screen","","","","","","","","","","","","","","","","","","","","","","","","","",""
"","","","","","canvas-keyboard-response","169","363922","0.0-12.0-2.31","2d_cat_multi_stim_exp1","2022-4-14","14:54:15","25","75","3","9","10","40","30","120","39","21","[""Asian""]","No","Female","1855557","673","i","learn","","","learn_trial","20","120","out","0","1","","","","","","","","","","","","","","","","","","","","",""
"","","","","","canvas-keyboard-response","170","364432","0.0-12.0-3.31","2d_cat_multi_stim_exp1","2022-4-14","14:54:15","25","75","3","9","10","40","30","120","39","21","[""Asian""]","No","Female","1855557","null","null","learn_feedback","","","learn_feedback","20","120","out","","","","","","","","","","","","","","","","","","","","","","",""
"","","","","","canvas-keyboard-response","171","364489","0.0-12.0-4.31","2d_cat_multi_stim_exp1","2022-4-14","14:54:15","25","75","3","9","10","40","30","120","39","21","[""Asian""]","No","Female","1855557","null","null","","","","clear_screen","","","","","","","","","","","","","","","","","","","","","","","","","",""
"","","","","","canvas-keyboard-response","172","364997","0.0-12.0-0.32","2d_cat_multi_stim_exp1","2022-4-14","14:54:15","25","75","3","9","10","40","30","120","39","21","[""Asian""]","No","Female","1855557","null","null","","","","fixation","","","","","","","","","","","","","","","","","","","","","","","","","",""
"","","","","","canvas-keyboard-response","173","365506","0.0-12.0-1.32","2d_cat_multi_stim_exp1","2022-4-14","14:54:15","25","75","3","9","10","40","30","120","39","21","[""Asian""]","No","Female","1855557","null","null","","","","clear_screen","","","","","","","","","","","","","","","","","","","","","","","","","",""
"","","","","","canvas-keyboard-response","174","366386","0.0-12.0-2.32","2d_cat_multi_stim_exp1","2022-4-14","14:54:15","25","75","3","9","10","40","30","120","39","21","[""Asian""]","No","Female","1855557","872","u","learn","","","learn_trial","22.9268","81.5052","in","1","1","","","","","","","","","","","","","","","","","","","","",""
"","","","","","canvas-keyboard-response","175","366896","0.0-12.0-3.32","2d_cat_multi_stim_exp1","2022-4-14","14:54:15","25","75","3","9","10","40","30","120","39","21","[""Asian""]","No","Female","1855557","null","null","learn_feedback","","","learn_feedback","22.9268","81.5052","in","","","","","","","","","","","","","","","","","","","","","","",""
"","","","","","canvas-keyboard-response","176","366957","0.0-12.0-4.32","2d_cat_multi_stim_exp1","2022-4-14","14:54:15","25","75","3","9","10","40","30","120","39","21","[""Asian""]","No","Female","1855557","null","null","","","","clear_screen","","","","","","","","","","","","","","","","","","","","","","","","","",""
"","","","","","canvas-keyboard-response","177","367469","0.0-12.0-0.33","2d_cat_multi_stim_exp1","2022-4-14","14:54:15","25","75","3","9","10","40","30","120","39","21","[""Asian""]","No","Female","1855557","null","null","","","","fixation","","","","","","","","","","","","","","","","","","","","","","","","","",""
"","","","","","canvas-keyboard-response","178","367979","0.0-12.0-1.33","2d_cat_multi_stim_exp1","2022-4-14","14:54:15","25","75","3","9","10","40","30","120","39","21","[""Asian""]","No","Female","1855557","null","null","","","","clear_screen","","","","","","","","","","","","","","","","","","","","","","","","","",""
"","","","","","canvas-keyboard-response","179","368955","0.0-12.0-2.33","2d_cat_multi_stim_exp1","2022-4-14","14:54:15","25","75","3","9","10","40","30","120","39","21","[""Asian""]","No","Female","1855557","965","i","learn","","","learn_trial","16.6667","70","out","0","1","","","","","","","","","","","","","","","","","","","","",""
"","","","","","canvas-keyboard-response","180","369465","0.0-12.0-3.33","2d_cat_multi_stim_exp1","2022-4-14","14:54:15","25","75","3","9","10","40","30","120","39","21","[""Asian""]","No","Female","1855557","null","null","learn_feedback","","","learn_feedback","16.6667","70","out","","","","","","","","","","","","","","","","","","","","","","",""
"","","","","","canvas-keyboard-response","181","369523","0.0-12.0-4.33","2d_cat_multi_stim_exp1","2022-4-14","14:54:15","25","75","3","9","10","40","30","120","39","21","[""Asian""]","No","Female","1855557","null","null","","","","clear_screen","","","","","","","","","","","","","","","","","","","","","","","","","",""
"","","","","","canvas-keyboard-response","182","370031","0.0-12.0-0.34","2d_cat_multi_stim_exp1","2022-4-14","14:54:15","25","75","3","9","10","40","30","120","39","21","[""Asian""]","No","Female","1855557","null","null","","","","fixation","","","","","","","","","","","","","","","","","","","","","","","","","",""
"","","","","","canvas-keyboard-response","183","370541","0.0-12.0-1.34","2d_cat_multi_stim_exp1","2022-4-14","14:54:15","25","75","3","9","10","40","30","120","39","21","[""Asian""]","No","Female","1855557","null","null","","","","clear_screen","","","","","","","","","","","","","","","","","","","","","","","","","",""
"","","","","","canvas-keyboard-response","184","371386","0.0-12.0-2.34","2d_cat_multi_stim_exp1","2022-4-14","14:54:15","25","75","3","9","10","40","30","120","39","21","[""Asian""]","No","Female","1855557","836","u","learn","","","learn_trial","25","75","in","1","1","","","","","","","","","","","","","","","","","","","","",""
"","","","","","canvas-keyboard-response","185","371896","0.0-12.0-3.34","2d_cat_multi_stim_exp1","2022-4-14","14:54:15","25","75","3","9","10","40","30","120","39","21","[""Asian""]","No","Female","1855557","null","null","learn_feedback","","","learn_feedback","25","75","in","","","","","","","","","","","","","","","","","","","","","","",""
"","","","","","canvas-keyboard-response","186","371955","0.0-12.0-4.34","2d_cat_multi_stim_exp1","2022-4-14","14:54:15","25","75","3","9","10","40","30","120","39","21","[""Asian""]","No","Female","1855557","null","null","","","","clear_screen","","","","","","","","","","","","","","","","","","","","","","","","","",""
"","","","","","canvas-keyboard-response","187","372464","0.0-12.0-0.35","2d_cat_multi_stim_exp1","2022-4-14","14:54:15","25","75","3","9","10","40","30","120","39","21","[""Asian""]","No","Female","1855557","null","null","","","","fixation","","","","","","","","","","","","","","","","","","","","","","","","","",""
"","","","","","canvas-keyboard-response","188","372972","0.0-12.0-1.35","2d_cat_multi_stim_exp1","2022-4-14","14:54:15","25","75","3","9","10","40","30","120","39","21","[""Asian""]","No","Female","1855557","null","null","","","","clear_screen","","","","","","","","","","","","","","","","","","","","","","","","","",""
"","","","","","canvas-keyboard-response","189","373602","0.0-12.0-2.35","2d_cat_multi_stim_exp1","2022-4-14","14:54:15","25","75","3","9","10","40","30","120","39","21","[""Asian""]","No","Female","1855557","619","i","learn","","","learn_trial","10","110","out","0","1","","","","","","","","","","","","","","","","","","","","",""
"","","","","","canvas-keyboard-response","190","374112","0.0-12.0-3.35","2d_cat_multi_stim_exp1","2022-4-14","14:54:15","25","75","3","9","10","40","30","120","39","21","[""Asian""]","No","Female","1855557","null","null","learn_feedback","","","learn_feedback","10","110","out","","","","","","","","","","","","","","","","","","","","","","",""
"","","","","","canvas-keyboard-response","191","374170","0.0-12.0-4.35","2d_cat_multi_stim_exp1","2022-4-14","14:54:15","25","75","3","9","10","40","30","120","39","21","[""Asian""]","No","Female","1855557","null","null","","","","clear_screen","","","","","","","","","","","","","","","","","","","","","","","","","",""
"","","","","","canvas-keyboard-response","192","374678","0.0-12.0-0.36","2d_cat_multi_stim_exp1","2022-4-14","14:54:15","25","75","3","9","10","40","30","120","39","21","[""Asian""]","No","Female","1855557","null","null","","","","fixation","","","","","","","","","","","","","","","","","","","","","","","","","",""
"","","","","","canvas-keyboard-response","193","375186","0.0-12.0-1.36","2d_cat_multi_stim_exp1","2022-4-14","14:54:15","25","75","3","9","10","40","30","120","39","21","[""Asian""]","No","Female","1855557","null","null","","","","clear_screen","","","","","","","","","","","","","","","","","","","","","","","","","",""
"","","","","","canvas-keyboard-response","194","375866","0.0-12.0-2.36","2d_cat_multi_stim_exp1","2022-4-14","14:54:15","25","75","3","9","10","40","30","120","39","21","[""Asian""]","No","Female","1855557","670","i","learn","","","learn_trial","23.3333","30","out","0","1","","","","","","","","","","","","","","","","","","","","",""
"","","","","","canvas-keyboard-response","195","376375","0.0-12.0-3.36","2d_cat_multi_stim_exp1","2022-4-14","14:54:15","25","75","3","9","10","40","30","120","39","21","[""Asian""]","No","Female","1855557","null","null","learn_feedback","","","learn_feedback","23.3333","30","out","","","","","","","","","","","","","","","","","","","","","","",""
"","","","","","canvas-keyboard-response","196","376433","0.0-12.0-4.36","2d_cat_multi_stim_exp1","2022-4-14","14:54:15","25","75","3","9","10","40","30","120","39","21","[""Asian""]","No","Female","1855557","null","null","","","","clear_screen","","","","","","","","","","","","","","","","","","","","","","","","","",""
"","","","","","canvas-keyboard-response","197","376942","0.0-12.0-0.37","2d_cat_multi_stim_exp1","2022-4-14","14:54:15","25","75","3","9","10","40","30","120","39","21","[""Asian""]","No","Female","1855557","null","null","","","","fixation","","","","","","","","","","","","","","","","","","","","","","","","","",""
"","","","","","canvas-keyboard-response","198","377450","0.0-12.0-1.37","2d_cat_multi_stim_exp1","2022-4-14","14:54:15","25","75","3","9","10","40","30","120","39","21","[""Asian""]","No","Female","1855557","null","null","","","","clear_screen","","","","","","","","","","","","","","","","","","","","","","","","","",""
"","","","","","canvas-keyboard-response","199","378419","0.0-12.0-2.37","2d_cat_multi_stim_exp1","2022-4-14","14:54:15","25","75","3","9","10","40","30","120","39","21","[""Asian""]","No","Female","1855557","959","u","learn","","","learn_trial","25","75","in","1","1","","","","","","","","","","","","","","","","","","","","",""
"","","","","","canvas-keyboard-response","200","378927","0.0-12.0-3.37","2d_cat_multi_stim_exp1","2022-4-14","14:54:15","25","75","3","9","10","40","30","120","39","21","[""Asian""]","No","Female","1855557","null","null","learn_feedback","","","learn_feedback","25","75","in","","","","","","","","","","","","","","","","","","","","","","",""
"","","","","","canvas-keyboard-response","201","378985","0.0-12.0-4.37","2d_cat_multi_stim_exp1","2022-4-14","14:54:15","25","75","3","9","10","40","30","120","39","21","[""Asian""]","No","Female","1855557","null","null","","","","clear_screen","","","","","","","","","","","","","","","","","","","","","","","","","",""
"","","","","","canvas-keyboard-response","202","379493","0.0-12.0-0.38","2d_cat_multi_stim_exp1","2022-4-14","14:54:15","25","75","3","9","10","40","30","120","39","21","[""Asian""]","No","Female","1855557","null","null","","","","fixation","","","","","","","","","","","","","","","","","","","","","","","","","",""
"","","","","","canvas-keyboard-response","203","380001","0.0-12.0-1.38","2d_cat_multi_stim_exp1","2022-4-14","14:54:15","25","75","3","9","10","40","30","120","39","21","[""Asian""]","No","Female","1855557","null","null","","","","clear_screen","","","","","","","","","","","","","","","","","","","","","","","","","",""
"","","","","","canvas-keyboard-response","204","380881","0.0-12.0-2.38","2d_cat_multi_stim_exp1","2022-4-14","14:54:15","25","75","3","9","10","40","30","120","39","21","[""Asian""]","No","Female","1855557","871","u","learn","","","learn_trial","25","75","in","1","1","","","","","","","","","","","","","","","","","","","","",""
"","","","","","canvas-keyboard-response","205","381391","0.0-12.0-3.38","2d_cat_multi_stim_exp1","2022-4-14","14:54:15","25","75","3","9","10","40","30","120","39","21","[""Asian""]","No","Female","1855557","null","null","learn_feedback","","","learn_feedback","25","75","in","","","","","","","","","","","","","","","","","","","","","","",""
"","","","","","canvas-keyboard-response","206","381449","0.0-12.0-4.38","2d_cat_multi_stim_exp1","2022-4-14","14:54:15","25","75","3","9","10","40","30","120","39","21","[""Asian""]","No","Female","1855557","null","null","","","","clear_screen","","","","","","","","","","","","","","","","","","","","","","","","","",""
"","","","","","canvas-keyboard-response","207","381960","0.0-12.0-0.39","2d_cat_multi_stim_exp1","2022-4-14","14:54:15","25","75","3","9","10","40","30","120","39","21","[""Asian""]","No","Female","1855557","null","null","","","","fixation","","","","","","","","","","","","","","","","","","","","","","","","","",""
"","","","","","canvas-keyboard-response","208","382468","0.0-12.0-1.39","2d_cat_multi_stim_exp1","2022-4-14","14:54:15","25","75","3","9","10","40","30","120","39","21","[""Asian""]","No","Female","1855557","null","null","","","","clear_screen","","","","","","","","","","","","","","","","","","","","","","","","","",""
"","","","","","canvas-keyboard-response","209","383402","0.0-12.0-2.39","2d_cat_multi_stim_exp1","2022-4-14","14:54:15","25","75","3","9","10","40","30","120","39","21","[""Asian""]","No","Female","1855557","923","u","learn","","","learn_trial","25","75","in","1","1","","","","","","","","","","","","","","","","","","","","",""
"","","","","","canvas-keyboard-response","210","383911","0.0-12.0-3.39","2d_cat_multi_stim_exp1","2022-4-14","14:54:15","25","75","3","9","10","40","30","120","39","21","[""Asian""]","No","Female","1855557","null","null","learn_feedback","","","learn_feedback","25","75","in","","","","","","","","","","","","","","","","","","","","","","",""
"","","","","","canvas-keyboard-response","211","383968","0.0-12.0-4.39","2d_cat_multi_stim_exp1","2022-4-14","14:54:15","25","75","3","9","10","40","30","120","39","21","[""Asian""]","No","Female","1855557","null","null","","","","clear_screen","","","","","","","","","","","","","","","","","","","","","","","","","",""
"","","","","","canvas-keyboard-response","212","384477","0.0-12.0-0.40","2d_cat_multi_stim_exp1","2022-4-14","14:54:15","25","75","3","9","10","40","30","120","39","21","[""Asian""]","No","Female","1855557","null","null","","","","fixation","","","","","","","","","","","","","","","","","","","","","","","","","",""
"","","","","","canvas-keyboard-response","213","384986","0.0-12.0-1.40","2d_cat_multi_stim_exp1","2022-4-14","14:54:15","25","75","3","9","10","40","30","120","39","21","[""Asian""]","No","Female","1855557","null","null","","","","clear_screen","","","","","","","","","","","","","","","","","","","","","","","","","",""
"","","","","","canvas-keyboard-response","214","385705","0.0-12.0-2.40","2d_cat_multi_stim_exp1","2022-4-14","14:54:15","25","75","3","9","10","40","30","120","39","21","[""Asian""]","No","Female","1855557","712","i","learn","","","learn_trial","33.3333","90","out","0","1","","","","","","","","","","","","","","","","","","","","",""
"","","","","","canvas-keyboard-response","215","386215","0.0-12.0-3.40","2d_cat_multi_stim_exp1","2022-4-14","14:54:15","25","75","3","9","10","40","30","120","39","21","[""Asian""]","No","Female","1855557","null","null","learn_feedback","","","learn_feedback","33.3333","90","out","","","","","","","","","","","","","","","","","","","","","","",""
"","","","","","canvas-keyboard-response","216","386272","0.0-12.0-4.40","2d_cat_multi_stim_exp1","2022-4-14","14:54:15","25","75","3","9","10","40","30","120","39","21","[""Asian""]","No","Female","1855557","null","null","","","","clear_screen","","","","","","","","","","","","","","","","","","","","","","","","","",""
"","","","","","canvas-keyboard-response","217","386781","0.0-12.0-0.41","2d_cat_multi_stim_exp1","2022-4-14","14:54:15","25","75","3","9","10","40","30","120","39","21","[""Asian""]","No","Female","1855557","null","null","","","","fixation","","","","","","","","","","","","","","","","","","","","","","","","","",""
"","","","","","canvas-keyboard-response","218","387289","0.0-12.0-1.41","2d_cat_multi_stim_exp1","2022-4-14","14:54:15","25","75","3","9","10","40","30","120","39","21","[""Asian""]","No","Female","1855557","null","null","","","","clear_screen","","","","","","","","","","","","","","","","","","","","","","","","","",""
"","","","","","canvas-keyboard-response","219","388233","0.0-12.0-2.41","2d_cat_multi_stim_exp1","2022-4-14","14:54:15","25","75","3","9","10","40","30","120","39","21","[""Asian""]","No","Female","1855557","936","i","learn","","","learn_trial","10","40","out","0","1","","","","","","","","","","","","","","","","","","","","",""
"","","","","","canvas-keyboard-response","220","388742","0.0-12.0-3.41","2d_cat_multi_stim_exp1","2022-4-14","14:54:15","25","75","3","9","10","40","30","120","39","21","[""Asian""]","No","Female","1855557","null","null","learn_feedback","","","learn_feedback","10","40","out","","","","","","","","","","","","","","","","","","","","","","",""
"","","","","","canvas-keyboard-response","221","388801","0.0-12.0-4.41","2d_cat_multi_stim_exp1","2022-4-14","14:54:15","25","75","3","9","10","40","30","120","39","21","[""Asian""]","No","Female","1855557","null","null","","","","clear_screen","","","","","","","","","","","","","","","","","","","","","","","","","",""
"","","","","","canvas-keyboard-response","222","389309","0.0-12.0-0.42","2d_cat_multi_stim_exp1","2022-4-14","14:54:15","25","75","3","9","10","40","30","120","39","21","[""Asian""]","No","Female","1855557","null","null","","","","fixation","","","","","","","","","","","","","","","","","","","","","","","","","",""
"","","","","","canvas-keyboard-response","223","389817","0.0-12.0-1.42","2d_cat_multi_stim_exp1","2022-4-14","14:54:15","25","75","3","9","10","40","30","120","39","21","[""Asian""]","No","Female","1855557","null","null","","","","clear_screen","","","","","","","","","","","","","","","","","","","","","","","","","",""
"","","","","","canvas-keyboard-response","224","390642","0.0-12.0-2.42","2d_cat_multi_stim_exp1","2022-4-14","14:54:15","25","75","3","9","10","40","30","120","39","21","[""Asian""]","No","Female","1855557","815","i","learn","","","learn_trial","33.3333","120","out","0","1","","","","","","","","","","","","","","","","","","","","",""
"","","","","","canvas-keyboard-response","225","391151","0.0-12.0-3.42","2d_cat_multi_stim_exp1","2022-4-14","14:54:15","25","75","3","9","10","40","30","120","39","21","[""Asian""]","No","Female","1855557","null","null","learn_feedback","","","learn_feedback","33.3333","120","out","","","","","","","","","","","","","","","","","","","","","","",""
"","","","","","canvas-keyboard-response","226","391209","0.0-12.0-4.42","2d_cat_multi_stim_exp1","2022-4-14","14:54:15","25","75","3","9","10","40","30","120","39","21","[""Asian""]","No","Female","1855557","null","null","","","","clear_screen","","","","","","","","","","","","","","","","","","","","","","","","","",""
"","","","","","canvas-keyboard-response","227","391717","0.0-12.0-0.43","2d_cat_multi_stim_exp1","2022-4-14","14:54:15","25","75","3","9","10","40","30","120","39","21","[""Asian""]","No","Female","1855557","null","null","","","","fixation","","","","","","","","","","","","","","","","","","","","","","","","","",""
"","","","","","canvas-keyboard-response","228","392226","0.0-12.0-1.43","2d_cat_multi_stim_exp1","2022-4-14","14:54:15","25","75","3","9","10","40","30","120","39","21","[""Asian""]","No","Female","1855557","null","null","","","","clear_screen","","","","","","","","","","","","","","","","","","","","","","","","","",""
"","","","","","canvas-keyboard-response","229","394034","0.0-12.0-2.43","2d_cat_multi_stim_exp1","2022-4-14","14:54:15","25","75","3","9","10","40","30","120","39","21","[""Asian""]","No","Female","1855557","1800","i","learn","","","learn_trial","10","60","out","0","1","","","","","","","","","","","","","","","","","","","","",""
"","","","","","canvas-keyboard-response","230","394543","0.0-12.0-3.43","2d_cat_multi_stim_exp1","2022-4-14","14:54:15","25","75","3","9","10","40","30","120","39","21","[""Asian""]","No","Female","1855557","null","null","learn_feedback","","","learn_feedback","10","60","out","","","","","","","","","","","","","","","","","","","","","","",""
"","","","","","canvas-keyboard-response","231","394602","0.0-12.0-4.43","2d_cat_multi_stim_exp1","2022-4-14","14:54:15","25","75","3","9","10","40","30","120","39","21","[""Asian""]","No","Female","1855557","null","null","","","","clear_screen","","","","","","","","","","","","","","","","","","","","","","","","","",""
"","","","","","canvas-keyboard-response","232","395110","0.0-12.0-0.44","2d_cat_multi_stim_exp1","2022-4-14","14:54:15","25","75","3","9","10","40","30","120","39","21","[""Asian""]","No","Female","1855557","null","null","","","","fixation","","","","","","","","","","","","","","","","","","","","","","","","","",""
"","","","","","canvas-keyboard-response","233","395618","0.0-12.0-1.44","2d_cat_multi_stim_exp1","2022-4-14","14:54:15","25","75","3","9","10","40","30","120","39","21","[""Asian""]","No","Female","1855557","null","null","","","","clear_screen","","","","","","","","","","","","","","","","","","","","","","","","","",""
"","","","","","canvas-keyboard-response","234","396498","0.0-12.0-2.44","2d_cat_multi_stim_exp1","2022-4-14","14:54:15","25","75","3","9","10","40","30","120","39","21","[""Asian""]","No","Female","1855557","871","u","learn","","","learn_trial","25","75","in","1","1","","","","","","","","","","","","","","","","","","","","",""
"","","","","","canvas-keyboard-response","235","397006","0.0-12.0-3.44","2d_cat_multi_stim_exp1","2022-4-14","14:54:15","25","75","3","9","10","40","30","120","39","21","[""Asian""]","No","Female","1855557","null","null","learn_feedback","","","learn_feedback","25","75","in","","","","","","","","","","","","","","","","","","","","","","",""
"","","","","","canvas-keyboard-response","236","397064","0.0-12.0-4.44","2d_cat_multi_stim_exp1","2022-4-14","14:54:15","25","75","3","9","10","40","30","120","39","21","[""Asian""]","No","Female","1855557","null","null","","","","clear_screen","","","","","","","","","","","","","","","","","","","","","","","","","",""
"","","","","","canvas-keyboard-response","237","397572","0.0-12.0-0.45","2d_cat_multi_stim_exp1","2022-4-14","14:54:15","25","75","3","9","10","40","30","120","39","21","[""Asian""]","No","Female","1855557","null","null","","","","fixation","","","","","","","","","","","","","","","","","","","","","","","","","",""
"","","","","","canvas-keyboard-response","238","398085","0.0-12.0-1.45","2d_cat_multi_stim_exp1","2022-4-14","14:54:15","25","75","3","9","10","40","30","120","39","21","[""Asian""]","No","Female","1855557","null","null","","","","clear_screen","","","","","","","","","","","","","","","","","","","","","","","","","",""
"","","","","","canvas-keyboard-response","239","398977","0.0-12.0-2.45","2d_cat_multi_stim_exp1","2022-4-14","14:54:15","25","75","3","9","10","40","30","120","39","21","[""Asian""]","No","Female","1855557","881","i","learn","","","learn_trial","13.3333","90","out","0","1","","","","","","","","","","","","","","","","","","","","",""
"","","","","","canvas-keyboard-response","240","399488","0.0-12.0-3.45","2d_cat_multi_stim_exp1","2022-4-14","14:54:15","25","75","3","9","10","40","30","120","39","21","[""Asian""]","No","Female","1855557","null","null","learn_feedback","","","learn_feedback","13.3333","90","out","","","","","","","","","","","","","","","","","","","","","","",""
"","","","","","canvas-keyboard-response","241","399547","0.0-12.0-4.45","2d_cat_multi_stim_exp1","2022-4-14","14:54:15","25","75","3","9","10","40","30","120","39","21","[""Asian""]","No","Female","1855557","null","null","","","","clear_screen","","","","","","","","","","","","","","","","","","","","","","","","","",""
"","","","","","canvas-keyboard-response","242","400055","0.0-12.0-0.46","2d_cat_multi_stim_exp1","2022-4-14","14:54:15","25","75","3","9","10","40","30","120","39","21","[""Asian""]","No","Female","1855557","null","null","","","","fixation","","","","","","","","","","","","","","","","","","","","","","","","","",""
"","","","","","canvas-keyboard-response","243","400565","0.0-12.0-1.46","2d_cat_multi_stim_exp1","2022-4-14","14:54:15","25","75","3","9","10","40","30","120","39","21","[""Asian""]","No","Female","1855557","null","null","","","","clear_screen","","","","","","","","","","","","","","","","","","","","","","","","","",""
"","","","","","canvas-keyboard-response","244","401306","0.0-12.0-2.46","2d_cat_multi_stim_exp1","2022-4-14","14:54:15","25","75","3","9","10","40","30","120","39","21","[""Asian""]","No","Female","1855557","732","i","learn","","","learn_trial","33.3333","70","out","0","1","","","","","","","","","","","","","","","","","","","","",""
"","","","","","canvas-keyboard-response","245","401816","0.0-12.0-3.46","2d_cat_multi_stim_exp1","2022-4-14","14:54:15","25","75","3","9","10","40","30","120","39","21","[""Asian""]","No","Female","1855557","null","null","learn_feedback","","","learn_feedback","33.3333","70","out","","","","","","","","","","","","","","","","","","","","","","",""
"","","","","","canvas-keyboard-response","246","401874","0.0-12.0-4.46","2d_cat_multi_stim_exp1","2022-4-14","14:54:15","25","75","3","9","10","40","30","120","39","21","[""Asian""]","No","Female","1855557","null","null","","","","clear_screen","","","","","","","","","","","","","","","","","","","","","","","","","",""
"","","","","","canvas-keyboard-response","247","402383","0.0-12.0-0.47","2d_cat_multi_stim_exp1","2022-4-14","14:54:15","25","75","3","9","10","40","30","120","39","21","[""Asian""]","No","Female","1855557","null","null","","","","fixation","","","","","","","","","","","","","","","","","","","","","","","","","",""
"","","","","","canvas-keyboard-response","248","402893","0.0-12.0-1.47","2d_cat_multi_stim_exp1","2022-4-14","14:54:15","25","75","3","9","10","40","30","120","39","21","[""Asian""]","No","Female","1855557","null","null","","","","clear_screen","","","","","","","","","","","","","","","","","","","","","","","","","",""
"","","","","","canvas-keyboard-response","249","404898","0.0-12.0-2.47","2d_cat_multi_stim_exp1","2022-4-14","14:54:15","25","75","3","9","10","40","30","120","39","21","[""Asian""]","No","Female","1855557","1996","u","learn","","","learn_trial","25","75","in","1","1","","","","","","","","","","","","","","","","","","","","",""
"","","","","","canvas-keyboard-response","250","405407","0.0-12.0-3.47","2d_cat_multi_stim_exp1","2022-4-14","14:54:15","25","75","3","9","10","40","30","120","39","21","[""Asian""]","No","Female","1855557","null","null","learn_feedback","","","learn_feedback","25","75","in","","","","","","","","","","","","","","","","","","","","","","",""
"","","","","","canvas-keyboard-response","251","405466","0.0-12.0-4.47","2d_cat_multi_stim_exp1","2022-4-14","14:54:15","25","75","3","9","10","40","30","120","39","21","[""Asian""]","No","Female","1855557","null","null","","","","clear_screen","","","","","","","","","","","","","","","","","","","","","","","","","",""
"","","","","","canvas-keyboard-response","252","405975","0.0-12.0-0.48","2d_cat_multi_stim_exp1","2022-4-14","14:54:15","25","75","3","9","10","40","30","120","39","21","[""Asian""]","No","Female","1855557","null","null","","","","fixation","","","","","","","","","","","","","","","","","","","","","","","","","",""
"","","","","","canvas-keyboard-response","253","406483","0.0-12.0-1.48","2d_cat_multi_stim_exp1","2022-4-14","14:54:15","25","75","3","9","10","40","30","120","39","21","[""Asian""]","No","Female","1855557","null","null","","","","clear_screen","","","","","","","","","","","","","","","","","","","","","","","","","",""
"","","","","","canvas-keyboard-response","254","407530","0.0-12.0-2.48","2d_cat_multi_stim_exp1","2022-4-14","14:54:15","25","75","3","9","10","40","30","120","39","21","[""Asian""]","No","Female","1855557","1038","u","learn","","","learn_trial","24.3324","83.7744","in","1","1","","","","","","","","","","","","","","","","","","","","",""
"","","","","","canvas-keyboard-response","255","408039","0.0-12.0-3.48","2d_cat_multi_stim_exp1","2022-4-14","14:54:15","25","75","3","9","10","40","30","120","39","21","[""Asian""]","No","Female","1855557","null","null","learn_feedback","","","learn_feedback","24.3324","83.7744","in","","","","","","","","","","","","","","","","","","","","","","",""
"","","","","","canvas-keyboard-response","256","408097","0.0-12.0-4.48","2d_cat_multi_stim_exp1","2022-4-14","14:54:15","25","75","3","9","10","40","30","120","39","21","[""Asian""]","No","Female","1855557","null","null","","","","clear_screen","","","","","","","","","","","","","","","","","","","","","","","","","",""
"","","","","","canvas-keyboard-response","257","408605","0.0-12.0-0.49","2d_cat_multi_stim_exp1","2022-4-14","14:54:15","25","75","3","9","10","40","30","120","39","21","[""Asian""]","No","Female","1855557","null","null","","","","fixation","","","","","","","","","","","","","","","","","","","","","","","","","",""
"","","","","","canvas-keyboard-response","258","409113","0.0-12.0-1.49","2d_cat_multi_stim_exp1","2022-4-14","14:54:15","25","75","3","9","10","40","30","120","39","21","[""Asian""]","No","Female","1855557","null","null","","","","clear_screen","","","","","","","","","","","","","","","","","","","","","","","","","",""
"","","","","","canvas-keyboard-response","259","409713","0.0-12.0-2.49","2d_cat_multi_stim_exp1","2022-4-14","14:54:15","25","75","3","9","10","40","30","120","39","21","[""Asian""]","No","Female","1855557","592","i","learn","","","learn_trial","16.6667","80","out","0","1","","","","","","","","","","","","","","","","","","","","",""
"","","","","","canvas-keyboard-response","260","410226","0.0-12.0-3.49","2d_cat_multi_stim_exp1","2022-4-14","14:54:15","25","75","3","9","10","40","30","120","39","21","[""Asian""]","No","Female","1855557","null","null","learn_feedback","","","learn_feedback","16.6667","80","out","","","","","","","","","","","","","","","","","","","","","","",""
"","","","","","canvas-keyboard-response","261","410284","0.0-12.0-4.49","2d_cat_multi_stim_exp1","2022-4-14","14:54:15","25","75","3","9","10","40","30","120","39","21","[""Asian""]","No","Female","1855557","null","null","","","","clear_screen","","","","","","","","","","","","","","","","","","","","","","","","","",""
"","","","","","canvas-keyboard-response","262","410792","0.0-12.0-0.50","2d_cat_multi_stim_exp1","2022-4-14","14:54:15","25","75","3","9","10","40","30","120","39","21","[""Asian""]","No","Female","1855557","null","null","","","","fixation","","","","","","","","","","","","","","","","","","","","","","","","","",""
"","","","","","canvas-keyboard-response","263","411301","0.0-12.0-1.50","2d_cat_multi_stim_exp1","2022-4-14","14:54:15","25","75","3","9","10","40","30","120","39","21","[""Asian""]","No","Female","1855557","null","null","","","","clear_screen","","","","","","","","","","","","","","","","","","","","","","","","","",""
"","","","","","canvas-keyboard-response","264","411866","0.0-12.0-2.50","2d_cat_multi_stim_exp1","2022-4-14","14:54:15","25","75","3","9","10","40","30","120","39","21","[""Asian""]","No","Female","1855557","556","i","learn","","","learn_trial","13.3333","40","out","0","1","","","","","","","","","","","","","","","","","","","","",""
"","","","","","canvas-keyboard-response","265","412375","0.0-12.0-3.50","2d_cat_multi_stim_exp1","2022-4-14","14:54:15","25","75","3","9","10","40","30","120","39","21","[""Asian""]","No","Female","1855557","null","null","learn_feedback","","","learn_feedback","13.3333","40","out","","","","","","","","","","","","","","","","","","","","","","",""
"","","","","","canvas-keyboard-response","266","412433","0.0-12.0-4.50","2d_cat_multi_stim_exp1","2022-4-14","14:54:15","25","75","3","9","10","40","30","120","39","21","[""Asian""]","No","Female","1855557","null","null","","","","clear_screen","","","","","","","","","","","","","","","","","","","","","","","","","",""
"","","","","","canvas-keyboard-response","267","412941","0.0-12.0-0.51","2d_cat_multi_stim_exp1","2022-4-14","14:54:15","25","75","3","9","10","40","30","120","39","21","[""Asian""]","No","Female","1855557","null","null","","","","fixation","","","","","","","","","","","","","","","","","","","","","","","","","",""
"","","","","","canvas-keyboard-response","268","413449","0.0-12.0-1.51","2d_cat_multi_stim_exp1","2022-4-14","14:54:15","25","75","3","9","10","40","30","120","39","21","[""Asian""]","No","Female","1855557","null","null","","","","clear_screen","","","","","","","","","","","","","","","","","","","","","","","","","",""
"","","","","","canvas-keyboard-response","269","414194","0.0-12.0-2.51","2d_cat_multi_stim_exp1","2022-4-14","14:54:15","25","75","3","9","10","40","30","120","39","21","[""Asian""]","No","Female","1855557","735","u","learn","","","learn_trial","25","75","in","1","1","","","","","","","","","","","","","","","","","","","","",""
"","","","","","canvas-keyboard-response","270","414702","0.0-12.0-3.51","2d_cat_multi_stim_exp1","2022-4-14","14:54:15","25","75","3","9","10","40","30","120","39","21","[""Asian""]","No","Female","1855557","null","null","learn_feedback","","","learn_feedback","25","75","in","","","","","","","","","","","","","","","","","","","","","","",""
"","","","","","canvas-keyboard-response","271","414760","0.0-12.0-4.51","2d_cat_multi_stim_exp1","2022-4-14","14:54:15","25","75","3","9","10","40","30","120","39","21","[""Asian""]","No","Female","1855557","null","null","","","","clear_screen","","","","","","","","","","","","","","","","","","","","","","","","","",""
"","","","","","canvas-keyboard-response","272","415268","0.0-12.0-0.52","2d_cat_multi_stim_exp1","2022-4-14","14:54:15","25","75","3","9","10","40","30","120","39","21","[""Asian""]","No","Female","1855557","null","null","","","","fixation","","","","","","","","","","","","","","","","","","","","","","","","","",""
"","","","","","canvas-keyboard-response","273","415777","0.0-12.0-1.52","2d_cat_multi_stim_exp1","2022-4-14","14:54:15","25","75","3","9","10","40","30","120","39","21","[""Asian""]","No","Female","1855557","null","null","","","","clear_screen","","","","","","","","","","","","","","","","","","","","","","","","","",""
"","","","","","canvas-keyboard-response","274","416362","0.0-12.0-2.52","2d_cat_multi_stim_exp1","2022-4-14","14:54:15","25","75","3","9","10","40","30","120","39","21","[""Asian""]","No","Female","1855557","577","u","learn","","","learn_trial","25","75","in","1","1","","","","","","","","","","","","","","","","","","","","",""
"","","","","","canvas-keyboard-response","275","416872","0.0-12.0-3.52","2d_cat_multi_stim_exp1","2022-4-14","14:54:15","25","75","3","9","10","40","30","120","39","21","[""Asian""]","No","Female","1855557","null","null","learn_feedback","","","learn_feedback","25","75","in","","","","","","","","","","","","","","","","","","","","","","",""
"","","","","","canvas-keyboard-response","276","416930","0.0-12.0-4.52","2d_cat_multi_stim_exp1","2022-4-14","14:54:15","25","75","3","9","10","40","30","120","39","21","[""Asian""]","No","Female","1855557","null","null","","","","clear_screen","","","","","","","","","","","","","","","","","","","","","","","","","",""
"","","","","","canvas-keyboard-response","277","417439","0.0-12.0-0.53","2d_cat_multi_stim_exp1","2022-4-14","14:54:15","25","75","3","9","10","40","30","120","39","21","[""Asian""]","No","Female","1855557","null","null","","","","fixation","","","","","","","","","","","","","","","","","","","","","","","","","",""
"","","","","","canvas-keyboard-response","278","417947","0.0-12.0-1.53","2d_cat_multi_stim_exp1","2022-4-14","14:54:15","25","75","3","9","10","40","30","120","39","21","[""Asian""]","No","Female","1855557","null","null","","","","clear_screen","","","","","","","","","","","","","","","","","","","","","","","","","",""
"","","","","","canvas-keyboard-response","279","418665","0.0-12.0-2.53","2d_cat_multi_stim_exp1","2022-4-14","14:54:15","25","75","3","9","10","40","30","120","39","21","[""Asian""]","No","Female","1855557","709","u","learn","","","learn_trial","22.9268","68.4948","in","1","1","","","","","","","","","","","","","","","","","","","","",""
"","","","","","canvas-keyboard-response","280","419174","0.0-12.0-3.53","2d_cat_multi_stim_exp1","2022-4-14","14:54:15","25","75","3","9","10","40","30","120","39","21","[""Asian""]","No","Female","1855557","null","null","learn_feedback","","","learn_feedback","22.9268","68.4948","in","","","","","","","","","","","","","","","","","","","","","","",""
"","","","","","canvas-keyboard-response","281","419232","0.0-12.0-4.53","2d_cat_multi_stim_exp1","2022-4-14","14:54:15","25","75","3","9","10","40","30","120","39","21","[""Asian""]","No","Female","1855557","null","null","","","","clear_screen","","","","","","","","","","","","","","","","","","","","","","","","","",""
"","","","","","canvas-keyboard-response","282","419740","0.0-12.0-0.54","2d_cat_multi_stim_exp1","2022-4-14","14:54:15","25","75","3","9","10","40","30","120","39","21","[""Asian""]","No","Female","1855557","null","null","","","","fixation","","","","","","","","","","","","","","","","","","","","","","","","","",""
"","","","","","canvas-keyboard-response","283","420250","0.0-12.0-1.54","2d_cat_multi_stim_exp1","2022-4-14","14:54:15","25","75","3","9","10","40","30","120","39","21","[""Asian""]","No","Female","1855557","null","null","","","","clear_screen","","","","","","","","","","","","","","","","","","","","","","","","","",""
"","","","","","canvas-keyboard-response","284","420937","0.0-12.0-2.54","2d_cat_multi_stim_exp1","2022-4-14","14:54:15","25","75","3","9","10","40","30","120","39","21","[""Asian""]","No","Female","1855557","679","i","learn","","","learn_trial","40","100","out","0","1","","","","","","","","","","","","","","","","","","","","",""
"","","","","","canvas-keyboard-response","285","421446","0.0-12.0-3.54","2d_cat_multi_stim_exp1","2022-4-14","14:54:15","25","75","3","9","10","40","30","120","39","21","[""Asian""]","No","Female","1855557","null","null","learn_feedback","","","learn_feedback","40","100","out","","","","","","","","","","","","","","","","","","","","","","",""
"","","","","","canvas-keyboard-response","286","421504","0.0-12.0-4.54","2d_cat_multi_stim_exp1","2022-4-14","14:54:15","25","75","3","9","10","40","30","120","39","21","[""Asian""]","No","Female","1855557","null","null","","","","clear_screen","","","","","","","","","","","","","","","","","","","","","","","","","",""
"","","","","","canvas-keyboard-response","287","422012","0.0-12.0-0.55","2d_cat_multi_stim_exp1","2022-4-14","14:54:15","25","75","3","9","10","40","30","120","39","21","[""Asian""]","No","Female","1855557","null","null","","","","fixation","","","","","","","","","","","","","","","","","","","","","","","","","",""
"","","","","","canvas-keyboard-response","288","422521","0.0-12.0-1.55","2d_cat_multi_stim_exp1","2022-4-14","14:54:15","25","75","3","9","10","40","30","120","39","21","[""Asian""]","No","Female","1855557","null","null","","","","clear_screen","","","","","","","","","","","","","","","","","","","","","","","","","",""
"","","","","","canvas-keyboard-response","289","423225","0.0-12.0-2.55","2d_cat_multi_stim_exp1","2022-4-14","14:54:15","25","75","3","9","10","40","30","120","39","21","[""Asian""]","No","Female","1855557","695","i","learn","","","learn_trial","26.6667","60","out","0","1","","","","","","","","","","","","","","","","","","","","",""
"","","","","","canvas-keyboard-response","290","423735","0.0-12.0-3.55","2d_cat_multi_stim_exp1","2022-4-14","14:54:15","25","75","3","9","10","40","30","120","39","21","[""Asian""]","No","Female","1855557","null","null","learn_feedback","","","learn_feedback","26.6667","60","out","","","","","","","","","","","","","","","","","","","","","","",""
"","","","","","canvas-keyboard-response","291","423793","0.0-12.0-4.55","2d_cat_multi_stim_exp1","2022-4-14","14:54:15","25","75","3","9","10","40","30","120","39","21","[""Asian""]","No","Female","1855557","null","null","","","","clear_screen","","","","","","","","","","","","","","","","","","","","","","","","","",""
"","","","","","canvas-keyboard-response","292","424302","0.0-12.0-0.56","2d_cat_multi_stim_exp1","2022-4-14","14:54:15","25","75","3","9","10","40","30","120","39","21","[""Asian""]","No","Female","1855557","null","null","","","","fixation","","","","","","","","","","","","","","","","","","","","","","","","","",""
"","","","","","canvas-keyboard-response","293","424811","0.0-12.0-1.56","2d_cat_multi_stim_exp1","2022-4-14","14:54:15","25","75","3","9","10","40","30","120","39","21","[""Asian""]","No","Female","1855557","null","null","","","","clear_screen","","","","","","","","","","","","","","","","","","","","","","","","","",""
"","","","","","canvas-keyboard-response","294","425369","0.0-12.0-2.56","2d_cat_multi_stim_exp1","2022-4-14","14:54:15","25","75","3","9","10","40","30","120","39","21","[""Asian""]","No","Female","1855557","551","i","learn","","","learn_trial","10","50","out","0","1","","","","","","","","","","","","","","","","","","","","",""
"","","","","","canvas-keyboard-response","295","425878","0.0-12.0-3.56","2d_cat_multi_stim_exp1","2022-4-14","14:54:15","25","75","3","9","10","40","30","120","39","21","[""Asian""]","No","Female","1855557","null","null","learn_feedback","","","learn_feedback","10","50","out","","","","","","","","","","","","","","","","","","","","","","",""
"","","","","","canvas-keyboard-response","296","425937","0.0-12.0-4.56","2d_cat_multi_stim_exp1","2022-4-14","14:54:15","25","75","3","9","10","40","30","120","39","21","[""Asian""]","No","Female","1855557","null","null","","","","clear_screen","","","","","","","","","","","","","","","","","","","","","","","","","",""
