"success","timeout","failed_images","failed_audio","failed_video","trial_type","trial_index","time_elapsed","internal_node_id","exp_name","date","time","angle_mean_in","radius_mean_in","angle_sd_in","radius_sd_in","angle_min_out","angle_max_out","radius_min_out","radius_max_out","sub_n","age","race","ethnicity","gender","exp_duration","rt","stimulus","response","exp_trial_type","view_history","screen_id","angle","radius","distribution","correct","choice","order","angle_a","radius_a","angle_b","radius_b","angle_c","radius_c","jkl_correct","transfer_trial_type","choice_set","abc_correct","tc_correct","tc_angle","tdc_a","tdc_b","tdc_c","pair","category_a","category_b","category_c","question_order"
"true","false","[]","[]","[]","preload","0","13","0.0-0.0","2d_cat_multi_stim_exp1","2022-4-1","15:21:36","25","75","3","9","10","40","30","120","8","20","[""White""]","No","Female","1708189","","","","","","","","","","","","","","","","","","","","","","","","","","","","","","","",""
"","","","","","html-button-response","1","1004","0.0-1.0","2d_cat_multi_stim_exp1","2022-4-1","15:21:36","25","75","3","9","10","40","30","120","8","20","[""White""]","No","Female","1708189","990","<p><b>WAIT!</b></p></p><p>Did you mean to start this experiment? Only Walker, Esther, and Sean are running participants on this experiment.</p>","0","","","","","","","","","","","","","","","","","","","","","","","","","","","","",""
"","","","","","survey-html-form","2","3097","0.0-2.0","2d_cat_multi_stim_exp1","2022-4-1","15:21:36","25","75","3","9","10","40","30","120","8","20","[""White""]","No","Female","1708189","2088","","{""response"":""8""}","enter-sub-number","","","","","","","","","","","","","","","","","","","","","","","","","","","",""
"true","","","","","fullscreen","3","8238","0.0-3.0","2d_cat_multi_stim_exp1","2022-4-1","15:21:36","25","75","3","9","10","40","30","120","8","20","[""White""]","No","Female","1708189","","","","","","","","","","","","","","","","","","","","","","","","","","","","","","","",""
"","","","","","image-button-response","4","20518","0.0-4.0","2d_cat_multi_stim_exp1","2022-4-1","15:21:36","25","75","3","9","10","40","30","120","8","20","[""White""]","No","Female","1708189","12270","consent.png","0","","","","","","","","","","","","","","","","","","","","","","","","","","","","",""
"","","","","","html-button-response","5","26374","0.0-5.0","2d_cat_multi_stim_exp1","2022-4-1","15:21:36","25","75","3","9","10","40","30","120","8","20","[""White""]","No","Female","1708189","5848","<div style= ""font-size:25px;"" <p> <strong> Welcome to the experiment! </strong><br> <p style=""color:#8B0000; font-size:25px;""><strong> Please do NOT exit full screen until you are done with the experiment. </strong> </p><p style=""font-size:25px;color:#8B0000;""> <strong> The experiment will be canceled and your data will be lost <br> if you try to go back or refresh the page at any point during the experiment.</strong> </p><br><p> <strong> Thanks in advance for your contribution to our research! </strong></p>","0","","","","","","","","","","","","","","","","","","","","","","","","","","","","",""
"","","","","","instructions","6","78919","0.0-6.0","2d_cat_multi_stim_exp1","2022-4-1","15:21:36","25","75","3","9","10","40","30","120","8","20","[""White""]","No","Female","1708189","52539","","","","[{""page_index"":0,""viewing_time"":6826},{""page_index"":1,""viewing_time"":2288},{""page_index"":2,""viewing_time"":21769},{""page_index"":3,""viewing_time"":21656}]","instructions_1","","","","","","","","","","","","","","","","","","","","","","","","","",""
"","","","","","instructions","7","80765","0.0-7.0","2d_cat_multi_stim_exp1","2022-4-1","15:21:36","25","75","3","9","10","40","30","120","8","20","[""White""]","No","Female","1708189","1842","","","","[{""page_index"":0,""viewing_time"":1842}]","Click to see the kinds of turtles that will appear in the study.","","","","","","","","","","","","","","","","","","","","","","","","","",""
"","","","","","canvas-keyboard-response","8","95782","0.0-8.0","2d_cat_multi_stim_exp1","2022-4-1","15:21:36","25","75","3","9","10","40","30","120","8","20","[""White""]","No","Female","1708189","null","","null","","","demo_range","","","","","","","","","","","","","","","","","","","","","","","","","",""
"","","","","","instructions","9","98413","0.0-9.0","2d_cat_multi_stim_exp1","2022-4-1","15:21:36","25","75","3","9","10","40","30","120","8","20","[""White""]","No","Female","1708189","2129","","","","[{""page_index"":0,""viewing_time"":2129}]","Click to see some turtles in the subspecies.","","","","","","","","","","","","","","","","","","","","","","","","","",""
"","","","","","canvas-keyboard-response","10","113431","0.0-10.0","2d_cat_multi_stim_exp1","2022-4-1","15:21:36","25","75","3","9","10","40","30","120","8","20","[""White""]","No","Female","1708189","null","","null","","","demo_in","","","","","","","","","","","","","","","","","","","","","","","","","",""
"","","","","","instructions","11","159006","0.0-11.0","2d_cat_multi_stim_exp1","2022-4-1","15:21:36","25","75","3","9","10","40","30","120","8","20","[""White""]","No","Female","1708189","45073","","","","[{""page_index"":0,""viewing_time"":8544},{""page_index"":1,""viewing_time"":24328},{""page_index"":2,""viewing_time"":12200}]","instructions_2","","","","","","","","","","","","","","","","","","","","","","","","","",""
"","","","","","instructions","12","160141","0.0-12.0","2d_cat_multi_stim_exp1","2022-4-1","15:21:36","25","75","3","9","10","40","30","120","8","20","[""White""]","No","Female","1708189","1131","","","","[{""page_index"":0,""viewing_time"":1131}]","Click to begin the first phase of the experiment.","","","","","","","","","","","","","","","","","","","","","","","","","",""
"","","","","","canvas-keyboard-response","13","160651","0.0-13.0-0.0","2d_cat_multi_stim_exp1","2022-4-1","15:21:36","25","75","3","9","10","40","30","120","8","20","[""White""]","No","Female","1708189","null","","null","","","fixation","","","","","","","","","","","","","","","","","","","","","","","","","",""
"","","","","","canvas-keyboard-response","14","161161","0.0-13.0-1.0","2d_cat_multi_stim_exp1","2022-4-1","15:21:36","25","75","3","9","10","40","30","120","8","20","[""White""]","No","Female","1708189","null","","null","","","clear_screen","","","","","","","","","","","","","","","","","","","","","","","","","",""
"","","","","","canvas-keyboard-response","15","164461","0.0-13.0-2.0","2d_cat_multi_stim_exp1","2022-4-1","15:21:36","25","75","3","9","10","40","30","120","8","20","[""White""]","No","Female","1708189","3286","","i","learn","","learn_trial","25.9271","83.5595","in","0","0","","","","","","","","","","","","","","","","","","","","",""
"","","","","","canvas-keyboard-response","16","165472","0.0-13.0-3.0","2d_cat_multi_stim_exp1","2022-4-1","15:21:36","25","75","3","9","10","40","30","120","8","20","[""White""]","No","Female","1708189","null","","null","learn_feedback","","learn_feedback","25.9271","83.5595","in","","","","","","","","","","","","","","","","","","","","","","",""
"","","","","","canvas-keyboard-response","17","165532","0.0-13.0-4.0","2d_cat_multi_stim_exp1","2022-4-1","15:21:36","25","75","3","9","10","40","30","120","8","20","[""White""]","No","Female","1708189","null","","null","","","clear_screen","","","","","","","","","","","","","","","","","","","","","","","","","",""
"","","","","","canvas-keyboard-response","18","166042","0.0-13.0-0.1","2d_cat_multi_stim_exp1","2022-4-1","15:21:36","25","75","3","9","10","40","30","120","8","20","[""White""]","No","Female","1708189","null","","null","","","fixation","","","","","","","","","","","","","","","","","","","","","","","","","",""
"","","","","","canvas-keyboard-response","19","166557","0.0-13.0-1.1","2d_cat_multi_stim_exp1","2022-4-1","15:21:36","25","75","3","9","10","40","30","120","8","20","[""White""]","No","Female","1708189","null","","null","","","clear_screen","","","","","","","","","","","","","","","","","","","","","","","","","",""
"","","","","","canvas-keyboard-response","20","169108","0.0-13.0-2.1","2d_cat_multi_stim_exp1","2022-4-1","15:21:36","25","75","3","9","10","40","30","120","8","20","[""White""]","No","Female","1708189","2539","","u","learn","","learn_trial","13.3333","110","out","0","1","","","","","","","","","","","","","","","","","","","","",""
"","","","","","canvas-keyboard-response","21","170120","0.0-13.0-3.1","2d_cat_multi_stim_exp1","2022-4-1","15:21:36","25","75","3","9","10","40","30","120","8","20","[""White""]","No","Female","1708189","null","","null","learn_feedback","","learn_feedback","13.3333","110","out","","","","","","","","","","","","","","","","","","","","","","",""
"","","","","","canvas-keyboard-response","22","170179","0.0-13.0-4.1","2d_cat_multi_stim_exp1","2022-4-1","15:21:36","25","75","3","9","10","40","30","120","8","20","[""White""]","No","Female","1708189","null","","null","","","clear_screen","","","","","","","","","","","","","","","","","","","","","","","","","",""
"","","","","","canvas-keyboard-response","23","170688","0.0-13.0-0.2","2d_cat_multi_stim_exp1","2022-4-1","15:21:36","25","75","3","9","10","40","30","120","8","20","[""White""]","No","Female","1708189","null","","null","","","fixation","","","","","","","","","","","","","","","","","","","","","","","","","",""
"","","","","","canvas-keyboard-response","24","171198","0.0-13.0-1.2","2d_cat_multi_stim_exp1","2022-4-1","15:21:36","25","75","3","9","10","40","30","120","8","20","[""White""]","No","Female","1708189","null","","null","","","clear_screen","","","","","","","","","","","","","","","","","","","","","","","","","",""
"","","","","","canvas-keyboard-response","25","174509","0.0-13.0-2.2","2d_cat_multi_stim_exp1","2022-4-1","15:21:36","25","75","3","9","10","40","30","120","8","20","[""White""]","No","Female","1708189","3299","","i","learn","","learn_trial","27.9518","73.393","in","0","0","","","","","","","","","","","","","","","","","","","","",""
"","","","","","canvas-keyboard-response","26","175522","0.0-13.0-3.2","2d_cat_multi_stim_exp1","2022-4-1","15:21:36","25","75","3","9","10","40","30","120","8","20","[""White""]","No","Female","1708189","null","","null","learn_feedback","","learn_feedback","27.9518","73.393","in","","","","","","","","","","","","","","","","","","","","","","",""
"","","","","","canvas-keyboard-response","27","175581","0.0-13.0-4.2","2d_cat_multi_stim_exp1","2022-4-1","15:21:36","25","75","3","9","10","40","30","120","8","20","[""White""]","No","Female","1708189","null","","null","","","clear_screen","","","","","","","","","","","","","","","","","","","","","","","","","",""
"","","","","","canvas-keyboard-response","28","176091","0.0-13.0-0.3","2d_cat_multi_stim_exp1","2022-4-1","15:21:36","25","75","3","9","10","40","30","120","8","20","[""White""]","No","Female","1708189","null","","null","","","fixation","","","","","","","","","","","","","","","","","","","","","","","","","",""
"","","","","","canvas-keyboard-response","29","176605","0.0-13.0-1.3","2d_cat_multi_stim_exp1","2022-4-1","15:21:36","25","75","3","9","10","40","30","120","8","20","[""White""]","No","Female","1708189","null","","null","","","clear_screen","","","","","","","","","","","","","","","","","","","","","","","","","",""
"","","","","","canvas-keyboard-response","30","178444","0.0-13.0-2.3","2d_cat_multi_stim_exp1","2022-4-1","15:21:36","25","75","3","9","10","40","30","120","8","20","[""White""]","No","Female","1708189","1833","","u","learn","","learn_trial","25","75","in","1","1","","","","","","","","","","","","","","","","","","","","",""
"","","","","","canvas-keyboard-response","31","178956","0.0-13.0-3.3","2d_cat_multi_stim_exp1","2022-4-1","15:21:36","25","75","3","9","10","40","30","120","8","20","[""White""]","No","Female","1708189","null","","null","learn_feedback","","learn_feedback","25","75","in","","","","","","","","","","","","","","","","","","","","","","",""
"","","","","","canvas-keyboard-response","32","179019","0.0-13.0-4.3","2d_cat_multi_stim_exp1","2022-4-1","15:21:36","25","75","3","9","10","40","30","120","8","20","[""White""]","No","Female","1708189","null","","null","","","clear_screen","","","","","","","","","","","","","","","","","","","","","","","","","",""
"","","","","","canvas-keyboard-response","33","179528","0.0-13.0-0.4","2d_cat_multi_stim_exp1","2022-4-1","15:21:36","25","75","3","9","10","40","30","120","8","20","[""White""]","No","Female","1708189","null","","null","","","fixation","","","","","","","","","","","","","","","","","","","","","","","","","",""
"","","","","","canvas-keyboard-response","34","180040","0.0-13.0-1.4","2d_cat_multi_stim_exp1","2022-4-1","15:21:36","25","75","3","9","10","40","30","120","8","20","[""White""]","No","Female","1708189","null","","null","","","clear_screen","","","","","","","","","","","","","","","","","","","","","","","","","",""
"","","","","","canvas-keyboard-response","35","181125","0.0-13.0-2.4","2d_cat_multi_stim_exp1","2022-4-1","15:21:36","25","75","3","9","10","40","30","120","8","20","[""White""]","No","Female","1708189","1074","","u","learn","","learn_trial","36.6667","90","out","0","1","","","","","","","","","","","","","","","","","","","","",""
"","","","","","canvas-keyboard-response","36","182139","0.0-13.0-3.4","2d_cat_multi_stim_exp1","2022-4-1","15:21:36","25","75","3","9","10","40","30","120","8","20","[""White""]","No","Female","1708189","null","","null","learn_feedback","","learn_feedback","36.6667","90","out","","","","","","","","","","","","","","","","","","","","","","",""
"","","","","","canvas-keyboard-response","37","182198","0.0-13.0-4.4","2d_cat_multi_stim_exp1","2022-4-1","15:21:36","25","75","3","9","10","40","30","120","8","20","[""White""]","No","Female","1708189","null","","null","","","clear_screen","","","","","","","","","","","","","","","","","","","","","","","","","",""
"","","","","","canvas-keyboard-response","38","182707","0.0-13.0-0.5","2d_cat_multi_stim_exp1","2022-4-1","15:21:36","25","75","3","9","10","40","30","120","8","20","[""White""]","No","Female","1708189","null","","null","","","fixation","","","","","","","","","","","","","","","","","","","","","","","","","",""
"","","","","","canvas-keyboard-response","39","183219","0.0-13.0-1.5","2d_cat_multi_stim_exp1","2022-4-1","15:21:36","25","75","3","9","10","40","30","120","8","20","[""White""]","No","Female","1708189","null","","null","","","clear_screen","","","","","","","","","","","","","","","","","","","","","","","","","",""
"","","","","","canvas-keyboard-response","40","186332","0.0-13.0-2.5","2d_cat_multi_stim_exp1","2022-4-1","15:21:36","25","75","3","9","10","40","30","120","8","20","[""White""]","No","Female","1708189","3106","","u","learn","","learn_trial","16.6667","90","out","0","1","","","","","","","","","","","","","","","","","","","","",""
"","","","","","canvas-keyboard-response","41","187343","0.0-13.0-3.5","2d_cat_multi_stim_exp1","2022-4-1","15:21:36","25","75","3","9","10","40","30","120","8","20","[""White""]","No","Female","1708189","null","","null","learn_feedback","","learn_feedback","16.6667","90","out","","","","","","","","","","","","","","","","","","","","","","",""
"","","","","","canvas-keyboard-response","42","187403","0.0-13.0-4.5","2d_cat_multi_stim_exp1","2022-4-1","15:21:36","25","75","3","9","10","40","30","120","8","20","[""White""]","No","Female","1708189","null","","null","","","clear_screen","","","","","","","","","","","","","","","","","","","","","","","","","",""
"","","","","","canvas-keyboard-response","43","187912","0.0-13.0-0.6","2d_cat_multi_stim_exp1","2022-4-1","15:21:36","25","75","3","9","10","40","30","120","8","20","[""White""]","No","Female","1708189","null","","null","","","fixation","","","","","","","","","","","","","","","","","","","","","","","","","",""
"","","","","","canvas-keyboard-response","44","188423","0.0-13.0-1.6","2d_cat_multi_stim_exp1","2022-4-1","15:21:36","25","75","3","9","10","40","30","120","8","20","[""White""]","No","Female","1708189","null","","null","","","clear_screen","","","","","","","","","","","","","","","","","","","","","","","","","",""
"","","","","","canvas-keyboard-response","45","191269","0.0-13.0-2.6","2d_cat_multi_stim_exp1","2022-4-1","15:21:36","25","75","3","9","10","40","30","120","8","20","[""White""]","No","Female","1708189","2836","","u","learn","","learn_trial","16.6667","110","out","0","1","","","","","","","","","","","","","","","","","","","","",""
"","","","","","canvas-keyboard-response","46","192278","0.0-13.0-3.6","2d_cat_multi_stim_exp1","2022-4-1","15:21:36","25","75","3","9","10","40","30","120","8","20","[""White""]","No","Female","1708189","null","","null","learn_feedback","","learn_feedback","16.6667","110","out","","","","","","","","","","","","","","","","","","","","","","",""
"","","","","","canvas-keyboard-response","47","192337","0.0-13.0-4.6","2d_cat_multi_stim_exp1","2022-4-1","15:21:36","25","75","3","9","10","40","30","120","8","20","[""White""]","No","Female","1708189","null","","null","","","clear_screen","","","","","","","","","","","","","","","","","","","","","","","","","",""
"","","","","","canvas-keyboard-response","48","192846","0.0-13.0-0.7","2d_cat_multi_stim_exp1","2022-4-1","15:21:36","25","75","3","9","10","40","30","120","8","20","[""White""]","No","Female","1708189","null","","null","","","fixation","","","","","","","","","","","","","","","","","","","","","","","","","",""
"","","","","","canvas-keyboard-response","49","193357","0.0-13.0-1.7","2d_cat_multi_stim_exp1","2022-4-1","15:21:36","25","75","3","9","10","40","30","120","8","20","[""White""]","No","Female","1708189","null","","null","","","clear_screen","","","","","","","","","","","","","","","","","","","","","","","","","",""
"","","","","","canvas-keyboard-response","50","195997","0.0-13.0-2.7","2d_cat_multi_stim_exp1","2022-4-1","15:21:36","25","75","3","9","10","40","30","120","8","20","[""White""]","No","Female","1708189","2631","","i","learn","","learn_trial","40","30","out","1","0","","","","","","","","","","","","","","","","","","","","",""
"","","","","","canvas-keyboard-response","51","196508","0.0-13.0-3.7","2d_cat_multi_stim_exp1","2022-4-1","15:21:36","25","75","3","9","10","40","30","120","8","20","[""White""]","No","Female","1708189","null","","null","learn_feedback","","learn_feedback","40","30","out","","","","","","","","","","","","","","","","","","","","","","",""
"","","","","","canvas-keyboard-response","52","196568","0.0-13.0-4.7","2d_cat_multi_stim_exp1","2022-4-1","15:21:36","25","75","3","9","10","40","30","120","8","20","[""White""]","No","Female","1708189","null","","null","","","clear_screen","","","","","","","","","","","","","","","","","","","","","","","","","",""
"","","","","","canvas-keyboard-response","53","197078","0.0-13.0-0.8","2d_cat_multi_stim_exp1","2022-4-1","15:21:36","25","75","3","9","10","40","30","120","8","20","[""White""]","No","Female","1708189","null","","null","","","fixation","","","","","","","","","","","","","","","","","","","","","","","","","",""
"","","","","","canvas-keyboard-response","54","197591","0.0-13.0-1.8","2d_cat_multi_stim_exp1","2022-4-1","15:21:36","25","75","3","9","10","40","30","120","8","20","[""White""]","No","Female","1708189","null","","null","","","clear_screen","","","","","","","","","","","","","","","","","","","","","","","","","",""
"","","","","","canvas-keyboard-response","55","198652","0.0-13.0-2.8","2d_cat_multi_stim_exp1","2022-4-1","15:21:36","25","75","3","9","10","40","30","120","8","20","[""White""]","No","Female","1708189","1057","","i","learn","","learn_trial","25","75","in","0","0","","","","","","","","","","","","","","","","","","","","",""
"","","","","","canvas-keyboard-response","56","199664","0.0-13.0-3.8","2d_cat_multi_stim_exp1","2022-4-1","15:21:36","25","75","3","9","10","40","30","120","8","20","[""White""]","No","Female","1708189","null","","null","learn_feedback","","learn_feedback","25","75","in","","","","","","","","","","","","","","","","","","","","","","",""
"","","","","","canvas-keyboard-response","57","199725","0.0-13.0-4.8","2d_cat_multi_stim_exp1","2022-4-1","15:21:36","25","75","3","9","10","40","30","120","8","20","[""White""]","No","Female","1708189","null","","null","","","clear_screen","","","","","","","","","","","","","","","","","","","","","","","","","",""
"","","","","","canvas-keyboard-response","58","200235","0.0-13.0-0.9","2d_cat_multi_stim_exp1","2022-4-1","15:21:36","25","75","3","9","10","40","30","120","8","20","[""White""]","No","Female","1708189","null","","null","","","fixation","","","","","","","","","","","","","","","","","","","","","","","","","",""
"","","","","","canvas-keyboard-response","59","200744","0.0-13.0-1.9","2d_cat_multi_stim_exp1","2022-4-1","15:21:36","25","75","3","9","10","40","30","120","8","20","[""White""]","No","Female","1708189","null","","null","","","clear_screen","","","","","","","","","","","","","","","","","","","","","","","","","",""
"","","","","","canvas-keyboard-response","60","202964","0.0-13.0-2.9","2d_cat_multi_stim_exp1","2022-4-1","15:21:36","25","75","3","9","10","40","30","120","8","20","[""White""]","No","Female","1708189","2211","","u","learn","","learn_trial","40","70","out","0","1","","","","","","","","","","","","","","","","","","","","",""
"","","","","","canvas-keyboard-response","61","203972","0.0-13.0-3.9","2d_cat_multi_stim_exp1","2022-4-1","15:21:36","25","75","3","9","10","40","30","120","8","20","[""White""]","No","Female","1708189","null","","null","learn_feedback","","learn_feedback","40","70","out","","","","","","","","","","","","","","","","","","","","","","",""
"","","","","","canvas-keyboard-response","62","204032","0.0-13.0-4.9","2d_cat_multi_stim_exp1","2022-4-1","15:21:36","25","75","3","9","10","40","30","120","8","20","[""White""]","No","Female","1708189","null","","null","","","clear_screen","","","","","","","","","","","","","","","","","","","","","","","","","",""
"","","","","","canvas-keyboard-response","63","204542","0.0-13.0-0.10","2d_cat_multi_stim_exp1","2022-4-1","15:21:36","25","75","3","9","10","40","30","120","8","20","[""White""]","No","Female","1708189","null","","null","","","fixation","","","","","","","","","","","","","","","","","","","","","","","","","",""
"","","","","","canvas-keyboard-response","64","205051","0.0-13.0-1.10","2d_cat_multi_stim_exp1","2022-4-1","15:21:36","25","75","3","9","10","40","30","120","8","20","[""White""]","No","Female","1708189","null","","null","","","clear_screen","","","","","","","","","","","","","","","","","","","","","","","","","",""
"","","","","","canvas-keyboard-response","65","205910","0.0-13.0-2.10","2d_cat_multi_stim_exp1","2022-4-1","15:21:36","25","75","3","9","10","40","30","120","8","20","[""White""]","No","Female","1708189","846","","u","learn","","learn_trial","27.5753","79.6161","in","1","1","","","","","","","","","","","","","","","","","","","","",""
"","","","","","canvas-keyboard-response","66","206417","0.0-13.0-3.10","2d_cat_multi_stim_exp1","2022-4-1","15:21:36","25","75","3","9","10","40","30","120","8","20","[""White""]","No","Female","1708189","null","","null","learn_feedback","","learn_feedback","27.5753","79.6161","in","","","","","","","","","","","","","","","","","","","","","","",""
"","","","","","canvas-keyboard-response","67","206480","0.0-13.0-4.10","2d_cat_multi_stim_exp1","2022-4-1","15:21:36","25","75","3","9","10","40","30","120","8","20","[""White""]","No","Female","1708189","null","","null","","","clear_screen","","","","","","","","","","","","","","","","","","","","","","","","","",""
"","","","","","canvas-keyboard-response","68","206988","0.0-13.0-0.11","2d_cat_multi_stim_exp1","2022-4-1","15:21:36","25","75","3","9","10","40","30","120","8","20","[""White""]","No","Female","1708189","null","","null","","","fixation","","","","","","","","","","","","","","","","","","","","","","","","","",""
"","","","","","canvas-keyboard-response","69","207498","0.0-13.0-1.11","2d_cat_multi_stim_exp1","2022-4-1","15:21:36","25","75","3","9","10","40","30","120","8","20","[""White""]","No","Female","1708189","null","","null","","","clear_screen","","","","","","","","","","","","","","","","","","","","","","","","","",""
"","","","","","canvas-keyboard-response","70","208109","0.0-13.0-2.11","2d_cat_multi_stim_exp1","2022-4-1","15:21:36","25","75","3","9","10","40","30","120","8","20","[""White""]","No","Female","1708189","598","","u","learn","","learn_trial","25","75","in","1","1","","","","","","","","","","","","","","","","","","","","",""
"","","","","","canvas-keyboard-response","71","208620","0.0-13.0-3.11","2d_cat_multi_stim_exp1","2022-4-1","15:21:36","25","75","3","9","10","40","30","120","8","20","[""White""]","No","Female","1708189","null","","null","learn_feedback","","learn_feedback","25","75","in","","","","","","","","","","","","","","","","","","","","","","",""
"","","","","","canvas-keyboard-response","72","208681","0.0-13.0-4.11","2d_cat_multi_stim_exp1","2022-4-1","15:21:36","25","75","3","9","10","40","30","120","8","20","[""White""]","No","Female","1708189","null","","null","","","clear_screen","","","","","","","","","","","","","","","","","","","","","","","","","",""
"","","","","","canvas-keyboard-response","73","209189","0.0-13.0-0.12","2d_cat_multi_stim_exp1","2022-4-1","15:21:36","25","75","3","9","10","40","30","120","8","20","[""White""]","No","Female","1708189","null","","null","","","fixation","","","","","","","","","","","","","","","","","","","","","","","","","",""
"","","","","","canvas-keyboard-response","74","209700","0.0-13.0-1.12","2d_cat_multi_stim_exp1","2022-4-1","15:21:36","25","75","3","9","10","40","30","120","8","20","[""White""]","No","Female","1708189","null","","null","","","clear_screen","","","","","","","","","","","","","","","","","","","","","","","","","",""
"","","","","","canvas-keyboard-response","75","210628","0.0-13.0-2.12","2d_cat_multi_stim_exp1","2022-4-1","15:21:36","25","75","3","9","10","40","30","120","8","20","[""White""]","No","Female","1708189","918","","i","learn","","learn_trial","27.8087","71.8376","in","0","0","","","","","","","","","","","","","","","","","","","","",""
"","","","","","canvas-keyboard-response","76","211640","0.0-13.0-3.12","2d_cat_multi_stim_exp1","2022-4-1","15:21:36","25","75","3","9","10","40","30","120","8","20","[""White""]","No","Female","1708189","null","","null","learn_feedback","","learn_feedback","27.8087","71.8376","in","","","","","","","","","","","","","","","","","","","","","","",""
"","","","","","canvas-keyboard-response","77","211703","0.0-13.0-4.12","2d_cat_multi_stim_exp1","2022-4-1","15:21:36","25","75","3","9","10","40","30","120","8","20","[""White""]","No","Female","1708189","null","","null","","","clear_screen","","","","","","","","","","","","","","","","","","","","","","","","","",""
"","","","","","canvas-keyboard-response","78","212210","0.0-13.0-0.13","2d_cat_multi_stim_exp1","2022-4-1","15:21:36","25","75","3","9","10","40","30","120","8","20","[""White""]","No","Female","1708189","null","","null","","","fixation","","","","","","","","","","","","","","","","","","","","","","","","","",""
"","","","","","canvas-keyboard-response","79","212721","0.0-13.0-1.13","2d_cat_multi_stim_exp1","2022-4-1","15:21:36","25","75","3","9","10","40","30","120","8","20","[""White""]","No","Female","1708189","null","","null","","","clear_screen","","","","","","","","","","","","","","","","","","","","","","","","","",""
"","","","","","canvas-keyboard-response","80","213844","0.0-13.0-2.13","2d_cat_multi_stim_exp1","2022-4-1","15:21:36","25","75","3","9","10","40","30","120","8","20","[""White""]","No","Female","1708189","1112","","i","learn","","learn_trial","26.6667","50","out","1","0","","","","","","","","","","","","","","","","","","","","",""
"","","","","","canvas-keyboard-response","81","214352","0.0-13.0-3.13","2d_cat_multi_stim_exp1","2022-4-1","15:21:36","25","75","3","9","10","40","30","120","8","20","[""White""]","No","Female","1708189","null","","null","learn_feedback","","learn_feedback","26.6667","50","out","","","","","","","","","","","","","","","","","","","","","","",""
"","","","","","canvas-keyboard-response","82","214414","0.0-13.0-4.13","2d_cat_multi_stim_exp1","2022-4-1","15:21:36","25","75","3","9","10","40","30","120","8","20","[""White""]","No","Female","1708189","null","","null","","","clear_screen","","","","","","","","","","","","","","","","","","","","","","","","","",""
"","","","","","canvas-keyboard-response","83","214923","0.0-13.0-0.14","2d_cat_multi_stim_exp1","2022-4-1","15:21:36","25","75","3","9","10","40","30","120","8","20","[""White""]","No","Female","1708189","null","","null","","","fixation","","","","","","","","","","","","","","","","","","","","","","","","","",""
"","","","","","canvas-keyboard-response","84","215437","0.0-13.0-1.14","2d_cat_multi_stim_exp1","2022-4-1","15:21:36","25","75","3","9","10","40","30","120","8","20","[""White""]","No","Female","1708189","null","","null","","","clear_screen","","","","","","","","","","","","","","","","","","","","","","","","","",""
"","","","","","canvas-keyboard-response","85","216461","0.0-13.0-2.14","2d_cat_multi_stim_exp1","2022-4-1","15:21:36","25","75","3","9","10","40","30","120","8","20","[""White""]","No","Female","1708189","1010","","u","learn","","learn_trial","25","75","in","1","1","","","","","","","","","","","","","","","","","","","","",""
"","","","","","canvas-keyboard-response","86","216972","0.0-13.0-3.14","2d_cat_multi_stim_exp1","2022-4-1","15:21:36","25","75","3","9","10","40","30","120","8","20","[""White""]","No","Female","1708189","null","","null","learn_feedback","","learn_feedback","25","75","in","","","","","","","","","","","","","","","","","","","","","","",""
"","","","","","canvas-keyboard-response","87","217033","0.0-13.0-4.14","2d_cat_multi_stim_exp1","2022-4-1","15:21:36","25","75","3","9","10","40","30","120","8","20","[""White""]","No","Female","1708189","null","","null","","","clear_screen","","","","","","","","","","","","","","","","","","","","","","","","","",""
"","","","","","canvas-keyboard-response","88","217543","0.0-13.0-0.15","2d_cat_multi_stim_exp1","2022-4-1","15:21:36","25","75","3","9","10","40","30","120","8","20","[""White""]","No","Female","1708189","null","","null","","","fixation","","","","","","","","","","","","","","","","","","","","","","","","","",""
"","","","","","canvas-keyboard-response","89","218057","0.0-13.0-1.15","2d_cat_multi_stim_exp1","2022-4-1","15:21:36","25","75","3","9","10","40","30","120","8","20","[""White""]","No","Female","1708189","null","","null","","","clear_screen","","","","","","","","","","","","","","","","","","","","","","","","","",""
"","","","","","canvas-keyboard-response","90","219197","0.0-13.0-2.15","2d_cat_multi_stim_exp1","2022-4-1","15:21:36","25","75","3","9","10","40","30","120","8","20","[""White""]","No","Female","1708189","1129","","i","learn","","learn_trial","33.3333","30","out","1","0","","","","","","","","","","","","","","","","","","","","",""
"","","","","","canvas-keyboard-response","91","219711","0.0-13.0-3.15","2d_cat_multi_stim_exp1","2022-4-1","15:21:36","25","75","3","9","10","40","30","120","8","20","[""White""]","No","Female","1708189","null","","null","learn_feedback","","learn_feedback","33.3333","30","out","","","","","","","","","","","","","","","","","","","","","","",""
"","","","","","canvas-keyboard-response","92","219772","0.0-13.0-4.15","2d_cat_multi_stim_exp1","2022-4-1","15:21:36","25","75","3","9","10","40","30","120","8","20","[""White""]","No","Female","1708189","null","","null","","","clear_screen","","","","","","","","","","","","","","","","","","","","","","","","","",""
"","","","","","canvas-keyboard-response","93","220283","0.0-13.0-0.16","2d_cat_multi_stim_exp1","2022-4-1","15:21:36","25","75","3","9","10","40","30","120","8","20","[""White""]","No","Female","1708189","null","","null","","","fixation","","","","","","","","","","","","","","","","","","","","","","","","","",""
"","","","","","canvas-keyboard-response","94","220797","0.0-13.0-1.16","2d_cat_multi_stim_exp1","2022-4-1","15:21:36","25","75","3","9","10","40","30","120","8","20","[""White""]","No","Female","1708189","null","","null","","","clear_screen","","","","","","","","","","","","","","","","","","","","","","","","","",""
"","","","","","canvas-keyboard-response","95","222364","0.0-13.0-2.16","2d_cat_multi_stim_exp1","2022-4-1","15:21:36","25","75","3","9","10","40","30","120","8","20","[""White""]","No","Female","1708189","1558","","u","learn","","learn_trial","20","90","out","0","1","","","","","","","","","","","","","","","","","","","","",""
"","","","","","canvas-keyboard-response","96","223374","0.0-13.0-3.16","2d_cat_multi_stim_exp1","2022-4-1","15:21:36","25","75","3","9","10","40","30","120","8","20","[""White""]","No","Female","1708189","null","","null","learn_feedback","","learn_feedback","20","90","out","","","","","","","","","","","","","","","","","","","","","","",""
"","","","","","canvas-keyboard-response","97","223435","0.0-13.0-4.16","2d_cat_multi_stim_exp1","2022-4-1","15:21:36","25","75","3","9","10","40","30","120","8","20","[""White""]","No","Female","1708189","null","","null","","","clear_screen","","","","","","","","","","","","","","","","","","","","","","","","","",""
"","","","","","canvas-keyboard-response","98","223943","0.0-13.0-0.17","2d_cat_multi_stim_exp1","2022-4-1","15:21:36","25","75","3","9","10","40","30","120","8","20","[""White""]","No","Female","1708189","null","","null","","","fixation","","","","","","","","","","","","","","","","","","","","","","","","","",""
"","","","","","canvas-keyboard-response","99","224453","0.0-13.0-1.17","2d_cat_multi_stim_exp1","2022-4-1","15:21:36","25","75","3","9","10","40","30","120","8","20","[""White""]","No","Female","1708189","null","","null","","","clear_screen","","","","","","","","","","","","","","","","","","","","","","","","","",""
"","","","","","canvas-keyboard-response","100","225566","0.0-13.0-2.17","2d_cat_multi_stim_exp1","2022-4-1","15:21:36","25","75","3","9","10","40","30","120","8","20","[""White""]","No","Female","1708189","1101","","i","learn","","learn_trial","36.6667","60","out","1","0","","","","","","","","","","","","","","","","","","","","",""
"","","","","","canvas-keyboard-response","101","226076","0.0-13.0-3.17","2d_cat_multi_stim_exp1","2022-4-1","15:21:36","25","75","3","9","10","40","30","120","8","20","[""White""]","No","Female","1708189","null","","null","learn_feedback","","learn_feedback","36.6667","60","out","","","","","","","","","","","","","","","","","","","","","","",""
"","","","","","canvas-keyboard-response","102","226137","0.0-13.0-4.17","2d_cat_multi_stim_exp1","2022-4-1","15:21:36","25","75","3","9","10","40","30","120","8","20","[""White""]","No","Female","1708189","null","","null","","","clear_screen","","","","","","","","","","","","","","","","","","","","","","","","","",""
"","","","","","canvas-keyboard-response","103","226643","0.0-13.0-0.18","2d_cat_multi_stim_exp1","2022-4-1","15:21:36","25","75","3","9","10","40","30","120","8","20","[""White""]","No","Female","1708189","null","","null","","","fixation","","","","","","","","","","","","","","","","","","","","","","","","","",""
"","","","","","canvas-keyboard-response","104","227152","0.0-13.0-1.18","2d_cat_multi_stim_exp1","2022-4-1","15:21:36","25","75","3","9","10","40","30","120","8","20","[""White""]","No","Female","1708189","null","","null","","","clear_screen","","","","","","","","","","","","","","","","","","","","","","","","","",""
"","","","","","canvas-keyboard-response","105","228220","0.0-13.0-2.18","2d_cat_multi_stim_exp1","2022-4-1","15:21:36","25","75","3","9","10","40","30","120","8","20","[""White""]","No","Female","1708189","1059","","u","learn","","learn_trial","19","75","in","1","1","","","","","","","","","","","","","","","","","","","","",""
"","","","","","canvas-keyboard-response","106","228732","0.0-13.0-3.18","2d_cat_multi_stim_exp1","2022-4-1","15:21:36","25","75","3","9","10","40","30","120","8","20","[""White""]","No","Female","1708189","null","","null","learn_feedback","","learn_feedback","19","75","in","","","","","","","","","","","","","","","","","","","","","","",""
"","","","","","canvas-keyboard-response","107","228794","0.0-13.0-4.18","2d_cat_multi_stim_exp1","2022-4-1","15:21:36","25","75","3","9","10","40","30","120","8","20","[""White""]","No","Female","1708189","null","","null","","","clear_screen","","","","","","","","","","","","","","","","","","","","","","","","","",""
"","","","","","canvas-keyboard-response","108","229301","0.0-13.0-0.19","2d_cat_multi_stim_exp1","2022-4-1","15:21:36","25","75","3","9","10","40","30","120","8","20","[""White""]","No","Female","1708189","null","","null","","","fixation","","","","","","","","","","","","","","","","","","","","","","","","","",""
"","","","","","canvas-keyboard-response","109","229810","0.0-13.0-1.19","2d_cat_multi_stim_exp1","2022-4-1","15:21:36","25","75","3","9","10","40","30","120","8","20","[""White""]","No","Female","1708189","null","","null","","","clear_screen","","","","","","","","","","","","","","","","","","","","","","","","","",""
"","","","","","canvas-keyboard-response","110","230877","0.0-13.0-2.19","2d_cat_multi_stim_exp1","2022-4-1","15:21:36","25","75","3","9","10","40","30","120","8","20","[""White""]","No","Female","1708189","1054","","u","learn","","learn_trial","25","75","in","1","1","","","","","","","","","","","","","","","","","","","","",""
"","","","","","canvas-keyboard-response","111","231386","0.0-13.0-3.19","2d_cat_multi_stim_exp1","2022-4-1","15:21:36","25","75","3","9","10","40","30","120","8","20","[""White""]","No","Female","1708189","null","","null","learn_feedback","","learn_feedback","25","75","in","","","","","","","","","","","","","","","","","","","","","","",""
"","","","","","canvas-keyboard-response","112","231444","0.0-13.0-4.19","2d_cat_multi_stim_exp1","2022-4-1","15:21:36","25","75","3","9","10","40","30","120","8","20","[""White""]","No","Female","1708189","null","","null","","","clear_screen","","","","","","","","","","","","","","","","","","","","","","","","","",""
"","","","","","canvas-keyboard-response","113","231956","0.0-13.0-0.20","2d_cat_multi_stim_exp1","2022-4-1","15:21:36","25","75","3","9","10","40","30","120","8","20","[""White""]","No","Female","1708189","null","","null","","","fixation","","","","","","","","","","","","","","","","","","","","","","","","","",""
"","","","","","canvas-keyboard-response","114","232469","0.0-13.0-1.20","2d_cat_multi_stim_exp1","2022-4-1","15:21:36","25","75","3","9","10","40","30","120","8","20","[""White""]","No","Female","1708189","null","","null","","","clear_screen","","","","","","","","","","","","","","","","","","","","","","","","","",""
"","","","","","canvas-keyboard-response","115","233605","0.0-13.0-2.20","2d_cat_multi_stim_exp1","2022-4-1","15:21:36","25","75","3","9","10","40","30","120","8","20","[""White""]","No","Female","1708189","1126","","i","learn","","learn_trial","33.3333","40","out","1","0","","","","","","","","","","","","","","","","","","","","",""
"","","","","","canvas-keyboard-response","116","234116","0.0-13.0-3.20","2d_cat_multi_stim_exp1","2022-4-1","15:21:36","25","75","3","9","10","40","30","120","8","20","[""White""]","No","Female","1708189","null","","null","learn_feedback","","learn_feedback","33.3333","40","out","","","","","","","","","","","","","","","","","","","","","","",""
"","","","","","canvas-keyboard-response","117","234177","0.0-13.0-4.20","2d_cat_multi_stim_exp1","2022-4-1","15:21:36","25","75","3","9","10","40","30","120","8","20","[""White""]","No","Female","1708189","null","","null","","","clear_screen","","","","","","","","","","","","","","","","","","","","","","","","","",""
"","","","","","canvas-keyboard-response","118","234685","0.0-13.0-0.21","2d_cat_multi_stim_exp1","2022-4-1","15:21:36","25","75","3","9","10","40","30","120","8","20","[""White""]","No","Female","1708189","null","","null","","","fixation","","","","","","","","","","","","","","","","","","","","","","","","","",""
"","","","","","canvas-keyboard-response","119","235195","0.0-13.0-1.21","2d_cat_multi_stim_exp1","2022-4-1","15:21:36","25","75","3","9","10","40","30","120","8","20","[""White""]","No","Female","1708189","null","","null","","","clear_screen","","","","","","","","","","","","","","","","","","","","","","","","","",""
"","","","","","canvas-keyboard-response","120","236189","0.0-13.0-2.21","2d_cat_multi_stim_exp1","2022-4-1","15:21:36","25","75","3","9","10","40","30","120","8","20","[""White""]","No","Female","1708189","984","","u","learn","","learn_trial","25","75","in","1","1","","","","","","","","","","","","","","","","","","","","",""
"","","","","","canvas-keyboard-response","121","236697","0.0-13.0-3.21","2d_cat_multi_stim_exp1","2022-4-1","15:21:36","25","75","3","9","10","40","30","120","8","20","[""White""]","No","Female","1708189","null","","null","learn_feedback","","learn_feedback","25","75","in","","","","","","","","","","","","","","","","","","","","","","",""
"","","","","","canvas-keyboard-response","122","236760","0.0-13.0-4.21","2d_cat_multi_stim_exp1","2022-4-1","15:21:36","25","75","3","9","10","40","30","120","8","20","[""White""]","No","Female","1708189","null","","null","","","clear_screen","","","","","","","","","","","","","","","","","","","","","","","","","",""
"","","","","","canvas-keyboard-response","123","237269","0.0-13.0-0.22","2d_cat_multi_stim_exp1","2022-4-1","15:21:36","25","75","3","9","10","40","30","120","8","20","[""White""]","No","Female","1708189","null","","null","","","fixation","","","","","","","","","","","","","","","","","","","","","","","","","",""
"","","","","","canvas-keyboard-response","124","237781","0.0-13.0-1.22","2d_cat_multi_stim_exp1","2022-4-1","15:21:36","25","75","3","9","10","40","30","120","8","20","[""White""]","No","Female","1708189","null","","null","","","clear_screen","","","","","","","","","","","","","","","","","","","","","","","","","",""
"","","","","","canvas-keyboard-response","125","238900","0.0-13.0-2.22","2d_cat_multi_stim_exp1","2022-4-1","15:21:36","25","75","3","9","10","40","30","120","8","20","[""White""]","No","Female","1708189","1108","","u","learn","","learn_trial","25","75","in","1","1","","","","","","","","","","","","","","","","","","","","",""
"","","","","","canvas-keyboard-response","126","239409","0.0-13.0-3.22","2d_cat_multi_stim_exp1","2022-4-1","15:21:36","25","75","3","9","10","40","30","120","8","20","[""White""]","No","Female","1708189","null","","null","learn_feedback","","learn_feedback","25","75","in","","","","","","","","","","","","","","","","","","","","","","",""
"","","","","","canvas-keyboard-response","127","239470","0.0-13.0-4.22","2d_cat_multi_stim_exp1","2022-4-1","15:21:36","25","75","3","9","10","40","30","120","8","20","[""White""]","No","Female","1708189","null","","null","","","clear_screen","","","","","","","","","","","","","","","","","","","","","","","","","",""
"","","","","","canvas-keyboard-response","128","239978","0.0-13.0-0.23","2d_cat_multi_stim_exp1","2022-4-1","15:21:36","25","75","3","9","10","40","30","120","8","20","[""White""]","No","Female","1708189","null","","null","","","fixation","","","","","","","","","","","","","","","","","","","","","","","","","",""
"","","","","","canvas-keyboard-response","129","240491","0.0-13.0-1.23","2d_cat_multi_stim_exp1","2022-4-1","15:21:36","25","75","3","9","10","40","30","120","8","20","[""White""]","No","Female","1708189","null","","null","","","clear_screen","","","","","","","","","","","","","","","","","","","","","","","","","",""
"","","","","","canvas-keyboard-response","130","241269","0.0-13.0-2.23","2d_cat_multi_stim_exp1","2022-4-1","15:21:36","25","75","3","9","10","40","30","120","8","20","[""White""]","No","Female","1708189","767","","i","learn","","learn_trial","25.9271","66.4405","in","0","0","","","","","","","","","","","","","","","","","","","","",""
"","","","","","canvas-keyboard-response","131","242277","0.0-13.0-3.23","2d_cat_multi_stim_exp1","2022-4-1","15:21:36","25","75","3","9","10","40","30","120","8","20","[""White""]","No","Female","1708189","null","","null","learn_feedback","","learn_feedback","25.9271","66.4405","in","","","","","","","","","","","","","","","","","","","","","","",""
"","","","","","canvas-keyboard-response","132","242336","0.0-13.0-4.23","2d_cat_multi_stim_exp1","2022-4-1","15:21:36","25","75","3","9","10","40","30","120","8","20","[""White""]","No","Female","1708189","null","","null","","","clear_screen","","","","","","","","","","","","","","","","","","","","","","","","","",""
"","","","","","canvas-keyboard-response","133","242846","0.0-13.0-0.24","2d_cat_multi_stim_exp1","2022-4-1","15:21:36","25","75","3","9","10","40","30","120","8","20","[""White""]","No","Female","1708189","null","","null","","","fixation","","","","","","","","","","","","","","","","","","","","","","","","","",""
"","","","","","canvas-keyboard-response","134","243357","0.0-13.0-1.24","2d_cat_multi_stim_exp1","2022-4-1","15:21:36","25","75","3","9","10","40","30","120","8","20","[""White""]","No","Female","1708189","null","","null","","","clear_screen","","","","","","","","","","","","","","","","","","","","","","","","","",""
"","","","","","canvas-keyboard-response","135","244172","0.0-13.0-2.24","2d_cat_multi_stim_exp1","2022-4-1","15:21:36","25","75","3","9","10","40","30","120","8","20","[""White""]","No","Female","1708189","810","","u","learn","","learn_trial","27.8087","78.1624","in","1","1","","","","","","","","","","","","","","","","","","","","",""
"","","","","","canvas-keyboard-response","136","244682","0.0-13.0-3.24","2d_cat_multi_stim_exp1","2022-4-1","15:21:36","25","75","3","9","10","40","30","120","8","20","[""White""]","No","Female","1708189","null","","null","learn_feedback","","learn_feedback","27.8087","78.1624","in","","","","","","","","","","","","","","","","","","","","","","",""
"","","","","","canvas-keyboard-response","137","244743","0.0-13.0-4.24","2d_cat_multi_stim_exp1","2022-4-1","15:21:36","25","75","3","9","10","40","30","120","8","20","[""White""]","No","Female","1708189","null","","null","","","clear_screen","","","","","","","","","","","","","","","","","","","","","","","","","",""
"","","","","","canvas-keyboard-response","138","245250","0.0-13.0-0.25","2d_cat_multi_stim_exp1","2022-4-1","15:21:36","25","75","3","9","10","40","30","120","8","20","[""White""]","No","Female","1708189","null","","null","","","fixation","","","","","","","","","","","","","","","","","","","","","","","","","",""
"","","","","","canvas-keyboard-response","139","245765","0.0-13.0-1.25","2d_cat_multi_stim_exp1","2022-4-1","15:21:36","25","75","3","9","10","40","30","120","8","20","[""White""]","No","Female","1708189","null","","null","","","clear_screen","","","","","","","","","","","","","","","","","","","","","","","","","",""
"","","","","","canvas-keyboard-response","140","247478","0.0-13.0-2.25","2d_cat_multi_stim_exp1","2022-4-1","15:21:36","25","75","3","9","10","40","30","120","8","20","[""White""]","No","Female","1708189","1701","","u","learn","","learn_trial","25","75","in","1","1","","","","","","","","","","","","","","","","","","","","",""
"","","","","","canvas-keyboard-response","141","247987","0.0-13.0-3.25","2d_cat_multi_stim_exp1","2022-4-1","15:21:36","25","75","3","9","10","40","30","120","8","20","[""White""]","No","Female","1708189","null","","null","learn_feedback","","learn_feedback","25","75","in","","","","","","","","","","","","","","","","","","","","","","",""
"","","","","","canvas-keyboard-response","142","248048","0.0-13.0-4.25","2d_cat_multi_stim_exp1","2022-4-1","15:21:36","25","75","3","9","10","40","30","120","8","20","[""White""]","No","Female","1708189","null","","null","","","clear_screen","","","","","","","","","","","","","","","","","","","","","","","","","",""
"","","","","","canvas-keyboard-response","143","248558","0.0-13.0-0.26","2d_cat_multi_stim_exp1","2022-4-1","15:21:36","25","75","3","9","10","40","30","120","8","20","[""White""]","No","Female","1708189","null","","null","","","fixation","","","","","","","","","","","","","","","","","","","","","","","","","",""
"","","","","","canvas-keyboard-response","144","249073","0.0-13.0-1.26","2d_cat_multi_stim_exp1","2022-4-1","15:21:36","25","75","3","9","10","40","30","120","8","20","[""White""]","No","Female","1708189","null","","null","","","clear_screen","","","","","","","","","","","","","","","","","","","","","","","","","",""
"","","","","","canvas-keyboard-response","145","249805","0.0-13.0-2.26","2d_cat_multi_stim_exp1","2022-4-1","15:21:36","25","75","3","9","10","40","30","120","8","20","[""White""]","No","Female","1708189","723","","i","learn","","learn_trial","16.6667","40","out","1","0","","","","","","","","","","","","","","","","","","","","",""
"","","","","","canvas-keyboard-response","146","250316","0.0-13.0-3.26","2d_cat_multi_stim_exp1","2022-4-1","15:21:36","25","75","3","9","10","40","30","120","8","20","[""White""]","No","Female","1708189","null","","null","learn_feedback","","learn_feedback","16.6667","40","out","","","","","","","","","","","","","","","","","","","","","","",""
"","","","","","canvas-keyboard-response","147","250377","0.0-13.0-4.26","2d_cat_multi_stim_exp1","2022-4-1","15:21:36","25","75","3","9","10","40","30","120","8","20","[""White""]","No","Female","1708189","null","","null","","","clear_screen","","","","","","","","","","","","","","","","","","","","","","","","","",""
"","","","","","canvas-keyboard-response","148","250888","0.0-13.0-0.27","2d_cat_multi_stim_exp1","2022-4-1","15:21:36","25","75","3","9","10","40","30","120","8","20","[""White""]","No","Female","1708189","null","","null","","","fixation","","","","","","","","","","","","","","","","","","","","","","","","","",""
"","","","","","canvas-keyboard-response","149","251400","0.0-13.0-1.27","2d_cat_multi_stim_exp1","2022-4-1","15:21:36","25","75","3","9","10","40","30","120","8","20","[""White""]","No","Female","1708189","null","","null","","","clear_screen","","","","","","","","","","","","","","","","","","","","","","","","","",""
"","","","","","canvas-keyboard-response","150","252789","0.0-13.0-2.27","2d_cat_multi_stim_exp1","2022-4-1","15:21:36","25","75","3","9","10","40","30","120","8","20","[""White""]","No","Female","1708189","1379","","i","learn","","learn_trial","20","120","out","1","0","","","","","","","","","","","","","","","","","","","","",""
"","","","","","canvas-keyboard-response","151","253300","0.0-13.0-3.27","2d_cat_multi_stim_exp1","2022-4-1","15:21:36","25","75","3","9","10","40","30","120","8","20","[""White""]","No","Female","1708189","null","","null","learn_feedback","","learn_feedback","20","120","out","","","","","","","","","","","","","","","","","","","","","","",""
"","","","","","canvas-keyboard-response","152","253362","0.0-13.0-4.27","2d_cat_multi_stim_exp1","2022-4-1","15:21:36","25","75","3","9","10","40","30","120","8","20","[""White""]","No","Female","1708189","null","","null","","","clear_screen","","","","","","","","","","","","","","","","","","","","","","","","","",""
"","","","","","canvas-keyboard-response","153","253870","0.0-13.0-0.28","2d_cat_multi_stim_exp1","2022-4-1","15:21:36","25","75","3","9","10","40","30","120","8","20","[""White""]","No","Female","1708189","null","","null","","","fixation","","","","","","","","","","","","","","","","","","","","","","","","","",""
"","","","","","canvas-keyboard-response","154","254381","0.0-13.0-1.28","2d_cat_multi_stim_exp1","2022-4-1","15:21:36","25","75","3","9","10","40","30","120","8","20","[""White""]","No","Female","1708189","null","","null","","","clear_screen","","","","","","","","","","","","","","","","","","","","","","","","","",""
"","","","","","canvas-keyboard-response","155","255413","0.0-13.0-2.28","2d_cat_multi_stim_exp1","2022-4-1","15:21:36","25","75","3","9","10","40","30","120","8","20","[""White""]","No","Female","1708189","1023","","u","learn","","learn_trial","31","75","in","1","1","","","","","","","","","","","","","","","","","","","","",""
"","","","","","canvas-keyboard-response","156","255921","0.0-13.0-3.28","2d_cat_multi_stim_exp1","2022-4-1","15:21:36","25","75","3","9","10","40","30","120","8","20","[""White""]","No","Female","1708189","null","","null","learn_feedback","","learn_feedback","31","75","in","","","","","","","","","","","","","","","","","","","","","","",""
"","","","","","canvas-keyboard-response","157","255980","0.0-13.0-4.28","2d_cat_multi_stim_exp1","2022-4-1","15:21:36","25","75","3","9","10","40","30","120","8","20","[""White""]","No","Female","1708189","null","","null","","","clear_screen","","","","","","","","","","","","","","","","","","","","","","","","","",""
"","","","","","canvas-keyboard-response","158","256491","0.0-13.0-0.29","2d_cat_multi_stim_exp1","2022-4-1","15:21:36","25","75","3","9","10","40","30","120","8","20","[""White""]","No","Female","1708189","null","","null","","","fixation","","","","","","","","","","","","","","","","","","","","","","","","","",""
"","","","","","canvas-keyboard-response","159","257000","0.0-13.0-1.29","2d_cat_multi_stim_exp1","2022-4-1","15:21:36","25","75","3","9","10","40","30","120","8","20","[""White""]","No","Female","1708189","null","","null","","","clear_screen","","","","","","","","","","","","","","","","","","","","","","","","","",""
"","","","","","canvas-keyboard-response","160","258213","0.0-13.0-2.29","2d_cat_multi_stim_exp1","2022-4-1","15:21:36","25","75","3","9","10","40","30","120","8","20","[""White""]","No","Female","1708189","1202","","u","learn","","learn_trial","33.3333","60","out","0","1","","","","","","","","","","","","","","","","","","","","",""
"","","","","","canvas-keyboard-response","161","259223","0.0-13.0-3.29","2d_cat_multi_stim_exp1","2022-4-1","15:21:36","25","75","3","9","10","40","30","120","8","20","[""White""]","No","Female","1708189","null","","null","learn_feedback","","learn_feedback","33.3333","60","out","","","","","","","","","","","","","","","","","","","","","","",""
"","","","","","canvas-keyboard-response","162","259286","0.0-13.0-4.29","2d_cat_multi_stim_exp1","2022-4-1","15:21:36","25","75","3","9","10","40","30","120","8","20","[""White""]","No","Female","1708189","null","","null","","","clear_screen","","","","","","","","","","","","","","","","","","","","","","","","","",""
"","","","","","canvas-keyboard-response","163","259795","0.0-13.0-0.30","2d_cat_multi_stim_exp1","2022-4-1","15:21:36","25","75","3","9","10","40","30","120","8","20","[""White""]","No","Female","1708189","null","","null","","","fixation","","","","","","","","","","","","","","","","","","","","","","","","","",""
"","","","","","canvas-keyboard-response","164","260308","0.0-13.0-1.30","2d_cat_multi_stim_exp1","2022-4-1","15:21:36","25","75","3","9","10","40","30","120","8","20","[""White""]","No","Female","1708189","null","","null","","","clear_screen","","","","","","","","","","","","","","","","","","","","","","","","","",""
"","","","","","canvas-keyboard-response","165","261189","0.0-13.0-2.30","2d_cat_multi_stim_exp1","2022-4-1","15:21:36","25","75","3","9","10","40","30","120","8","20","[""White""]","No","Female","1708189","868","","u","learn","","learn_trial","22.9268","81.5052","in","1","1","","","","","","","","","","","","","","","","","","","","",""
"","","","","","canvas-keyboard-response","166","261698","0.0-13.0-3.30","2d_cat_multi_stim_exp1","2022-4-1","15:21:36","25","75","3","9","10","40","30","120","8","20","[""White""]","No","Female","1708189","null","","null","learn_feedback","","learn_feedback","22.9268","81.5052","in","","","","","","","","","","","","","","","","","","","","","","",""
"","","","","","canvas-keyboard-response","167","261756","0.0-13.0-4.30","2d_cat_multi_stim_exp1","2022-4-1","15:21:36","25","75","3","9","10","40","30","120","8","20","[""White""]","No","Female","1708189","null","","null","","","clear_screen","","","","","","","","","","","","","","","","","","","","","","","","","",""
"","","","","","canvas-keyboard-response","168","262267","0.0-13.0-0.31","2d_cat_multi_stim_exp1","2022-4-1","15:21:36","25","75","3","9","10","40","30","120","8","20","[""White""]","No","Female","1708189","null","","null","","","fixation","","","","","","","","","","","","","","","","","","","","","","","","","",""
"","","","","","canvas-keyboard-response","169","262778","0.0-13.0-1.31","2d_cat_multi_stim_exp1","2022-4-1","15:21:36","25","75","3","9","10","40","30","120","8","20","[""White""]","No","Female","1708189","null","","null","","","clear_screen","","","","","","","","","","","","","","","","","","","","","","","","","",""
"","","","","","canvas-keyboard-response","170","263837","0.0-13.0-2.31","2d_cat_multi_stim_exp1","2022-4-1","15:21:36","25","75","3","9","10","40","30","120","8","20","[""White""]","No","Female","1708189","1050","","i","learn","","learn_trial","25","57","in","0","0","","","","","","","","","","","","","","","","","","","","",""
"","","","","","canvas-keyboard-response","171","264848","0.0-13.0-3.31","2d_cat_multi_stim_exp1","2022-4-1","15:21:36","25","75","3","9","10","40","30","120","8","20","[""White""]","No","Female","1708189","null","","null","learn_feedback","","learn_feedback","25","57","in","","","","","","","","","","","","","","","","","","","","","","",""
"","","","","","canvas-keyboard-response","172","264908","0.0-13.0-4.31","2d_cat_multi_stim_exp1","2022-4-1","15:21:36","25","75","3","9","10","40","30","120","8","20","[""White""]","No","Female","1708189","null","","null","","","clear_screen","","","","","","","","","","","","","","","","","","","","","","","","","",""
"","","","","","canvas-keyboard-response","173","265419","0.0-13.0-0.32","2d_cat_multi_stim_exp1","2022-4-1","15:21:36","25","75","3","9","10","40","30","120","8","20","[""White""]","No","Female","1708189","null","","null","","","fixation","","","","","","","","","","","","","","","","","","","","","","","","","",""
"","","","","","canvas-keyboard-response","174","265929","0.0-13.0-1.32","2d_cat_multi_stim_exp1","2022-4-1","15:21:36","25","75","3","9","10","40","30","120","8","20","[""White""]","No","Female","1708189","null","","null","","","clear_screen","","","","","","","","","","","","","","","","","","","","","","","","","",""
"","","","","","canvas-keyboard-response","175","266820","0.0-13.0-2.32","2d_cat_multi_stim_exp1","2022-4-1","15:21:36","25","75","3","9","10","40","30","120","8","20","[""White""]","No","Female","1708189","882","","u","learn","","learn_trial","25","75","in","1","1","","","","","","","","","","","","","","","","","","","","",""
"","","","","","canvas-keyboard-response","176","267331","0.0-13.0-3.32","2d_cat_multi_stim_exp1","2022-4-1","15:21:36","25","75","3","9","10","40","30","120","8","20","[""White""]","No","Female","1708189","null","","null","learn_feedback","","learn_feedback","25","75","in","","","","","","","","","","","","","","","","","","","","","","",""
"","","","","","canvas-keyboard-response","177","267391","0.0-13.0-4.32","2d_cat_multi_stim_exp1","2022-4-1","15:21:36","25","75","3","9","10","40","30","120","8","20","[""White""]","No","Female","1708189","null","","null","","","clear_screen","","","","","","","","","","","","","","","","","","","","","","","","","",""
"","","","","","canvas-keyboard-response","178","267899","0.0-13.0-0.33","2d_cat_multi_stim_exp1","2022-4-1","15:21:36","25","75","3","9","10","40","30","120","8","20","[""White""]","No","Female","1708189","null","","null","","","fixation","","","","","","","","","","","","","","","","","","","","","","","","","",""
"","","","","","canvas-keyboard-response","179","268409","0.0-13.0-1.33","2d_cat_multi_stim_exp1","2022-4-1","15:21:36","25","75","3","9","10","40","30","120","8","20","[""White""]","No","Female","1708189","null","","null","","","clear_screen","","","","","","","","","","","","","","","","","","","","","","","","","",""
"","","","","","canvas-keyboard-response","180","269244","0.0-13.0-2.33","2d_cat_multi_stim_exp1","2022-4-1","15:21:36","25","75","3","9","10","40","30","120","8","20","[""White""]","No","Female","1708189","824","","i","learn","","learn_trial","20","110","out","1","0","","","","","","","","","","","","","","","","","","","","",""
"","","","","","canvas-keyboard-response","181","269756","0.0-13.0-3.33","2d_cat_multi_stim_exp1","2022-4-1","15:21:36","25","75","3","9","10","40","30","120","8","20","[""White""]","No","Female","1708189","null","","null","learn_feedback","","learn_feedback","20","110","out","","","","","","","","","","","","","","","","","","","","","","",""
"","","","","","canvas-keyboard-response","182","269818","0.0-13.0-4.33","2d_cat_multi_stim_exp1","2022-4-1","15:21:36","25","75","3","9","10","40","30","120","8","20","[""White""]","No","Female","1708189","null","","null","","","clear_screen","","","","","","","","","","","","","","","","","","","","","","","","","",""
"","","","","","canvas-keyboard-response","183","270327","0.0-13.0-0.34","2d_cat_multi_stim_exp1","2022-4-1","15:21:36","25","75","3","9","10","40","30","120","8","20","[""White""]","No","Female","1708189","null","","null","","","fixation","","","","","","","","","","","","","","","","","","","","","","","","","",""
"","","","","","canvas-keyboard-response","184","270837","0.0-13.0-1.34","2d_cat_multi_stim_exp1","2022-4-1","15:21:36","25","75","3","9","10","40","30","120","8","20","[""White""]","No","Female","1708189","null","","null","","","clear_screen","","","","","","","","","","","","","","","","","","","","","","","","","",""
"","","","","","canvas-keyboard-response","185","272556","0.0-13.0-2.34","2d_cat_multi_stim_exp1","2022-4-1","15:21:36","25","75","3","9","10","40","30","120","8","20","[""White""]","No","Female","1708189","1711","","i","learn","","learn_trial","40","100","out","1","0","","","","","","","","","","","","","","","","","","","","",""
"","","","","","canvas-keyboard-response","186","273069","0.0-13.0-3.34","2d_cat_multi_stim_exp1","2022-4-1","15:21:36","25","75","3","9","10","40","30","120","8","20","[""White""]","No","Female","1708189","null","","null","learn_feedback","","learn_feedback","40","100","out","","","","","","","","","","","","","","","","","","","","","","",""
"","","","","","canvas-keyboard-response","187","273127","0.0-13.0-4.34","2d_cat_multi_stim_exp1","2022-4-1","15:21:36","25","75","3","9","10","40","30","120","8","20","[""White""]","No","Female","1708189","null","","null","","","clear_screen","","","","","","","","","","","","","","","","","","","","","","","","","",""
"","","","","","canvas-keyboard-response","188","273638","0.0-13.0-0.35","2d_cat_multi_stim_exp1","2022-4-1","15:21:36","25","75","3","9","10","40","30","120","8","20","[""White""]","No","Female","1708189","null","","null","","","fixation","","","","","","","","","","","","","","","","","","","","","","","","","",""
"","","","","","canvas-keyboard-response","189","274150","0.0-13.0-1.35","2d_cat_multi_stim_exp1","2022-4-1","15:21:36","25","75","3","9","10","40","30","120","8","20","[""White""]","No","Female","1708189","null","","null","","","clear_screen","","","","","","","","","","","","","","","","","","","","","","","","","",""
"","","","","","canvas-keyboard-response","190","274957","0.0-13.0-2.35","2d_cat_multi_stim_exp1","2022-4-1","15:21:36","25","75","3","9","10","40","30","120","8","20","[""White""]","No","Female","1708189","798","","u","learn","","learn_trial","23.3333","50","out","0","1","","","","","","","","","","","","","","","","","","","","",""
"","","","","","canvas-keyboard-response","191","275968","0.0-13.0-3.35","2d_cat_multi_stim_exp1","2022-4-1","15:21:36","25","75","3","9","10","40","30","120","8","20","[""White""]","No","Female","1708189","null","","null","learn_feedback","","learn_feedback","23.3333","50","out","","","","","","","","","","","","","","","","","","","","","","",""
"","","","","","canvas-keyboard-response","192","276029","0.0-13.0-4.35","2d_cat_multi_stim_exp1","2022-4-1","15:21:36","25","75","3","9","10","40","30","120","8","20","[""White""]","No","Female","1708189","null","","null","","","clear_screen","","","","","","","","","","","","","","","","","","","","","","","","","",""
"","","","","","canvas-keyboard-response","193","276537","0.0-13.0-0.36","2d_cat_multi_stim_exp1","2022-4-1","15:21:36","25","75","3","9","10","40","30","120","8","20","[""White""]","No","Female","1708189","null","","null","","","fixation","","","","","","","","","","","","","","","","","","","","","","","","","",""
"","","","","","canvas-keyboard-response","194","277049","0.0-13.0-1.36","2d_cat_multi_stim_exp1","2022-4-1","15:21:36","25","75","3","9","10","40","30","120","8","20","[""White""]","No","Female","1708189","null","","null","","","clear_screen","","","","","","","","","","","","","","","","","","","","","","","","","",""
"","","","","","canvas-keyboard-response","195","277796","0.0-13.0-2.36","2d_cat_multi_stim_exp1","2022-4-1","15:21:36","25","75","3","9","10","40","30","120","8","20","[""White""]","No","Female","1708189","739","","u","learn","","learn_trial","20","50","out","0","1","","","","","","","","","","","","","","","","","","","","",""
"","","","","","canvas-keyboard-response","196","278807","0.0-13.0-3.36","2d_cat_multi_stim_exp1","2022-4-1","15:21:36","25","75","3","9","10","40","30","120","8","20","[""White""]","No","Female","1708189","null","","null","learn_feedback","","learn_feedback","20","50","out","","","","","","","","","","","","","","","","","","","","","","",""
"","","","","","canvas-keyboard-response","197","278865","0.0-13.0-4.36","2d_cat_multi_stim_exp1","2022-4-1","15:21:36","25","75","3","9","10","40","30","120","8","20","[""White""]","No","Female","1708189","null","","null","","","clear_screen","","","","","","","","","","","","","","","","","","","","","","","","","",""
"","","","","","canvas-keyboard-response","198","279374","0.0-13.0-0.37","2d_cat_multi_stim_exp1","2022-4-1","15:21:36","25","75","3","9","10","40","30","120","8","20","[""White""]","No","Female","1708189","null","","null","","","fixation","","","","","","","","","","","","","","","","","","","","","","","","","",""
"","","","","","canvas-keyboard-response","199","279884","0.0-13.0-1.37","2d_cat_multi_stim_exp1","2022-4-1","15:21:36","25","75","3","9","10","40","30","120","8","20","[""White""]","No","Female","1708189","null","","null","","","clear_screen","","","","","","","","","","","","","","","","","","","","","","","","","",""
"","","","","","canvas-keyboard-response","200","281301","0.0-13.0-2.37","2d_cat_multi_stim_exp1","2022-4-1","15:21:36","25","75","3","9","10","40","30","120","8","20","[""White""]","No","Female","1708189","1406","","u","learn","","learn_trial","33.3333","90","out","0","1","","","","","","","","","","","","","","","","","","","","",""
"","","","","","canvas-keyboard-response","201","282311","0.0-13.0-3.37","2d_cat_multi_stim_exp1","2022-4-1","15:21:36","25","75","3","9","10","40","30","120","8","20","[""White""]","No","Female","1708189","null","","null","learn_feedback","","learn_feedback","33.3333","90","out","","","","","","","","","","","","","","","","","","","","","","",""
"","","","","","canvas-keyboard-response","202","282371","0.0-13.0-4.37","2d_cat_multi_stim_exp1","2022-4-1","15:21:36","25","75","3","9","10","40","30","120","8","20","[""White""]","No","Female","1708189","null","","null","","","clear_screen","","","","","","","","","","","","","","","","","","","","","","","","","",""
"","","","","","canvas-keyboard-response","203","282880","0.0-13.0-0.38","2d_cat_multi_stim_exp1","2022-4-1","15:21:36","25","75","3","9","10","40","30","120","8","20","[""White""]","No","Female","1708189","null","","null","","","fixation","","","","","","","","","","","","","","","","","","","","","","","","","",""
"","","","","","canvas-keyboard-response","204","283399","0.0-13.0-1.38","2d_cat_multi_stim_exp1","2022-4-1","15:21:36","25","75","3","9","10","40","30","120","8","20","[""White""]","No","Female","1708189","null","","null","","","clear_screen","","","","","","","","","","","","","","","","","","","","","","","","","",""
"","","","","","canvas-keyboard-response","205","284157","0.0-13.0-2.38","2d_cat_multi_stim_exp1","2022-4-1","15:21:36","25","75","3","9","10","40","30","120","8","20","[""White""]","No","Female","1708189","744","","u","learn","","learn_trial","25","75","in","1","1","","","","","","","","","","","","","","","","","","","","",""
"","","","","","canvas-keyboard-response","206","284666","0.0-13.0-3.38","2d_cat_multi_stim_exp1","2022-4-1","15:21:36","25","75","3","9","10","40","30","120","8","20","[""White""]","No","Female","1708189","null","","null","learn_feedback","","learn_feedback","25","75","in","","","","","","","","","","","","","","","","","","","","","","",""
"","","","","","canvas-keyboard-response","207","284730","0.0-13.0-4.38","2d_cat_multi_stim_exp1","2022-4-1","15:21:36","25","75","3","9","10","40","30","120","8","20","[""White""]","No","Female","1708189","null","","null","","","clear_screen","","","","","","","","","","","","","","","","","","","","","","","","","",""
"","","","","","canvas-keyboard-response","208","285238","0.0-13.0-0.39","2d_cat_multi_stim_exp1","2022-4-1","15:21:36","25","75","3","9","10","40","30","120","8","20","[""White""]","No","Female","1708189","null","","null","","","fixation","","","","","","","","","","","","","","","","","","","","","","","","","",""
"","","","","","canvas-keyboard-response","209","285751","0.0-13.0-1.39","2d_cat_multi_stim_exp1","2022-4-1","15:21:36","25","75","3","9","10","40","30","120","8","20","[""White""]","No","Female","1708189","null","","null","","","clear_screen","","","","","","","","","","","","","","","","","","","","","","","","","",""
"","","","","","canvas-keyboard-response","210","286644","0.0-13.0-2.39","2d_cat_multi_stim_exp1","2022-4-1","15:21:36","25","75","3","9","10","40","30","120","8","20","[""White""]","No","Female","1708189","883","","i","learn","","learn_trial","10","100","out","1","0","","","","","","","","","","","","","","","","","","","","",""
"","","","","","canvas-keyboard-response","211","287156","0.0-13.0-3.39","2d_cat_multi_stim_exp1","2022-4-1","15:21:36","25","75","3","9","10","40","30","120","8","20","[""White""]","No","Female","1708189","null","","null","learn_feedback","","learn_feedback","10","100","out","","","","","","","","","","","","","","","","","","","","","","",""
"","","","","","canvas-keyboard-response","212","287215","0.0-13.0-4.39","2d_cat_multi_stim_exp1","2022-4-1","15:21:36","25","75","3","9","10","40","30","120","8","20","[""White""]","No","Female","1708189","null","","null","","","clear_screen","","","","","","","","","","","","","","","","","","","","","","","","","",""
"","","","","","canvas-keyboard-response","213","287728","0.0-13.0-0.40","2d_cat_multi_stim_exp1","2022-4-1","15:21:36","25","75","3","9","10","40","30","120","8","20","[""White""]","No","Female","1708189","null","","null","","","fixation","","","","","","","","","","","","","","","","","","","","","","","","","",""
"","","","","","canvas-keyboard-response","214","288240","0.0-13.0-1.40","2d_cat_multi_stim_exp1","2022-4-1","15:21:36","25","75","3","9","10","40","30","120","8","20","[""White""]","No","Female","1708189","null","","null","","","clear_screen","","","","","","","","","","","","","","","","","","","","","","","","","",""
"","","","","","canvas-keyboard-response","215","289493","0.0-13.0-2.40","2d_cat_multi_stim_exp1","2022-4-1","15:21:36","25","75","3","9","10","40","30","120","8","20","[""White""]","No","Female","1708189","1245","","u","learn","","learn_trial","22.2971","71.095","in","1","1","","","","","","","","","","","","","","","","","","","","",""
"","","","","","canvas-keyboard-response","216","290003","0.0-13.0-3.40","2d_cat_multi_stim_exp1","2022-4-1","15:21:36","25","75","3","9","10","40","30","120","8","20","[""White""]","No","Female","1708189","null","","null","learn_feedback","","learn_feedback","22.2971","71.095","in","","","","","","","","","","","","","","","","","","","","","","",""
"","","","","","canvas-keyboard-response","217","290066","0.0-13.0-4.40","2d_cat_multi_stim_exp1","2022-4-1","15:21:36","25","75","3","9","10","40","30","120","8","20","[""White""]","No","Female","1708189","null","","null","","","clear_screen","","","","","","","","","","","","","","","","","","","","","","","","","",""
"","","","","","canvas-keyboard-response","218","290574","0.0-13.0-0.41","2d_cat_multi_stim_exp1","2022-4-1","15:21:36","25","75","3","9","10","40","30","120","8","20","[""White""]","No","Female","1708189","null","","null","","","fixation","","","","","","","","","","","","","","","","","","","","","","","","","",""
"","","","","","canvas-keyboard-response","219","291084","0.0-13.0-1.41","2d_cat_multi_stim_exp1","2022-4-1","15:21:36","25","75","3","9","10","40","30","120","8","20","[""White""]","No","Female","1708189","null","","null","","","clear_screen","","","","","","","","","","","","","","","","","","","","","","","","","",""
"","","","","","canvas-keyboard-response","220","292133","0.0-13.0-2.41","2d_cat_multi_stim_exp1","2022-4-1","15:21:36","25","75","3","9","10","40","30","120","8","20","[""White""]","No","Female","1708189","1038","","i","learn","","learn_trial","13.3333","70","out","1","0","","","","","","","","","","","","","","","","","","","","",""
"","","","","","canvas-keyboard-response","221","292647","0.0-13.0-3.41","2d_cat_multi_stim_exp1","2022-4-1","15:21:36","25","75","3","9","10","40","30","120","8","20","[""White""]","No","Female","1708189","null","","null","learn_feedback","","learn_feedback","13.3333","70","out","","","","","","","","","","","","","","","","","","","","","","",""
"","","","","","canvas-keyboard-response","222","292706","0.0-13.0-4.41","2d_cat_multi_stim_exp1","2022-4-1","15:21:36","25","75","3","9","10","40","30","120","8","20","[""White""]","No","Female","1708189","null","","null","","","clear_screen","","","","","","","","","","","","","","","","","","","","","","","","","",""
"","","","","","canvas-keyboard-response","223","293214","0.0-13.0-0.42","2d_cat_multi_stim_exp1","2022-4-1","15:21:36","25","75","3","9","10","40","30","120","8","20","[""White""]","No","Female","1708189","null","","null","","","fixation","","","","","","","","","","","","","","","","","","","","","","","","","",""
"","","","","","canvas-keyboard-response","224","293724","0.0-13.0-1.42","2d_cat_multi_stim_exp1","2022-4-1","15:21:36","25","75","3","9","10","40","30","120","8","20","[""White""]","No","Female","1708189","null","","null","","","clear_screen","","","","","","","","","","","","","","","","","","","","","","","","","",""
"","","","","","canvas-keyboard-response","225","294493","0.0-13.0-2.42","2d_cat_multi_stim_exp1","2022-4-1","15:21:36","25","75","3","9","10","40","30","120","8","20","[""White""]","No","Female","1708189","760","","u","learn","","learn_trial","24.8654","66.0091","in","1","1","","","","","","","","","","","","","","","","","","","","",""
"","","","","","canvas-keyboard-response","226","295004","0.0-13.0-3.42","2d_cat_multi_stim_exp1","2022-4-1","15:21:36","25","75","3","9","10","40","30","120","8","20","[""White""]","No","Female","1708189","null","","null","learn_feedback","","learn_feedback","24.8654","66.0091","in","","","","","","","","","","","","","","","","","","","","","","",""
"","","","","","canvas-keyboard-response","227","295065","0.0-13.0-4.42","2d_cat_multi_stim_exp1","2022-4-1","15:21:36","25","75","3","9","10","40","30","120","8","20","[""White""]","No","Female","1708189","null","","null","","","clear_screen","","","","","","","","","","","","","","","","","","","","","","","","","",""
"","","","","","canvas-keyboard-response","228","295574","0.0-13.0-0.43","2d_cat_multi_stim_exp1","2022-4-1","15:21:36","25","75","3","9","10","40","30","120","8","20","[""White""]","No","Female","1708189","null","","null","","","fixation","","","","","","","","","","","","","","","","","","","","","","","","","",""
"","","","","","canvas-keyboard-response","229","296083","0.0-13.0-1.43","2d_cat_multi_stim_exp1","2022-4-1","15:21:36","25","75","3","9","10","40","30","120","8","20","[""White""]","No","Female","1708189","null","","null","","","clear_screen","","","","","","","","","","","","","","","","","","","","","","","","","",""
"","","","","","canvas-keyboard-response","230","296741","0.0-13.0-2.43","2d_cat_multi_stim_exp1","2022-4-1","15:21:36","25","75","3","9","10","40","30","120","8","20","[""White""]","No","Female","1708189","645","","u","learn","","learn_trial","25","75","in","1","1","","","","","","","","","","","","","","","","","","","","",""
"","","","","","canvas-keyboard-response","231","297252","0.0-13.0-3.43","2d_cat_multi_stim_exp1","2022-4-1","15:21:36","25","75","3","9","10","40","30","120","8","20","[""White""]","No","Female","1708189","null","","null","learn_feedback","","learn_feedback","25","75","in","","","","","","","","","","","","","","","","","","","","","","",""
"","","","","","canvas-keyboard-response","232","297313","0.0-13.0-4.43","2d_cat_multi_stim_exp1","2022-4-1","15:21:36","25","75","3","9","10","40","30","120","8","20","[""White""]","No","Female","1708189","null","","null","","","clear_screen","","","","","","","","","","","","","","","","","","","","","","","","","",""
"","","","","","canvas-keyboard-response","233","297821","0.0-13.0-0.44","2d_cat_multi_stim_exp1","2022-4-1","15:21:36","25","75","3","9","10","40","30","120","8","20","[""White""]","No","Female","1708189","null","","null","","","fixation","","","","","","","","","","","","","","","","","","","","","","","","","",""
"","","","","","canvas-keyboard-response","234","298334","0.0-13.0-1.44","2d_cat_multi_stim_exp1","2022-4-1","15:21:36","25","75","3","9","10","40","30","120","8","20","[""White""]","No","Female","1708189","null","","null","","","clear_screen","","","","","","","","","","","","","","","","","","","","","","","","","",""
"","","","","","canvas-keyboard-response","235","299077","0.0-13.0-2.44","2d_cat_multi_stim_exp1","2022-4-1","15:21:36","25","75","3","9","10","40","30","120","8","20","[""White""]","No","Female","1708189","735","","u","learn","","learn_trial","25","75","in","1","1","","","","","","","","","","","","","","","","","","","","",""
"","","","","","canvas-keyboard-response","236","299589","0.0-13.0-3.44","2d_cat_multi_stim_exp1","2022-4-1","15:21:36","25","75","3","9","10","40","30","120","8","20","[""White""]","No","Female","1708189","null","","null","learn_feedback","","learn_feedback","25","75","in","","","","","","","","","","","","","","","","","","","","","","",""
"","","","","","canvas-keyboard-response","237","299648","0.0-13.0-4.44","2d_cat_multi_stim_exp1","2022-4-1","15:21:36","25","75","3","9","10","40","30","120","8","20","[""White""]","No","Female","1708189","null","","null","","","clear_screen","","","","","","","","","","","","","","","","","","","","","","","","","",""
"","","","","","canvas-keyboard-response","238","300157","0.0-13.0-0.45","2d_cat_multi_stim_exp1","2022-4-1","15:21:36","25","75","3","9","10","40","30","120","8","20","[""White""]","No","Female","1708189","null","","null","","","fixation","","","","","","","","","","","","","","","","","","","","","","","","","",""
"","","","","","canvas-keyboard-response","239","300669","0.0-13.0-1.45","2d_cat_multi_stim_exp1","2022-4-1","15:21:36","25","75","3","9","10","40","30","120","8","20","[""White""]","No","Female","1708189","null","","null","","","clear_screen","","","","","","","","","","","","","","","","","","","","","","","","","",""
"","","","","","canvas-keyboard-response","240","301789","0.0-13.0-2.45","2d_cat_multi_stim_exp1","2022-4-1","15:21:36","25","75","3","9","10","40","30","120","8","20","[""White""]","No","Female","1708189","1110","","u","learn","","learn_trial","25","75","in","1","1","","","","","","","","","","","","","","","","","","","","",""
"","","","","","canvas-keyboard-response","241","302299","0.0-13.0-3.45","2d_cat_multi_stim_exp1","2022-4-1","15:21:36","25","75","3","9","10","40","30","120","8","20","[""White""]","No","Female","1708189","null","","null","learn_feedback","","learn_feedback","25","75","in","","","","","","","","","","","","","","","","","","","","","","",""
"","","","","","canvas-keyboard-response","242","302358","0.0-13.0-4.45","2d_cat_multi_stim_exp1","2022-4-1","15:21:36","25","75","3","9","10","40","30","120","8","20","[""White""]","No","Female","1708189","null","","null","","","clear_screen","","","","","","","","","","","","","","","","","","","","","","","","","",""
"","","","","","canvas-keyboard-response","243","302867","0.0-13.0-0.46","2d_cat_multi_stim_exp1","2022-4-1","15:21:36","25","75","3","9","10","40","30","120","8","20","[""White""]","No","Female","1708189","null","","null","","","fixation","","","","","","","","","","","","","","","","","","","","","","","","","",""
"","","","","","canvas-keyboard-response","244","303381","0.0-13.0-1.46","2d_cat_multi_stim_exp1","2022-4-1","15:21:36","25","75","3","9","10","40","30","120","8","20","[""White""]","No","Female","1708189","null","","null","","","clear_screen","","","","","","","","","","","","","","","","","","","","","","","","","",""
"","","","","","canvas-keyboard-response","245","304557","0.0-13.0-2.46","2d_cat_multi_stim_exp1","2022-4-1","15:21:36","25","75","3","9","10","40","30","120","8","20","[""White""]","No","Female","1708189","1167","","u","learn","","learn_trial","26.8705","67.9635","in","1","1","","","","","","","","","","","","","","","","","","","","",""
"","","","","","canvas-keyboard-response","246","305066","0.0-13.0-3.46","2d_cat_multi_stim_exp1","2022-4-1","15:21:36","25","75","3","9","10","40","30","120","8","20","[""White""]","No","Female","1708189","null","","null","learn_feedback","","learn_feedback","26.8705","67.9635","in","","","","","","","","","","","","","","","","","","","","","","",""
"","","","","","canvas-keyboard-response","247","305125","0.0-13.0-4.46","2d_cat_multi_stim_exp1","2022-4-1","15:21:36","25","75","3","9","10","40","30","120","8","20","[""White""]","No","Female","1708189","null","","null","","","clear_screen","","","","","","","","","","","","","","","","","","","","","","","","","",""
"","","","","","canvas-keyboard-response","248","305634","0.0-13.0-0.47","2d_cat_multi_stim_exp1","2022-4-1","15:21:36","25","75","3","9","10","40","30","120","8","20","[""White""]","No","Female","1708189","null","","null","","","fixation","","","","","","","","","","","","","","","","","","","","","","","","","",""
"","","","","","canvas-keyboard-response","249","306144","0.0-13.0-1.47","2d_cat_multi_stim_exp1","2022-4-1","15:21:36","25","75","3","9","10","40","30","120","8","20","[""White""]","No","Female","1708189","null","","null","","","clear_screen","","","","","","","","","","","","","","","","","","","","","","","","","",""
"","","","","","canvas-keyboard-response","250","306925","0.0-13.0-2.47","2d_cat_multi_stim_exp1","2022-4-1","15:21:36","25","75","3","9","10","40","30","120","8","20","[""White""]","No","Female","1708189","770","","i","learn","","learn_trial","13.3333","80","out","1","0","","","","","","","","","","","","","","","","","","","","",""
"","","","","","canvas-keyboard-response","251","307433","0.0-13.0-3.47","2d_cat_multi_stim_exp1","2022-4-1","15:21:36","25","75","3","9","10","40","30","120","8","20","[""White""]","No","Female","1708189","null","","null","learn_feedback","","learn_feedback","13.3333","80","out","","","","","","","","","","","","","","","","","","","","","","",""
"","","","","","canvas-keyboard-response","252","307493","0.0-13.0-4.47","2d_cat_multi_stim_exp1","2022-4-1","15:21:36","25","75","3","9","10","40","30","120","8","20","[""White""]","No","Female","1708189","null","","null","","","clear_screen","","","","","","","","","","","","","","","","","","","","","","","","","",""
"","","","","","canvas-keyboard-response","253","308000","0.0-13.0-0.48","2d_cat_multi_stim_exp1","2022-4-1","15:21:36","25","75","3","9","10","40","30","120","8","20","[""White""]","No","Female","1708189","null","","null","","","fixation","","","","","","","","","","","","","","","","","","","","","","","","","",""
"","","","","","canvas-keyboard-response","254","308514","0.0-13.0-1.48","2d_cat_multi_stim_exp1","2022-4-1","15:21:36","25","75","3","9","10","40","30","120","8","20","[""White""]","No","Female","1708189","null","","null","","","clear_screen","","","","","","","","","","","","","","","","","","","","","","","","","",""
"","","","","","canvas-keyboard-response","255","309749","0.0-13.0-2.48","2d_cat_multi_stim_exp1","2022-4-1","15:21:36","25","75","3","9","10","40","30","120","8","20","[""White""]","No","Female","1708189","1226","","u","learn","","learn_trial","40","60","out","0","1","","","","","","","","","","","","","","","","","","","","",""
"","","","","","canvas-keyboard-response","256","310760","0.0-13.0-3.48","2d_cat_multi_stim_exp1","2022-4-1","15:21:36","25","75","3","9","10","40","30","120","8","20","[""White""]","No","Female","1708189","null","","null","learn_feedback","","learn_feedback","40","60","out","","","","","","","","","","","","","","","","","","","","","","",""
"","","","","","canvas-keyboard-response","257","310818","0.0-13.0-4.48","2d_cat_multi_stim_exp1","2022-4-1","15:21:36","25","75","3","9","10","40","30","120","8","20","[""White""]","No","Female","1708189","null","","null","","","clear_screen","","","","","","","","","","","","","","","","","","","","","","","","","",""
"","","","","","canvas-keyboard-response","258","311327","0.0-13.0-0.49","2d_cat_multi_stim_exp1","2022-4-1","15:21:36","25","75","3","9","10","40","30","120","8","20","[""White""]","No","Female","1708189","null","","null","","","fixation","","","","","","","","","","","","","","","","","","","","","","","","","",""
"","","","","","canvas-keyboard-response","259","311837","0.0-13.0-1.49","2d_cat_multi_stim_exp1","2022-4-1","15:21:36","25","75","3","9","10","40","30","120","8","20","[""White""]","No","Female","1708189","null","","null","","","clear_screen","","","","","","","","","","","","","","","","","","","","","","","","","",""
"","","","","","canvas-keyboard-response","260","313101","0.0-13.0-2.49","2d_cat_multi_stim_exp1","2022-4-1","15:21:36","25","75","3","9","10","40","30","120","8","20","[""White""]","No","Female","1708189","1256","","u","learn","","learn_trial","23.3333","40","out","0","1","","","","","","","","","","","","","","","","","","","","",""
"","","","","","canvas-keyboard-response","261","314113","0.0-13.0-3.49","2d_cat_multi_stim_exp1","2022-4-1","15:21:36","25","75","3","9","10","40","30","120","8","20","[""White""]","No","Female","1708189","null","","null","learn_feedback","","learn_feedback","23.3333","40","out","","","","","","","","","","","","","","","","","","","","","","",""
"","","","","","canvas-keyboard-response","262","314176","0.0-13.0-4.49","2d_cat_multi_stim_exp1","2022-4-1","15:21:36","25","75","3","9","10","40","30","120","8","20","[""White""]","No","Female","1708189","null","","null","","","clear_screen","","","","","","","","","","","","","","","","","","","","","","","","","",""
"","","","","","canvas-keyboard-response","263","314686","0.0-13.0-0.50","2d_cat_multi_stim_exp1","2022-4-1","15:21:36","25","75","3","9","10","40","30","120","8","20","[""White""]","No","Female","1708189","null","","null","","","fixation","","","","","","","","","","","","","","","","","","","","","","","","","",""
"","","","","","canvas-keyboard-response","264","315195","0.0-13.0-1.50","2d_cat_multi_stim_exp1","2022-4-1","15:21:36","25","75","3","9","10","40","30","120","8","20","[""White""]","No","Female","1708189","null","","null","","","clear_screen","","","","","","","","","","","","","","","","","","","","","","","","","",""
"","","","","","canvas-keyboard-response","265","316612","0.0-13.0-2.50","2d_cat_multi_stim_exp1","2022-4-1","15:21:36","25","75","3","9","10","40","30","120","8","20","[""White""]","No","Female","1708189","1409","","i","learn","","learn_trial","40","90","out","1","0","","","","","","","","","","","","","","","","","","","","",""
"","","","","","canvas-keyboard-response","266","317127","0.0-13.0-3.50","2d_cat_multi_stim_exp1","2022-4-1","15:21:36","25","75","3","9","10","40","30","120","8","20","[""White""]","No","Female","1708189","null","","null","learn_feedback","","learn_feedback","40","90","out","","","","","","","","","","","","","","","","","","","","","","",""
"","","","","","canvas-keyboard-response","267","317185","0.0-13.0-4.50","2d_cat_multi_stim_exp1","2022-4-1","15:21:36","25","75","3","9","10","40","30","120","8","20","[""White""]","No","Female","1708189","null","","null","","","clear_screen","","","","","","","","","","","","","","","","","","","","","","","","","",""
"","","","","","canvas-keyboard-response","268","317694","0.0-13.0-0.51","2d_cat_multi_stim_exp1","2022-4-1","15:21:36","25","75","3","9","10","40","30","120","8","20","[""White""]","No","Female","1708189","null","","null","","","fixation","","","","","","","","","","","","","","","","","","","","","","","","","",""
"","","","","","canvas-keyboard-response","269","318205","0.0-13.0-1.51","2d_cat_multi_stim_exp1","2022-4-1","15:21:36","25","75","3","9","10","40","30","120","8","20","[""White""]","No","Female","1708189","null","","null","","","clear_screen","","","","","","","","","","","","","","","","","","","","","","","","","",""
"","","","","","canvas-keyboard-response","270","319374","0.0-13.0-2.51","2d_cat_multi_stim_exp1","2022-4-1","15:21:36","25","75","3","9","10","40","30","120","8","20","[""White""]","No","Female","1708189","1158","","i","learn","","learn_trial","40","40","out","1","0","","","","","","","","","","","","","","","","","","","","",""
"","","","","","canvas-keyboard-response","271","319883","0.0-13.0-3.51","2d_cat_multi_stim_exp1","2022-4-1","15:21:36","25","75","3","9","10","40","30","120","8","20","[""White""]","No","Female","1708189","null","","null","learn_feedback","","learn_feedback","40","40","out","","","","","","","","","","","","","","","","","","","","","","",""
"","","","","","canvas-keyboard-response","272","319947","0.0-13.0-4.51","2d_cat_multi_stim_exp1","2022-4-1","15:21:36","25","75","3","9","10","40","30","120","8","20","[""White""]","No","Female","1708189","null","","null","","","clear_screen","","","","","","","","","","","","","","","","","","","","","","","","","",""
"","","","","","canvas-keyboard-response","273","320457","0.0-13.0-0.52","2d_cat_multi_stim_exp1","2022-4-1","15:21:36","25","75","3","9","10","40","30","120","8","20","[""White""]","No","Female","1708189","null","","null","","","fixation","","","","","","","","","","","","","","","","","","","","","","","","","",""
"","","","","","canvas-keyboard-response","274","320968","0.0-13.0-1.52","2d_cat_multi_stim_exp1","2022-4-1","15:21:36","25","75","3","9","10","40","30","120","8","20","[""White""]","No","Female","1708189","null","","null","","","clear_screen","","","","","","","","","","","","","","","","","","","","","","","","","",""
"","","","","","canvas-keyboard-response","275","321909","0.0-13.0-2.52","2d_cat_multi_stim_exp1","2022-4-1","15:21:36","25","75","3","9","10","40","30","120","8","20","[""White""]","No","Female","1708189","930","","i","learn","","learn_trial","10","40","out","1","0","","","","","","","","","","","","","","","","","","","","",""
"","","","","","canvas-keyboard-response","276","322420","0.0-13.0-3.52","2d_cat_multi_stim_exp1","2022-4-1","15:21:36","25","75","3","9","10","40","30","120","8","20","[""White""]","No","Female","1708189","null","","null","learn_feedback","","learn_feedback","10","40","out","","","","","","","","","","","","","","","","","","","","","","",""
"","","","","","canvas-keyboard-response","277","322479","0.0-13.0-4.52","2d_cat_multi_stim_exp1","2022-4-1","15:21:36","25","75","3","9","10","40","30","120","8","20","[""White""]","No","Female","1708189","null","","null","","","clear_screen","","","","","","","","","","","","","","","","","","","","","","","","","",""
"","","","","","canvas-keyboard-response","278","322988","0.0-13.0-0.53","2d_cat_multi_stim_exp1","2022-4-1","15:21:36","25","75","3","9","10","40","30","120","8","20","[""White""]","No","Female","1708189","null","","null","","","fixation","","","","","","","","","","","","","","","","","","","","","","","","","",""
"","","","","","canvas-keyboard-response","279","323499","0.0-13.0-1.53","2d_cat_multi_stim_exp1","2022-4-1","15:21:36","25","75","3","9","10","40","30","120","8","20","[""White""]","No","Female","1708189","null","","null","","","clear_screen","","","","","","","","","","","","","","","","","","","","","","","","","",""
"","","","","","canvas-keyboard-response","280","324277","0.0-13.0-2.53","2d_cat_multi_stim_exp1","2022-4-1","15:21:36","25","75","3","9","10","40","30","120","8","20","[""White""]","No","Female","1708189","767","","i","learn","","learn_trial","13.3333","120","out","1","0","","","","","","","","","","","","","","","","","","","","",""
"","","","","","canvas-keyboard-response","281","324789","0.0-13.0-3.53","2d_cat_multi_stim_exp1","2022-4-1","15:21:36","25","75","3","9","10","40","30","120","8","20","[""White""]","No","Female","1708189","null","","null","learn_feedback","","learn_feedback","13.3333","120","out","","","","","","","","","","","","","","","","","","","","","","",""
"","","","","","canvas-keyboard-response","282","324847","0.0-13.0-4.53","2d_cat_multi_stim_exp1","2022-4-1","15:21:36","25","75","3","9","10","40","30","120","8","20","[""White""]","No","Female","1708189","null","","null","","","clear_screen","","","","","","","","","","","","","","","","","","","","","","","","","",""
"","","","","","canvas-keyboard-response","283","325357","0.0-13.0-0.54","2d_cat_multi_stim_exp1","2022-4-1","15:21:36","25","75","3","9","10","40","30","120","8","20","[""White""]","No","Female","1708189","null","","null","","","fixation","","","","","","","","","","","","","","","","","","","","","","","","","",""
"","","","","","canvas-keyboard-response","284","325869","0.0-13.0-1.54","2d_cat_multi_stim_exp1","2022-4-1","15:21:36","25","75","3","9","10","40","30","120","8","20","[""White""]","No","Female","1708189","null","","null","","","clear_screen","","","","","","","","","","","","","","","","","","","","","","","","","",""
"","","","","","canvas-keyboard-response","285","327045","0.0-13.0-2.54","2d_cat_multi_stim_exp1","2022-4-1","15:21:36","25","75","3","9","10","40","30","120","8","20","[""White""]","No","Female","1708189","1168","","u","learn","","learn_trial","25","75","in","1","1","","","","","","","","","","","","","","","","","","","","",""
"","","","","","canvas-keyboard-response","286","327556","0.0-13.0-3.54","2d_cat_multi_stim_exp1","2022-4-1","15:21:36","25","75","3","9","10","40","30","120","8","20","[""White""]","No","Female","1708189","null","","null","learn_feedback","","learn_feedback","25","75","in","","","","","","","","","","","","","","","","","","","","","","",""
"","","","","","canvas-keyboard-response","287","327614","0.0-13.0-4.54","2d_cat_multi_stim_exp1","2022-4-1","15:21:36","25","75","3","9","10","40","30","120","8","20","[""White""]","No","Female","1708189","null","","null","","","clear_screen","","","","","","","","","","","","","","","","","","","","","","","","","",""
"","","","","","canvas-keyboard-response","288","328122","0.0-13.0-0.55","2d_cat_multi_stim_exp1","2022-4-1","15:21:36","25","75","3","9","10","40","30","120","8","20","[""White""]","No","Female","1708189","null","","null","","","fixation","","","","","","","","","","","","","","","","","","","","","","","","","",""
"","","","","","canvas-keyboard-response","289","328633","0.0-13.0-1.55","2d_cat_multi_stim_exp1","2022-4-1","15:21:36","25","75","3","9","10","40","30","120","8","20","[""White""]","No","Female","1708189","null","","null","","","clear_screen","","","","","","","","","","","","","","","","","","","","","","","","","",""
"","","","","","canvas-keyboard-response","290","332228","0.0-13.0-2.55","2d_cat_multi_stim_exp1","2022-4-1","15:21:36","25","75","3","9","10","40","30","120","8","20","[""White""]","No","Female","1708189","3586","","i","learn","","learn_trial","10","120","out","1","0","","","","","","","","","","","","","","","","","","","","",""
"","","","","","canvas-keyboard-response","291","332740","0.0-13.0-3.55","2d_cat_multi_stim_exp1","2022-4-1","15:21:36","25","75","3","9","10","40","30","120","8","20","[""White""]","No","Female","1708189","null","","null","learn_feedback","","learn_feedback","10","120","out","","","","","","","","","","","","","","","","","","","","","","",""
"","","","","","canvas-keyboard-response","292","332802","0.0-13.0-4.55","2d_cat_multi_stim_exp1","2022-4-1","15:21:36","25","75","3","9","10","40","30","120","8","20","[""White""]","No","Female","1708189","null","","null","","","clear_screen","","","","","","","","","","","","","","","","","","","","","","","","","",""
"","","","","","canvas-keyboard-response","293","333310","0.0-13.0-0.56","2d_cat_multi_stim_exp1","2022-4-1","15:21:36","25","75","3","9","10","40","30","120","8","20","[""White""]","No","Female","1708189","null","","null","","","fixation","","","","","","","","","","","","","","","","","","","","","","","","","",""
"","","","","","canvas-keyboard-response","294","333818","0.0-13.0-1.56","2d_cat_multi_stim_exp1","2022-4-1","15:21:36","25","75","3","9","10","40","30","120","8","20","[""White""]","No","Female","1708189","null","","null","","","clear_screen","","","","","","","","","","","","","","","","","","","","","","","","","",""
"","","","","","canvas-keyboard-response","295","335165","0.0-13.0-2.56","2d_cat_multi_stim_exp1","2022-4-1","15:21:36","25","75","3","9","10","40","30","120","8","20","[""White""]","No","Female","1708189","1340","","u","learn","","learn_trial","25","75","in","1","1","","","","","","","","","","","","","","","","","","","","",""
"","","","","","canvas-keyboard-response","296","335673","0.0-13.0-3.56","2d_cat_multi_stim_exp1","2022-4-1","15:21:36","25","75","3","9","10","40","30","120","8","20","[""White""]","No","Female","1708189","null","","null","learn_feedback","","learn_feedback","25","75","in","","","","","","","","","","","","","","","","","","","","","","",""
"","","","","","canvas-keyboard-response","297","335732","0.0-13.0-4.56","2d_cat_multi_stim_exp1","2022-4-1","15:21:36","25","75","3","9","10","40","30","120","8","20","[""White""]","No","Female","1708189","null","","null","","","clear_screen","","","","","","","","","","","","","","","","","","","","","","","","","",""
