"success","timeout","failed_images","failed_audio","failed_video","trial_type","trial_index","time_elapsed","internal_node_id","exp_name","date","time","angle_mean_in","radius_mean_in","angle_sd_in","radius_sd_in","angle_min_out","angle_max_out","radius_min_out","radius_max_out","sub_n","age","race","ethnicity","gender","exp_duration","rt","response","exp_trial_type","stimulus","view_history","screen_id","angle","radius","distribution","choice","correct","order","angle_a","radius_a","angle_b","radius_b","jkl_correct","transfer_trial_type","choice_set","abc_correct","tc_correct","tc_angle","tdc_a","tdc_b","tdc_c","pair","category_a","category_b","category_c","angle_c","radius_c","question_order"
"true","false","[]","[]","[]","preload","0","20","0.0-0.0","2d_cat_multi_stim_exp1","2022-5-2","10:52:15","25","75","3","9","10","40","30","120","74","23","[""White""]","No","Male","1884773","","","","","","","","","","","","","","","","","","","","","","","","","","","","","","","",""
"","","","","","survey-html-form","1","6271","0.0-1.0","2d_cat_multi_stim_exp1","2022-5-2","10:52:15","25","75","3","9","10","40","30","120","74","23","[""White""]","No","Male","1884773","6238","{""response"":""74""}","enter-sub-number","","","","","","","","","","","","","","","","","","","","","","","","","","","","",""
"true","","","","","fullscreen","2","19992","0.0-2.0","2d_cat_multi_stim_exp1","2022-5-2","10:52:15","25","75","3","9","10","40","30","120","74","23","[""White""]","No","Male","1884773","","","","","","","","","","","","","","","","","","","","","","","","","","","","","","","",""
"","","","","","image-button-response","3","35918","0.0-3.0","2d_cat_multi_stim_exp1","2022-5-2","10:52:15","25","75","3","9","10","40","30","120","74","23","[""White""]","No","Male","1884773","15915","0","","consent.png","","","","","","","","","","","","","","","","","","","","","","","","","","","",""
"","","","","","html-button-response","4","63662","0.0-4.0","2d_cat_multi_stim_exp1","2022-5-2","10:52:15","25","75","3","9","10","40","30","120","74","23","[""White""]","No","Male","1884773","27739","0","","<div style= ""font-size:25px;"" <p> <strong> Welcome to the experiment! </strong><br> <p style=""color:#8B0000; font-size:25px;""><strong> Please do NOT exit full screen until you are done with the experiment. </strong> </p><p style=""font-size:25px;color:#8B0000;""> <strong> The experiment will be canceled and your data will be lost <br> if you try to go back or refresh the page at any point during the experiment.</strong> </p><br><p> <strong> Thanks in advance for your contribution to our research! </strong></p>","","","","","","","","","","","","","","","","","","","","","","","","","","","",""
"","","","","","instructions","5","131175","0.0-5.0","2d_cat_multi_stim_exp1","2022-5-2","10:52:15","25","75","3","9","10","40","30","120","74","23","[""White""]","No","Male","1884773","67508","","","","[{""page_index"":0,""viewing_time"":7204},{""page_index"":1,""viewing_time"":3928},{""page_index"":2,""viewing_time"":16543},{""page_index"":3,""viewing_time"":39833}]","instructions_1","","","","","","","","","","","","","","","","","","","","","","","","","",""
"","","","","","instructions","6","133974","0.0-6.0","2d_cat_multi_stim_exp1","2022-5-2","10:52:15","25","75","3","9","10","40","30","120","74","23","[""White""]","No","Male","1884773","2795","","","","[{""page_index"":0,""viewing_time"":2795}]","Click to see the kinds of turtles that will appear in the study.","","","","","","","","","","","","","","","","","","","","","","","","","",""
"","","","","","canvas-keyboard-response","7","148992","0.0-7.0","2d_cat_multi_stim_exp1","2022-5-2","10:52:15","25","75","3","9","10","40","30","120","74","23","[""White""]","No","Male","1884773","null","null","","","","demo_range","","","","","","","","","","","","","","","","","","","","","","","","","",""
"","","","","","instructions","8","153501","0.0-8.0","2d_cat_multi_stim_exp1","2022-5-2","10:52:15","25","75","3","9","10","40","30","120","74","23","[""White""]","No","Male","1884773","4006","","","","[{""page_index"":0,""viewing_time"":4006}]","Click to see some turtles in the subspecies.","","","","","","","","","","","","","","","","","","","","","","","","","",""
"","","","","","canvas-keyboard-response","9","168517","0.0-9.0","2d_cat_multi_stim_exp1","2022-5-2","10:52:15","25","75","3","9","10","40","30","120","74","23","[""White""]","No","Male","1884773","null","null","","","","demo_in","","","","","","","","","","","","","","","","","","","","","","","","","",""
"","","","","","instructions","10","232086","0.0-10.0","2d_cat_multi_stim_exp1","2022-5-2","10:52:15","25","75","3","9","10","40","30","120","74","23","[""White""]","No","Male","1884773","63066","","","","[{""page_index"":0,""viewing_time"":13890},{""page_index"":1,""viewing_time"":43488},{""page_index"":2,""viewing_time"":5688}]","instructions_2","","","","","","","","","","","","","","","","","","","","","","","","","",""
"","","","","","instructions","11","233230","0.0-11.0","2d_cat_multi_stim_exp1","2022-5-2","10:52:15","25","75","3","9","10","40","30","120","74","23","[""White""]","No","Male","1884773","1141","","","","[{""page_index"":0,""viewing_time"":1141}]","Click to begin the first phase of the experiment.","","","","","","","","","","","","","","","","","","","","","","","","","",""
"","","","","","canvas-keyboard-response","12","233737","0.0-12.0-0.0","2d_cat_multi_stim_exp1","2022-5-2","10:52:15","25","75","3","9","10","40","30","120","74","23","[""White""]","No","Male","1884773","null","null","","","","fixation","","","","","","","","","","","","","","","","","","","","","","","","","",""
"","","","","","canvas-keyboard-response","13","234246","0.0-12.0-1.0","2d_cat_multi_stim_exp1","2022-5-2","10:52:15","25","75","3","9","10","40","30","120","74","23","[""White""]","No","Male","1884773","null","null","","","","clear_screen","","","","","","","","","","","","","","","","","","","","","","","","","",""
"","","","","","canvas-keyboard-response","14","243942","0.0-12.0-2.0","2d_cat_multi_stim_exp1","2022-5-2","10:52:15","25","75","3","9","10","40","30","120","74","23","[""White""]","No","Male","1884773","9686","u","learn","","","learn_trial","13.3333","110","out","1","0","","","","","","","","","","","","","","","","","","","","",""
"","","","","","canvas-keyboard-response","15","244953","0.0-12.0-3.0","2d_cat_multi_stim_exp1","2022-5-2","10:52:15","25","75","3","9","10","40","30","120","74","23","[""White""]","No","Male","1884773","null","null","learn_feedback","","","learn_feedback","13.3333","110","out","","","","","","","","","","","","","","","","","","","","","","",""
"","","","","","canvas-keyboard-response","16","245017","0.0-12.0-4.0","2d_cat_multi_stim_exp1","2022-5-2","10:52:15","25","75","3","9","10","40","30","120","74","23","[""White""]","No","Male","1884773","null","null","","","","clear_screen","","","","","","","","","","","","","","","","","","","","","","","","","",""
"","","","","","canvas-keyboard-response","17","245526","0.0-12.0-0.1","2d_cat_multi_stim_exp1","2022-5-2","10:52:15","25","75","3","9","10","40","30","120","74","23","[""White""]","No","Male","1884773","null","null","","","","fixation","","","","","","","","","","","","","","","","","","","","","","","","","",""
"","","","","","canvas-keyboard-response","18","246039","0.0-12.0-1.1","2d_cat_multi_stim_exp1","2022-5-2","10:52:15","25","75","3","9","10","40","30","120","74","23","[""White""]","No","Male","1884773","null","null","","","","clear_screen","","","","","","","","","","","","","","","","","","","","","","","","","",""
"","","","","","canvas-keyboard-response","19","247309","0.0-12.0-2.1","2d_cat_multi_stim_exp1","2022-5-2","10:52:15","25","75","3","9","10","40","30","120","74","23","[""White""]","No","Male","1884773","1261","i","learn","","","learn_trial","33.3333","50","out","0","1","","","","","","","","","","","","","","","","","","","","",""
"","","","","","canvas-keyboard-response","20","247823","0.0-12.0-3.1","2d_cat_multi_stim_exp1","2022-5-2","10:52:15","25","75","3","9","10","40","30","120","74","23","[""White""]","No","Male","1884773","null","null","learn_feedback","","","learn_feedback","33.3333","50","out","","","","","","","","","","","","","","","","","","","","","","",""
"","","","","","canvas-keyboard-response","21","247883","0.0-12.0-4.1","2d_cat_multi_stim_exp1","2022-5-2","10:52:15","25","75","3","9","10","40","30","120","74","23","[""White""]","No","Male","1884773","null","null","","","","clear_screen","","","","","","","","","","","","","","","","","","","","","","","","","",""
"","","","","","canvas-keyboard-response","22","248394","0.0-12.0-0.2","2d_cat_multi_stim_exp1","2022-5-2","10:52:15","25","75","3","9","10","40","30","120","74","23","[""White""]","No","Male","1884773","null","null","","","","fixation","","","","","","","","","","","","","","","","","","","","","","","","","",""
"","","","","","canvas-keyboard-response","23","248904","0.0-12.0-1.2","2d_cat_multi_stim_exp1","2022-5-2","10:52:15","25","75","3","9","10","40","30","120","74","23","[""White""]","No","Male","1884773","null","null","","","","clear_screen","","","","","","","","","","","","","","","","","","","","","","","","","",""
"","","","","","canvas-keyboard-response","24","249869","0.0-12.0-2.2","2d_cat_multi_stim_exp1","2022-5-2","10:52:15","25","75","3","9","10","40","30","120","74","23","[""White""]","No","Male","1884773","955","u","learn","","","learn_trial","25","75","in","1","1","","","","","","","","","","","","","","","","","","","","",""
"","","","","","canvas-keyboard-response","25","250379","0.0-12.0-3.2","2d_cat_multi_stim_exp1","2022-5-2","10:52:15","25","75","3","9","10","40","30","120","74","23","[""White""]","No","Male","1884773","null","null","learn_feedback","","","learn_feedback","25","75","in","","","","","","","","","","","","","","","","","","","","","","",""
"","","","","","canvas-keyboard-response","26","250443","0.0-12.0-4.2","2d_cat_multi_stim_exp1","2022-5-2","10:52:15","25","75","3","9","10","40","30","120","74","23","[""White""]","No","Male","1884773","null","null","","","","clear_screen","","","","","","","","","","","","","","","","","","","","","","","","","",""
"","","","","","canvas-keyboard-response","27","250952","0.0-12.0-0.3","2d_cat_multi_stim_exp1","2022-5-2","10:52:15","25","75","3","9","10","40","30","120","74","23","[""White""]","No","Male","1884773","null","null","","","","fixation","","","","","","","","","","","","","","","","","","","","","","","","","",""
"","","","","","canvas-keyboard-response","28","251462","0.0-12.0-1.3","2d_cat_multi_stim_exp1","2022-5-2","10:52:15","25","75","3","9","10","40","30","120","74","23","[""White""]","No","Male","1884773","null","null","","","","clear_screen","","","","","","","","","","","","","","","","","","","","","","","","","",""
"","","","","","canvas-keyboard-response","29","252309","0.0-12.0-2.3","2d_cat_multi_stim_exp1","2022-5-2","10:52:15","25","75","3","9","10","40","30","120","74","23","[""White""]","No","Male","1884773","835","u","learn","","","learn_trial","25","75","in","1","1","","","","","","","","","","","","","","","","","","","","",""
"","","","","","canvas-keyboard-response","30","252819","0.0-12.0-3.3","2d_cat_multi_stim_exp1","2022-5-2","10:52:15","25","75","3","9","10","40","30","120","74","23","[""White""]","No","Male","1884773","null","null","learn_feedback","","","learn_feedback","25","75","in","","","","","","","","","","","","","","","","","","","","","","",""
"","","","","","canvas-keyboard-response","31","252875","0.0-12.0-4.3","2d_cat_multi_stim_exp1","2022-5-2","10:52:15","25","75","3","9","10","40","30","120","74","23","[""White""]","No","Male","1884773","null","null","","","","clear_screen","","","","","","","","","","","","","","","","","","","","","","","","","",""
"","","","","","canvas-keyboard-response","32","253385","0.0-12.0-0.4","2d_cat_multi_stim_exp1","2022-5-2","10:52:15","25","75","3","9","10","40","30","120","74","23","[""White""]","No","Male","1884773","null","null","","","","fixation","","","","","","","","","","","","","","","","","","","","","","","","","",""
"","","","","","canvas-keyboard-response","33","253893","0.0-12.0-1.4","2d_cat_multi_stim_exp1","2022-5-2","10:52:15","25","75","3","9","10","40","30","120","74","23","[""White""]","No","Male","1884773","null","null","","","","clear_screen","","","","","","","","","","","","","","","","","","","","","","","","","",""
"","","","","","canvas-keyboard-response","34","254550","0.0-12.0-2.4","2d_cat_multi_stim_exp1","2022-5-2","10:52:15","25","75","3","9","10","40","30","120","74","23","[""White""]","No","Male","1884773","645","u","learn","","","learn_trial","25","75","in","1","1","","","","","","","","","","","","","","","","","","","","",""
"","","","","","canvas-keyboard-response","35","255060","0.0-12.0-3.4","2d_cat_multi_stim_exp1","2022-5-2","10:52:15","25","75","3","9","10","40","30","120","74","23","[""White""]","No","Male","1884773","null","null","learn_feedback","","","learn_feedback","25","75","in","","","","","","","","","","","","","","","","","","","","","","",""
"","","","","","canvas-keyboard-response","36","255116","0.0-12.0-4.4","2d_cat_multi_stim_exp1","2022-5-2","10:52:15","25","75","3","9","10","40","30","120","74","23","[""White""]","No","Male","1884773","null","null","","","","clear_screen","","","","","","","","","","","","","","","","","","","","","","","","","",""
"","","","","","canvas-keyboard-response","37","255627","0.0-12.0-0.5","2d_cat_multi_stim_exp1","2022-5-2","10:52:15","25","75","3","9","10","40","30","120","74","23","[""White""]","No","Male","1884773","null","null","","","","fixation","","","","","","","","","","","","","","","","","","","","","","","","","",""
"","","","","","canvas-keyboard-response","38","256138","0.0-12.0-1.5","2d_cat_multi_stim_exp1","2022-5-2","10:52:15","25","75","3","9","10","40","30","120","74","23","[""White""]","No","Male","1884773","null","null","","","","clear_screen","","","","","","","","","","","","","","","","","","","","","","","","","",""
"","","","","","canvas-keyboard-response","39","257101","0.0-12.0-2.5","2d_cat_multi_stim_exp1","2022-5-2","10:52:15","25","75","3","9","10","40","30","120","74","23","[""White""]","No","Male","1884773","954","i","learn","","","learn_trial","30","70","out","0","1","","","","","","","","","","","","","","","","","","","","",""
"","","","","","canvas-keyboard-response","40","257611","0.0-12.0-3.5","2d_cat_multi_stim_exp1","2022-5-2","10:52:15","25","75","3","9","10","40","30","120","74","23","[""White""]","No","Male","1884773","null","null","learn_feedback","","","learn_feedback","30","70","out","","","","","","","","","","","","","","","","","","","","","","",""
"","","","","","canvas-keyboard-response","41","257673","0.0-12.0-4.5","2d_cat_multi_stim_exp1","2022-5-2","10:52:15","25","75","3","9","10","40","30","120","74","23","[""White""]","No","Male","1884773","null","null","","","","clear_screen","","","","","","","","","","","","","","","","","","","","","","","","","",""
"","","","","","canvas-keyboard-response","42","258181","0.0-12.0-0.6","2d_cat_multi_stim_exp1","2022-5-2","10:52:15","25","75","3","9","10","40","30","120","74","23","[""White""]","No","Male","1884773","null","null","","","","fixation","","","","","","","","","","","","","","","","","","","","","","","","","",""
"","","","","","canvas-keyboard-response","43","258690","0.0-12.0-1.6","2d_cat_multi_stim_exp1","2022-5-2","10:52:15","25","75","3","9","10","40","30","120","74","23","[""White""]","No","Male","1884773","null","null","","","","clear_screen","","","","","","","","","","","","","","","","","","","","","","","","","",""
"","","","","","canvas-keyboard-response","44","259884","0.0-12.0-2.6","2d_cat_multi_stim_exp1","2022-5-2","10:52:15","25","75","3","9","10","40","30","120","74","23","[""White""]","No","Male","1884773","1186","u","learn","","","learn_trial","25","75","in","1","1","","","","","","","","","","","","","","","","","","","","",""
"","","","","","canvas-keyboard-response","45","260394","0.0-12.0-3.6","2d_cat_multi_stim_exp1","2022-5-2","10:52:15","25","75","3","9","10","40","30","120","74","23","[""White""]","No","Male","1884773","null","null","learn_feedback","","","learn_feedback","25","75","in","","","","","","","","","","","","","","","","","","","","","","",""
"","","","","","canvas-keyboard-response","46","260453","0.0-12.0-4.6","2d_cat_multi_stim_exp1","2022-5-2","10:52:15","25","75","3","9","10","40","30","120","74","23","[""White""]","No","Male","1884773","null","null","","","","clear_screen","","","","","","","","","","","","","","","","","","","","","","","","","",""
"","","","","","canvas-keyboard-response","47","260962","0.0-12.0-0.7","2d_cat_multi_stim_exp1","2022-5-2","10:52:15","25","75","3","9","10","40","30","120","74","23","[""White""]","No","Male","1884773","null","null","","","","fixation","","","","","","","","","","","","","","","","","","","","","","","","","",""
"","","","","","canvas-keyboard-response","48","261473","0.0-12.0-1.7","2d_cat_multi_stim_exp1","2022-5-2","10:52:15","25","75","3","9","10","40","30","120","74","23","[""White""]","No","Male","1884773","null","null","","","","clear_screen","","","","","","","","","","","","","","","","","","","","","","","","","",""
"","","","","","canvas-keyboard-response","49","264156","0.0-12.0-2.7","2d_cat_multi_stim_exp1","2022-5-2","10:52:15","25","75","3","9","10","40","30","120","74","23","[""White""]","No","Male","1884773","2675","i","learn","","","learn_trial","20","60","out","0","1","","","","","","","","","","","","","","","","","","","","",""
"","","","","","canvas-keyboard-response","50","264667","0.0-12.0-3.7","2d_cat_multi_stim_exp1","2022-5-2","10:52:15","25","75","3","9","10","40","30","120","74","23","[""White""]","No","Male","1884773","null","null","learn_feedback","","","learn_feedback","20","60","out","","","","","","","","","","","","","","","","","","","","","","",""
"","","","","","canvas-keyboard-response","51","264726","0.0-12.0-4.7","2d_cat_multi_stim_exp1","2022-5-2","10:52:15","25","75","3","9","10","40","30","120","74","23","[""White""]","No","Male","1884773","null","null","","","","clear_screen","","","","","","","","","","","","","","","","","","","","","","","","","",""
"","","","","","canvas-keyboard-response","52","265234","0.0-12.0-0.8","2d_cat_multi_stim_exp1","2022-5-2","10:52:15","25","75","3","9","10","40","30","120","74","23","[""White""]","No","Male","1884773","null","null","","","","fixation","","","","","","","","","","","","","","","","","","","","","","","","","",""
"","","","","","canvas-keyboard-response","53","265748","0.0-12.0-1.8","2d_cat_multi_stim_exp1","2022-5-2","10:52:15","25","75","3","9","10","40","30","120","74","23","[""White""]","No","Male","1884773","null","null","","","","clear_screen","","","","","","","","","","","","","","","","","","","","","","","","","",""
"","","","","","canvas-keyboard-response","54","266773","0.0-12.0-2.8","2d_cat_multi_stim_exp1","2022-5-2","10:52:15","25","75","3","9","10","40","30","120","74","23","[""White""]","No","Male","1884773","1017","i","learn","","","learn_trial","33.3333","60","out","0","1","","","","","","","","","","","","","","","","","","","","",""
"","","","","","canvas-keyboard-response","55","267284","0.0-12.0-3.8","2d_cat_multi_stim_exp1","2022-5-2","10:52:15","25","75","3","9","10","40","30","120","74","23","[""White""]","No","Male","1884773","null","null","learn_feedback","","","learn_feedback","33.3333","60","out","","","","","","","","","","","","","","","","","","","","","","",""
"","","","","","canvas-keyboard-response","56","267344","0.0-12.0-4.8","2d_cat_multi_stim_exp1","2022-5-2","10:52:15","25","75","3","9","10","40","30","120","74","23","[""White""]","No","Male","1884773","null","null","","","","clear_screen","","","","","","","","","","","","","","","","","","","","","","","","","",""
"","","","","","canvas-keyboard-response","57","267852","0.0-12.0-0.9","2d_cat_multi_stim_exp1","2022-5-2","10:52:15","25","75","3","9","10","40","30","120","74","23","[""White""]","No","Male","1884773","null","null","","","","fixation","","","","","","","","","","","","","","","","","","","","","","","","","",""
"","","","","","canvas-keyboard-response","58","268366","0.0-12.0-1.9","2d_cat_multi_stim_exp1","2022-5-2","10:52:15","25","75","3","9","10","40","30","120","74","23","[""White""]","No","Male","1884773","null","null","","","","clear_screen","","","","","","","","","","","","","","","","","","","","","","","","","",""
"","","","","","canvas-keyboard-response","59","269075","0.0-12.0-2.9","2d_cat_multi_stim_exp1","2022-5-2","10:52:15","25","75","3","9","10","40","30","120","74","23","[""White""]","No","Male","1884773","700","i","learn","","","learn_trial","25","75","in","0","0","","","","","","","","","","","","","","","","","","","","",""
"","","","","","canvas-keyboard-response","60","270080","0.0-12.0-3.9","2d_cat_multi_stim_exp1","2022-5-2","10:52:15","25","75","3","9","10","40","30","120","74","23","[""White""]","No","Male","1884773","null","null","learn_feedback","","","learn_feedback","25","75","in","","","","","","","","","","","","","","","","","","","","","","",""
"","","","","","canvas-keyboard-response","61","270139","0.0-12.0-4.9","2d_cat_multi_stim_exp1","2022-5-2","10:52:15","25","75","3","9","10","40","30","120","74","23","[""White""]","No","Male","1884773","null","null","","","","clear_screen","","","","","","","","","","","","","","","","","","","","","","","","","",""
"","","","","","canvas-keyboard-response","62","270647","0.0-12.0-0.10","2d_cat_multi_stim_exp1","2022-5-2","10:52:15","25","75","3","9","10","40","30","120","74","23","[""White""]","No","Male","1884773","null","null","","","","fixation","","","","","","","","","","","","","","","","","","","","","","","","","",""
"","","","","","canvas-keyboard-response","63","271162","0.0-12.0-1.10","2d_cat_multi_stim_exp1","2022-5-2","10:52:15","25","75","3","9","10","40","30","120","74","23","[""White""]","No","Male","1884773","null","null","","","","clear_screen","","","","","","","","","","","","","","","","","","","","","","","","","",""
"","","","","","canvas-keyboard-response","64","272179","0.0-12.0-2.10","2d_cat_multi_stim_exp1","2022-5-2","10:52:15","25","75","3","9","10","40","30","120","74","23","[""White""]","No","Male","1884773","1010","i","learn","","","learn_trial","40","60","out","0","1","","","","","","","","","","","","","","","","","","","","",""
"","","","","","canvas-keyboard-response","65","272686","0.0-12.0-3.10","2d_cat_multi_stim_exp1","2022-5-2","10:52:15","25","75","3","9","10","40","30","120","74","23","[""White""]","No","Male","1884773","null","null","learn_feedback","","","learn_feedback","40","60","out","","","","","","","","","","","","","","","","","","","","","","",""
"","","","","","canvas-keyboard-response","66","272745","0.0-12.0-4.10","2d_cat_multi_stim_exp1","2022-5-2","10:52:15","25","75","3","9","10","40","30","120","74","23","[""White""]","No","Male","1884773","null","null","","","","clear_screen","","","","","","","","","","","","","","","","","","","","","","","","","",""
"","","","","","canvas-keyboard-response","67","273255","0.0-12.0-0.11","2d_cat_multi_stim_exp1","2022-5-2","10:52:15","25","75","3","9","10","40","30","120","74","23","[""White""]","No","Male","1884773","null","null","","","","fixation","","","","","","","","","","","","","","","","","","","","","","","","","",""
"","","","","","canvas-keyboard-response","68","273765","0.0-12.0-1.11","2d_cat_multi_stim_exp1","2022-5-2","10:52:15","25","75","3","9","10","40","30","120","74","23","[""White""]","No","Male","1884773","null","null","","","","clear_screen","","","","","","","","","","","","","","","","","","","","","","","","","",""
"","","","","","canvas-keyboard-response","69","274669","0.0-12.0-2.11","2d_cat_multi_stim_exp1","2022-5-2","10:52:15","25","75","3","9","10","40","30","120","74","23","[""White""]","No","Male","1884773","895","u","learn","","","learn_trial","22.5729","80.2901","in","1","1","","","","","","","","","","","","","","","","","","","","",""
"","","","","","canvas-keyboard-response","70","275179","0.0-12.0-3.11","2d_cat_multi_stim_exp1","2022-5-2","10:52:15","25","75","3","9","10","40","30","120","74","23","[""White""]","No","Male","1884773","null","null","learn_feedback","","","learn_feedback","22.5729","80.2901","in","","","","","","","","","","","","","","","","","","","","","","",""
"","","","","","canvas-keyboard-response","71","275242","0.0-12.0-4.11","2d_cat_multi_stim_exp1","2022-5-2","10:52:15","25","75","3","9","10","40","30","120","74","23","[""White""]","No","Male","1884773","null","null","","","","clear_screen","","","","","","","","","","","","","","","","","","","","","","","","","",""
"","","","","","canvas-keyboard-response","72","275751","0.0-12.0-0.12","2d_cat_multi_stim_exp1","2022-5-2","10:52:15","25","75","3","9","10","40","30","120","74","23","[""White""]","No","Male","1884773","null","null","","","","fixation","","","","","","","","","","","","","","","","","","","","","","","","","",""
"","","","","","canvas-keyboard-response","73","276256","0.0-12.0-1.12","2d_cat_multi_stim_exp1","2022-5-2","10:52:15","25","75","3","9","10","40","30","120","74","23","[""White""]","No","Male","1884773","null","null","","","","clear_screen","","","","","","","","","","","","","","","","","","","","","","","","","",""
"","","","","","canvas-keyboard-response","74","277278","0.0-12.0-2.12","2d_cat_multi_stim_exp1","2022-5-2","10:52:15","25","75","3","9","10","40","30","120","74","23","[""White""]","No","Male","1884773","1014","u","learn","","","learn_trial","25","75","in","1","1","","","","","","","","","","","","","","","","","","","","",""
"","","","","","canvas-keyboard-response","75","277786","0.0-12.0-3.12","2d_cat_multi_stim_exp1","2022-5-2","10:52:15","25","75","3","9","10","40","30","120","74","23","[""White""]","No","Male","1884773","null","null","learn_feedback","","","learn_feedback","25","75","in","","","","","","","","","","","","","","","","","","","","","","",""
"","","","","","canvas-keyboard-response","76","277844","0.0-12.0-4.12","2d_cat_multi_stim_exp1","2022-5-2","10:52:15","25","75","3","9","10","40","30","120","74","23","[""White""]","No","Male","1884773","null","null","","","","clear_screen","","","","","","","","","","","","","","","","","","","","","","","","","",""
"","","","","","canvas-keyboard-response","77","278352","0.0-12.0-0.13","2d_cat_multi_stim_exp1","2022-5-2","10:52:15","25","75","3","9","10","40","30","120","74","23","[""White""]","No","Male","1884773","null","null","","","","fixation","","","","","","","","","","","","","","","","","","","","","","","","","",""
"","","","","","canvas-keyboard-response","78","278864","0.0-12.0-1.13","2d_cat_multi_stim_exp1","2022-5-2","10:52:15","25","75","3","9","10","40","30","120","74","23","[""White""]","No","Male","1884773","null","null","","","","clear_screen","","","","","","","","","","","","","","","","","","","","","","","","","",""
"","","","","","canvas-keyboard-response","79","279830","0.0-12.0-2.13","2d_cat_multi_stim_exp1","2022-5-2","10:52:15","25","75","3","9","10","40","30","120","74","23","[""White""]","No","Male","1884773","954","i","learn","","","learn_trial","25","75","in","0","0","","","","","","","","","","","","","","","","","","","","",""
"","","","","","canvas-keyboard-response","80","280839","0.0-12.0-3.13","2d_cat_multi_stim_exp1","2022-5-2","10:52:15","25","75","3","9","10","40","30","120","74","23","[""White""]","No","Male","1884773","null","null","learn_feedback","","","learn_feedback","25","75","in","","","","","","","","","","","","","","","","","","","","","","",""
"","","","","","canvas-keyboard-response","81","280900","0.0-12.0-4.13","2d_cat_multi_stim_exp1","2022-5-2","10:52:15","25","75","3","9","10","40","30","120","74","23","[""White""]","No","Male","1884773","null","null","","","","clear_screen","","","","","","","","","","","","","","","","","","","","","","","","","",""
"","","","","","canvas-keyboard-response","82","281414","0.0-12.0-0.14","2d_cat_multi_stim_exp1","2022-5-2","10:52:15","25","75","3","9","10","40","30","120","74","23","[""White""]","No","Male","1884773","null","null","","","","fixation","","","","","","","","","","","","","","","","","","","","","","","","","",""
"","","","","","canvas-keyboard-response","83","281924","0.0-12.0-1.14","2d_cat_multi_stim_exp1","2022-5-2","10:52:15","25","75","3","9","10","40","30","120","74","23","[""White""]","No","Male","1884773","null","null","","","","clear_screen","","","","","","","","","","","","","","","","","","","","","","","","","",""
"","","","","","canvas-keyboard-response","84","282812","0.0-12.0-2.14","2d_cat_multi_stim_exp1","2022-5-2","10:52:15","25","75","3","9","10","40","30","120","74","23","[""White""]","No","Male","1884773","878","u","learn","","","learn_trial","25","75","in","1","1","","","","","","","","","","","","","","","","","","","","",""
"","","","","","canvas-keyboard-response","85","283323","0.0-12.0-3.14","2d_cat_multi_stim_exp1","2022-5-2","10:52:15","25","75","3","9","10","40","30","120","74","23","[""White""]","No","Male","1884773","null","null","learn_feedback","","","learn_feedback","25","75","in","","","","","","","","","","","","","","","","","","","","","","",""
"","","","","","canvas-keyboard-response","86","283382","0.0-12.0-4.14","2d_cat_multi_stim_exp1","2022-5-2","10:52:15","25","75","3","9","10","40","30","120","74","23","[""White""]","No","Male","1884773","null","null","","","","clear_screen","","","","","","","","","","","","","","","","","","","","","","","","","",""
"","","","","","canvas-keyboard-response","87","283892","0.0-12.0-0.15","2d_cat_multi_stim_exp1","2022-5-2","10:52:15","25","75","3","9","10","40","30","120","74","23","[""White""]","No","Male","1884773","null","null","","","","fixation","","","","","","","","","","","","","","","","","","","","","","","","","",""
"","","","","","canvas-keyboard-response","88","284403","0.0-12.0-1.15","2d_cat_multi_stim_exp1","2022-5-2","10:52:15","25","75","3","9","10","40","30","120","74","23","[""White""]","No","Male","1884773","null","null","","","","clear_screen","","","","","","","","","","","","","","","","","","","","","","","","","",""
"","","","","","canvas-keyboard-response","89","284918","0.0-12.0-2.15","2d_cat_multi_stim_exp1","2022-5-2","10:52:15","25","75","3","9","10","40","30","120","74","23","[""White""]","No","Male","1884773","505","u","learn","","","learn_trial","24.8654","83.9909","in","1","1","","","","","","","","","","","","","","","","","","","","",""
"","","","","","canvas-keyboard-response","90","285429","0.0-12.0-3.15","2d_cat_multi_stim_exp1","2022-5-2","10:52:15","25","75","3","9","10","40","30","120","74","23","[""White""]","No","Male","1884773","null","null","learn_feedback","","","learn_feedback","24.8654","83.9909","in","","","","","","","","","","","","","","","","","","","","","","",""
"","","","","","canvas-keyboard-response","91","285492","0.0-12.0-4.15","2d_cat_multi_stim_exp1","2022-5-2","10:52:15","25","75","3","9","10","40","30","120","74","23","[""White""]","No","Male","1884773","null","null","","","","clear_screen","","","","","","","","","","","","","","","","","","","","","","","","","",""
"","","","","","canvas-keyboard-response","92","286002","0.0-12.0-0.16","2d_cat_multi_stim_exp1","2022-5-2","10:52:15","25","75","3","9","10","40","30","120","74","23","[""White""]","No","Male","1884773","null","null","","","","fixation","","","","","","","","","","","","","","","","","","","","","","","","","",""
"","","","","","canvas-keyboard-response","93","286511","0.0-12.0-1.16","2d_cat_multi_stim_exp1","2022-5-2","10:52:15","25","75","3","9","10","40","30","120","74","23","[""White""]","No","Male","1884773","null","null","","","","clear_screen","","","","","","","","","","","","","","","","","","","","","","","","","",""
"","","","","","canvas-keyboard-response","94","287685","0.0-12.0-2.16","2d_cat_multi_stim_exp1","2022-5-2","10:52:15","25","75","3","9","10","40","30","120","74","23","[""White""]","No","Male","1884773","1163","i","learn","","","learn_trial","36.6667","60","out","0","1","","","","","","","","","","","","","","","","","","","","",""
"","","","","","canvas-keyboard-response","95","288194","0.0-12.0-3.16","2d_cat_multi_stim_exp1","2022-5-2","10:52:15","25","75","3","9","10","40","30","120","74","23","[""White""]","No","Male","1884773","null","null","learn_feedback","","","learn_feedback","36.6667","60","out","","","","","","","","","","","","","","","","","","","","","","",""
"","","","","","canvas-keyboard-response","96","288253","0.0-12.0-4.16","2d_cat_multi_stim_exp1","2022-5-2","10:52:15","25","75","3","9","10","40","30","120","74","23","[""White""]","No","Male","1884773","null","null","","","","clear_screen","","","","","","","","","","","","","","","","","","","","","","","","","",""
"","","","","","canvas-keyboard-response","97","288763","0.0-12.0-0.17","2d_cat_multi_stim_exp1","2022-5-2","10:52:15","25","75","3","9","10","40","30","120","74","23","[""White""]","No","Male","1884773","null","null","","","","fixation","","","","","","","","","","","","","","","","","","","","","","","","","",""
"","","","","","canvas-keyboard-response","98","289276","0.0-12.0-1.17","2d_cat_multi_stim_exp1","2022-5-2","10:52:15","25","75","3","9","10","40","30","120","74","23","[""White""]","No","Male","1884773","null","null","","","","clear_screen","","","","","","","","","","","","","","","","","","","","","","","","","",""
"","","","","","canvas-keyboard-response","99","290365","0.0-12.0-2.17","2d_cat_multi_stim_exp1","2022-5-2","10:52:15","25","75","3","9","10","40","30","120","74","23","[""White""]","No","Male","1884773","1081","u","learn","","","learn_trial","26.8705","82.0365","in","1","1","","","","","","","","","","","","","","","","","","","","",""
"","","","","","canvas-keyboard-response","100","290875","0.0-12.0-3.17","2d_cat_multi_stim_exp1","2022-5-2","10:52:15","25","75","3","9","10","40","30","120","74","23","[""White""]","No","Male","1884773","null","null","learn_feedback","","","learn_feedback","26.8705","82.0365","in","","","","","","","","","","","","","","","","","","","","","","",""
"","","","","","canvas-keyboard-response","101","290936","0.0-12.0-4.17","2d_cat_multi_stim_exp1","2022-5-2","10:52:15","25","75","3","9","10","40","30","120","74","23","[""White""]","No","Male","1884773","null","null","","","","clear_screen","","","","","","","","","","","","","","","","","","","","","","","","","",""
"","","","","","canvas-keyboard-response","102","291445","0.0-12.0-0.18","2d_cat_multi_stim_exp1","2022-5-2","10:52:15","25","75","3","9","10","40","30","120","74","23","[""White""]","No","Male","1884773","null","null","","","","fixation","","","","","","","","","","","","","","","","","","","","","","","","","",""
"","","","","","canvas-keyboard-response","103","291958","0.0-12.0-1.18","2d_cat_multi_stim_exp1","2022-5-2","10:52:15","25","75","3","9","10","40","30","120","74","23","[""White""]","No","Male","1884773","null","null","","","","clear_screen","","","","","","","","","","","","","","","","","","","","","","","","","",""
"","","","","","canvas-keyboard-response","104","292742","0.0-12.0-2.18","2d_cat_multi_stim_exp1","2022-5-2","10:52:15","25","75","3","9","10","40","30","120","74","23","[""White""]","No","Male","1884773","774","i","learn","","","learn_trial","33.3333","100","out","0","1","","","","","","","","","","","","","","","","","","","","",""
"","","","","","canvas-keyboard-response","105","293249","0.0-12.0-3.18","2d_cat_multi_stim_exp1","2022-5-2","10:52:15","25","75","3","9","10","40","30","120","74","23","[""White""]","No","Male","1884773","null","null","learn_feedback","","","learn_feedback","33.3333","100","out","","","","","","","","","","","","","","","","","","","","","","",""
"","","","","","canvas-keyboard-response","106","293308","0.0-12.0-4.18","2d_cat_multi_stim_exp1","2022-5-2","10:52:15","25","75","3","9","10","40","30","120","74","23","[""White""]","No","Male","1884773","null","null","","","","clear_screen","","","","","","","","","","","","","","","","","","","","","","","","","",""
"","","","","","canvas-keyboard-response","107","293817","0.0-12.0-0.19","2d_cat_multi_stim_exp1","2022-5-2","10:52:15","25","75","3","9","10","40","30","120","74","23","[""White""]","No","Male","1884773","null","null","","","","fixation","","","","","","","","","","","","","","","","","","","","","","","","","",""
"","","","","","canvas-keyboard-response","108","294331","0.0-12.0-1.19","2d_cat_multi_stim_exp1","2022-5-2","10:52:15","25","75","3","9","10","40","30","120","74","23","[""White""]","No","Male","1884773","null","null","","","","clear_screen","","","","","","","","","","","","","","","","","","","","","","","","","",""
"","","","","","canvas-keyboard-response","109","295555","0.0-12.0-2.19","2d_cat_multi_stim_exp1","2022-5-2","10:52:15","25","75","3","9","10","40","30","120","74","23","[""White""]","No","Male","1884773","1215","u","learn","","","learn_trial","25","75","in","1","1","","","","","","","","","","","","","","","","","","","","",""
"","","","","","canvas-keyboard-response","110","296062","0.0-12.0-3.19","2d_cat_multi_stim_exp1","2022-5-2","10:52:15","25","75","3","9","10","40","30","120","74","23","[""White""]","No","Male","1884773","null","null","learn_feedback","","","learn_feedback","25","75","in","","","","","","","","","","","","","","","","","","","","","","",""
"","","","","","canvas-keyboard-response","111","296121","0.0-12.0-4.19","2d_cat_multi_stim_exp1","2022-5-2","10:52:15","25","75","3","9","10","40","30","120","74","23","[""White""]","No","Male","1884773","null","null","","","","clear_screen","","","","","","","","","","","","","","","","","","","","","","","","","",""
"","","","","","canvas-keyboard-response","112","296632","0.0-12.0-0.20","2d_cat_multi_stim_exp1","2022-5-2","10:52:15","25","75","3","9","10","40","30","120","74","23","[""White""]","No","Male","1884773","null","null","","","","fixation","","","","","","","","","","","","","","","","","","","","","","","","","",""
"","","","","","canvas-keyboard-response","113","297142","0.0-12.0-1.20","2d_cat_multi_stim_exp1","2022-5-2","10:52:15","25","75","3","9","10","40","30","120","74","23","[""White""]","No","Male","1884773","null","null","","","","clear_screen","","","","","","","","","","","","","","","","","","","","","","","","","",""
"","","","","","canvas-keyboard-response","114","297884","0.0-12.0-2.20","2d_cat_multi_stim_exp1","2022-5-2","10:52:15","25","75","3","9","10","40","30","120","74","23","[""White""]","No","Male","1884773","734","i","learn","","","learn_trial","30","90","out","0","1","","","","","","","","","","","","","","","","","","","","",""
"","","","","","canvas-keyboard-response","115","298394","0.0-12.0-3.20","2d_cat_multi_stim_exp1","2022-5-2","10:52:15","25","75","3","9","10","40","30","120","74","23","[""White""]","No","Male","1884773","null","null","learn_feedback","","","learn_feedback","30","90","out","","","","","","","","","","","","","","","","","","","","","","",""
"","","","","","canvas-keyboard-response","116","298454","0.0-12.0-4.20","2d_cat_multi_stim_exp1","2022-5-2","10:52:15","25","75","3","9","10","40","30","120","74","23","[""White""]","No","Male","1884773","null","null","","","","clear_screen","","","","","","","","","","","","","","","","","","","","","","","","","",""
"","","","","","canvas-keyboard-response","117","298964","0.0-12.0-0.21","2d_cat_multi_stim_exp1","2022-5-2","10:52:15","25","75","3","9","10","40","30","120","74","23","[""White""]","No","Male","1884773","null","null","","","","fixation","","","","","","","","","","","","","","","","","","","","","","","","","",""
"","","","","","canvas-keyboard-response","118","299474","0.0-12.0-1.21","2d_cat_multi_stim_exp1","2022-5-2","10:52:15","25","75","3","9","10","40","30","120","74","23","[""White""]","No","Male","1884773","null","null","","","","clear_screen","","","","","","","","","","","","","","","","","","","","","","","","","",""
"","","","","","canvas-keyboard-response","119","300404","0.0-12.0-2.21","2d_cat_multi_stim_exp1","2022-5-2","10:52:15","25","75","3","9","10","40","30","120","74","23","[""White""]","No","Male","1884773","920","i","learn","","","learn_trial","36.6667","40","out","0","1","","","","","","","","","","","","","","","","","","","","",""
"","","","","","canvas-keyboard-response","120","300914","0.0-12.0-3.21","2d_cat_multi_stim_exp1","2022-5-2","10:52:15","25","75","3","9","10","40","30","120","74","23","[""White""]","No","Male","1884773","null","null","learn_feedback","","","learn_feedback","36.6667","40","out","","","","","","","","","","","","","","","","","","","","","","",""
"","","","","","canvas-keyboard-response","121","300976","0.0-12.0-4.21","2d_cat_multi_stim_exp1","2022-5-2","10:52:15","25","75","3","9","10","40","30","120","74","23","[""White""]","No","Male","1884773","null","null","","","","clear_screen","","","","","","","","","","","","","","","","","","","","","","","","","",""
"","","","","","canvas-keyboard-response","122","301485","0.0-12.0-0.22","2d_cat_multi_stim_exp1","2022-5-2","10:52:15","25","75","3","9","10","40","30","120","74","23","[""White""]","No","Male","1884773","null","null","","","","fixation","","","","","","","","","","","","","","","","","","","","","","","","","",""
"","","","","","canvas-keyboard-response","123","301996","0.0-12.0-1.22","2d_cat_multi_stim_exp1","2022-5-2","10:52:15","25","75","3","9","10","40","30","120","74","23","[""White""]","No","Male","1884773","null","null","","","","clear_screen","","","","","","","","","","","","","","","","","","","","","","","","","",""
"","","","","","canvas-keyboard-response","124","303141","0.0-12.0-2.22","2d_cat_multi_stim_exp1","2022-5-2","10:52:15","25","75","3","9","10","40","30","120","74","23","[""White""]","No","Male","1884773","1135","u","learn","","","learn_trial","25","75","in","1","1","","","","","","","","","","","","","","","","","","","","",""
"","","","","","canvas-keyboard-response","125","303653","0.0-12.0-3.22","2d_cat_multi_stim_exp1","2022-5-2","10:52:15","25","75","3","9","10","40","30","120","74","23","[""White""]","No","Male","1884773","null","null","learn_feedback","","","learn_feedback","25","75","in","","","","","","","","","","","","","","","","","","","","","","",""
"","","","","","canvas-keyboard-response","126","303713","0.0-12.0-4.22","2d_cat_multi_stim_exp1","2022-5-2","10:52:15","25","75","3","9","10","40","30","120","74","23","[""White""]","No","Male","1884773","null","null","","","","clear_screen","","","","","","","","","","","","","","","","","","","","","","","","","",""
"","","","","","canvas-keyboard-response","127","304225","0.0-12.0-0.23","2d_cat_multi_stim_exp1","2022-5-2","10:52:15","25","75","3","9","10","40","30","120","74","23","[""White""]","No","Male","1884773","null","null","","","","fixation","","","","","","","","","","","","","","","","","","","","","","","","","",""
"","","","","","canvas-keyboard-response","128","304734","0.0-12.0-1.23","2d_cat_multi_stim_exp1","2022-5-2","10:52:15","25","75","3","9","10","40","30","120","74","23","[""White""]","No","Male","1884773","null","null","","","","clear_screen","","","","","","","","","","","","","","","","","","","","","","","","","",""
"","","","","","canvas-keyboard-response","129","305734","0.0-12.0-2.23","2d_cat_multi_stim_exp1","2022-5-2","10:52:15","25","75","3","9","10","40","30","120","74","23","[""White""]","No","Male","1884773","991","i","learn","","","learn_trial","22.2971","71.095","in","0","0","","","","","","","","","","","","","","","","","","","","",""
"","","","","","canvas-keyboard-response","130","306746","0.0-12.0-3.23","2d_cat_multi_stim_exp1","2022-5-2","10:52:15","25","75","3","9","10","40","30","120","74","23","[""White""]","No","Male","1884773","null","null","learn_feedback","","","learn_feedback","22.2971","71.095","in","","","","","","","","","","","","","","","","","","","","","","",""
"","","","","","canvas-keyboard-response","131","306805","0.0-12.0-4.23","2d_cat_multi_stim_exp1","2022-5-2","10:52:15","25","75","3","9","10","40","30","120","74","23","[""White""]","No","Male","1884773","null","null","","","","clear_screen","","","","","","","","","","","","","","","","","","","","","","","","","",""
"","","","","","canvas-keyboard-response","132","307314","0.0-12.0-0.24","2d_cat_multi_stim_exp1","2022-5-2","10:52:15","25","75","3","9","10","40","30","120","74","23","[""White""]","No","Male","1884773","null","null","","","","fixation","","","","","","","","","","","","","","","","","","","","","","","","","",""
"","","","","","canvas-keyboard-response","133","307823","0.0-12.0-1.24","2d_cat_multi_stim_exp1","2022-5-2","10:52:15","25","75","3","9","10","40","30","120","74","23","[""White""]","No","Male","1884773","null","null","","","","clear_screen","","","","","","","","","","","","","","","","","","","","","","","","","",""
"","","","","","canvas-keyboard-response","134","308677","0.0-12.0-2.24","2d_cat_multi_stim_exp1","2022-5-2","10:52:15","25","75","3","9","10","40","30","120","74","23","[""White""]","No","Male","1884773","844","i","learn","","","learn_trial","36.6667","80","out","0","1","","","","","","","","","","","","","","","","","","","","",""
"","","","","","canvas-keyboard-response","135","309186","0.0-12.0-3.24","2d_cat_multi_stim_exp1","2022-5-2","10:52:15","25","75","3","9","10","40","30","120","74","23","[""White""]","No","Male","1884773","null","null","learn_feedback","","","learn_feedback","36.6667","80","out","","","","","","","","","","","","","","","","","","","","","","",""
"","","","","","canvas-keyboard-response","136","309248","0.0-12.0-4.24","2d_cat_multi_stim_exp1","2022-5-2","10:52:15","25","75","3","9","10","40","30","120","74","23","[""White""]","No","Male","1884773","null","null","","","","clear_screen","","","","","","","","","","","","","","","","","","","","","","","","","",""
"","","","","","canvas-keyboard-response","137","309757","0.0-12.0-0.25","2d_cat_multi_stim_exp1","2022-5-2","10:52:15","25","75","3","9","10","40","30","120","74","23","[""White""]","No","Male","1884773","null","null","","","","fixation","","","","","","","","","","","","","","","","","","","","","","","","","",""
"","","","","","canvas-keyboard-response","138","310269","0.0-12.0-1.25","2d_cat_multi_stim_exp1","2022-5-2","10:52:15","25","75","3","9","10","40","30","120","74","23","[""White""]","No","Male","1884773","null","null","","","","clear_screen","","","","","","","","","","","","","","","","","","","","","","","","","",""
"","","","","","canvas-keyboard-response","139","310837","0.0-12.0-2.25","2d_cat_multi_stim_exp1","2022-5-2","10:52:15","25","75","3","9","10","40","30","120","74","23","[""White""]","No","Male","1884773","558","u","learn","","","learn_trial","13.3333","80","out","1","0","","","","","","","","","","","","","","","","","","","","",""
"","","","","","canvas-keyboard-response","140","311846","0.0-12.0-3.25","2d_cat_multi_stim_exp1","2022-5-2","10:52:15","25","75","3","9","10","40","30","120","74","23","[""White""]","No","Male","1884773","null","null","learn_feedback","","","learn_feedback","13.3333","80","out","","","","","","","","","","","","","","","","","","","","","","",""
"","","","","","canvas-keyboard-response","141","311909","0.0-12.0-4.25","2d_cat_multi_stim_exp1","2022-5-2","10:52:15","25","75","3","9","10","40","30","120","74","23","[""White""]","No","Male","1884773","null","null","","","","clear_screen","","","","","","","","","","","","","","","","","","","","","","","","","",""
"","","","","","canvas-keyboard-response","142","312418","0.0-12.0-0.26","2d_cat_multi_stim_exp1","2022-5-2","10:52:15","25","75","3","9","10","40","30","120","74","23","[""White""]","No","Male","1884773","null","null","","","","fixation","","","","","","","","","","","","","","","","","","","","","","","","","",""
"","","","","","canvas-keyboard-response","143","312931","0.0-12.0-1.26","2d_cat_multi_stim_exp1","2022-5-2","10:52:15","25","75","3","9","10","40","30","120","74","23","[""White""]","No","Male","1884773","null","null","","","","clear_screen","","","","","","","","","","","","","","","","","","","","","","","","","",""
"","","","","","canvas-keyboard-response","144","313645","0.0-12.0-2.26","2d_cat_multi_stim_exp1","2022-5-2","10:52:15","25","75","3","9","10","40","30","120","74","23","[""White""]","No","Male","1884773","704","u","learn","","","learn_trial","27.5753","79.6161","in","1","1","","","","","","","","","","","","","","","","","","","","",""
"","","","","","canvas-keyboard-response","145","314155","0.0-12.0-3.26","2d_cat_multi_stim_exp1","2022-5-2","10:52:15","25","75","3","9","10","40","30","120","74","23","[""White""]","No","Male","1884773","null","null","learn_feedback","","","learn_feedback","27.5753","79.6161","in","","","","","","","","","","","","","","","","","","","","","","",""
"","","","","","canvas-keyboard-response","146","314214","0.0-12.0-4.26","2d_cat_multi_stim_exp1","2022-5-2","10:52:15","25","75","3","9","10","40","30","120","74","23","[""White""]","No","Male","1884773","null","null","","","","clear_screen","","","","","","","","","","","","","","","","","","","","","","","","","",""
"","","","","","canvas-keyboard-response","147","314722","0.0-12.0-0.27","2d_cat_multi_stim_exp1","2022-5-2","10:52:15","25","75","3","9","10","40","30","120","74","23","[""White""]","No","Male","1884773","null","null","","","","fixation","","","","","","","","","","","","","","","","","","","","","","","","","",""
"","","","","","canvas-keyboard-response","148","315233","0.0-12.0-1.27","2d_cat_multi_stim_exp1","2022-5-2","10:52:15","25","75","3","9","10","40","30","120","74","23","[""White""]","No","Male","1884773","null","null","","","","clear_screen","","","","","","","","","","","","","","","","","","","","","","","","","",""
"","","","","","canvas-keyboard-response","149","315956","0.0-12.0-2.27","2d_cat_multi_stim_exp1","2022-5-2","10:52:15","25","75","3","9","10","40","30","120","74","23","[""White""]","No","Male","1884773","714","i","learn","","","learn_trial","33.3333","120","out","0","1","","","","","","","","","","","","","","","","","","","","",""
"","","","","","canvas-keyboard-response","150","316467","0.0-12.0-3.27","2d_cat_multi_stim_exp1","2022-5-2","10:52:15","25","75","3","9","10","40","30","120","74","23","[""White""]","No","Male","1884773","null","null","learn_feedback","","","learn_feedback","33.3333","120","out","","","","","","","","","","","","","","","","","","","","","","",""
"","","","","","canvas-keyboard-response","151","316533","0.0-12.0-4.27","2d_cat_multi_stim_exp1","2022-5-2","10:52:15","25","75","3","9","10","40","30","120","74","23","[""White""]","No","Male","1884773","null","null","","","","clear_screen","","","","","","","","","","","","","","","","","","","","","","","","","",""
"","","","","","canvas-keyboard-response","152","317040","0.0-12.0-0.28","2d_cat_multi_stim_exp1","2022-5-2","10:52:15","25","75","3","9","10","40","30","120","74","23","[""White""]","No","Male","1884773","null","null","","","","fixation","","","","","","","","","","","","","","","","","","","","","","","","","",""
"","","","","","canvas-keyboard-response","153","317552","0.0-12.0-1.28","2d_cat_multi_stim_exp1","2022-5-2","10:52:15","25","75","3","9","10","40","30","120","74","23","[""White""]","No","Male","1884773","null","null","","","","clear_screen","","","","","","","","","","","","","","","","","","","","","","","","","",""
"","","","","","canvas-keyboard-response","154","318246","0.0-12.0-2.28","2d_cat_multi_stim_exp1","2022-5-2","10:52:15","25","75","3","9","10","40","30","120","74","23","[""White""]","No","Male","1884773","682","u","learn","","","learn_trial","25","75","in","1","1","","","","","","","","","","","","","","","","","","","","",""
"","","","","","canvas-keyboard-response","155","318756","0.0-12.0-3.28","2d_cat_multi_stim_exp1","2022-5-2","10:52:15","25","75","3","9","10","40","30","120","74","23","[""White""]","No","Male","1884773","null","null","learn_feedback","","","learn_feedback","25","75","in","","","","","","","","","","","","","","","","","","","","","","",""
"","","","","","canvas-keyboard-response","156","318816","0.0-12.0-4.28","2d_cat_multi_stim_exp1","2022-5-2","10:52:15","25","75","3","9","10","40","30","120","74","23","[""White""]","No","Male","1884773","null","null","","","","clear_screen","","","","","","","","","","","","","","","","","","","","","","","","","",""
"","","","","","canvas-keyboard-response","157","319328","0.0-12.0-0.29","2d_cat_multi_stim_exp1","2022-5-2","10:52:15","25","75","3","9","10","40","30","120","74","23","[""White""]","No","Male","1884773","null","null","","","","fixation","","","","","","","","","","","","","","","","","","","","","","","","","",""
"","","","","","canvas-keyboard-response","158","319841","0.0-12.0-1.29","2d_cat_multi_stim_exp1","2022-5-2","10:52:15","25","75","3","9","10","40","30","120","74","23","[""White""]","No","Male","1884773","null","null","","","","clear_screen","","","","","","","","","","","","","","","","","","","","","","","","","",""
"","","","","","canvas-keyboard-response","159","320806","0.0-12.0-2.29","2d_cat_multi_stim_exp1","2022-5-2","10:52:15","25","75","3","9","10","40","30","120","74","23","[""White""]","No","Male","1884773","960","u","learn","","","learn_trial","26.6667","80","out","1","0","","","","","","","","","","","","","","","","","","","","",""
"","","","","","canvas-keyboard-response","160","321816","0.0-12.0-3.29","2d_cat_multi_stim_exp1","2022-5-2","10:52:15","25","75","3","9","10","40","30","120","74","23","[""White""]","No","Male","1884773","null","null","learn_feedback","","","learn_feedback","26.6667","80","out","","","","","","","","","","","","","","","","","","","","","","",""
"","","","","","canvas-keyboard-response","161","321875","0.0-12.0-4.29","2d_cat_multi_stim_exp1","2022-5-2","10:52:15","25","75","3","9","10","40","30","120","74","23","[""White""]","No","Male","1884773","null","null","","","","clear_screen","","","","","","","","","","","","","","","","","","","","","","","","","",""
"","","","","","canvas-keyboard-response","162","322387","0.0-12.0-0.30","2d_cat_multi_stim_exp1","2022-5-2","10:52:15","25","75","3","9","10","40","30","120","74","23","[""White""]","No","Male","1884773","null","null","","","","fixation","","","","","","","","","","","","","","","","","","","","","","","","","",""
"","","","","","canvas-keyboard-response","163","322897","0.0-12.0-1.30","2d_cat_multi_stim_exp1","2022-5-2","10:52:15","25","75","3","9","10","40","30","120","74","23","[""White""]","No","Male","1884773","null","null","","","","clear_screen","","","","","","","","","","","","","","","","","","","","","","","","","",""
"","","","","","canvas-keyboard-response","164","323685","0.0-12.0-2.30","2d_cat_multi_stim_exp1","2022-5-2","10:52:15","25","75","3","9","10","40","30","120","74","23","[""White""]","No","Male","1884773","777","u","learn","","","learn_trial","25","75","in","1","1","","","","","","","","","","","","","","","","","","","","",""
"","","","","","canvas-keyboard-response","165","324195","0.0-12.0-3.30","2d_cat_multi_stim_exp1","2022-5-2","10:52:15","25","75","3","9","10","40","30","120","74","23","[""White""]","No","Male","1884773","null","null","learn_feedback","","","learn_feedback","25","75","in","","","","","","","","","","","","","","","","","","","","","","",""
"","","","","","canvas-keyboard-response","166","324261","0.0-12.0-4.30","2d_cat_multi_stim_exp1","2022-5-2","10:52:15","25","75","3","9","10","40","30","120","74","23","[""White""]","No","Male","1884773","null","null","","","","clear_screen","","","","","","","","","","","","","","","","","","","","","","","","","",""
"","","","","","canvas-keyboard-response","167","324769","0.0-12.0-0.31","2d_cat_multi_stim_exp1","2022-5-2","10:52:15","25","75","3","9","10","40","30","120","74","23","[""White""]","No","Male","1884773","null","null","","","","fixation","","","","","","","","","","","","","","","","","","","","","","","","","",""
"","","","","","canvas-keyboard-response","168","325280","0.0-12.0-1.31","2d_cat_multi_stim_exp1","2022-5-2","10:52:15","25","75","3","9","10","40","30","120","74","23","[""White""]","No","Male","1884773","null","null","","","","clear_screen","","","","","","","","","","","","","","","","","","","","","","","","","",""
"","","","","","canvas-keyboard-response","169","325949","0.0-12.0-2.31","2d_cat_multi_stim_exp1","2022-5-2","10:52:15","25","75","3","9","10","40","30","120","74","23","[""White""]","No","Male","1884773","661","i","learn","","","learn_trial","26.6667","120","out","0","1","","","","","","","","","","","","","","","","","","","","",""
"","","","","","canvas-keyboard-response","170","326458","0.0-12.0-3.31","2d_cat_multi_stim_exp1","2022-5-2","10:52:15","25","75","3","9","10","40","30","120","74","23","[""White""]","No","Male","1884773","null","null","learn_feedback","","","learn_feedback","26.6667","120","out","","","","","","","","","","","","","","","","","","","","","","",""
"","","","","","canvas-keyboard-response","171","326520","0.0-12.0-4.31","2d_cat_multi_stim_exp1","2022-5-2","10:52:15","25","75","3","9","10","40","30","120","74","23","[""White""]","No","Male","1884773","null","null","","","","clear_screen","","","","","","","","","","","","","","","","","","","","","","","","","",""
"","","","","","canvas-keyboard-response","172","327028","0.0-12.0-0.32","2d_cat_multi_stim_exp1","2022-5-2","10:52:15","25","75","3","9","10","40","30","120","74","23","[""White""]","No","Male","1884773","null","null","","","","fixation","","","","","","","","","","","","","","","","","","","","","","","","","",""
"","","","","","canvas-keyboard-response","173","327537","0.0-12.0-1.32","2d_cat_multi_stim_exp1","2022-5-2","10:52:15","25","75","3","9","10","40","30","120","74","23","[""White""]","No","Male","1884773","null","null","","","","clear_screen","","","","","","","","","","","","","","","","","","","","","","","","","",""
"","","","","","canvas-keyboard-response","174","328373","0.0-12.0-2.32","2d_cat_multi_stim_exp1","2022-5-2","10:52:15","25","75","3","9","10","40","30","120","74","23","[""White""]","No","Male","1884773","827","i","learn","","","learn_trial","29.2426","62.2721","in","0","0","","","","","","","","","","","","","","","","","","","","",""
"","","","","","canvas-keyboard-response","175","329382","0.0-12.0-3.32","2d_cat_multi_stim_exp1","2022-5-2","10:52:15","25","75","3","9","10","40","30","120","74","23","[""White""]","No","Male","1884773","null","null","learn_feedback","","","learn_feedback","29.2426","62.2721","in","","","","","","","","","","","","","","","","","","","","","","",""
"","","","","","canvas-keyboard-response","176","329444","0.0-12.0-4.32","2d_cat_multi_stim_exp1","2022-5-2","10:52:15","25","75","3","9","10","40","30","120","74","23","[""White""]","No","Male","1884773","null","null","","","","clear_screen","","","","","","","","","","","","","","","","","","","","","","","","","",""
"","","","","","canvas-keyboard-response","177","329954","0.0-12.0-0.33","2d_cat_multi_stim_exp1","2022-5-2","10:52:15","25","75","3","9","10","40","30","120","74","23","[""White""]","No","Male","1884773","null","null","","","","fixation","","","","","","","","","","","","","","","","","","","","","","","","","",""
"","","","","","canvas-keyboard-response","178","330466","0.0-12.0-1.33","2d_cat_multi_stim_exp1","2022-5-2","10:52:15","25","75","3","9","10","40","30","120","74","23","[""White""]","No","Male","1884773","null","null","","","","clear_screen","","","","","","","","","","","","","","","","","","","","","","","","","",""
"","","","","","canvas-keyboard-response","179","331525","0.0-12.0-2.33","2d_cat_multi_stim_exp1","2022-5-2","10:52:15","25","75","3","9","10","40","30","120","74","23","[""White""]","No","Male","1884773","1049","i","learn","","","learn_trial","24.3324","83.7744","in","0","0","","","","","","","","","","","","","","","","","","","","",""
"","","","","","canvas-keyboard-response","180","332536","0.0-12.0-3.33","2d_cat_multi_stim_exp1","2022-5-2","10:52:15","25","75","3","9","10","40","30","120","74","23","[""White""]","No","Male","1884773","null","null","learn_feedback","","","learn_feedback","24.3324","83.7744","in","","","","","","","","","","","","","","","","","","","","","","",""
"","","","","","canvas-keyboard-response","181","332599","0.0-12.0-4.33","2d_cat_multi_stim_exp1","2022-5-2","10:52:15","25","75","3","9","10","40","30","120","74","23","[""White""]","No","Male","1884773","null","null","","","","clear_screen","","","","","","","","","","","","","","","","","","","","","","","","","",""
"","","","","","canvas-keyboard-response","182","333111","0.0-12.0-0.34","2d_cat_multi_stim_exp1","2022-5-2","10:52:15","25","75","3","9","10","40","30","120","74","23","[""White""]","No","Male","1884773","null","null","","","","fixation","","","","","","","","","","","","","","","","","","","","","","","","","",""
"","","","","","canvas-keyboard-response","183","333621","0.0-12.0-1.34","2d_cat_multi_stim_exp1","2022-5-2","10:52:15","25","75","3","9","10","40","30","120","74","23","[""White""]","No","Male","1884773","null","null","","","","clear_screen","","","","","","","","","","","","","","","","","","","","","","","","","",""
"","","","","","canvas-keyboard-response","184","334558","0.0-12.0-2.34","2d_cat_multi_stim_exp1","2022-5-2","10:52:15","25","75","3","9","10","40","30","120","74","23","[""White""]","No","Male","1884773","927","i","learn","","","learn_trial","30","60","out","0","1","","","","","","","","","","","","","","","","","","","","",""
"","","","","","canvas-keyboard-response","185","335068","0.0-12.0-3.34","2d_cat_multi_stim_exp1","2022-5-2","10:52:15","25","75","3","9","10","40","30","120","74","23","[""White""]","No","Male","1884773","null","null","learn_feedback","","","learn_feedback","30","60","out","","","","","","","","","","","","","","","","","","","","","","",""
"","","","","","canvas-keyboard-response","186","335127","0.0-12.0-4.34","2d_cat_multi_stim_exp1","2022-5-2","10:52:15","25","75","3","9","10","40","30","120","74","23","[""White""]","No","Male","1884773","null","null","","","","clear_screen","","","","","","","","","","","","","","","","","","","","","","","","","",""
"","","","","","canvas-keyboard-response","187","335635","0.0-12.0-0.35","2d_cat_multi_stim_exp1","2022-5-2","10:52:15","25","75","3","9","10","40","30","120","74","23","[""White""]","No","Male","1884773","null","null","","","","fixation","","","","","","","","","","","","","","","","","","","","","","","","","",""
"","","","","","canvas-keyboard-response","188","336147","0.0-12.0-1.35","2d_cat_multi_stim_exp1","2022-5-2","10:52:15","25","75","3","9","10","40","30","120","74","23","[""White""]","No","Male","1884773","null","null","","","","clear_screen","","","","","","","","","","","","","","","","","","","","","","","","","",""
"","","","","","canvas-keyboard-response","189","336774","0.0-12.0-2.35","2d_cat_multi_stim_exp1","2022-5-2","10:52:15","25","75","3","9","10","40","30","120","74","23","[""White""]","No","Male","1884773","618","u","learn","","","learn_trial","25","75","in","1","1","","","","","","","","","","","","","","","","","","","","",""
"","","","","","canvas-keyboard-response","190","337283","0.0-12.0-3.35","2d_cat_multi_stim_exp1","2022-5-2","10:52:15","25","75","3","9","10","40","30","120","74","23","[""White""]","No","Male","1884773","null","null","learn_feedback","","","learn_feedback","25","75","in","","","","","","","","","","","","","","","","","","","","","","",""
"","","","","","canvas-keyboard-response","191","337344","0.0-12.0-4.35","2d_cat_multi_stim_exp1","2022-5-2","10:52:15","25","75","3","9","10","40","30","120","74","23","[""White""]","No","Male","1884773","null","null","","","","clear_screen","","","","","","","","","","","","","","","","","","","","","","","","","",""
"","","","","","canvas-keyboard-response","192","337851","0.0-12.0-0.36","2d_cat_multi_stim_exp1","2022-5-2","10:52:15","25","75","3","9","10","40","30","120","74","23","[""White""]","No","Male","1884773","null","null","","","","fixation","","","","","","","","","","","","","","","","","","","","","","","","","",""
"","","","","","canvas-keyboard-response","193","338362","0.0-12.0-1.36","2d_cat_multi_stim_exp1","2022-5-2","10:52:15","25","75","3","9","10","40","30","120","74","23","[""White""]","No","Male","1884773","null","null","","","","clear_screen","","","","","","","","","","","","","","","","","","","","","","","","","",""
"","","","","","canvas-keyboard-response","194","338910","0.0-12.0-2.36","2d_cat_multi_stim_exp1","2022-5-2","10:52:15","25","75","3","9","10","40","30","120","74","23","[""White""]","No","Male","1884773","538","u","learn","","","learn_trial","25","75","in","1","1","","","","","","","","","","","","","","","","","","","","",""
"","","","","","canvas-keyboard-response","195","339421","0.0-12.0-3.36","2d_cat_multi_stim_exp1","2022-5-2","10:52:15","25","75","3","9","10","40","30","120","74","23","[""White""]","No","Male","1884773","null","null","learn_feedback","","","learn_feedback","25","75","in","","","","","","","","","","","","","","","","","","","","","","",""
"","","","","","canvas-keyboard-response","196","339483","0.0-12.0-4.36","2d_cat_multi_stim_exp1","2022-5-2","10:52:15","25","75","3","9","10","40","30","120","74","23","[""White""]","No","Male","1884773","null","null","","","","clear_screen","","","","","","","","","","","","","","","","","","","","","","","","","",""
"","","","","","canvas-keyboard-response","197","339992","0.0-12.0-0.37","2d_cat_multi_stim_exp1","2022-5-2","10:52:15","25","75","3","9","10","40","30","120","74","23","[""White""]","No","Male","1884773","null","null","","","","fixation","","","","","","","","","","","","","","","","","","","","","","","","","",""
"","","","","","canvas-keyboard-response","198","340504","0.0-12.0-1.37","2d_cat_multi_stim_exp1","2022-5-2","10:52:15","25","75","3","9","10","40","30","120","74","23","[""White""]","No","Male","1884773","null","null","","","","clear_screen","","","","","","","","","","","","","","","","","","","","","","","","","",""
"","","","","","canvas-keyboard-response","199","341477","0.0-12.0-2.37","2d_cat_multi_stim_exp1","2022-5-2","10:52:15","25","75","3","9","10","40","30","120","74","23","[""White""]","No","Male","1884773","964","u","learn","","","learn_trial","20","40","out","1","0","","","","","","","","","","","","","","","","","","","","",""
"","","","","","canvas-keyboard-response","200","342490","0.0-12.0-3.37","2d_cat_multi_stim_exp1","2022-5-2","10:52:15","25","75","3","9","10","40","30","120","74","23","[""White""]","No","Male","1884773","null","null","learn_feedback","","","learn_feedback","20","40","out","","","","","","","","","","","","","","","","","","","","","","",""
"","","","","","canvas-keyboard-response","201","342549","0.0-12.0-4.37","2d_cat_multi_stim_exp1","2022-5-2","10:52:15","25","75","3","9","10","40","30","120","74","23","[""White""]","No","Male","1884773","null","null","","","","clear_screen","","","","","","","","","","","","","","","","","","","","","","","","","",""
"","","","","","canvas-keyboard-response","202","343058","0.0-12.0-0.38","2d_cat_multi_stim_exp1","2022-5-2","10:52:15","25","75","3","9","10","40","30","120","74","23","[""White""]","No","Male","1884773","null","null","","","","fixation","","","","","","","","","","","","","","","","","","","","","","","","","",""
"","","","","","canvas-keyboard-response","203","343569","0.0-12.0-1.38","2d_cat_multi_stim_exp1","2022-5-2","10:52:15","25","75","3","9","10","40","30","120","74","23","[""White""]","No","Male","1884773","null","null","","","","clear_screen","","","","","","","","","","","","","","","","","","","","","","","","","",""
"","","","","","canvas-keyboard-response","204","344414","0.0-12.0-2.38","2d_cat_multi_stim_exp1","2022-5-2","10:52:15","25","75","3","9","10","40","30","120","74","23","[""White""]","No","Male","1884773","833","i","learn","","","learn_trial","23.3333","100","out","0","1","","","","","","","","","","","","","","","","","","","","",""
"","","","","","canvas-keyboard-response","205","344923","0.0-12.0-3.38","2d_cat_multi_stim_exp1","2022-5-2","10:52:15","25","75","3","9","10","40","30","120","74","23","[""White""]","No","Male","1884773","null","null","learn_feedback","","","learn_feedback","23.3333","100","out","","","","","","","","","","","","","","","","","","","","","","",""
"","","","","","canvas-keyboard-response","206","344984","0.0-12.0-4.38","2d_cat_multi_stim_exp1","2022-5-2","10:52:15","25","75","3","9","10","40","30","120","74","23","[""White""]","No","Male","1884773","null","null","","","","clear_screen","","","","","","","","","","","","","","","","","","","","","","","","","",""
"","","","","","canvas-keyboard-response","207","345494","0.0-12.0-0.39","2d_cat_multi_stim_exp1","2022-5-2","10:52:15","25","75","3","9","10","40","30","120","74","23","[""White""]","No","Male","1884773","null","null","","","","fixation","","","","","","","","","","","","","","","","","","","","","","","","","",""
"","","","","","canvas-keyboard-response","208","346004","0.0-12.0-1.39","2d_cat_multi_stim_exp1","2022-5-2","10:52:15","25","75","3","9","10","40","30","120","74","23","[""White""]","No","Male","1884773","null","null","","","","clear_screen","","","","","","","","","","","","","","","","","","","","","","","","","",""
"","","","","","canvas-keyboard-response","209","346763","0.0-12.0-2.39","2d_cat_multi_stim_exp1","2022-5-2","10:52:15","25","75","3","9","10","40","30","120","74","23","[""White""]","No","Male","1884773","751","i","learn","","","learn_trial","10","100","out","0","1","","","","","","","","","","","","","","","","","","","","",""
"","","","","","canvas-keyboard-response","210","347270","0.0-12.0-3.39","2d_cat_multi_stim_exp1","2022-5-2","10:52:15","25","75","3","9","10","40","30","120","74","23","[""White""]","No","Male","1884773","null","null","learn_feedback","","","learn_feedback","10","100","out","","","","","","","","","","","","","","","","","","","","","","",""
"","","","","","canvas-keyboard-response","211","347331","0.0-12.0-4.39","2d_cat_multi_stim_exp1","2022-5-2","10:52:15","25","75","3","9","10","40","30","120","74","23","[""White""]","No","Male","1884773","null","null","","","","clear_screen","","","","","","","","","","","","","","","","","","","","","","","","","",""
"","","","","","canvas-keyboard-response","212","347838","0.0-12.0-0.40","2d_cat_multi_stim_exp1","2022-5-2","10:52:15","25","75","3","9","10","40","30","120","74","23","[""White""]","No","Male","1884773","null","null","","","","fixation","","","","","","","","","","","","","","","","","","","","","","","","","",""
"","","","","","canvas-keyboard-response","213","348349","0.0-12.0-1.40","2d_cat_multi_stim_exp1","2022-5-2","10:52:15","25","75","3","9","10","40","30","120","74","23","[""White""]","No","Male","1884773","null","null","","","","clear_screen","","","","","","","","","","","","","","","","","","","","","","","","","",""
"","","","","","canvas-keyboard-response","214","349076","0.0-12.0-2.40","2d_cat_multi_stim_exp1","2022-5-2","10:52:15","25","75","3","9","10","40","30","120","74","23","[""White""]","No","Male","1884773","716","u","learn","","","learn_trial","25","75","in","1","1","","","","","","","","","","","","","","","","","","","","",""
"","","","","","canvas-keyboard-response","215","349585","0.0-12.0-3.40","2d_cat_multi_stim_exp1","2022-5-2","10:52:15","25","75","3","9","10","40","30","120","74","23","[""White""]","No","Male","1884773","null","null","learn_feedback","","","learn_feedback","25","75","in","","","","","","","","","","","","","","","","","","","","","","",""
"","","","","","canvas-keyboard-response","216","349647","0.0-12.0-4.40","2d_cat_multi_stim_exp1","2022-5-2","10:52:15","25","75","3","9","10","40","30","120","74","23","[""White""]","No","Male","1884773","null","null","","","","clear_screen","","","","","","","","","","","","","","","","","","","","","","","","","",""
"","","","","","canvas-keyboard-response","217","350157","0.0-12.0-0.41","2d_cat_multi_stim_exp1","2022-5-2","10:52:15","25","75","3","9","10","40","30","120","74","23","[""White""]","No","Male","1884773","null","null","","","","fixation","","","","","","","","","","","","","","","","","","","","","","","","","",""
"","","","","","canvas-keyboard-response","218","350669","0.0-12.0-1.41","2d_cat_multi_stim_exp1","2022-5-2","10:52:15","25","75","3","9","10","40","30","120","74","23","[""White""]","No","Male","1884773","null","null","","","","clear_screen","","","","","","","","","","","","","","","","","","","","","","","","","",""
"","","","","","canvas-keyboard-response","219","351365","0.0-12.0-2.41","2d_cat_multi_stim_exp1","2022-5-2","10:52:15","25","75","3","9","10","40","30","120","74","23","[""White""]","No","Male","1884773","687","u","learn","","","learn_trial","25","75","in","1","1","","","","","","","","","","","","","","","","","","","","",""
"","","","","","canvas-keyboard-response","220","351875","0.0-12.0-3.41","2d_cat_multi_stim_exp1","2022-5-2","10:52:15","25","75","3","9","10","40","30","120","74","23","[""White""]","No","Male","1884773","null","null","learn_feedback","","","learn_feedback","25","75","in","","","","","","","","","","","","","","","","","","","","","","",""
"","","","","","canvas-keyboard-response","221","351935","0.0-12.0-4.41","2d_cat_multi_stim_exp1","2022-5-2","10:52:15","25","75","3","9","10","40","30","120","74","23","[""White""]","No","Male","1884773","null","null","","","","clear_screen","","","","","","","","","","","","","","","","","","","","","","","","","",""
"","","","","","canvas-keyboard-response","222","352446","0.0-12.0-0.42","2d_cat_multi_stim_exp1","2022-5-2","10:52:15","25","75","3","9","10","40","30","120","74","23","[""White""]","No","Male","1884773","null","null","","","","fixation","","","","","","","","","","","","","","","","","","","","","","","","","",""
"","","","","","canvas-keyboard-response","223","352958","0.0-12.0-1.42","2d_cat_multi_stim_exp1","2022-5-2","10:52:15","25","75","3","9","10","40","30","120","74","23","[""White""]","No","Male","1884773","null","null","","","","clear_screen","","","","","","","","","","","","","","","","","","","","","","","","","",""
"","","","","","canvas-keyboard-response","224","353621","0.0-12.0-2.42","2d_cat_multi_stim_exp1","2022-5-2","10:52:15","25","75","3","9","10","40","30","120","74","23","[""White""]","No","Male","1884773","653","u","learn","","","learn_trial","22.9268","68.4948","in","1","1","","","","","","","","","","","","","","","","","","","","",""
"","","","","","canvas-keyboard-response","225","354130","0.0-12.0-3.42","2d_cat_multi_stim_exp1","2022-5-2","10:52:15","25","75","3","9","10","40","30","120","74","23","[""White""]","No","Male","1884773","null","null","learn_feedback","","","learn_feedback","22.9268","68.4948","in","","","","","","","","","","","","","","","","","","","","","","",""
"","","","","","canvas-keyboard-response","226","354191","0.0-12.0-4.42","2d_cat_multi_stim_exp1","2022-5-2","10:52:15","25","75","3","9","10","40","30","120","74","23","[""White""]","No","Male","1884773","null","null","","","","clear_screen","","","","","","","","","","","","","","","","","","","","","","","","","",""
"","","","","","canvas-keyboard-response","227","354701","0.0-12.0-0.43","2d_cat_multi_stim_exp1","2022-5-2","10:52:15","25","75","3","9","10","40","30","120","74","23","[""White""]","No","Male","1884773","null","null","","","","fixation","","","","","","","","","","","","","","","","","","","","","","","","","",""
"","","","","","canvas-keyboard-response","228","355212","0.0-12.0-1.43","2d_cat_multi_stim_exp1","2022-5-2","10:52:15","25","75","3","9","10","40","30","120","74","23","[""White""]","No","Male","1884773","null","null","","","","clear_screen","","","","","","","","","","","","","","","","","","","","","","","","","",""
"","","","","","canvas-keyboard-response","229","356012","0.0-12.0-2.43","2d_cat_multi_stim_exp1","2022-5-2","10:52:15","25","75","3","9","10","40","30","120","74","23","[""White""]","No","Male","1884773","792","u","learn","","","learn_trial","26.6667","60","out","1","0","","","","","","","","","","","","","","","","","","","","",""
"","","","","","canvas-keyboard-response","230","357022","0.0-12.0-3.43","2d_cat_multi_stim_exp1","2022-5-2","10:52:15","25","75","3","9","10","40","30","120","74","23","[""White""]","No","Male","1884773","null","null","learn_feedback","","","learn_feedback","26.6667","60","out","","","","","","","","","","","","","","","","","","","","","","",""
"","","","","","canvas-keyboard-response","231","357082","0.0-12.0-4.43","2d_cat_multi_stim_exp1","2022-5-2","10:52:15","25","75","3","9","10","40","30","120","74","23","[""White""]","No","Male","1884773","null","null","","","","clear_screen","","","","","","","","","","","","","","","","","","","","","","","","","",""
"","","","","","canvas-keyboard-response","232","357593","0.0-12.0-0.44","2d_cat_multi_stim_exp1","2022-5-2","10:52:15","25","75","3","9","10","40","30","120","74","23","[""White""]","No","Male","1884773","null","null","","","","fixation","","","","","","","","","","","","","","","","","","","","","","","","","",""
"","","","","","canvas-keyboard-response","233","358106","0.0-12.0-1.44","2d_cat_multi_stim_exp1","2022-5-2","10:52:15","25","75","3","9","10","40","30","120","74","23","[""White""]","No","Male","1884773","null","null","","","","clear_screen","","","","","","","","","","","","","","","","","","","","","","","","","",""
"","","","","","canvas-keyboard-response","234","358789","0.0-12.0-2.44","2d_cat_multi_stim_exp1","2022-5-2","10:52:15","25","75","3","9","10","40","30","120","74","23","[""White""]","No","Male","1884773","676","u","learn","","","learn_trial","25","75","in","1","1","","","","","","","","","","","","","","","","","","","","",""
"","","","","","canvas-keyboard-response","235","359298","0.0-12.0-3.44","2d_cat_multi_stim_exp1","2022-5-2","10:52:15","25","75","3","9","10","40","30","120","74","23","[""White""]","No","Male","1884773","null","null","learn_feedback","","","learn_feedback","25","75","in","","","","","","","","","","","","","","","","","","","","","","",""
"","","","","","canvas-keyboard-response","236","359360","0.0-12.0-4.44","2d_cat_multi_stim_exp1","2022-5-2","10:52:15","25","75","3","9","10","40","30","120","74","23","[""White""]","No","Male","1884773","null","null","","","","clear_screen","","","","","","","","","","","","","","","","","","","","","","","","","",""
"","","","","","canvas-keyboard-response","237","359871","0.0-12.0-0.45","2d_cat_multi_stim_exp1","2022-5-2","10:52:15","25","75","3","9","10","40","30","120","74","23","[""White""]","No","Male","1884773","null","null","","","","fixation","","","","","","","","","","","","","","","","","","","","","","","","","",""
"","","","","","canvas-keyboard-response","238","360385","0.0-12.0-1.45","2d_cat_multi_stim_exp1","2022-5-2","10:52:15","25","75","3","9","10","40","30","120","74","23","[""White""]","No","Male","1884773","null","null","","","","clear_screen","","","","","","","","","","","","","","","","","","","","","","","","","",""
"","","","","","canvas-keyboard-response","239","361012","0.0-12.0-2.45","2d_cat_multi_stim_exp1","2022-5-2","10:52:15","25","75","3","9","10","40","30","120","74","23","[""White""]","No","Male","1884773","618","i","learn","","","learn_trial","10","70","out","0","1","","","","","","","","","","","","","","","","","","","","",""
"","","","","","canvas-keyboard-response","240","361525","0.0-12.0-3.45","2d_cat_multi_stim_exp1","2022-5-2","10:52:15","25","75","3","9","10","40","30","120","74","23","[""White""]","No","Male","1884773","null","null","learn_feedback","","","learn_feedback","10","70","out","","","","","","","","","","","","","","","","","","","","","","",""
"","","","","","canvas-keyboard-response","241","361588","0.0-12.0-4.45","2d_cat_multi_stim_exp1","2022-5-2","10:52:15","25","75","3","9","10","40","30","120","74","23","[""White""]","No","Male","1884773","null","null","","","","clear_screen","","","","","","","","","","","","","","","","","","","","","","","","","",""
"","","","","","canvas-keyboard-response","242","362098","0.0-12.0-0.46","2d_cat_multi_stim_exp1","2022-5-2","10:52:15","25","75","3","9","10","40","30","120","74","23","[""White""]","No","Male","1884773","null","null","","","","fixation","","","","","","","","","","","","","","","","","","","","","","","","","",""
"","","","","","canvas-keyboard-response","243","362612","0.0-12.0-1.46","2d_cat_multi_stim_exp1","2022-5-2","10:52:15","25","75","3","9","10","40","30","120","74","23","[""White""]","No","Male","1884773","null","null","","","","clear_screen","","","","","","","","","","","","","","","","","","","","","","","","","",""
"","","","","","canvas-keyboard-response","244","363381","0.0-12.0-2.46","2d_cat_multi_stim_exp1","2022-5-2","10:52:15","25","75","3","9","10","40","30","120","74","23","[""White""]","No","Male","1884773","761","i","learn","","","learn_trial","26.6667","100","out","0","1","","","","","","","","","","","","","","","","","","","","",""
"","","","","","canvas-keyboard-response","245","363893","0.0-12.0-3.46","2d_cat_multi_stim_exp1","2022-5-2","10:52:15","25","75","3","9","10","40","30","120","74","23","[""White""]","No","Male","1884773","null","null","learn_feedback","","","learn_feedback","26.6667","100","out","","","","","","","","","","","","","","","","","","","","","","",""
"","","","","","canvas-keyboard-response","246","363956","0.0-12.0-4.46","2d_cat_multi_stim_exp1","2022-5-2","10:52:15","25","75","3","9","10","40","30","120","74","23","[""White""]","No","Male","1884773","null","null","","","","clear_screen","","","","","","","","","","","","","","","","","","","","","","","","","",""
"","","","","","canvas-keyboard-response","247","364466","0.0-12.0-0.47","2d_cat_multi_stim_exp1","2022-5-2","10:52:15","25","75","3","9","10","40","30","120","74","23","[""White""]","No","Male","1884773","null","null","","","","fixation","","","","","","","","","","","","","","","","","","","","","","","","","",""
"","","","","","canvas-keyboard-response","248","364973","0.0-12.0-1.47","2d_cat_multi_stim_exp1","2022-5-2","10:52:15","25","75","3","9","10","40","30","120","74","23","[""White""]","No","Male","1884773","null","null","","","","clear_screen","","","","","","","","","","","","","","","","","","","","","","","","","",""
"","","","","","canvas-keyboard-response","249","365452","0.0-12.0-2.47","2d_cat_multi_stim_exp1","2022-5-2","10:52:15","25","75","3","9","10","40","30","120","74","23","[""White""]","No","Male","1884773","469","i","learn","","","learn_trial","25","75","in","0","0","","","","","","","","","","","","","","","","","","","","",""
"","","","","","canvas-keyboard-response","250","366458","0.0-12.0-3.47","2d_cat_multi_stim_exp1","2022-5-2","10:52:15","25","75","3","9","10","40","30","120","74","23","[""White""]","No","Male","1884773","null","null","learn_feedback","","","learn_feedback","25","75","in","","","","","","","","","","","","","","","","","","","","","","",""
"","","","","","canvas-keyboard-response","251","366515","0.0-12.0-4.47","2d_cat_multi_stim_exp1","2022-5-2","10:52:15","25","75","3","9","10","40","30","120","74","23","[""White""]","No","Male","1884773","null","null","","","","clear_screen","","","","","","","","","","","","","","","","","","","","","","","","","",""
"","","","","","canvas-keyboard-response","252","367026","0.0-12.0-0.48","2d_cat_multi_stim_exp1","2022-5-2","10:52:15","25","75","3","9","10","40","30","120","74","23","[""White""]","No","Male","1884773","null","null","","","","fixation","","","","","","","","","","","","","","","","","","","","","","","","","",""
"","","","","","canvas-keyboard-response","253","367536","0.0-12.0-1.48","2d_cat_multi_stim_exp1","2022-5-2","10:52:15","25","75","3","9","10","40","30","120","74","23","[""White""]","No","Male","1884773","null","null","","","","clear_screen","","","","","","","","","","","","","","","","","","","","","","","","","",""
"","","","","","canvas-keyboard-response","254","368043","0.0-12.0-2.48","2d_cat_multi_stim_exp1","2022-5-2","10:52:15","25","75","3","9","10","40","30","120","74","23","[""White""]","No","Male","1884773","498","u","learn","","","learn_trial","25","75","in","1","1","","","","","","","","","","","","","","","","","","","","",""
"","","","","","canvas-keyboard-response","255","368550","0.0-12.0-3.48","2d_cat_multi_stim_exp1","2022-5-2","10:52:15","25","75","3","9","10","40","30","120","74","23","[""White""]","No","Male","1884773","null","null","learn_feedback","","","learn_feedback","25","75","in","","","","","","","","","","","","","","","","","","","","","","",""
"","","","","","canvas-keyboard-response","256","368614","0.0-12.0-4.48","2d_cat_multi_stim_exp1","2022-5-2","10:52:15","25","75","3","9","10","40","30","120","74","23","[""White""]","No","Male","1884773","null","null","","","","clear_screen","","","","","","","","","","","","","","","","","","","","","","","","","",""
"","","","","","canvas-keyboard-response","257","369123","0.0-12.0-0.49","2d_cat_multi_stim_exp1","2022-5-2","10:52:15","25","75","3","9","10","40","30","120","74","23","[""White""]","No","Male","1884773","null","null","","","","fixation","","","","","","","","","","","","","","","","","","","","","","","","","",""
"","","","","","canvas-keyboard-response","258","369636","0.0-12.0-1.49","2d_cat_multi_stim_exp1","2022-5-2","10:52:15","25","75","3","9","10","40","30","120","74","23","[""White""]","No","Male","1884773","null","null","","","","clear_screen","","","","","","","","","","","","","","","","","","","","","","","","","",""
"","","","","","canvas-keyboard-response","259","370397","0.0-12.0-2.49","2d_cat_multi_stim_exp1","2022-5-2","10:52:15","25","75","3","9","10","40","30","120","74","23","[""White""]","No","Male","1884773","753","u","learn","","","learn_trial","25","75","in","1","1","","","","","","","","","","","","","","","","","","","","",""
"","","","","","canvas-keyboard-response","260","370910","0.0-12.0-3.49","2d_cat_multi_stim_exp1","2022-5-2","10:52:15","25","75","3","9","10","40","30","120","74","23","[""White""]","No","Male","1884773","null","null","learn_feedback","","","learn_feedback","25","75","in","","","","","","","","","","","","","","","","","","","","","","",""
"","","","","","canvas-keyboard-response","261","370969","0.0-12.0-4.49","2d_cat_multi_stim_exp1","2022-5-2","10:52:15","25","75","3","9","10","40","30","120","74","23","[""White""]","No","Male","1884773","null","null","","","","clear_screen","","","","","","","","","","","","","","","","","","","","","","","","","",""
"","","","","","canvas-keyboard-response","262","371477","0.0-12.0-0.50","2d_cat_multi_stim_exp1","2022-5-2","10:52:15","25","75","3","9","10","40","30","120","74","23","[""White""]","No","Male","1884773","null","null","","","","fixation","","","","","","","","","","","","","","","","","","","","","","","","","",""
"","","","","","canvas-keyboard-response","263","371987","0.0-12.0-1.50","2d_cat_multi_stim_exp1","2022-5-2","10:52:15","25","75","3","9","10","40","30","120","74","23","[""White""]","No","Male","1884773","null","null","","","","clear_screen","","","","","","","","","","","","","","","","","","","","","","","","","",""
"","","","","","canvas-keyboard-response","264","372549","0.0-12.0-2.50","2d_cat_multi_stim_exp1","2022-5-2","10:52:15","25","75","3","9","10","40","30","120","74","23","[""White""]","No","Male","1884773","549","i","learn","","","learn_trial","10","110","out","0","1","","","","","","","","","","","","","","","","","","","","",""
"","","","","","canvas-keyboard-response","265","373057","0.0-12.0-3.50","2d_cat_multi_stim_exp1","2022-5-2","10:52:15","25","75","3","9","10","40","30","120","74","23","[""White""]","No","Male","1884773","null","null","learn_feedback","","","learn_feedback","10","110","out","","","","","","","","","","","","","","","","","","","","","","",""
"","","","","","canvas-keyboard-response","266","373119","0.0-12.0-4.50","2d_cat_multi_stim_exp1","2022-5-2","10:52:15","25","75","3","9","10","40","30","120","74","23","[""White""]","No","Male","1884773","null","null","","","","clear_screen","","","","","","","","","","","","","","","","","","","","","","","","","",""
"","","","","","canvas-keyboard-response","267","373627","0.0-12.0-0.51","2d_cat_multi_stim_exp1","2022-5-2","10:52:15","25","75","3","9","10","40","30","120","74","23","[""White""]","No","Male","1884773","null","null","","","","fixation","","","","","","","","","","","","","","","","","","","","","","","","","",""
"","","","","","canvas-keyboard-response","268","374137","0.0-12.0-1.51","2d_cat_multi_stim_exp1","2022-5-2","10:52:15","25","75","3","9","10","40","30","120","74","23","[""White""]","No","Male","1884773","null","null","","","","clear_screen","","","","","","","","","","","","","","","","","","","","","","","","","",""
"","","","","","canvas-keyboard-response","269","374837","0.0-12.0-2.51","2d_cat_multi_stim_exp1","2022-5-2","10:52:15","25","75","3","9","10","40","30","120","74","23","[""White""]","No","Male","1884773","690","i","learn","","","learn_trial","20","30","out","0","1","","","","","","","","","","","","","","","","","","","","",""
"","","","","","canvas-keyboard-response","270","375347","0.0-12.0-3.51","2d_cat_multi_stim_exp1","2022-5-2","10:52:15","25","75","3","9","10","40","30","120","74","23","[""White""]","No","Male","1884773","null","null","learn_feedback","","","learn_feedback","20","30","out","","","","","","","","","","","","","","","","","","","","","","",""
"","","","","","canvas-keyboard-response","271","375407","0.0-12.0-4.51","2d_cat_multi_stim_exp1","2022-5-2","10:52:15","25","75","3","9","10","40","30","120","74","23","[""White""]","No","Male","1884773","null","null","","","","clear_screen","","","","","","","","","","","","","","","","","","","","","","","","","",""
"","","","","","canvas-keyboard-response","272","375916","0.0-12.0-0.52","2d_cat_multi_stim_exp1","2022-5-2","10:52:15","25","75","3","9","10","40","30","120","74","23","[""White""]","No","Male","1884773","null","null","","","","fixation","","","","","","","","","","","","","","","","","","","","","","","","","",""
"","","","","","canvas-keyboard-response","273","376428","0.0-12.0-1.52","2d_cat_multi_stim_exp1","2022-5-2","10:52:15","25","75","3","9","10","40","30","120","74","23","[""White""]","No","Male","1884773","null","null","","","","clear_screen","","","","","","","","","","","","","","","","","","","","","","","","","",""
"","","","","","canvas-keyboard-response","274","377196","0.0-12.0-2.52","2d_cat_multi_stim_exp1","2022-5-2","10:52:15","25","75","3","9","10","40","30","120","74","23","[""White""]","No","Male","1884773","759","i","learn","","","learn_trial","40","90","out","0","1","","","","","","","","","","","","","","","","","","","","",""
"","","","","","canvas-keyboard-response","275","377707","0.0-12.0-3.52","2d_cat_multi_stim_exp1","2022-5-2","10:52:15","25","75","3","9","10","40","30","120","74","23","[""White""]","No","Male","1884773","null","null","learn_feedback","","","learn_feedback","40","90","out","","","","","","","","","","","","","","","","","","","","","","",""
"","","","","","canvas-keyboard-response","276","377769","0.0-12.0-4.52","2d_cat_multi_stim_exp1","2022-5-2","10:52:15","25","75","3","9","10","40","30","120","74","23","[""White""]","No","Male","1884773","null","null","","","","clear_screen","","","","","","","","","","","","","","","","","","","","","","","","","",""
"","","","","","canvas-keyboard-response","277","378279","0.0-12.0-0.53","2d_cat_multi_stim_exp1","2022-5-2","10:52:15","25","75","3","9","10","40","30","120","74","23","[""White""]","No","Male","1884773","null","null","","","","fixation","","","","","","","","","","","","","","","","","","","","","","","","","",""
"","","","","","canvas-keyboard-response","278","378795","0.0-12.0-1.53","2d_cat_multi_stim_exp1","2022-5-2","10:52:15","25","75","3","9","10","40","30","120","74","23","[""White""]","No","Male","1884773","null","null","","","","clear_screen","","","","","","","","","","","","","","","","","","","","","","","","","",""
"","","","","","canvas-keyboard-response","279","379452","0.0-12.0-2.53","2d_cat_multi_stim_exp1","2022-5-2","10:52:15","25","75","3","9","10","40","30","120","74","23","[""White""]","No","Male","1884773","650","i","learn","","","learn_trial","20","80","out","0","1","","","","","","","","","","","","","","","","","","","","",""
"","","","","","canvas-keyboard-response","280","379962","0.0-12.0-3.53","2d_cat_multi_stim_exp1","2022-5-2","10:52:15","25","75","3","9","10","40","30","120","74","23","[""White""]","No","Male","1884773","null","null","learn_feedback","","","learn_feedback","20","80","out","","","","","","","","","","","","","","","","","","","","","","",""
"","","","","","canvas-keyboard-response","281","380022","0.0-12.0-4.53","2d_cat_multi_stim_exp1","2022-5-2","10:52:15","25","75","3","9","10","40","30","120","74","23","[""White""]","No","Male","1884773","null","null","","","","clear_screen","","","","","","","","","","","","","","","","","","","","","","","","","",""
"","","","","","canvas-keyboard-response","282","380530","0.0-12.0-0.54","2d_cat_multi_stim_exp1","2022-5-2","10:52:15","25","75","3","9","10","40","30","120","74","23","[""White""]","No","Male","1884773","null","null","","","","fixation","","","","","","","","","","","","","","","","","","","","","","","","","",""
"","","","","","canvas-keyboard-response","283","381039","0.0-12.0-1.54","2d_cat_multi_stim_exp1","2022-5-2","10:52:15","25","75","3","9","10","40","30","120","74","23","[""White""]","No","Male","1884773","null","null","","","","clear_screen","","","","","","","","","","","","","","","","","","","","","","","","","",""
"","","","","","canvas-keyboard-response","284","382140","0.0-12.0-2.54","2d_cat_multi_stim_exp1","2022-5-2","10:52:15","25","75","3","9","10","40","30","120","74","23","[""White""]","No","Male","1884773","1096","u","learn","","","learn_trial","23.3333","70","out","1","0","","","","","","","","","","","","","","","","","","","","",""
"","","","","","canvas-keyboard-response","285","383150","0.0-12.0-3.54","2d_cat_multi_stim_exp1","2022-5-2","10:52:15","25","75","3","9","10","40","30","120","74","23","[""White""]","No","Male","1884773","null","null","learn_feedback","","","learn_feedback","23.3333","70","out","","","","","","","","","","","","","","","","","","","","","","",""
"","","","","","canvas-keyboard-response","286","383212","0.0-12.0-4.54","2d_cat_multi_stim_exp1","2022-5-2","10:52:15","25","75","3","9","10","40","30","120","74","23","[""White""]","No","Male","1884773","null","null","","","","clear_screen","","","","","","","","","","","","","","","","","","","","","","","","","",""
"","","","","","canvas-keyboard-response","287","383719","0.0-12.0-0.55","2d_cat_multi_stim_exp1","2022-5-2","10:52:15","25","75","3","9","10","40","30","120","74","23","[""White""]","No","Male","1884773","null","null","","","","fixation","","","","","","","","","","","","","","","","","","","","","","","","","",""
"","","","","","canvas-keyboard-response","288","384232","0.0-12.0-1.55","2d_cat_multi_stim_exp1","2022-5-2","10:52:15","25","75","3","9","10","40","30","120","74","23","[""White""]","No","Male","1884773","null","null","","","","clear_screen","","","","","","","","","","","","","","","","","","","","","","","","","",""
"","","","","","canvas-keyboard-response","289","385117","0.0-12.0-2.55","2d_cat_multi_stim_exp1","2022-5-2","10:52:15","25","75","3","9","10","40","30","120","74","23","[""White""]","No","Male","1884773","876","i","learn","","","learn_trial","40","70","out","0","1","","","","","","","","","","","","","","","","","","","","",""
"","","","","","canvas-keyboard-response","290","385627","0.0-12.0-3.55","2d_cat_multi_stim_exp1","2022-5-2","10:52:15","25","75","3","9","10","40","30","120","74","23","[""White""]","No","Male","1884773","null","null","learn_feedback","","","learn_feedback","40","70","out","","","","","","","","","","","","","","","","","","","","","","",""
"","","","","","canvas-keyboard-response","291","385691","0.0-12.0-4.55","2d_cat_multi_stim_exp1","2022-5-2","10:52:15","25","75","3","9","10","40","30","120","74","23","[""White""]","No","Male","1884773","null","null","","","","clear_screen","","","","","","","","","","","","","","","","","","","","","","","","","",""
"","","","","","canvas-keyboard-response","292","386200","0.0-12.0-0.56","2d_cat_multi_stim_exp1","2022-5-2","10:52:15","25","75","3","9","10","40","30","120","74","23","[""White""]","No","Male","1884773","null","null","","","","fixation","","","","","","","","","","","","","","","","","","","","","","","","","",""
"","","","","","canvas-keyboard-response","293","386711","0.0-12.0-1.56","2d_cat_multi_stim_exp1","2022-5-2","10:52:15","25","75","3","9","10","40","30","120","74","23","[""White""]","No","Male","1884773","null","null","","","","clear_screen","","","","","","","","","","","","","","","","","","","","","","","","","",""
"","","","","","canvas-keyboard-response","294","387925","0.0-12.0-2.56","2d_cat_multi_stim_exp1","2022-5-2","10:52:15","25","75","3","9","10","40","30","120","74","23","[""White""]","No","Male","1884773","1201","u","learn","","","learn_trial","26.4216","67.0746","in","1","1","","","","","","","","","","","","","","","","","","","","",""
"","","","","","canvas-keyboard-response","295","388437","0.0-12.0-3.56","2d_cat_multi_stim_exp1","2022-5-2","10:52:15","25","75","3","9","10","40","30","120","74","23","[""White""]","No","Male","1884773","null","null","learn_feedback","","","learn_feedback","26.4216","67.0746","in","","","","","","","","","","","","","","","","","","","","","","",""
"","","","","","canvas-keyboard-response","296","388499","0.0-12.0-4.56","2d_cat_multi_stim_exp1","2022-5-2","10:52:15","25","75","3","9","10","40","30","120","74","23","[""White""]","No","Male","1884773","null","null","","","","clear_screen","","","","","","","","","","","","","","","","","","","","","","","","","",""
"","","","","","canvas-keyboard-response","297","389011","0.0-12.0-0.57","2d_cat_multi_stim_exp1","2022-5-2","10:52:15","25","75","3","9","10","40","30","120","74","23","[""White""]","No","Male","1884773","null","null","","","","fixation","","","","","","","","","","","","","","","","","","","","","","","","","",""
"","","","","","canvas-keyboard-response","298","389521","0.0-12.0-1.57","2d_cat_multi_stim_exp1","2022-5-2","10:52:15","25","75","3","9","10","40","30","120","74","23","[""White""]","No","Male","1884773","null","null","","","","clear_screen","","","","","","","","","","","","","","","","","","","","","","","","","",""
"","","","","","canvas-keyboard-response","299","390236","0.0-12.0-2.57","2d_cat_multi_stim_exp1","2022-5-2","10:52:15","25","75","3","9","10","40","30","120","74","23","[""White""]","No","Male","1884773","705","u","learn","","","learn_trial","25","75","in","1","1","","","","","","","","","","","","","","","","","","","","",""
