"success","timeout","failed_images","failed_audio","failed_video","trial_type","trial_index","time_elapsed","internal_node_id","exp_name","date","time","angle_mean_in","radius_mean_in","angle_sd_in","radius_sd_in","angle_min_out","angle_max_out","radius_min_out","radius_max_out","sub_n","age","race","ethnicity","gender","exp_duration","rt","response","exp_trial_type","stimulus","view_history","screen_id","angle","radius","distribution","choice","correct","order","angle_a","radius_a","angle_b","radius_b","jkl_correct","transfer_trial_type","choice_set","abc_correct","tc_correct","tc_angle","tdc_a","tdc_b","tdc_c","pair","category_a","category_b","category_c","angle_c","radius_c","question_order"
"true","false","[]","[]","[]","preload","0","106","0.0-0.0","2d_cat_multi_stim_exp1","2022-4-13","13:0:17","25","75","3","9","10","40","30","120","36","21","[""White""]","No","Female","1494092","","","","","","","","","","","","","","","","","","","","","","","","","","","","","","","",""
"","","","","","survey-html-form","1","5518","0.0-1.0","2d_cat_multi_stim_exp1","2022-4-13","13:0:17","25","75","3","9","10","40","30","120","36","21","[""White""]","No","Female","1494092","5367","{""response"":""36""}","enter-sub-number","","","","","","","","","","","","","","","","","","","","","","","","","","","","",""
"true","","","","","fullscreen","2","7293","0.0-2.0","2d_cat_multi_stim_exp1","2022-4-13","13:0:17","25","75","3","9","10","40","30","120","36","21","[""White""]","No","Female","1494092","","","","","","","","","","","","","","","","","","","","","","","","","","","","","","","",""
"","","","","","image-button-response","3","105828","0.0-3.0","2d_cat_multi_stim_exp1","2022-4-13","13:0:17","25","75","3","9","10","40","30","120","36","21","[""White""]","No","Female","1494092","98526","0","","consent.png","","","","","","","","","","","","","","","","","","","","","","","","","","","",""
"","","","","","html-button-response","4","107812","0.0-4.0","2d_cat_multi_stim_exp1","2022-4-13","13:0:17","25","75","3","9","10","40","30","120","36","21","[""White""]","No","Female","1494092","1979","0","","<div style= ""font-size:25px;"" <p> <strong> Welcome to the experiment! </strong><br> <p style=""color:#8B0000; font-size:25px;""><strong> Please do NOT exit full screen until you are done with the experiment. </strong> </p><p style=""font-size:25px;color:#8B0000;""> <strong> The experiment will be canceled and your data will be lost <br> if you try to go back or refresh the page at any point during the experiment.</strong> </p><br><p> <strong> Thanks in advance for your contribution to our research! </strong></p>","","","","","","","","","","","","","","","","","","","","","","","","","","","",""
"","","","","","instructions","5","134076","0.0-5.0","2d_cat_multi_stim_exp1","2022-4-13","13:0:17","25","75","3","9","10","40","30","120","36","21","[""White""]","No","Female","1494092","26263","","","","[{""page_index"":0,""viewing_time"":4237},{""page_index"":1,""viewing_time"":3313},{""page_index"":2,""viewing_time"":8175},{""page_index"":3,""viewing_time"":10537}]","instructions_1","","","","","","","","","","","","","","","","","","","","","","","","","",""
"","","","","","instructions","6","136515","0.0-6.0","2d_cat_multi_stim_exp1","2022-4-13","13:0:17","25","75","3","9","10","40","30","120","36","21","[""White""]","No","Female","1494092","2435","","","","[{""page_index"":0,""viewing_time"":2434}]","Click to see the kinds of turtles that will appear in the study.","","","","","","","","","","","","","","","","","","","","","","","","","",""
"","","","","","canvas-keyboard-response","7","151536","0.0-7.0","2d_cat_multi_stim_exp1","2022-4-13","13:0:17","25","75","3","9","10","40","30","120","36","21","[""White""]","No","Female","1494092","null","null","","","","demo_range","","","","","","","","","","","","","","","","","","","","","","","","","",""
"","","","","","instructions","8","153651","0.0-8.0","2d_cat_multi_stim_exp1","2022-4-13","13:0:17","25","75","3","9","10","40","30","120","36","21","[""White""]","No","Female","1494092","1614","","","","[{""page_index"":0,""viewing_time"":1614}]","Click to see some turtles in the subspecies.","","","","","","","","","","","","","","","","","","","","","","","","","",""
"","","","","","canvas-keyboard-response","9","168670","0.0-9.0","2d_cat_multi_stim_exp1","2022-4-13","13:0:17","25","75","3","9","10","40","30","120","36","21","[""White""]","No","Female","1494092","null","null","","","","demo_in","","","","","","","","","","","","","","","","","","","","","","","","","",""
"","","","","","instructions","10","194530","0.0-10.0","2d_cat_multi_stim_exp1","2022-4-13","13:0:17","25","75","3","9","10","40","30","120","36","21","[""White""]","No","Female","1494092","25359","","","","[{""page_index"":0,""viewing_time"":5728},{""page_index"":1,""viewing_time"":18031},{""page_index"":2,""viewing_time"":1600}]","instructions_2","","","","","","","","","","","","","","","","","","","","","","","","","",""
"","","","","","instructions","11","195803","0.0-11.0","2d_cat_multi_stim_exp1","2022-4-13","13:0:17","25","75","3","9","10","40","30","120","36","21","[""White""]","No","Female","1494092","1270","","","","[{""page_index"":0,""viewing_time"":1269}]","Click to begin the first phase of the experiment.","","","","","","","","","","","","","","","","","","","","","","","","","",""
"","","","","","canvas-keyboard-response","12","196312","0.0-12.0-0.0","2d_cat_multi_stim_exp1","2022-4-13","13:0:17","25","75","3","9","10","40","30","120","36","21","[""White""]","No","Female","1494092","null","null","","","","fixation","","","","","","","","","","","","","","","","","","","","","","","","","",""
"","","","","","canvas-keyboard-response","13","196819","0.0-12.0-1.0","2d_cat_multi_stim_exp1","2022-4-13","13:0:17","25","75","3","9","10","40","30","120","36","21","[""White""]","No","Female","1494092","null","null","","","","clear_screen","","","","","","","","","","","","","","","","","","","","","","","","","",""
"","","","","","canvas-keyboard-response","14","200579","0.0-12.0-2.0","2d_cat_multi_stim_exp1","2022-4-13","13:0:17","25","75","3","9","10","40","30","120","36","21","[""White""]","No","Female","1494092","3751","u","learn","","","learn_trial","10","70","out","1","0","","","","","","","","","","","","","","","","","","","","",""
"","","","","","canvas-keyboard-response","15","201591","0.0-12.0-3.0","2d_cat_multi_stim_exp1","2022-4-13","13:0:17","25","75","3","9","10","40","30","120","36","21","[""White""]","No","Female","1494092","null","null","learn_feedback","","","learn_feedback","10","70","out","","","","","","","","","","","","","","","","","","","","","","",""
"","","","","","canvas-keyboard-response","16","201650","0.0-12.0-4.0","2d_cat_multi_stim_exp1","2022-4-13","13:0:17","25","75","3","9","10","40","30","120","36","21","[""White""]","No","Female","1494092","null","null","","","","clear_screen","","","","","","","","","","","","","","","","","","","","","","","","","",""
"","","","","","canvas-keyboard-response","17","202159","0.0-12.0-0.1","2d_cat_multi_stim_exp1","2022-4-13","13:0:17","25","75","3","9","10","40","30","120","36","21","[""White""]","No","Female","1494092","null","null","","","","fixation","","","","","","","","","","","","","","","","","","","","","","","","","",""
"","","","","","canvas-keyboard-response","18","202667","0.0-12.0-1.1","2d_cat_multi_stim_exp1","2022-4-13","13:0:17","25","75","3","9","10","40","30","120","36","21","[""White""]","No","Female","1494092","null","null","","","","clear_screen","","","","","","","","","","","","","","","","","","","","","","","","","",""
"","","","","","canvas-keyboard-response","19","205171","0.0-12.0-2.1","2d_cat_multi_stim_exp1","2022-4-13","13:0:17","25","75","3","9","10","40","30","120","36","21","[""White""]","No","Female","1494092","2496","i","learn","","","learn_trial","26.8705","67.9635","in","0","0","","","","","","","","","","","","","","","","","","","","",""
"","","","","","canvas-keyboard-response","20","206180","0.0-12.0-3.1","2d_cat_multi_stim_exp1","2022-4-13","13:0:17","25","75","3","9","10","40","30","120","36","21","[""White""]","No","Female","1494092","null","null","learn_feedback","","","learn_feedback","26.8705","67.9635","in","","","","","","","","","","","","","","","","","","","","","","",""
"","","","","","canvas-keyboard-response","21","206236","0.0-12.0-4.1","2d_cat_multi_stim_exp1","2022-4-13","13:0:17","25","75","3","9","10","40","30","120","36","21","[""White""]","No","Female","1494092","null","null","","","","clear_screen","","","","","","","","","","","","","","","","","","","","","","","","","",""
"","","","","","canvas-keyboard-response","22","206744","0.0-12.0-0.2","2d_cat_multi_stim_exp1","2022-4-13","13:0:17","25","75","3","9","10","40","30","120","36","21","[""White""]","No","Female","1494092","null","null","","","","fixation","","","","","","","","","","","","","","","","","","","","","","","","","",""
"","","","","","canvas-keyboard-response","23","207253","0.0-12.0-1.2","2d_cat_multi_stim_exp1","2022-4-13","13:0:17","25","75","3","9","10","40","30","120","36","21","[""White""]","No","Female","1494092","null","null","","","","clear_screen","","","","","","","","","","","","","","","","","","","","","","","","","",""
"","","","","","canvas-keyboard-response","24","208492","0.0-12.0-2.2","2d_cat_multi_stim_exp1","2022-4-13","13:0:17","25","75","3","9","10","40","30","120","36","21","[""White""]","No","Female","1494092","1232","u","learn","","","learn_trial","24.8654","66.0091","in","1","1","","","","","","","","","","","","","","","","","","","","",""
"","","","","","canvas-keyboard-response","25","209001","0.0-12.0-3.2","2d_cat_multi_stim_exp1","2022-4-13","13:0:17","25","75","3","9","10","40","30","120","36","21","[""White""]","No","Female","1494092","null","null","learn_feedback","","","learn_feedback","24.8654","66.0091","in","","","","","","","","","","","","","","","","","","","","","","",""
"","","","","","canvas-keyboard-response","26","209058","0.0-12.0-4.2","2d_cat_multi_stim_exp1","2022-4-13","13:0:17","25","75","3","9","10","40","30","120","36","21","[""White""]","No","Female","1494092","null","null","","","","clear_screen","","","","","","","","","","","","","","","","","","","","","","","","","",""
"","","","","","canvas-keyboard-response","27","209564","0.0-12.0-0.3","2d_cat_multi_stim_exp1","2022-4-13","13:0:17","25","75","3","9","10","40","30","120","36","21","[""White""]","No","Female","1494092","null","null","","","","fixation","","","","","","","","","","","","","","","","","","","","","","","","","",""
"","","","","","canvas-keyboard-response","28","210072","0.0-12.0-1.3","2d_cat_multi_stim_exp1","2022-4-13","13:0:17","25","75","3","9","10","40","30","120","36","21","[""White""]","No","Female","1494092","null","null","","","","clear_screen","","","","","","","","","","","","","","","","","","","","","","","","","",""
"","","","","","canvas-keyboard-response","29","210509","0.0-12.0-2.3","2d_cat_multi_stim_exp1","2022-4-13","13:0:17","25","75","3","9","10","40","30","120","36","21","[""White""]","No","Female","1494092","429","u","learn","","","learn_trial","30","70","out","1","0","","","","","","","","","","","","","","","","","","","","",""
"","","","","","canvas-keyboard-response","30","211517","0.0-12.0-3.3","2d_cat_multi_stim_exp1","2022-4-13","13:0:17","25","75","3","9","10","40","30","120","36","21","[""White""]","No","Female","1494092","null","null","learn_feedback","","","learn_feedback","30","70","out","","","","","","","","","","","","","","","","","","","","","","",""
"","","","","","canvas-keyboard-response","31","211577","0.0-12.0-4.3","2d_cat_multi_stim_exp1","2022-4-13","13:0:17","25","75","3","9","10","40","30","120","36","21","[""White""]","No","Female","1494092","null","null","","","","clear_screen","","","","","","","","","","","","","","","","","","","","","","","","","",""
"","","","","","canvas-keyboard-response","32","212083","0.0-12.0-0.4","2d_cat_multi_stim_exp1","2022-4-13","13:0:17","25","75","3","9","10","40","30","120","36","21","[""White""]","No","Female","1494092","null","null","","","","fixation","","","","","","","","","","","","","","","","","","","","","","","","","",""
"","","","","","canvas-keyboard-response","33","212591","0.0-12.0-1.4","2d_cat_multi_stim_exp1","2022-4-13","13:0:17","25","75","3","9","10","40","30","120","36","21","[""White""]","No","Female","1494092","null","null","","","","clear_screen","","","","","","","","","","","","","","","","","","","","","","","","","",""
"","","","","","canvas-keyboard-response","34","213517","0.0-12.0-2.4","2d_cat_multi_stim_exp1","2022-4-13","13:0:17","25","75","3","9","10","40","30","120","36","21","[""White""]","No","Female","1494092","917","u","learn","","","learn_trial","36.6667","70","out","1","0","","","","","","","","","","","","","","","","","","","","",""
"","","","","","canvas-keyboard-response","35","214523","0.0-12.0-3.4","2d_cat_multi_stim_exp1","2022-4-13","13:0:17","25","75","3","9","10","40","30","120","36","21","[""White""]","No","Female","1494092","null","null","learn_feedback","","","learn_feedback","36.6667","70","out","","","","","","","","","","","","","","","","","","","","","","",""
"","","","","","canvas-keyboard-response","36","214580","0.0-12.0-4.4","2d_cat_multi_stim_exp1","2022-4-13","13:0:17","25","75","3","9","10","40","30","120","36","21","[""White""]","No","Female","1494092","null","null","","","","clear_screen","","","","","","","","","","","","","","","","","","","","","","","","","",""
"","","","","","canvas-keyboard-response","37","215087","0.0-12.0-0.5","2d_cat_multi_stim_exp1","2022-4-13","13:0:17","25","75","3","9","10","40","30","120","36","21","[""White""]","No","Female","1494092","null","null","","","","fixation","","","","","","","","","","","","","","","","","","","","","","","","","",""
"","","","","","canvas-keyboard-response","38","215595","0.0-12.0-1.5","2d_cat_multi_stim_exp1","2022-4-13","13:0:17","25","75","3","9","10","40","30","120","36","21","[""White""]","No","Female","1494092","null","null","","","","clear_screen","","","","","","","","","","","","","","","","","","","","","","","","","",""
"","","","","","canvas-keyboard-response","39","216355","0.0-12.0-2.5","2d_cat_multi_stim_exp1","2022-4-13","13:0:17","25","75","3","9","10","40","30","120","36","21","[""White""]","No","Female","1494092","755","i","learn","","","learn_trial","25","75","in","0","0","","","","","","","","","","","","","","","","","","","","",""
"","","","","","canvas-keyboard-response","40","217362","0.0-12.0-3.5","2d_cat_multi_stim_exp1","2022-4-13","13:0:17","25","75","3","9","10","40","30","120","36","21","[""White""]","No","Female","1494092","null","null","learn_feedback","","","learn_feedback","25","75","in","","","","","","","","","","","","","","","","","","","","","","",""
"","","","","","canvas-keyboard-response","41","217418","0.0-12.0-4.5","2d_cat_multi_stim_exp1","2022-4-13","13:0:17","25","75","3","9","10","40","30","120","36","21","[""White""]","No","Female","1494092","null","null","","","","clear_screen","","","","","","","","","","","","","","","","","","","","","","","","","",""
"","","","","","canvas-keyboard-response","42","217924","0.0-12.0-0.6","2d_cat_multi_stim_exp1","2022-4-13","13:0:17","25","75","3","9","10","40","30","120","36","21","[""White""]","No","Female","1494092","null","null","","","","fixation","","","","","","","","","","","","","","","","","","","","","","","","","",""
"","","","","","canvas-keyboard-response","43","218431","0.0-12.0-1.6","2d_cat_multi_stim_exp1","2022-4-13","13:0:17","25","75","3","9","10","40","30","120","36","21","[""White""]","No","Female","1494092","null","null","","","","clear_screen","","","","","","","","","","","","","","","","","","","","","","","","","",""
"","","","","","canvas-keyboard-response","44","219917","0.0-12.0-2.6","2d_cat_multi_stim_exp1","2022-4-13","13:0:17","25","75","3","9","10","40","30","120","36","21","[""White""]","No","Female","1494092","1474","i","learn","","","learn_trial","25","75","in","0","0","","","","","","","","","","","","","","","","","","","","",""
"","","","","","canvas-keyboard-response","45","220925","0.0-12.0-3.6","2d_cat_multi_stim_exp1","2022-4-13","13:0:17","25","75","3","9","10","40","30","120","36","21","[""White""]","No","Female","1494092","null","null","learn_feedback","","","learn_feedback","25","75","in","","","","","","","","","","","","","","","","","","","","","","",""
"","","","","","canvas-keyboard-response","46","220985","0.0-12.0-4.6","2d_cat_multi_stim_exp1","2022-4-13","13:0:17","25","75","3","9","10","40","30","120","36","21","[""White""]","No","Female","1494092","null","null","","","","clear_screen","","","","","","","","","","","","","","","","","","","","","","","","","",""
"","","","","","canvas-keyboard-response","47","221492","0.0-12.0-0.7","2d_cat_multi_stim_exp1","2022-4-13","13:0:17","25","75","3","9","10","40","30","120","36","21","[""White""]","No","Female","1494092","null","null","","","","fixation","","","","","","","","","","","","","","","","","","","","","","","","","",""
"","","","","","canvas-keyboard-response","48","222000","0.0-12.0-1.7","2d_cat_multi_stim_exp1","2022-4-13","13:0:17","25","75","3","9","10","40","30","120","36","21","[""White""]","No","Female","1494092","null","null","","","","clear_screen","","","","","","","","","","","","","","","","","","","","","","","","","",""
"","","","","","canvas-keyboard-response","49","222565","0.0-12.0-2.7","2d_cat_multi_stim_exp1","2022-4-13","13:0:17","25","75","3","9","10","40","30","120","36","21","[""White""]","No","Female","1494092","557","u","learn","","","learn_trial","25","75","in","1","1","","","","","","","","","","","","","","","","","","","","",""
"","","","","","canvas-keyboard-response","50","223072","0.0-12.0-3.7","2d_cat_multi_stim_exp1","2022-4-13","13:0:17","25","75","3","9","10","40","30","120","36","21","[""White""]","No","Female","1494092","null","null","learn_feedback","","","learn_feedback","25","75","in","","","","","","","","","","","","","","","","","","","","","","",""
"","","","","","canvas-keyboard-response","51","223128","0.0-12.0-4.7","2d_cat_multi_stim_exp1","2022-4-13","13:0:17","25","75","3","9","10","40","30","120","36","21","[""White""]","No","Female","1494092","null","null","","","","clear_screen","","","","","","","","","","","","","","","","","","","","","","","","","",""
"","","","","","canvas-keyboard-response","52","223636","0.0-12.0-0.8","2d_cat_multi_stim_exp1","2022-4-13","13:0:17","25","75","3","9","10","40","30","120","36","21","[""White""]","No","Female","1494092","null","null","","","","fixation","","","","","","","","","","","","","","","","","","","","","","","","","",""
"","","","","","canvas-keyboard-response","53","224144","0.0-12.0-1.8","2d_cat_multi_stim_exp1","2022-4-13","13:0:17","25","75","3","9","10","40","30","120","36","21","[""White""]","No","Female","1494092","null","null","","","","clear_screen","","","","","","","","","","","","","","","","","","","","","","","","","",""
"","","","","","canvas-keyboard-response","54","224972","0.0-12.0-2.8","2d_cat_multi_stim_exp1","2022-4-13","13:0:17","25","75","3","9","10","40","30","120","36","21","[""White""]","No","Female","1494092","822","i","learn","","","learn_trial","24.3324","83.7744","in","0","0","","","","","","","","","","","","","","","","","","","","",""
"","","","","","canvas-keyboard-response","55","225979","0.0-12.0-3.8","2d_cat_multi_stim_exp1","2022-4-13","13:0:17","25","75","3","9","10","40","30","120","36","21","[""White""]","No","Female","1494092","null","null","learn_feedback","","","learn_feedback","24.3324","83.7744","in","","","","","","","","","","","","","","","","","","","","","","",""
"","","","","","canvas-keyboard-response","56","226035","0.0-12.0-4.8","2d_cat_multi_stim_exp1","2022-4-13","13:0:17","25","75","3","9","10","40","30","120","36","21","[""White""]","No","Female","1494092","null","null","","","","clear_screen","","","","","","","","","","","","","","","","","","","","","","","","","",""
"","","","","","canvas-keyboard-response","57","226541","0.0-12.0-0.9","2d_cat_multi_stim_exp1","2022-4-13","13:0:17","25","75","3","9","10","40","30","120","36","21","[""White""]","No","Female","1494092","null","null","","","","fixation","","","","","","","","","","","","","","","","","","","","","","","","","",""
"","","","","","canvas-keyboard-response","58","227050","0.0-12.0-1.9","2d_cat_multi_stim_exp1","2022-4-13","13:0:17","25","75","3","9","10","40","30","120","36","21","[""White""]","No","Female","1494092","null","null","","","","clear_screen","","","","","","","","","","","","","","","","","","","","","","","","","",""
"","","","","","canvas-keyboard-response","59","228067","0.0-12.0-2.9","2d_cat_multi_stim_exp1","2022-4-13","13:0:17","25","75","3","9","10","40","30","120","36","21","[""White""]","No","Female","1494092","1011","u","learn","","","learn_trial","23.3333","40","out","1","0","","","","","","","","","","","","","","","","","","","","",""
"","","","","","canvas-keyboard-response","60","229076","0.0-12.0-3.9","2d_cat_multi_stim_exp1","2022-4-13","13:0:17","25","75","3","9","10","40","30","120","36","21","[""White""]","No","Female","1494092","null","null","learn_feedback","","","learn_feedback","23.3333","40","out","","","","","","","","","","","","","","","","","","","","","","",""
"","","","","","canvas-keyboard-response","61","229132","0.0-12.0-4.9","2d_cat_multi_stim_exp1","2022-4-13","13:0:17","25","75","3","9","10","40","30","120","36","21","[""White""]","No","Female","1494092","null","null","","","","clear_screen","","","","","","","","","","","","","","","","","","","","","","","","","",""
"","","","","","canvas-keyboard-response","62","229642","0.0-12.0-0.10","2d_cat_multi_stim_exp1","2022-4-13","13:0:17","25","75","3","9","10","40","30","120","36","21","[""White""]","No","Female","1494092","null","null","","","","fixation","","","","","","","","","","","","","","","","","","","","","","","","","",""
"","","","","","canvas-keyboard-response","63","230148","0.0-12.0-1.10","2d_cat_multi_stim_exp1","2022-4-13","13:0:17","25","75","3","9","10","40","30","120","36","21","[""White""]","No","Female","1494092","null","null","","","","clear_screen","","","","","","","","","","","","","","","","","","","","","","","","","",""
"","","","","","canvas-keyboard-response","64","230853","0.0-12.0-2.10","2d_cat_multi_stim_exp1","2022-4-13","13:0:17","25","75","3","9","10","40","30","120","36","21","[""White""]","No","Female","1494092","698","i","learn","","","learn_trial","20","50","out","0","1","","","","","","","","","","","","","","","","","","","","",""
"","","","","","canvas-keyboard-response","65","231361","0.0-12.0-3.10","2d_cat_multi_stim_exp1","2022-4-13","13:0:17","25","75","3","9","10","40","30","120","36","21","[""White""]","No","Female","1494092","null","null","learn_feedback","","","learn_feedback","20","50","out","","","","","","","","","","","","","","","","","","","","","","",""
"","","","","","canvas-keyboard-response","66","231417","0.0-12.0-4.10","2d_cat_multi_stim_exp1","2022-4-13","13:0:17","25","75","3","9","10","40","30","120","36","21","[""White""]","No","Female","1494092","null","null","","","","clear_screen","","","","","","","","","","","","","","","","","","","","","","","","","",""
"","","","","","canvas-keyboard-response","67","231924","0.0-12.0-0.11","2d_cat_multi_stim_exp1","2022-4-13","13:0:17","25","75","3","9","10","40","30","120","36","21","[""White""]","No","Female","1494092","null","null","","","","fixation","","","","","","","","","","","","","","","","","","","","","","","","","",""
"","","","","","canvas-keyboard-response","68","232431","0.0-12.0-1.11","2d_cat_multi_stim_exp1","2022-4-13","13:0:17","25","75","3","9","10","40","30","120","36","21","[""White""]","No","Female","1494092","null","null","","","","clear_screen","","","","","","","","","","","","","","","","","","","","","","","","","",""
"","","","","","canvas-keyboard-response","69","233155","0.0-12.0-2.11","2d_cat_multi_stim_exp1","2022-4-13","13:0:17","25","75","3","9","10","40","30","120","36","21","[""White""]","No","Female","1494092","717","u","learn","","","learn_trial","25","75","in","1","1","","","","","","","","","","","","","","","","","","","","",""
"","","","","","canvas-keyboard-response","70","233662","0.0-12.0-3.11","2d_cat_multi_stim_exp1","2022-4-13","13:0:17","25","75","3","9","10","40","30","120","36","21","[""White""]","No","Female","1494092","null","null","learn_feedback","","","learn_feedback","25","75","in","","","","","","","","","","","","","","","","","","","","","","",""
"","","","","","canvas-keyboard-response","71","233719","0.0-12.0-4.11","2d_cat_multi_stim_exp1","2022-4-13","13:0:17","25","75","3","9","10","40","30","120","36","21","[""White""]","No","Female","1494092","null","null","","","","clear_screen","","","","","","","","","","","","","","","","","","","","","","","","","",""
"","","","","","canvas-keyboard-response","72","234225","0.0-12.0-0.12","2d_cat_multi_stim_exp1","2022-4-13","13:0:17","25","75","3","9","10","40","30","120","36","21","[""White""]","No","Female","1494092","null","null","","","","fixation","","","","","","","","","","","","","","","","","","","","","","","","","",""
"","","","","","canvas-keyboard-response","73","234731","0.0-12.0-1.12","2d_cat_multi_stim_exp1","2022-4-13","13:0:17","25","75","3","9","10","40","30","120","36","21","[""White""]","No","Female","1494092","null","null","","","","clear_screen","","","","","","","","","","","","","","","","","","","","","","","","","",""
"","","","","","canvas-keyboard-response","74","237075","0.0-12.0-2.12","2d_cat_multi_stim_exp1","2022-4-13","13:0:17","25","75","3","9","10","40","30","120","36","21","[""White""]","No","Female","1494092","2338","i","learn","","","learn_trial","33.3333","120","out","0","1","","","","","","","","","","","","","","","","","","","","",""
"","","","","","canvas-keyboard-response","75","237581","0.0-12.0-3.12","2d_cat_multi_stim_exp1","2022-4-13","13:0:17","25","75","3","9","10","40","30","120","36","21","[""White""]","No","Female","1494092","null","null","learn_feedback","","","learn_feedback","33.3333","120","out","","","","","","","","","","","","","","","","","","","","","","",""
"","","","","","canvas-keyboard-response","76","237639","0.0-12.0-4.12","2d_cat_multi_stim_exp1","2022-4-13","13:0:17","25","75","3","9","10","40","30","120","36","21","[""White""]","No","Female","1494092","null","null","","","","clear_screen","","","","","","","","","","","","","","","","","","","","","","","","","",""
"","","","","","canvas-keyboard-response","77","238146","0.0-12.0-0.13","2d_cat_multi_stim_exp1","2022-4-13","13:0:17","25","75","3","9","10","40","30","120","36","21","[""White""]","No","Female","1494092","null","null","","","","fixation","","","","","","","","","","","","","","","","","","","","","","","","","",""
"","","","","","canvas-keyboard-response","78","238653","0.0-12.0-1.13","2d_cat_multi_stim_exp1","2022-4-13","13:0:17","25","75","3","9","10","40","30","120","36","21","[""White""]","No","Female","1494092","null","null","","","","clear_screen","","","","","","","","","","","","","","","","","","","","","","","","","",""
"","","","","","canvas-keyboard-response","79","239500","0.0-12.0-2.13","2d_cat_multi_stim_exp1","2022-4-13","13:0:17","25","75","3","9","10","40","30","120","36","21","[""White""]","No","Female","1494092","837","u","learn","","","learn_trial","20.7574","87.7279","in","1","1","","","","","","","","","","","","","","","","","","","","",""
"","","","","","canvas-keyboard-response","80","240012","0.0-12.0-3.13","2d_cat_multi_stim_exp1","2022-4-13","13:0:17","25","75","3","9","10","40","30","120","36","21","[""White""]","No","Female","1494092","null","null","learn_feedback","","","learn_feedback","20.7574","87.7279","in","","","","","","","","","","","","","","","","","","","","","","",""
"","","","","","canvas-keyboard-response","81","240070","0.0-12.0-4.13","2d_cat_multi_stim_exp1","2022-4-13","13:0:17","25","75","3","9","10","40","30","120","36","21","[""White""]","No","Female","1494092","null","null","","","","clear_screen","","","","","","","","","","","","","","","","","","","","","","","","","",""
"","","","","","canvas-keyboard-response","82","240578","0.0-12.0-0.14","2d_cat_multi_stim_exp1","2022-4-13","13:0:17","25","75","3","9","10","40","30","120","36","21","[""White""]","No","Female","1494092","null","null","","","","fixation","","","","","","","","","","","","","","","","","","","","","","","","","",""
"","","","","","canvas-keyboard-response","83","241090","0.0-12.0-1.14","2d_cat_multi_stim_exp1","2022-4-13","13:0:17","25","75","3","9","10","40","30","120","36","21","[""White""]","No","Female","1494092","null","null","","","","clear_screen","","","","","","","","","","","","","","","","","","","","","","","","","",""
"","","","","","canvas-keyboard-response","84","242020","0.0-12.0-2.14","2d_cat_multi_stim_exp1","2022-4-13","13:0:17","25","75","3","9","10","40","30","120","36","21","[""White""]","No","Female","1494092","921","u","learn","","","learn_trial","25","75","in","1","1","","","","","","","","","","","","","","","","","","","","",""
"","","","","","canvas-keyboard-response","85","242528","0.0-12.0-3.14","2d_cat_multi_stim_exp1","2022-4-13","13:0:17","25","75","3","9","10","40","30","120","36","21","[""White""]","No","Female","1494092","null","null","learn_feedback","","","learn_feedback","25","75","in","","","","","","","","","","","","","","","","","","","","","","",""
"","","","","","canvas-keyboard-response","86","242585","0.0-12.0-4.14","2d_cat_multi_stim_exp1","2022-4-13","13:0:17","25","75","3","9","10","40","30","120","36","21","[""White""]","No","Female","1494092","null","null","","","","clear_screen","","","","","","","","","","","","","","","","","","","","","","","","","",""
"","","","","","canvas-keyboard-response","87","243093","0.0-12.0-0.15","2d_cat_multi_stim_exp1","2022-4-13","13:0:17","25","75","3","9","10","40","30","120","36","21","[""White""]","No","Female","1494092","null","null","","","","fixation","","","","","","","","","","","","","","","","","","","","","","","","","",""
"","","","","","canvas-keyboard-response","88","243600","0.0-12.0-1.15","2d_cat_multi_stim_exp1","2022-4-13","13:0:17","25","75","3","9","10","40","30","120","36","21","[""White""]","No","Female","1494092","null","null","","","","clear_screen","","","","","","","","","","","","","","","","","","","","","","","","","",""
"","","","","","canvas-keyboard-response","89","244004","0.0-12.0-2.15","2d_cat_multi_stim_exp1","2022-4-13","13:0:17","25","75","3","9","10","40","30","120","36","21","[""White""]","No","Female","1494092","397","u","learn","","","learn_trial","27.5753","79.6161","in","1","1","","","","","","","","","","","","","","","","","","","","",""
"","","","","","canvas-keyboard-response","90","244512","0.0-12.0-3.15","2d_cat_multi_stim_exp1","2022-4-13","13:0:17","25","75","3","9","10","40","30","120","36","21","[""White""]","No","Female","1494092","null","null","learn_feedback","","","learn_feedback","27.5753","79.6161","in","","","","","","","","","","","","","","","","","","","","","","",""
"","","","","","canvas-keyboard-response","91","244573","0.0-12.0-4.15","2d_cat_multi_stim_exp1","2022-4-13","13:0:17","25","75","3","9","10","40","30","120","36","21","[""White""]","No","Female","1494092","null","null","","","","clear_screen","","","","","","","","","","","","","","","","","","","","","","","","","",""
"","","","","","canvas-keyboard-response","92","245080","0.0-12.0-0.16","2d_cat_multi_stim_exp1","2022-4-13","13:0:17","25","75","3","9","10","40","30","120","36","21","[""White""]","No","Female","1494092","null","null","","","","fixation","","","","","","","","","","","","","","","","","","","","","","","","","",""
"","","","","","canvas-keyboard-response","93","245586","0.0-12.0-1.16","2d_cat_multi_stim_exp1","2022-4-13","13:0:17","25","75","3","9","10","40","30","120","36","21","[""White""]","No","Female","1494092","null","null","","","","clear_screen","","","","","","","","","","","","","","","","","","","","","","","","","",""
"","","","","","canvas-keyboard-response","94","246028","0.0-12.0-2.16","2d_cat_multi_stim_exp1","2022-4-13","13:0:17","25","75","3","9","10","40","30","120","36","21","[""White""]","No","Female","1494092","432","u","learn","","","learn_trial","25.4027","83.9185","in","1","1","","","","","","","","","","","","","","","","","","","","",""
"","","","","","canvas-keyboard-response","95","246536","0.0-12.0-3.16","2d_cat_multi_stim_exp1","2022-4-13","13:0:17","25","75","3","9","10","40","30","120","36","21","[""White""]","No","Female","1494092","null","null","learn_feedback","","","learn_feedback","25.4027","83.9185","in","","","","","","","","","","","","","","","","","","","","","","",""
"","","","","","canvas-keyboard-response","96","246593","0.0-12.0-4.16","2d_cat_multi_stim_exp1","2022-4-13","13:0:17","25","75","3","9","10","40","30","120","36","21","[""White""]","No","Female","1494092","null","null","","","","clear_screen","","","","","","","","","","","","","","","","","","","","","","","","","",""
"","","","","","canvas-keyboard-response","97","247099","0.0-12.0-0.17","2d_cat_multi_stim_exp1","2022-4-13","13:0:17","25","75","3","9","10","40","30","120","36","21","[""White""]","No","Female","1494092","null","null","","","","fixation","","","","","","","","","","","","","","","","","","","","","","","","","",""
"","","","","","canvas-keyboard-response","98","247609","0.0-12.0-1.17","2d_cat_multi_stim_exp1","2022-4-13","13:0:17","25","75","3","9","10","40","30","120","36","21","[""White""]","No","Female","1494092","null","null","","","","clear_screen","","","","","","","","","","","","","","","","","","","","","","","","","",""
"","","","","","canvas-keyboard-response","99","247996","0.0-12.0-2.17","2d_cat_multi_stim_exp1","2022-4-13","13:0:17","25","75","3","9","10","40","30","120","36","21","[""White""]","No","Female","1494092","381","u","learn","","","learn_trial","13.3333","100","out","1","0","","","","","","","","","","","","","","","","","","","","",""
"","","","","","canvas-keyboard-response","100","249004","0.0-12.0-3.17","2d_cat_multi_stim_exp1","2022-4-13","13:0:17","25","75","3","9","10","40","30","120","36","21","[""White""]","No","Female","1494092","null","null","learn_feedback","","","learn_feedback","13.3333","100","out","","","","","","","","","","","","","","","","","","","","","","",""
"","","","","","canvas-keyboard-response","101","249060","0.0-12.0-4.17","2d_cat_multi_stim_exp1","2022-4-13","13:0:17","25","75","3","9","10","40","30","120","36","21","[""White""]","No","Female","1494092","null","null","","","","clear_screen","","","","","","","","","","","","","","","","","","","","","","","","","",""
"","","","","","canvas-keyboard-response","102","249569","0.0-12.0-0.18","2d_cat_multi_stim_exp1","2022-4-13","13:0:17","25","75","3","9","10","40","30","120","36","21","[""White""]","No","Female","1494092","null","null","","","","fixation","","","","","","","","","","","","","","","","","","","","","","","","","",""
"","","","","","canvas-keyboard-response","103","250077","0.0-12.0-1.18","2d_cat_multi_stim_exp1","2022-4-13","13:0:17","25","75","3","9","10","40","30","120","36","21","[""White""]","No","Female","1494092","null","null","","","","clear_screen","","","","","","","","","","","","","","","","","","","","","","","","","",""
"","","","","","canvas-keyboard-response","104","250549","0.0-12.0-2.18","2d_cat_multi_stim_exp1","2022-4-13","13:0:17","25","75","3","9","10","40","30","120","36","21","[""White""]","No","Female","1494092","464","u","learn","","","learn_trial","25","75","in","1","1","","","","","","","","","","","","","","","","","","","","",""
"","","","","","canvas-keyboard-response","105","251056","0.0-12.0-3.18","2d_cat_multi_stim_exp1","2022-4-13","13:0:17","25","75","3","9","10","40","30","120","36","21","[""White""]","No","Female","1494092","null","null","learn_feedback","","","learn_feedback","25","75","in","","","","","","","","","","","","","","","","","","","","","","",""
"","","","","","canvas-keyboard-response","106","251113","0.0-12.0-4.18","2d_cat_multi_stim_exp1","2022-4-13","13:0:17","25","75","3","9","10","40","30","120","36","21","[""White""]","No","Female","1494092","null","null","","","","clear_screen","","","","","","","","","","","","","","","","","","","","","","","","","",""
"","","","","","canvas-keyboard-response","107","251620","0.0-12.0-0.19","2d_cat_multi_stim_exp1","2022-4-13","13:0:17","25","75","3","9","10","40","30","120","36","21","[""White""]","No","Female","1494092","null","null","","","","fixation","","","","","","","","","","","","","","","","","","","","","","","","","",""
"","","","","","canvas-keyboard-response","108","252126","0.0-12.0-1.19","2d_cat_multi_stim_exp1","2022-4-13","13:0:17","25","75","3","9","10","40","30","120","36","21","[""White""]","No","Female","1494092","null","null","","","","clear_screen","","","","","","","","","","","","","","","","","","","","","","","","","",""
"","","","","","canvas-keyboard-response","109","252917","0.0-12.0-2.19","2d_cat_multi_stim_exp1","2022-4-13","13:0:17","25","75","3","9","10","40","30","120","36","21","[""White""]","No","Female","1494092","780","u","learn","","","learn_trial","25","75","in","1","1","","","","","","","","","","","","","","","","","","","","",""
"","","","","","canvas-keyboard-response","110","253424","0.0-12.0-3.19","2d_cat_multi_stim_exp1","2022-4-13","13:0:17","25","75","3","9","10","40","30","120","36","21","[""White""]","No","Female","1494092","null","null","learn_feedback","","","learn_feedback","25","75","in","","","","","","","","","","","","","","","","","","","","","","",""
"","","","","","canvas-keyboard-response","111","253480","0.0-12.0-4.19","2d_cat_multi_stim_exp1","2022-4-13","13:0:17","25","75","3","9","10","40","30","120","36","21","[""White""]","No","Female","1494092","null","null","","","","clear_screen","","","","","","","","","","","","","","","","","","","","","","","","","",""
"","","","","","canvas-keyboard-response","112","253991","0.0-12.0-0.20","2d_cat_multi_stim_exp1","2022-4-13","13:0:17","25","75","3","9","10","40","30","120","36","21","[""White""]","No","Female","1494092","null","null","","","","fixation","","","","","","","","","","","","","","","","","","","","","","","","","",""
"","","","","","canvas-keyboard-response","113","254499","0.0-12.0-1.20","2d_cat_multi_stim_exp1","2022-4-13","13:0:17","25","75","3","9","10","40","30","120","36","21","[""White""]","No","Female","1494092","null","null","","","","clear_screen","","","","","","","","","","","","","","","","","","","","","","","","","",""
"","","","","","canvas-keyboard-response","114","255045","0.0-12.0-2.20","2d_cat_multi_stim_exp1","2022-4-13","13:0:17","25","75","3","9","10","40","30","120","36","21","[""White""]","No","Female","1494092","538","u","learn","","","learn_trial","25","75","in","1","1","","","","","","","","","","","","","","","","","","","","",""
"","","","","","canvas-keyboard-response","115","255553","0.0-12.0-3.20","2d_cat_multi_stim_exp1","2022-4-13","13:0:17","25","75","3","9","10","40","30","120","36","21","[""White""]","No","Female","1494092","null","null","learn_feedback","","","learn_feedback","25","75","in","","","","","","","","","","","","","","","","","","","","","","",""
"","","","","","canvas-keyboard-response","116","255610","0.0-12.0-4.20","2d_cat_multi_stim_exp1","2022-4-13","13:0:17","25","75","3","9","10","40","30","120","36","21","[""White""]","No","Female","1494092","null","null","","","","clear_screen","","","","","","","","","","","","","","","","","","","","","","","","","",""
"","","","","","canvas-keyboard-response","117","256116","0.0-12.0-0.21","2d_cat_multi_stim_exp1","2022-4-13","13:0:17","25","75","3","9","10","40","30","120","36","21","[""White""]","No","Female","1494092","null","null","","","","fixation","","","","","","","","","","","","","","","","","","","","","","","","","",""
"","","","","","canvas-keyboard-response","118","256625","0.0-12.0-1.21","2d_cat_multi_stim_exp1","2022-4-13","13:0:17","25","75","3","9","10","40","30","120","36","21","[""White""]","No","Female","1494092","null","null","","","","clear_screen","","","","","","","","","","","","","","","","","","","","","","","","","",""
"","","","","","canvas-keyboard-response","119","257243","0.0-12.0-2.21","2d_cat_multi_stim_exp1","2022-4-13","13:0:17","25","75","3","9","10","40","30","120","36","21","[""White""]","No","Female","1494092","612","i","learn","","","learn_trial","20","40","out","0","1","","","","","","","","","","","","","","","","","","","","",""
"","","","","","canvas-keyboard-response","120","257751","0.0-12.0-3.21","2d_cat_multi_stim_exp1","2022-4-13","13:0:17","25","75","3","9","10","40","30","120","36","21","[""White""]","No","Female","1494092","null","null","learn_feedback","","","learn_feedback","20","40","out","","","","","","","","","","","","","","","","","","","","","","",""
"","","","","","canvas-keyboard-response","121","257807","0.0-12.0-4.21","2d_cat_multi_stim_exp1","2022-4-13","13:0:17","25","75","3","9","10","40","30","120","36","21","[""White""]","No","Female","1494092","null","null","","","","clear_screen","","","","","","","","","","","","","","","","","","","","","","","","","",""
"","","","","","canvas-keyboard-response","122","258313","0.0-12.0-0.22","2d_cat_multi_stim_exp1","2022-4-13","13:0:17","25","75","3","9","10","40","30","120","36","21","[""White""]","No","Female","1494092","null","null","","","","fixation","","","","","","","","","","","","","","","","","","","","","","","","","",""
"","","","","","canvas-keyboard-response","123","258820","0.0-12.0-1.22","2d_cat_multi_stim_exp1","2022-4-13","13:0:17","25","75","3","9","10","40","30","120","36","21","[""White""]","No","Female","1494092","null","null","","","","clear_screen","","","","","","","","","","","","","","","","","","","","","","","","","",""
"","","","","","canvas-keyboard-response","124","260357","0.0-12.0-2.22","2d_cat_multi_stim_exp1","2022-4-13","13:0:17","25","75","3","9","10","40","30","120","36","21","[""White""]","No","Female","1494092","1524","u","learn","","","learn_trial","27.5753","70.3839","in","1","1","","","","","","","","","","","","","","","","","","","","",""
"","","","","","canvas-keyboard-response","125","260864","0.0-12.0-3.22","2d_cat_multi_stim_exp1","2022-4-13","13:0:17","25","75","3","9","10","40","30","120","36","21","[""White""]","No","Female","1494092","null","null","learn_feedback","","","learn_feedback","27.5753","70.3839","in","","","","","","","","","","","","","","","","","","","","","","",""
"","","","","","canvas-keyboard-response","126","260921","0.0-12.0-4.22","2d_cat_multi_stim_exp1","2022-4-13","13:0:17","25","75","3","9","10","40","30","120","36","21","[""White""]","No","Female","1494092","null","null","","","","clear_screen","","","","","","","","","","","","","","","","","","","","","","","","","",""
"","","","","","canvas-keyboard-response","127","261427","0.0-12.0-0.23","2d_cat_multi_stim_exp1","2022-4-13","13:0:17","25","75","3","9","10","40","30","120","36","21","[""White""]","No","Female","1494092","null","null","","","","fixation","","","","","","","","","","","","","","","","","","","","","","","","","",""
"","","","","","canvas-keyboard-response","128","261935","0.0-12.0-1.23","2d_cat_multi_stim_exp1","2022-4-13","13:0:17","25","75","3","9","10","40","30","120","36","21","[""White""]","No","Female","1494092","null","null","","","","clear_screen","","","","","","","","","","","","","","","","","","","","","","","","","",""
"","","","","","canvas-keyboard-response","129","262285","0.0-12.0-2.23","2d_cat_multi_stim_exp1","2022-4-13","13:0:17","25","75","3","9","10","40","30","120","36","21","[""White""]","No","Female","1494092","342","u","learn","","","learn_trial","22.9268","68.4948","in","1","1","","","","","","","","","","","","","","","","","","","","",""
"","","","","","canvas-keyboard-response","130","262793","0.0-12.0-3.23","2d_cat_multi_stim_exp1","2022-4-13","13:0:17","25","75","3","9","10","40","30","120","36","21","[""White""]","No","Female","1494092","null","null","learn_feedback","","","learn_feedback","22.9268","68.4948","in","","","","","","","","","","","","","","","","","","","","","","",""
"","","","","","canvas-keyboard-response","131","262849","0.0-12.0-4.23","2d_cat_multi_stim_exp1","2022-4-13","13:0:17","25","75","3","9","10","40","30","120","36","21","[""White""]","No","Female","1494092","null","null","","","","clear_screen","","","","","","","","","","","","","","","","","","","","","","","","","",""
"","","","","","canvas-keyboard-response","132","263361","0.0-12.0-0.24","2d_cat_multi_stim_exp1","2022-4-13","13:0:17","25","75","3","9","10","40","30","120","36","21","[""White""]","No","Female","1494092","null","null","","","","fixation","","","","","","","","","","","","","","","","","","","","","","","","","",""
"","","","","","canvas-keyboard-response","133","263868","0.0-12.0-1.24","2d_cat_multi_stim_exp1","2022-4-13","13:0:17","25","75","3","9","10","40","30","120","36","21","[""White""]","No","Female","1494092","null","null","","","","clear_screen","","","","","","","","","","","","","","","","","","","","","","","","","",""
"","","","","","canvas-keyboard-response","134","264579","0.0-12.0-2.24","2d_cat_multi_stim_exp1","2022-4-13","13:0:17","25","75","3","9","10","40","30","120","36","21","[""White""]","No","Female","1494092","705","i","learn","","","learn_trial","26.6667","30","out","0","1","","","","","","","","","","","","","","","","","","","","",""
"","","","","","canvas-keyboard-response","135","265087","0.0-12.0-3.24","2d_cat_multi_stim_exp1","2022-4-13","13:0:17","25","75","3","9","10","40","30","120","36","21","[""White""]","No","Female","1494092","null","null","learn_feedback","","","learn_feedback","26.6667","30","out","","","","","","","","","","","","","","","","","","","","","","",""
"","","","","","canvas-keyboard-response","136","265143","0.0-12.0-4.24","2d_cat_multi_stim_exp1","2022-4-13","13:0:17","25","75","3","9","10","40","30","120","36","21","[""White""]","No","Female","1494092","null","null","","","","clear_screen","","","","","","","","","","","","","","","","","","","","","","","","","",""
"","","","","","canvas-keyboard-response","137","265650","0.0-12.0-0.25","2d_cat_multi_stim_exp1","2022-4-13","13:0:17","25","75","3","9","10","40","30","120","36","21","[""White""]","No","Female","1494092","null","null","","","","fixation","","","","","","","","","","","","","","","","","","","","","","","","","",""
"","","","","","canvas-keyboard-response","138","266157","0.0-12.0-1.25","2d_cat_multi_stim_exp1","2022-4-13","13:0:17","25","75","3","9","10","40","30","120","36","21","[""White""]","No","Female","1494092","null","null","","","","clear_screen","","","","","","","","","","","","","","","","","","","","","","","","","",""
"","","","","","canvas-keyboard-response","139","266964","0.0-12.0-2.25","2d_cat_multi_stim_exp1","2022-4-13","13:0:17","25","75","3","9","10","40","30","120","36","21","[""White""]","No","Female","1494092","800","u","learn","","","learn_trial","25","75","in","1","1","","","","","","","","","","","","","","","","","","","","",""
"","","","","","canvas-keyboard-response","140","267471","0.0-12.0-3.25","2d_cat_multi_stim_exp1","2022-4-13","13:0:17","25","75","3","9","10","40","30","120","36","21","[""White""]","No","Female","1494092","null","null","learn_feedback","","","learn_feedback","25","75","in","","","","","","","","","","","","","","","","","","","","","","",""
"","","","","","canvas-keyboard-response","141","267527","0.0-12.0-4.25","2d_cat_multi_stim_exp1","2022-4-13","13:0:17","25","75","3","9","10","40","30","120","36","21","[""White""]","No","Female","1494092","null","null","","","","clear_screen","","","","","","","","","","","","","","","","","","","","","","","","","",""
"","","","","","canvas-keyboard-response","142","268033","0.0-12.0-0.26","2d_cat_multi_stim_exp1","2022-4-13","13:0:17","25","75","3","9","10","40","30","120","36","21","[""White""]","No","Female","1494092","null","null","","","","fixation","","","","","","","","","","","","","","","","","","","","","","","","","",""
"","","","","","canvas-keyboard-response","143","268540","0.0-12.0-1.26","2d_cat_multi_stim_exp1","2022-4-13","13:0:17","25","75","3","9","10","40","30","120","36","21","[""White""]","No","Female","1494092","null","null","","","","clear_screen","","","","","","","","","","","","","","","","","","","","","","","","","",""
"","","","","","canvas-keyboard-response","144","269388","0.0-12.0-2.26","2d_cat_multi_stim_exp1","2022-4-13","13:0:17","25","75","3","9","10","40","30","120","36","21","[""White""]","No","Female","1494092","839","i","learn","","","learn_trial","10","120","out","0","1","","","","","","","","","","","","","","","","","","","","",""
"","","","","","canvas-keyboard-response","145","269894","0.0-12.0-3.26","2d_cat_multi_stim_exp1","2022-4-13","13:0:17","25","75","3","9","10","40","30","120","36","21","[""White""]","No","Female","1494092","null","null","learn_feedback","","","learn_feedback","10","120","out","","","","","","","","","","","","","","","","","","","","","","",""
"","","","","","canvas-keyboard-response","146","269950","0.0-12.0-4.26","2d_cat_multi_stim_exp1","2022-4-13","13:0:17","25","75","3","9","10","40","30","120","36","21","[""White""]","No","Female","1494092","null","null","","","","clear_screen","","","","","","","","","","","","","","","","","","","","","","","","","",""
"","","","","","canvas-keyboard-response","147","270458","0.0-12.0-0.27","2d_cat_multi_stim_exp1","2022-4-13","13:0:17","25","75","3","9","10","40","30","120","36","21","[""White""]","No","Female","1494092","null","null","","","","fixation","","","","","","","","","","","","","","","","","","","","","","","","","",""
"","","","","","canvas-keyboard-response","148","270970","0.0-12.0-1.27","2d_cat_multi_stim_exp1","2022-4-13","13:0:17","25","75","3","9","10","40","30","120","36","21","[""White""]","No","Female","1494092","null","null","","","","clear_screen","","","","","","","","","","","","","","","","","","","","","","","","","",""
"","","","","","canvas-keyboard-response","149","271356","0.0-12.0-2.27","2d_cat_multi_stim_exp1","2022-4-13","13:0:17","25","75","3","9","10","40","30","120","36","21","[""White""]","No","Female","1494092","378","u","learn","","","learn_trial","25","75","in","1","1","","","","","","","","","","","","","","","","","","","","",""
"","","","","","canvas-keyboard-response","150","271863","0.0-12.0-3.27","2d_cat_multi_stim_exp1","2022-4-13","13:0:17","25","75","3","9","10","40","30","120","36","21","[""White""]","No","Female","1494092","null","null","learn_feedback","","","learn_feedback","25","75","in","","","","","","","","","","","","","","","","","","","","","","",""
"","","","","","canvas-keyboard-response","151","271919","0.0-12.0-4.27","2d_cat_multi_stim_exp1","2022-4-13","13:0:17","25","75","3","9","10","40","30","120","36","21","[""White""]","No","Female","1494092","null","null","","","","clear_screen","","","","","","","","","","","","","","","","","","","","","","","","","",""
"","","","","","canvas-keyboard-response","152","272426","0.0-12.0-0.28","2d_cat_multi_stim_exp1","2022-4-13","13:0:17","25","75","3","9","10","40","30","120","36","21","[""White""]","No","Female","1494092","null","null","","","","fixation","","","","","","","","","","","","","","","","","","","","","","","","","",""
"","","","","","canvas-keyboard-response","153","272934","0.0-12.0-1.28","2d_cat_multi_stim_exp1","2022-4-13","13:0:17","25","75","3","9","10","40","30","120","36","21","[""White""]","No","Female","1494092","null","null","","","","clear_screen","","","","","","","","","","","","","","","","","","","","","","","","","",""
"","","","","","canvas-keyboard-response","154","273653","0.0-12.0-2.28","2d_cat_multi_stim_exp1","2022-4-13","13:0:17","25","75","3","9","10","40","30","120","36","21","[""White""]","No","Female","1494092","713","u","learn","","","learn_trial","27.2592","69.0786","in","1","1","","","","","","","","","","","","","","","","","","","","",""
"","","","","","canvas-keyboard-response","155","274160","0.0-12.0-3.28","2d_cat_multi_stim_exp1","2022-4-13","13:0:17","25","75","3","9","10","40","30","120","36","21","[""White""]","No","Female","1494092","null","null","learn_feedback","","","learn_feedback","27.2592","69.0786","in","","","","","","","","","","","","","","","","","","","","","","",""
"","","","","","canvas-keyboard-response","156","274217","0.0-12.0-4.28","2d_cat_multi_stim_exp1","2022-4-13","13:0:17","25","75","3","9","10","40","30","120","36","21","[""White""]","No","Female","1494092","null","null","","","","clear_screen","","","","","","","","","","","","","","","","","","","","","","","","","",""
"","","","","","canvas-keyboard-response","157","274724","0.0-12.0-0.29","2d_cat_multi_stim_exp1","2022-4-13","13:0:17","25","75","3","9","10","40","30","120","36","21","[""White""]","No","Female","1494092","null","null","","","","fixation","","","","","","","","","","","","","","","","","","","","","","","","","",""
"","","","","","canvas-keyboard-response","158","275232","0.0-12.0-1.29","2d_cat_multi_stim_exp1","2022-4-13","13:0:17","25","75","3","9","10","40","30","120","36","21","[""White""]","No","Female","1494092","null","null","","","","clear_screen","","","","","","","","","","","","","","","","","","","","","","","","","",""
"","","","","","canvas-keyboard-response","159","275715","0.0-12.0-2.29","2d_cat_multi_stim_exp1","2022-4-13","13:0:17","25","75","3","9","10","40","30","120","36","21","[""White""]","No","Female","1494092","477","u","learn","","","learn_trial","25","75","in","1","1","","","","","","","","","","","","","","","","","","","","",""
"","","","","","canvas-keyboard-response","160","276224","0.0-12.0-3.29","2d_cat_multi_stim_exp1","2022-4-13","13:0:17","25","75","3","9","10","40","30","120","36","21","[""White""]","No","Female","1494092","null","null","learn_feedback","","","learn_feedback","25","75","in","","","","","","","","","","","","","","","","","","","","","","",""
"","","","","","canvas-keyboard-response","161","276281","0.0-12.0-4.29","2d_cat_multi_stim_exp1","2022-4-13","13:0:17","25","75","3","9","10","40","30","120","36","21","[""White""]","No","Female","1494092","null","null","","","","clear_screen","","","","","","","","","","","","","","","","","","","","","","","","","",""
"","","","","","canvas-keyboard-response","162","276787","0.0-12.0-0.30","2d_cat_multi_stim_exp1","2022-4-13","13:0:17","25","75","3","9","10","40","30","120","36","21","[""White""]","No","Female","1494092","null","null","","","","fixation","","","","","","","","","","","","","","","","","","","","","","","","","",""
"","","","","","canvas-keyboard-response","163","277294","0.0-12.0-1.30","2d_cat_multi_stim_exp1","2022-4-13","13:0:17","25","75","3","9","10","40","30","120","36","21","[""White""]","No","Female","1494092","null","null","","","","clear_screen","","","","","","","","","","","","","","","","","","","","","","","","","",""
"","","","","","canvas-keyboard-response","164","277931","0.0-12.0-2.30","2d_cat_multi_stim_exp1","2022-4-13","13:0:17","25","75","3","9","10","40","30","120","36","21","[""White""]","No","Female","1494092","628","i","learn","","","learn_trial","13.3333","30","out","0","1","","","","","","","","","","","","","","","","","","","","",""
"","","","","","canvas-keyboard-response","165","278439","0.0-12.0-3.30","2d_cat_multi_stim_exp1","2022-4-13","13:0:17","25","75","3","9","10","40","30","120","36","21","[""White""]","No","Female","1494092","null","null","learn_feedback","","","learn_feedback","13.3333","30","out","","","","","","","","","","","","","","","","","","","","","","",""
"","","","","","canvas-keyboard-response","166","278495","0.0-12.0-4.30","2d_cat_multi_stim_exp1","2022-4-13","13:0:17","25","75","3","9","10","40","30","120","36","21","[""White""]","No","Female","1494092","null","null","","","","clear_screen","","","","","","","","","","","","","","","","","","","","","","","","","",""
"","","","","","canvas-keyboard-response","167","279004","0.0-12.0-0.31","2d_cat_multi_stim_exp1","2022-4-13","13:0:17","25","75","3","9","10","40","30","120","36","21","[""White""]","No","Female","1494092","null","null","","","","fixation","","","","","","","","","","","","","","","","","","","","","","","","","",""
"","","","","","canvas-keyboard-response","168","279511","0.0-12.0-1.31","2d_cat_multi_stim_exp1","2022-4-13","13:0:17","25","75","3","9","10","40","30","120","36","21","[""White""]","No","Female","1494092","null","null","","","","clear_screen","","","","","","","","","","","","","","","","","","","","","","","","","",""
"","","","","","canvas-keyboard-response","169","279907","0.0-12.0-2.31","2d_cat_multi_stim_exp1","2022-4-13","13:0:17","25","75","3","9","10","40","30","120","36","21","[""White""]","No","Female","1494092","389","i","learn","","","learn_trial","36.6667","40","out","0","1","","","","","","","","","","","","","","","","","","","","",""
"","","","","","canvas-keyboard-response","170","280414","0.0-12.0-3.31","2d_cat_multi_stim_exp1","2022-4-13","13:0:17","25","75","3","9","10","40","30","120","36","21","[""White""]","No","Female","1494092","null","null","learn_feedback","","","learn_feedback","36.6667","40","out","","","","","","","","","","","","","","","","","","","","","","",""
"","","","","","canvas-keyboard-response","171","280470","0.0-12.0-4.31","2d_cat_multi_stim_exp1","2022-4-13","13:0:17","25","75","3","9","10","40","30","120","36","21","[""White""]","No","Female","1494092","null","null","","","","clear_screen","","","","","","","","","","","","","","","","","","","","","","","","","",""
"","","","","","canvas-keyboard-response","172","280976","0.0-12.0-0.32","2d_cat_multi_stim_exp1","2022-4-13","13:0:17","25","75","3","9","10","40","30","120","36","21","[""White""]","No","Female","1494092","null","null","","","","fixation","","","","","","","","","","","","","","","","","","","","","","","","","",""
"","","","","","canvas-keyboard-response","173","281484","0.0-12.0-1.32","2d_cat_multi_stim_exp1","2022-4-13","13:0:17","25","75","3","9","10","40","30","120","36","21","[""White""]","No","Female","1494092","null","null","","","","clear_screen","","","","","","","","","","","","","","","","","","","","","","","","","",""
"","","","","","canvas-keyboard-response","174","282099","0.0-12.0-2.32","2d_cat_multi_stim_exp1","2022-4-13","13:0:17","25","75","3","9","10","40","30","120","36","21","[""White""]","No","Female","1494092","609","u","learn","","","learn_trial","13.3333","80","out","1","0","","","","","","","","","","","","","","","","","","","","",""
"","","","","","canvas-keyboard-response","175","283107","0.0-12.0-3.32","2d_cat_multi_stim_exp1","2022-4-13","13:0:17","25","75","3","9","10","40","30","120","36","21","[""White""]","No","Female","1494092","null","null","learn_feedback","","","learn_feedback","13.3333","80","out","","","","","","","","","","","","","","","","","","","","","","",""
"","","","","","canvas-keyboard-response","176","283163","0.0-12.0-4.32","2d_cat_multi_stim_exp1","2022-4-13","13:0:17","25","75","3","9","10","40","30","120","36","21","[""White""]","No","Female","1494092","null","null","","","","clear_screen","","","","","","","","","","","","","","","","","","","","","","","","","",""
"","","","","","canvas-keyboard-response","177","283669","0.0-12.0-0.33","2d_cat_multi_stim_exp1","2022-4-13","13:0:17","25","75","3","9","10","40","30","120","36","21","[""White""]","No","Female","1494092","null","null","","","","fixation","","","","","","","","","","","","","","","","","","","","","","","","","",""
"","","","","","canvas-keyboard-response","178","284176","0.0-12.0-1.33","2d_cat_multi_stim_exp1","2022-4-13","13:0:17","25","75","3","9","10","40","30","120","36","21","[""White""]","No","Female","1494092","null","null","","","","clear_screen","","","","","","","","","","","","","","","","","","","","","","","","","",""
"","","","","","canvas-keyboard-response","179","284995","0.0-12.0-2.33","2d_cat_multi_stim_exp1","2022-4-13","13:0:17","25","75","3","9","10","40","30","120","36","21","[""White""]","No","Female","1494092","809","i","learn","","","learn_trial","40","60","out","0","1","","","","","","","","","","","","","","","","","","","","",""
"","","","","","canvas-keyboard-response","180","285502","0.0-12.0-3.33","2d_cat_multi_stim_exp1","2022-4-13","13:0:17","25","75","3","9","10","40","30","120","36","21","[""White""]","No","Female","1494092","null","null","learn_feedback","","","learn_feedback","40","60","out","","","","","","","","","","","","","","","","","","","","","","",""
"","","","","","canvas-keyboard-response","181","285558","0.0-12.0-4.33","2d_cat_multi_stim_exp1","2022-4-13","13:0:17","25","75","3","9","10","40","30","120","36","21","[""White""]","No","Female","1494092","null","null","","","","clear_screen","","","","","","","","","","","","","","","","","","","","","","","","","",""
"","","","","","canvas-keyboard-response","182","286064","0.0-12.0-0.34","2d_cat_multi_stim_exp1","2022-4-13","13:0:17","25","75","3","9","10","40","30","120","36","21","[""White""]","No","Female","1494092","null","null","","","","fixation","","","","","","","","","","","","","","","","","","","","","","","","","",""
"","","","","","canvas-keyboard-response","183","286571","0.0-12.0-1.34","2d_cat_multi_stim_exp1","2022-4-13","13:0:17","25","75","3","9","10","40","30","120","36","21","[""White""]","No","Female","1494092","null","null","","","","clear_screen","","","","","","","","","","","","","","","","","","","","","","","","","",""
"","","","","","canvas-keyboard-response","184","287346","0.0-12.0-2.34","2d_cat_multi_stim_exp1","2022-4-13","13:0:17","25","75","3","9","10","40","30","120","36","21","[""White""]","No","Female","1494092","770","u","learn","","","learn_trial","25","75","in","1","1","","","","","","","","","","","","","","","","","","","","",""
"","","","","","canvas-keyboard-response","185","287854","0.0-12.0-3.34","2d_cat_multi_stim_exp1","2022-4-13","13:0:17","25","75","3","9","10","40","30","120","36","21","[""White""]","No","Female","1494092","null","null","learn_feedback","","","learn_feedback","25","75","in","","","","","","","","","","","","","","","","","","","","","","",""
"","","","","","canvas-keyboard-response","186","287910","0.0-12.0-4.34","2d_cat_multi_stim_exp1","2022-4-13","13:0:17","25","75","3","9","10","40","30","120","36","21","[""White""]","No","Female","1494092","null","null","","","","clear_screen","","","","","","","","","","","","","","","","","","","","","","","","","",""
"","","","","","canvas-keyboard-response","187","288415","0.0-12.0-0.35","2d_cat_multi_stim_exp1","2022-4-13","13:0:17","25","75","3","9","10","40","30","120","36","21","[""White""]","No","Female","1494092","null","null","","","","fixation","","","","","","","","","","","","","","","","","","","","","","","","","",""
"","","","","","canvas-keyboard-response","188","288922","0.0-12.0-1.35","2d_cat_multi_stim_exp1","2022-4-13","13:0:17","25","75","3","9","10","40","30","120","36","21","[""White""]","No","Female","1494092","null","null","","","","clear_screen","","","","","","","","","","","","","","","","","","","","","","","","","",""
"","","","","","canvas-keyboard-response","189","289683","0.0-12.0-2.35","2d_cat_multi_stim_exp1","2022-4-13","13:0:17","25","75","3","9","10","40","30","120","36","21","[""White""]","No","Female","1494092","754","i","learn","","","learn_trial","40","110","out","0","1","","","","","","","","","","","","","","","","","","","","",""
"","","","","","canvas-keyboard-response","190","290191","0.0-12.0-3.35","2d_cat_multi_stim_exp1","2022-4-13","13:0:17","25","75","3","9","10","40","30","120","36","21","[""White""]","No","Female","1494092","null","null","learn_feedback","","","learn_feedback","40","110","out","","","","","","","","","","","","","","","","","","","","","","",""
"","","","","","canvas-keyboard-response","191","290247","0.0-12.0-4.35","2d_cat_multi_stim_exp1","2022-4-13","13:0:17","25","75","3","9","10","40","30","120","36","21","[""White""]","No","Female","1494092","null","null","","","","clear_screen","","","","","","","","","","","","","","","","","","","","","","","","","",""
"","","","","","canvas-keyboard-response","192","290754","0.0-12.0-0.36","2d_cat_multi_stim_exp1","2022-4-13","13:0:17","25","75","3","9","10","40","30","120","36","21","[""White""]","No","Female","1494092","null","null","","","","fixation","","","","","","","","","","","","","","","","","","","","","","","","","",""
"","","","","","canvas-keyboard-response","193","291261","0.0-12.0-1.36","2d_cat_multi_stim_exp1","2022-4-13","13:0:17","25","75","3","9","10","40","30","120","36","21","[""White""]","No","Female","1494092","null","null","","","","clear_screen","","","","","","","","","","","","","","","","","","","","","","","","","",""
"","","","","","canvas-keyboard-response","194","291908","0.0-12.0-2.36","2d_cat_multi_stim_exp1","2022-4-13","13:0:17","25","75","3","9","10","40","30","120","36","21","[""White""]","No","Female","1494092","637","i","learn","","","learn_trial","30","100","out","0","1","","","","","","","","","","","","","","","","","","","","",""
"","","","","","canvas-keyboard-response","195","292415","0.0-12.0-3.36","2d_cat_multi_stim_exp1","2022-4-13","13:0:17","25","75","3","9","10","40","30","120","36","21","[""White""]","No","Female","1494092","null","null","learn_feedback","","","learn_feedback","30","100","out","","","","","","","","","","","","","","","","","","","","","","",""
"","","","","","canvas-keyboard-response","196","292471","0.0-12.0-4.36","2d_cat_multi_stim_exp1","2022-4-13","13:0:17","25","75","3","9","10","40","30","120","36","21","[""White""]","No","Female","1494092","null","null","","","","clear_screen","","","","","","","","","","","","","","","","","","","","","","","","","",""
"","","","","","canvas-keyboard-response","197","292977","0.0-12.0-0.37","2d_cat_multi_stim_exp1","2022-4-13","13:0:17","25","75","3","9","10","40","30","120","36","21","[""White""]","No","Female","1494092","null","null","","","","fixation","","","","","","","","","","","","","","","","","","","","","","","","","",""
"","","","","","canvas-keyboard-response","198","293483","0.0-12.0-1.37","2d_cat_multi_stim_exp1","2022-4-13","13:0:17","25","75","3","9","10","40","30","120","36","21","[""White""]","No","Female","1494092","null","null","","","","clear_screen","","","","","","","","","","","","","","","","","","","","","","","","","",""
"","","","","","canvas-keyboard-response","199","294675","0.0-12.0-2.37","2d_cat_multi_stim_exp1","2022-4-13","13:0:17","25","75","3","9","10","40","30","120","36","21","[""White""]","No","Female","1494092","1186","i","learn","","","learn_trial","16.6667","110","out","0","1","","","","","","","","","","","","","","","","","","","","",""
"","","","","","canvas-keyboard-response","200","295182","0.0-12.0-3.37","2d_cat_multi_stim_exp1","2022-4-13","13:0:17","25","75","3","9","10","40","30","120","36","21","[""White""]","No","Female","1494092","null","null","learn_feedback","","","learn_feedback","16.6667","110","out","","","","","","","","","","","","","","","","","","","","","","",""
"","","","","","canvas-keyboard-response","201","295238","0.0-12.0-4.37","2d_cat_multi_stim_exp1","2022-4-13","13:0:17","25","75","3","9","10","40","30","120","36","21","[""White""]","No","Female","1494092","null","null","","","","clear_screen","","","","","","","","","","","","","","","","","","","","","","","","","",""
"","","","","","canvas-keyboard-response","202","295745","0.0-12.0-0.38","2d_cat_multi_stim_exp1","2022-4-13","13:0:17","25","75","3","9","10","40","30","120","36","21","[""White""]","No","Female","1494092","null","null","","","","fixation","","","","","","","","","","","","","","","","","","","","","","","","","",""
"","","","","","canvas-keyboard-response","203","296251","0.0-12.0-1.38","2d_cat_multi_stim_exp1","2022-4-13","13:0:17","25","75","3","9","10","40","30","120","36","21","[""White""]","No","Female","1494092","null","null","","","","clear_screen","","","","","","","","","","","","","","","","","","","","","","","","","",""
"","","","","","canvas-keyboard-response","204","297379","0.0-12.0-2.38","2d_cat_multi_stim_exp1","2022-4-13","13:0:17","25","75","3","9","10","40","30","120","36","21","[""White""]","No","Female","1494092","1122","i","learn","","","learn_trial","13.3333","90","out","0","1","","","","","","","","","","","","","","","","","","","","",""
"","","","","","canvas-keyboard-response","205","297886","0.0-12.0-3.38","2d_cat_multi_stim_exp1","2022-4-13","13:0:17","25","75","3","9","10","40","30","120","36","21","[""White""]","No","Female","1494092","null","null","learn_feedback","","","learn_feedback","13.3333","90","out","","","","","","","","","","","","","","","","","","","","","","",""
"","","","","","canvas-keyboard-response","206","297942","0.0-12.0-4.38","2d_cat_multi_stim_exp1","2022-4-13","13:0:17","25","75","3","9","10","40","30","120","36","21","[""White""]","No","Female","1494092","null","null","","","","clear_screen","","","","","","","","","","","","","","","","","","","","","","","","","",""
"","","","","","canvas-keyboard-response","207","298449","0.0-12.0-0.39","2d_cat_multi_stim_exp1","2022-4-13","13:0:17","25","75","3","9","10","40","30","120","36","21","[""White""]","No","Female","1494092","null","null","","","","fixation","","","","","","","","","","","","","","","","","","","","","","","","","",""
"","","","","","canvas-keyboard-response","208","298955","0.0-12.0-1.39","2d_cat_multi_stim_exp1","2022-4-13","13:0:17","25","75","3","9","10","40","30","120","36","21","[""White""]","No","Female","1494092","null","null","","","","clear_screen","","","","","","","","","","","","","","","","","","","","","","","","","",""
"","","","","","canvas-keyboard-response","209","299483","0.0-12.0-2.39","2d_cat_multi_stim_exp1","2022-4-13","13:0:17","25","75","3","9","10","40","30","120","36","21","[""White""]","No","Female","1494092","518","i","learn","","","learn_trial","16.6667","90","out","0","1","","","","","","","","","","","","","","","","","","","","",""
"","","","","","canvas-keyboard-response","210","299990","0.0-12.0-3.39","2d_cat_multi_stim_exp1","2022-4-13","13:0:17","25","75","3","9","10","40","30","120","36","21","[""White""]","No","Female","1494092","null","null","learn_feedback","","","learn_feedback","16.6667","90","out","","","","","","","","","","","","","","","","","","","","","","",""
"","","","","","canvas-keyboard-response","211","300047","0.0-12.0-4.39","2d_cat_multi_stim_exp1","2022-4-13","13:0:17","25","75","3","9","10","40","30","120","36","21","[""White""]","No","Female","1494092","null","null","","","","clear_screen","","","","","","","","","","","","","","","","","","","","","","","","","",""
"","","","","","canvas-keyboard-response","212","300553","0.0-12.0-0.40","2d_cat_multi_stim_exp1","2022-4-13","13:0:17","25","75","3","9","10","40","30","120","36","21","[""White""]","No","Female","1494092","null","null","","","","fixation","","","","","","","","","","","","","","","","","","","","","","","","","",""
"","","","","","canvas-keyboard-response","213","301060","0.0-12.0-1.40","2d_cat_multi_stim_exp1","2022-4-13","13:0:17","25","75","3","9","10","40","30","120","36","21","[""White""]","No","Female","1494092","null","null","","","","clear_screen","","","","","","","","","","","","","","","","","","","","","","","","","",""
"","","","","","canvas-keyboard-response","214","301851","0.0-12.0-2.40","2d_cat_multi_stim_exp1","2022-4-13","13:0:17","25","75","3","9","10","40","30","120","36","21","[""White""]","No","Female","1494092","784","i","learn","","","learn_trial","25","75","in","0","0","","","","","","","","","","","","","","","","","","","","",""
"","","","","","canvas-keyboard-response","215","302858","0.0-12.0-3.40","2d_cat_multi_stim_exp1","2022-4-13","13:0:17","25","75","3","9","10","40","30","120","36","21","[""White""]","No","Female","1494092","null","null","learn_feedback","","","learn_feedback","25","75","in","","","","","","","","","","","","","","","","","","","","","","",""
"","","","","","canvas-keyboard-response","216","302914","0.0-12.0-4.40","2d_cat_multi_stim_exp1","2022-4-13","13:0:17","25","75","3","9","10","40","30","120","36","21","[""White""]","No","Female","1494092","null","null","","","","clear_screen","","","","","","","","","","","","","","","","","","","","","","","","","",""
"","","","","","canvas-keyboard-response","217","303419","0.0-12.0-0.41","2d_cat_multi_stim_exp1","2022-4-13","13:0:17","25","75","3","9","10","40","30","120","36","21","[""White""]","No","Female","1494092","null","null","","","","fixation","","","","","","","","","","","","","","","","","","","","","","","","","",""
"","","","","","canvas-keyboard-response","218","303926","0.0-12.0-1.41","2d_cat_multi_stim_exp1","2022-4-13","13:0:17","25","75","3","9","10","40","30","120","36","21","[""White""]","No","Female","1494092","null","null","","","","clear_screen","","","","","","","","","","","","","","","","","","","","","","","","","",""
"","","","","","canvas-keyboard-response","219","304827","0.0-12.0-2.41","2d_cat_multi_stim_exp1","2022-4-13","13:0:17","25","75","3","9","10","40","30","120","36","21","[""White""]","No","Female","1494092","893","i","learn","","","learn_trial","36.6667","110","out","0","1","","","","","","","","","","","","","","","","","","","","",""
"","","","","","canvas-keyboard-response","220","305334","0.0-12.0-3.41","2d_cat_multi_stim_exp1","2022-4-13","13:0:17","25","75","3","9","10","40","30","120","36","21","[""White""]","No","Female","1494092","null","null","learn_feedback","","","learn_feedback","36.6667","110","out","","","","","","","","","","","","","","","","","","","","","","",""
"","","","","","canvas-keyboard-response","221","305390","0.0-12.0-4.41","2d_cat_multi_stim_exp1","2022-4-13","13:0:17","25","75","3","9","10","40","30","120","36","21","[""White""]","No","Female","1494092","null","null","","","","clear_screen","","","","","","","","","","","","","","","","","","","","","","","","","",""
"","","","","","canvas-keyboard-response","222","305896","0.0-12.0-0.42","2d_cat_multi_stim_exp1","2022-4-13","13:0:17","25","75","3","9","10","40","30","120","36","21","[""White""]","No","Female","1494092","null","null","","","","fixation","","","","","","","","","","","","","","","","","","","","","","","","","",""
"","","","","","canvas-keyboard-response","223","306403","0.0-12.0-1.42","2d_cat_multi_stim_exp1","2022-4-13","13:0:17","25","75","3","9","10","40","30","120","36","21","[""White""]","No","Female","1494092","null","null","","","","clear_screen","","","","","","","","","","","","","","","","","","","","","","","","","",""
"","","","","","canvas-keyboard-response","224","307483","0.0-12.0-2.42","2d_cat_multi_stim_exp1","2022-4-13","13:0:17","25","75","3","9","10","40","30","120","36","21","[""White""]","No","Female","1494092","1069","i","learn","","","learn_trial","10","90","out","0","1","","","","","","","","","","","","","","","","","","","","",""
"","","","","","canvas-keyboard-response","225","307990","0.0-12.0-3.42","2d_cat_multi_stim_exp1","2022-4-13","13:0:17","25","75","3","9","10","40","30","120","36","21","[""White""]","No","Female","1494092","null","null","learn_feedback","","","learn_feedback","10","90","out","","","","","","","","","","","","","","","","","","","","","","",""
"","","","","","canvas-keyboard-response","226","308046","0.0-12.0-4.42","2d_cat_multi_stim_exp1","2022-4-13","13:0:17","25","75","3","9","10","40","30","120","36","21","[""White""]","No","Female","1494092","null","null","","","","clear_screen","","","","","","","","","","","","","","","","","","","","","","","","","",""
"","","","","","canvas-keyboard-response","227","308553","0.0-12.0-0.43","2d_cat_multi_stim_exp1","2022-4-13","13:0:17","25","75","3","9","10","40","30","120","36","21","[""White""]","No","Female","1494092","null","null","","","","fixation","","","","","","","","","","","","","","","","","","","","","","","","","",""
"","","","","","canvas-keyboard-response","228","309062","0.0-12.0-1.43","2d_cat_multi_stim_exp1","2022-4-13","13:0:17","25","75","3","9","10","40","30","120","36","21","[""White""]","No","Female","1494092","null","null","","","","clear_screen","","","","","","","","","","","","","","","","","","","","","","","","","",""
"","","","","","canvas-keyboard-response","229","309475","0.0-12.0-2.43","2d_cat_multi_stim_exp1","2022-4-13","13:0:17","25","75","3","9","10","40","30","120","36","21","[""White""]","No","Female","1494092","407","u","learn","","","learn_trial","25","75","in","1","1","","","","","","","","","","","","","","","","","","","","",""
"","","","","","canvas-keyboard-response","230","309983","0.0-12.0-3.43","2d_cat_multi_stim_exp1","2022-4-13","13:0:17","25","75","3","9","10","40","30","120","36","21","[""White""]","No","Female","1494092","null","null","learn_feedback","","","learn_feedback","25","75","in","","","","","","","","","","","","","","","","","","","","","","",""
"","","","","","canvas-keyboard-response","231","310039","0.0-12.0-4.43","2d_cat_multi_stim_exp1","2022-4-13","13:0:17","25","75","3","9","10","40","30","120","36","21","[""White""]","No","Female","1494092","null","null","","","","clear_screen","","","","","","","","","","","","","","","","","","","","","","","","","",""
"","","","","","canvas-keyboard-response","232","310546","0.0-12.0-0.44","2d_cat_multi_stim_exp1","2022-4-13","13:0:17","25","75","3","9","10","40","30","120","36","21","[""White""]","No","Female","1494092","null","null","","","","fixation","","","","","","","","","","","","","","","","","","","","","","","","","",""
"","","","","","canvas-keyboard-response","233","311052","0.0-12.0-1.44","2d_cat_multi_stim_exp1","2022-4-13","13:0:17","25","75","3","9","10","40","30","120","36","21","[""White""]","No","Female","1494092","null","null","","","","clear_screen","","","","","","","","","","","","","","","","","","","","","","","","","",""
"","","","","","canvas-keyboard-response","234","311474","0.0-12.0-2.44","2d_cat_multi_stim_exp1","2022-4-13","13:0:17","25","75","3","9","10","40","30","120","36","21","[""White""]","No","Female","1494092","415","u","learn","","","learn_trial","26.8705","82.0365","in","1","1","","","","","","","","","","","","","","","","","","","","",""
"","","","","","canvas-keyboard-response","235","311982","0.0-12.0-3.44","2d_cat_multi_stim_exp1","2022-4-13","13:0:17","25","75","3","9","10","40","30","120","36","21","[""White""]","No","Female","1494092","null","null","learn_feedback","","","learn_feedback","26.8705","82.0365","in","","","","","","","","","","","","","","","","","","","","","","",""
"","","","","","canvas-keyboard-response","236","312038","0.0-12.0-4.44","2d_cat_multi_stim_exp1","2022-4-13","13:0:17","25","75","3","9","10","40","30","120","36","21","[""White""]","No","Female","1494092","null","null","","","","clear_screen","","","","","","","","","","","","","","","","","","","","","","","","","",""
"","","","","","canvas-keyboard-response","237","312544","0.0-12.0-0.45","2d_cat_multi_stim_exp1","2022-4-13","13:0:17","25","75","3","9","10","40","30","120","36","21","[""White""]","No","Female","1494092","null","null","","","","fixation","","","","","","","","","","","","","","","","","","","","","","","","","",""
"","","","","","canvas-keyboard-response","238","313051","0.0-12.0-1.45","2d_cat_multi_stim_exp1","2022-4-13","13:0:17","25","75","3","9","10","40","30","120","36","21","[""White""]","No","Female","1494092","null","null","","","","clear_screen","","","","","","","","","","","","","","","","","","","","","","","","","",""
"","","","","","canvas-keyboard-response","239","313491","0.0-12.0-2.45","2d_cat_multi_stim_exp1","2022-4-13","13:0:17","25","75","3","9","10","40","30","120","36","21","[""White""]","No","Female","1494092","431","u","learn","","","learn_trial","30","80","out","1","0","","","","","","","","","","","","","","","","","","","","",""
"","","","","","canvas-keyboard-response","240","314498","0.0-12.0-3.45","2d_cat_multi_stim_exp1","2022-4-13","13:0:17","25","75","3","9","10","40","30","120","36","21","[""White""]","No","Female","1494092","null","null","learn_feedback","","","learn_feedback","30","80","out","","","","","","","","","","","","","","","","","","","","","","",""
"","","","","","canvas-keyboard-response","241","314554","0.0-12.0-4.45","2d_cat_multi_stim_exp1","2022-4-13","13:0:17","25","75","3","9","10","40","30","120","36","21","[""White""]","No","Female","1494092","null","null","","","","clear_screen","","","","","","","","","","","","","","","","","","","","","","","","","",""
"","","","","","canvas-keyboard-response","242","315059","0.0-12.0-0.46","2d_cat_multi_stim_exp1","2022-4-13","13:0:17","25","75","3","9","10","40","30","120","36","21","[""White""]","No","Female","1494092","null","null","","","","fixation","","","","","","","","","","","","","","","","","","","","","","","","","",""
"","","","","","canvas-keyboard-response","243","315566","0.0-12.0-1.46","2d_cat_multi_stim_exp1","2022-4-13","13:0:17","25","75","3","9","10","40","30","120","36","21","[""White""]","No","Female","1494092","null","null","","","","clear_screen","","","","","","","","","","","","","","","","","","","","","","","","","",""
"","","","","","canvas-keyboard-response","244","316332","0.0-12.0-2.46","2d_cat_multi_stim_exp1","2022-4-13","13:0:17","25","75","3","9","10","40","30","120","36","21","[""White""]","No","Female","1494092","758","i","learn","","","learn_trial","13.3333","50","out","0","1","","","","","","","","","","","","","","","","","","","","",""
"","","","","","canvas-keyboard-response","245","316838","0.0-12.0-3.46","2d_cat_multi_stim_exp1","2022-4-13","13:0:17","25","75","3","9","10","40","30","120","36","21","[""White""]","No","Female","1494092","null","null","learn_feedback","","","learn_feedback","13.3333","50","out","","","","","","","","","","","","","","","","","","","","","","",""
"","","","","","canvas-keyboard-response","246","316898","0.0-12.0-4.46","2d_cat_multi_stim_exp1","2022-4-13","13:0:17","25","75","3","9","10","40","30","120","36","21","[""White""]","No","Female","1494092","null","null","","","","clear_screen","","","","","","","","","","","","","","","","","","","","","","","","","",""
"","","","","","canvas-keyboard-response","247","317405","0.0-12.0-0.47","2d_cat_multi_stim_exp1","2022-4-13","13:0:17","25","75","3","9","10","40","30","120","36","21","[""White""]","No","Female","1494092","null","null","","","","fixation","","","","","","","","","","","","","","","","","","","","","","","","","",""
"","","","","","canvas-keyboard-response","248","317912","0.0-12.0-1.47","2d_cat_multi_stim_exp1","2022-4-13","13:0:17","25","75","3","9","10","40","30","120","36","21","[""White""]","No","Female","1494092","null","null","","","","clear_screen","","","","","","","","","","","","","","","","","","","","","","","","","",""
"","","","","","canvas-keyboard-response","249","318867","0.0-12.0-2.47","2d_cat_multi_stim_exp1","2022-4-13","13:0:17","25","75","3","9","10","40","30","120","36","21","[""White""]","No","Female","1494092","947","u","learn","","","learn_trial","24.3324","66.2256","in","1","1","","","","","","","","","","","","","","","","","","","","",""
"","","","","","canvas-keyboard-response","250","319374","0.0-12.0-3.47","2d_cat_multi_stim_exp1","2022-4-13","13:0:17","25","75","3","9","10","40","30","120","36","21","[""White""]","No","Female","1494092","null","null","learn_feedback","","","learn_feedback","24.3324","66.2256","in","","","","","","","","","","","","","","","","","","","","","","",""
"","","","","","canvas-keyboard-response","251","319430","0.0-12.0-4.47","2d_cat_multi_stim_exp1","2022-4-13","13:0:17","25","75","3","9","10","40","30","120","36","21","[""White""]","No","Female","1494092","null","null","","","","clear_screen","","","","","","","","","","","","","","","","","","","","","","","","","",""
"","","","","","canvas-keyboard-response","252","319936","0.0-12.0-0.48","2d_cat_multi_stim_exp1","2022-4-13","13:0:17","25","75","3","9","10","40","30","120","36","21","[""White""]","No","Female","1494092","null","null","","","","fixation","","","","","","","","","","","","","","","","","","","","","","","","","",""
"","","","","","canvas-keyboard-response","253","320444","0.0-12.0-1.48","2d_cat_multi_stim_exp1","2022-4-13","13:0:17","25","75","3","9","10","40","30","120","36","21","[""White""]","No","Female","1494092","null","null","","","","clear_screen","","","","","","","","","","","","","","","","","","","","","","","","","",""
"","","","","","canvas-keyboard-response","254","322227","0.0-12.0-2.48","2d_cat_multi_stim_exp1","2022-4-13","13:0:17","25","75","3","9","10","40","30","120","36","21","[""White""]","No","Female","1494092","1774","u","learn","","","learn_trial","26.6667","90","out","1","0","","","","","","","","","","","","","","","","","","","","",""
"","","","","","canvas-keyboard-response","255","323235","0.0-12.0-3.48","2d_cat_multi_stim_exp1","2022-4-13","13:0:17","25","75","3","9","10","40","30","120","36","21","[""White""]","No","Female","1494092","null","null","learn_feedback","","","learn_feedback","26.6667","90","out","","","","","","","","","","","","","","","","","","","","","","",""
"","","","","","canvas-keyboard-response","256","323293","0.0-12.0-4.48","2d_cat_multi_stim_exp1","2022-4-13","13:0:17","25","75","3","9","10","40","30","120","36","21","[""White""]","No","Female","1494092","null","null","","","","clear_screen","","","","","","","","","","","","","","","","","","","","","","","","","",""
"","","","","","canvas-keyboard-response","257","323805","0.0-12.0-0.49","2d_cat_multi_stim_exp1","2022-4-13","13:0:17","25","75","3","9","10","40","30","120","36","21","[""White""]","No","Female","1494092","null","null","","","","fixation","","","","","","","","","","","","","","","","","","","","","","","","","",""
"","","","","","canvas-keyboard-response","258","324314","0.0-12.0-1.49","2d_cat_multi_stim_exp1","2022-4-13","13:0:17","25","75","3","9","10","40","30","120","36","21","[""White""]","No","Female","1494092","null","null","","","","clear_screen","","","","","","","","","","","","","","","","","","","","","","","","","",""
"","","","","","canvas-keyboard-response","259","324884","0.0-12.0-2.49","2d_cat_multi_stim_exp1","2022-4-13","13:0:17","25","75","3","9","10","40","30","120","36","21","[""White""]","No","Female","1494092","562","u","learn","","","learn_trial","27.9518","73.393","in","1","1","","","","","","","","","","","","","","","","","","","","",""
"","","","","","canvas-keyboard-response","260","325391","0.0-12.0-3.49","2d_cat_multi_stim_exp1","2022-4-13","13:0:17","25","75","3","9","10","40","30","120","36","21","[""White""]","No","Female","1494092","null","null","learn_feedback","","","learn_feedback","27.9518","73.393","in","","","","","","","","","","","","","","","","","","","","","","",""
"","","","","","canvas-keyboard-response","261","325448","0.0-12.0-4.49","2d_cat_multi_stim_exp1","2022-4-13","13:0:17","25","75","3","9","10","40","30","120","36","21","[""White""]","No","Female","1494092","null","null","","","","clear_screen","","","","","","","","","","","","","","","","","","","","","","","","","",""
"","","","","","canvas-keyboard-response","262","325958","0.0-12.0-0.50","2d_cat_multi_stim_exp1","2022-4-13","13:0:17","25","75","3","9","10","40","30","120","36","21","[""White""]","No","Female","1494092","null","null","","","","fixation","","","","","","","","","","","","","","","","","","","","","","","","","",""
"","","","","","canvas-keyboard-response","263","326466","0.0-12.0-1.50","2d_cat_multi_stim_exp1","2022-4-13","13:0:17","25","75","3","9","10","40","30","120","36","21","[""White""]","No","Female","1494092","null","null","","","","clear_screen","","","","","","","","","","","","","","","","","","","","","","","","","",""
"","","","","","canvas-keyboard-response","264","327109","0.0-12.0-2.50","2d_cat_multi_stim_exp1","2022-4-13","13:0:17","25","75","3","9","10","40","30","120","36","21","[""White""]","No","Female","1494092","635","i","learn","","","learn_trial","40","30","out","0","1","","","","","","","","","","","","","","","","","","","","",""
"","","","","","canvas-keyboard-response","265","327616","0.0-12.0-3.50","2d_cat_multi_stim_exp1","2022-4-13","13:0:17","25","75","3","9","10","40","30","120","36","21","[""White""]","No","Female","1494092","null","null","learn_feedback","","","learn_feedback","40","30","out","","","","","","","","","","","","","","","","","","","","","","",""
"","","","","","canvas-keyboard-response","266","327673","0.0-12.0-4.50","2d_cat_multi_stim_exp1","2022-4-13","13:0:17","25","75","3","9","10","40","30","120","36","21","[""White""]","No","Female","1494092","null","null","","","","clear_screen","","","","","","","","","","","","","","","","","","","","","","","","","",""
"","","","","","canvas-keyboard-response","267","328180","0.0-12.0-0.51","2d_cat_multi_stim_exp1","2022-4-13","13:0:17","25","75","3","9","10","40","30","120","36","21","[""White""]","No","Female","1494092","null","null","","","","fixation","","","","","","","","","","","","","","","","","","","","","","","","","",""
"","","","","","canvas-keyboard-response","268","328686","0.0-12.0-1.51","2d_cat_multi_stim_exp1","2022-4-13","13:0:17","25","75","3","9","10","40","30","120","36","21","[""White""]","No","Female","1494092","null","null","","","","clear_screen","","","","","","","","","","","","","","","","","","","","","","","","","",""
"","","","","","canvas-keyboard-response","269","329419","0.0-12.0-2.51","2d_cat_multi_stim_exp1","2022-4-13","13:0:17","25","75","3","9","10","40","30","120","36","21","[""White""]","No","Female","1494092","724","u","learn","","","learn_trial","25","75","in","1","1","","","","","","","","","","","","","","","","","","","","",""
"","","","","","canvas-keyboard-response","270","329927","0.0-12.0-3.51","2d_cat_multi_stim_exp1","2022-4-13","13:0:17","25","75","3","9","10","40","30","120","36","21","[""White""]","No","Female","1494092","null","null","learn_feedback","","","learn_feedback","25","75","in","","","","","","","","","","","","","","","","","","","","","","",""
"","","","","","canvas-keyboard-response","271","329983","0.0-12.0-4.51","2d_cat_multi_stim_exp1","2022-4-13","13:0:17","25","75","3","9","10","40","30","120","36","21","[""White""]","No","Female","1494092","null","null","","","","clear_screen","","","","","","","","","","","","","","","","","","","","","","","","","",""
"","","","","","canvas-keyboard-response","272","330489","0.0-12.0-0.52","2d_cat_multi_stim_exp1","2022-4-13","13:0:17","25","75","3","9","10","40","30","120","36","21","[""White""]","No","Female","1494092","null","null","","","","fixation","","","","","","","","","","","","","","","","","","","","","","","","","",""
"","","","","","canvas-keyboard-response","273","330996","0.0-12.0-1.52","2d_cat_multi_stim_exp1","2022-4-13","13:0:17","25","75","3","9","10","40","30","120","36","21","[""White""]","No","Female","1494092","null","null","","","","clear_screen","","","","","","","","","","","","","","","","","","","","","","","","","",""
"","","","","","canvas-keyboard-response","274","331612","0.0-12.0-2.52","2d_cat_multi_stim_exp1","2022-4-13","13:0:17","25","75","3","9","10","40","30","120","36","21","[""White""]","No","Female","1494092","608","i","learn","","","learn_trial","33.3333","50","out","0","1","","","","","","","","","","","","","","","","","","","","",""
"","","","","","canvas-keyboard-response","275","332119","0.0-12.0-3.52","2d_cat_multi_stim_exp1","2022-4-13","13:0:17","25","75","3","9","10","40","30","120","36","21","[""White""]","No","Female","1494092","null","null","learn_feedback","","","learn_feedback","33.3333","50","out","","","","","","","","","","","","","","","","","","","","","","",""
"","","","","","canvas-keyboard-response","276","332175","0.0-12.0-4.52","2d_cat_multi_stim_exp1","2022-4-13","13:0:17","25","75","3","9","10","40","30","120","36","21","[""White""]","No","Female","1494092","null","null","","","","clear_screen","","","","","","","","","","","","","","","","","","","","","","","","","",""
"","","","","","canvas-keyboard-response","277","332686","0.0-12.0-0.53","2d_cat_multi_stim_exp1","2022-4-13","13:0:17","25","75","3","9","10","40","30","120","36","21","[""White""]","No","Female","1494092","null","null","","","","fixation","","","","","","","","","","","","","","","","","","","","","","","","","",""
"","","","","","canvas-keyboard-response","278","333193","0.0-12.0-1.53","2d_cat_multi_stim_exp1","2022-4-13","13:0:17","25","75","3","9","10","40","30","120","36","21","[""White""]","No","Female","1494092","null","null","","","","clear_screen","","","","","","","","","","","","","","","","","","","","","","","","","",""
"","","","","","canvas-keyboard-response","279","333803","0.0-12.0-2.53","2d_cat_multi_stim_exp1","2022-4-13","13:0:17","25","75","3","9","10","40","30","120","36","21","[""White""]","No","Female","1494092","604","u","learn","","","learn_trial","36.6667","80","out","1","0","","","","","","","","","","","","","","","","","","","","",""
"","","","","","canvas-keyboard-response","280","334811","0.0-12.0-3.53","2d_cat_multi_stim_exp1","2022-4-13","13:0:17","25","75","3","9","10","40","30","120","36","21","[""White""]","No","Female","1494092","null","null","learn_feedback","","","learn_feedback","36.6667","80","out","","","","","","","","","","","","","","","","","","","","","","",""
"","","","","","canvas-keyboard-response","281","334867","0.0-12.0-4.53","2d_cat_multi_stim_exp1","2022-4-13","13:0:17","25","75","3","9","10","40","30","120","36","21","[""White""]","No","Female","1494092","null","null","","","","clear_screen","","","","","","","","","","","","","","","","","","","","","","","","","",""
"","","","","","canvas-keyboard-response","282","335374","0.0-12.0-0.54","2d_cat_multi_stim_exp1","2022-4-13","13:0:17","25","75","3","9","10","40","30","120","36","21","[""White""]","No","Female","1494092","null","null","","","","fixation","","","","","","","","","","","","","","","","","","","","","","","","","",""
"","","","","","canvas-keyboard-response","283","335880","0.0-12.0-1.54","2d_cat_multi_stim_exp1","2022-4-13","13:0:17","25","75","3","9","10","40","30","120","36","21","[""White""]","No","Female","1494092","null","null","","","","clear_screen","","","","","","","","","","","","","","","","","","","","","","","","","",""
"","","","","","canvas-keyboard-response","284","336594","0.0-12.0-2.54","2d_cat_multi_stim_exp1","2022-4-13","13:0:17","25","75","3","9","10","40","30","120","36","21","[""White""]","No","Female","1494092","708","i","learn","","","learn_trial","23.3333","30","out","0","1","","","","","","","","","","","","","","","","","","","","",""
"","","","","","canvas-keyboard-response","285","337101","0.0-12.0-3.54","2d_cat_multi_stim_exp1","2022-4-13","13:0:17","25","75","3","9","10","40","30","120","36","21","[""White""]","No","Female","1494092","null","null","learn_feedback","","","learn_feedback","23.3333","30","out","","","","","","","","","","","","","","","","","","","","","","",""
"","","","","","canvas-keyboard-response","286","337158","0.0-12.0-4.54","2d_cat_multi_stim_exp1","2022-4-13","13:0:17","25","75","3","9","10","40","30","120","36","21","[""White""]","No","Female","1494092","null","null","","","","clear_screen","","","","","","","","","","","","","","","","","","","","","","","","","",""
"","","","","","canvas-keyboard-response","287","337664","0.0-12.0-0.55","2d_cat_multi_stim_exp1","2022-4-13","13:0:17","25","75","3","9","10","40","30","120","36","21","[""White""]","No","Female","1494092","null","null","","","","fixation","","","","","","","","","","","","","","","","","","","","","","","","","",""
"","","","","","canvas-keyboard-response","288","338170","0.0-12.0-1.55","2d_cat_multi_stim_exp1","2022-4-13","13:0:17","25","75","3","9","10","40","30","120","36","21","[""White""]","No","Female","1494092","null","null","","","","clear_screen","","","","","","","","","","","","","","","","","","","","","","","","","",""
"","","","","","canvas-keyboard-response","289","338698","0.0-12.0-2.55","2d_cat_multi_stim_exp1","2022-4-13","13:0:17","25","75","3","9","10","40","30","120","36","21","[""White""]","No","Female","1494092","521","i","learn","","","learn_trial","30","30","out","0","1","","","","","","","","","","","","","","","","","","","","",""
"","","","","","canvas-keyboard-response","290","339206","0.0-12.0-3.55","2d_cat_multi_stim_exp1","2022-4-13","13:0:17","25","75","3","9","10","40","30","120","36","21","[""White""]","No","Female","1494092","null","null","learn_feedback","","","learn_feedback","30","30","out","","","","","","","","","","","","","","","","","","","","","","",""
"","","","","","canvas-keyboard-response","291","339262","0.0-12.0-4.55","2d_cat_multi_stim_exp1","2022-4-13","13:0:17","25","75","3","9","10","40","30","120","36","21","[""White""]","No","Female","1494092","null","null","","","","clear_screen","","","","","","","","","","","","","","","","","","","","","","","","","",""
"","","","","","canvas-keyboard-response","292","339773","0.0-12.0-0.56","2d_cat_multi_stim_exp1","2022-4-13","13:0:17","25","75","3","9","10","40","30","120","36","21","[""White""]","No","Female","1494092","null","null","","","","fixation","","","","","","","","","","","","","","","","","","","","","","","","","",""
"","","","","","canvas-keyboard-response","293","340280","0.0-12.0-1.56","2d_cat_multi_stim_exp1","2022-4-13","13:0:17","25","75","3","9","10","40","30","120","36","21","[""White""]","No","Female","1494092","null","null","","","","clear_screen","","","","","","","","","","","","","","","","","","","","","","","","","",""
"","","","","","canvas-keyboard-response","294","340755","0.0-12.0-2.56","2d_cat_multi_stim_exp1","2022-4-13","13:0:17","25","75","3","9","10","40","30","120","36","21","[""White""]","No","Female","1494092","468","i","learn","","","learn_trial","20","30","out","0","1","","","","","","","","","","","","","","","","","","","","",""
"","","","","","canvas-keyboard-response","295","341262","0.0-12.0-3.56","2d_cat_multi_stim_exp1","2022-4-13","13:0:17","25","75","3","9","10","40","30","120","36","21","[""White""]","No","Female","1494092","null","null","learn_feedback","","","learn_feedback","20","30","out","","","","","","","","","","","","","","","","","","","","","","",""
"","","","","","canvas-keyboard-response","296","341318","0.0-12.0-4.56","2d_cat_multi_stim_exp1","2022-4-13","13:0:17","25","75","3","9","10","40","30","120","36","21","[""White""]","No","Female","1494092","null","null","","","","clear_screen","","","","","","","","","","","","","","","","","","","","","","","","","",""
"","","","","","canvas-keyboard-response","297","341823","0.0-12.0-0.57","2d_cat_multi_stim_exp1","2022-4-13","13:0:17","25","75","3","9","10","40","30","120","36","21","[""White""]","No","Female","1494092","null","null","","","","fixation","","","","","","","","","","","","","","","","","","","","","","","","","",""
