"success","timeout","failed_images","failed_audio","failed_video","trial_type","trial_index","time_elapsed","internal_node_id","exp_name","date","time","angle_mean_in","radius_mean_in","angle_sd_in","radius_sd_in","angle_min_out","angle_max_out","radius_min_out","radius_max_out","sub_n","age","race","ethnicity","gender","exp_duration","rt","response","exp_trial_type","stimulus","view_history","screen_id","angle","radius","distribution","choice","correct","order","angle_a","radius_a","angle_b","radius_b","angle_c","radius_c","jkl_correct","transfer_trial_type","choice_set","abc_correct","tc_correct","tc_angle","tdc_a","tdc_b","tdc_c","pair","category_a","category_b","category_c","question_order"
"true","false","[]","[]","[]","preload","0","24","0.0-0.0","2d_cat_multi_stim_exp1","2022-4-19","15:17:22","25","75","3","9","10","40","30","120","44","19","[""White""]","No","Male","2184075","","","","","","","","","","","","","","","","","","","","","","","","","","","","","","","",""
"","","","","","survey-html-form","1","2071","0.0-1.0","2d_cat_multi_stim_exp1","2022-4-19","15:17:22","25","75","3","9","10","40","30","120","44","19","[""White""]","No","Male","2184075","2027","{""response"":""44""}","enter-sub-number","","","","","","","","","","","","","","","","","","","","","","","","","","","","",""
"true","","","","","fullscreen","2","4664","0.0-2.0","2d_cat_multi_stim_exp1","2022-4-19","15:17:22","25","75","3","9","10","40","30","120","44","19","[""White""]","No","Male","2184075","","","","","","","","","","","","","","","","","","","","","","","","","","","","","","","",""
"","","","","","image-button-response","3","436650","0.0-3.0","2d_cat_multi_stim_exp1","2022-4-19","15:17:22","25","75","3","9","10","40","30","120","44","19","[""White""]","No","Male","2184075","431977","0","","consent.png","","","","","","","","","","","","","","","","","","","","","","","","","","","",""
"","","","","","html-button-response","4","442992","0.0-4.0","2d_cat_multi_stim_exp1","2022-4-19","15:17:22","25","75","3","9","10","40","30","120","44","19","[""White""]","No","Male","2184075","6338","0","","<div style= ""font-size:25px;"" <p> <strong> Welcome to the experiment! </strong><br> <p style=""color:#8B0000; font-size:25px;""><strong> Please do NOT exit full screen until you are done with the experiment. </strong> </p><p style=""font-size:25px;color:#8B0000;""> <strong> The experiment will be canceled and your data will be lost <br> if you try to go back or refresh the page at any point during the experiment.</strong> </p><br><p> <strong> Thanks in advance for your contribution to our research! </strong></p>","","","","","","","","","","","","","","","","","","","","","","","","","","","",""
"","","","","","instructions","5","482688","0.0-5.0","2d_cat_multi_stim_exp1","2022-4-19","15:17:22","25","75","3","9","10","40","30","120","44","19","[""White""]","No","Male","2184075","39690","","","","[{""page_index"":0,""viewing_time"":5136},{""page_index"":1,""viewing_time"":3393},{""page_index"":2,""viewing_time"":18160},{""page_index"":3,""viewing_time"":13001}]","instructions_1","","","","","","","","","","","","","","","","","","","","","","","","","",""
"","","","","","instructions","6","484608","0.0-6.0","2d_cat_multi_stim_exp1","2022-4-19","15:17:22","25","75","3","9","10","40","30","120","44","19","[""White""]","No","Male","2184075","1917","","","","[{""page_index"":0,""viewing_time"":1917}]","Click to see the kinds of turtles that will appear in the study.","","","","","","","","","","","","","","","","","","","","","","","","","",""
"","","","","","canvas-keyboard-response","7","499624","0.0-7.0","2d_cat_multi_stim_exp1","2022-4-19","15:17:22","25","75","3","9","10","40","30","120","44","19","[""White""]","No","Male","2184075","null","null","","","","demo_range","","","","","","","","","","","","","","","","","","","","","","","","","",""
"","","","","","instructions","8","502497","0.0-8.0","2d_cat_multi_stim_exp1","2022-4-19","15:17:22","25","75","3","9","10","40","30","120","44","19","[""White""]","No","Male","2184075","2371","","","","[{""page_index"":0,""viewing_time"":2371}]","Click to see some turtles in the subspecies.","","","","","","","","","","","","","","","","","","","","","","","","","",""
"","","","","","canvas-keyboard-response","9","517509","0.0-9.0","2d_cat_multi_stim_exp1","2022-4-19","15:17:22","25","75","3","9","10","40","30","120","44","19","[""White""]","No","Male","2184075","null","null","","","","demo_in","","","","","","","","","","","","","","","","","","","","","","","","","",""
"","","","","","instructions","10","557464","0.0-10.0","2d_cat_multi_stim_exp1","2022-4-19","15:17:22","25","75","3","9","10","40","30","120","44","19","[""White""]","No","Male","2184075","39452","","","","[{""page_index"":0,""viewing_time"":7851},{""page_index"":1,""viewing_time"":25456},{""page_index"":2,""viewing_time"":6145}]","instructions_2","","","","","","","","","","","","","","","","","","","","","","","","","",""
"","","","","","instructions","11","559318","0.0-11.0","2d_cat_multi_stim_exp1","2022-4-19","15:17:22","25","75","3","9","10","40","30","120","44","19","[""White""]","No","Male","2184075","1852","","","","[{""page_index"":0,""viewing_time"":1852}]","Click to begin the first phase of the experiment.","","","","","","","","","","","","","","","","","","","","","","","","","",""
"","","","","","canvas-keyboard-response","12","559828","0.0-12.0-0.0","2d_cat_multi_stim_exp1","2022-4-19","15:17:22","25","75","3","9","10","40","30","120","44","19","[""White""]","No","Male","2184075","null","null","","","","fixation","","","","","","","","","","","","","","","","","","","","","","","","","",""
"","","","","","canvas-keyboard-response","13","560341","0.0-12.0-1.0","2d_cat_multi_stim_exp1","2022-4-19","15:17:22","25","75","3","9","10","40","30","120","44","19","[""White""]","No","Male","2184075","null","null","","","","clear_screen","","","","","","","","","","","","","","","","","","","","","","","","","",""
"","","","","","canvas-keyboard-response","14","565767","0.0-12.0-2.0","2d_cat_multi_stim_exp1","2022-4-19","15:17:22","25","75","3","9","10","40","30","120","44","19","[""White""]","No","Male","2184075","5414","u","learn","","","learn_trial","25","75","in","1","1","","","","","","","","","","","","","","","","","","","","",""
"","","","","","canvas-keyboard-response","15","566280","0.0-12.0-3.0","2d_cat_multi_stim_exp1","2022-4-19","15:17:22","25","75","3","9","10","40","30","120","44","19","[""White""]","No","Male","2184075","null","null","learn_feedback","","","learn_feedback","25","75","in","","","","","","","","","","","","","","","","","","","","","","",""
"","","","","","canvas-keyboard-response","16","566342","0.0-12.0-4.0","2d_cat_multi_stim_exp1","2022-4-19","15:17:22","25","75","3","9","10","40","30","120","44","19","[""White""]","No","Male","2184075","null","null","","","","clear_screen","","","","","","","","","","","","","","","","","","","","","","","","","",""
"","","","","","canvas-keyboard-response","17","566851","0.0-12.0-0.1","2d_cat_multi_stim_exp1","2022-4-19","15:17:22","25","75","3","9","10","40","30","120","44","19","[""White""]","No","Male","2184075","null","null","","","","fixation","","","","","","","","","","","","","","","","","","","","","","","","","",""
"","","","","","canvas-keyboard-response","18","567364","0.0-12.0-1.1","2d_cat_multi_stim_exp1","2022-4-19","15:17:22","25","75","3","9","10","40","30","120","44","19","[""White""]","No","Male","2184075","null","null","","","","clear_screen","","","","","","","","","","","","","","","","","","","","","","","","","",""
"","","","","","canvas-keyboard-response","19","569399","0.0-12.0-2.1","2d_cat_multi_stim_exp1","2022-4-19","15:17:22","25","75","3","9","10","40","30","120","44","19","[""White""]","No","Male","2184075","2025","u","learn","","","learn_trial","25","75","in","1","1","","","","","","","","","","","","","","","","","","","","",""
"","","","","","canvas-keyboard-response","20","569911","0.0-12.0-3.1","2d_cat_multi_stim_exp1","2022-4-19","15:17:22","25","75","3","9","10","40","30","120","44","19","[""White""]","No","Male","2184075","null","null","learn_feedback","","","learn_feedback","25","75","in","","","","","","","","","","","","","","","","","","","","","","",""
"","","","","","canvas-keyboard-response","21","569976","0.0-12.0-4.1","2d_cat_multi_stim_exp1","2022-4-19","15:17:22","25","75","3","9","10","40","30","120","44","19","[""White""]","No","Male","2184075","null","null","","","","clear_screen","","","","","","","","","","","","","","","","","","","","","","","","","",""
"","","","","","canvas-keyboard-response","22","570484","0.0-12.0-0.2","2d_cat_multi_stim_exp1","2022-4-19","15:17:22","25","75","3","9","10","40","30","120","44","19","[""White""]","No","Male","2184075","null","null","","","","fixation","","","","","","","","","","","","","","","","","","","","","","","","","",""
"","","","","","canvas-keyboard-response","23","570995","0.0-12.0-1.2","2d_cat_multi_stim_exp1","2022-4-19","15:17:22","25","75","3","9","10","40","30","120","44","19","[""White""]","No","Male","2184075","null","null","","","","clear_screen","","","","","","","","","","","","","","","","","","","","","","","","","",""
"","","","","","canvas-keyboard-response","24","572191","0.0-12.0-2.2","2d_cat_multi_stim_exp1","2022-4-19","15:17:22","25","75","3","9","10","40","30","120","44","19","[""White""]","No","Male","2184075","1188","i","learn","","","learn_trial","10","110","out","0","1","","","","","","","","","","","","","","","","","","","","",""
"","","","","","canvas-keyboard-response","25","572701","0.0-12.0-3.2","2d_cat_multi_stim_exp1","2022-4-19","15:17:22","25","75","3","9","10","40","30","120","44","19","[""White""]","No","Male","2184075","null","null","learn_feedback","","","learn_feedback","10","110","out","","","","","","","","","","","","","","","","","","","","","","",""
"","","","","","canvas-keyboard-response","26","572764","0.0-12.0-4.2","2d_cat_multi_stim_exp1","2022-4-19","15:17:22","25","75","3","9","10","40","30","120","44","19","[""White""]","No","Male","2184075","null","null","","","","clear_screen","","","","","","","","","","","","","","","","","","","","","","","","","",""
"","","","","","canvas-keyboard-response","27","573272","0.0-12.0-0.3","2d_cat_multi_stim_exp1","2022-4-19","15:17:22","25","75","3","9","10","40","30","120","44","19","[""White""]","No","Male","2184075","null","null","","","","fixation","","","","","","","","","","","","","","","","","","","","","","","","","",""
"","","","","","canvas-keyboard-response","28","573784","0.0-12.0-1.3","2d_cat_multi_stim_exp1","2022-4-19","15:17:22","25","75","3","9","10","40","30","120","44","19","[""White""]","No","Male","2184075","null","null","","","","clear_screen","","","","","","","","","","","","","","","","","","","","","","","","","",""
"","","","","","canvas-keyboard-response","29","575183","0.0-12.0-2.3","2d_cat_multi_stim_exp1","2022-4-19","15:17:22","25","75","3","9","10","40","30","120","44","19","[""White""]","No","Male","2184075","1390","u","learn","","","learn_trial","20","90","out","1","0","","","","","","","","","","","","","","","","","","","","",""
"","","","","","canvas-keyboard-response","30","576196","0.0-12.0-3.3","2d_cat_multi_stim_exp1","2022-4-19","15:17:22","25","75","3","9","10","40","30","120","44","19","[""White""]","No","Male","2184075","null","null","learn_feedback","","","learn_feedback","20","90","out","","","","","","","","","","","","","","","","","","","","","","",""
"","","","","","canvas-keyboard-response","31","576255","0.0-12.0-4.3","2d_cat_multi_stim_exp1","2022-4-19","15:17:22","25","75","3","9","10","40","30","120","44","19","[""White""]","No","Male","2184075","null","null","","","","clear_screen","","","","","","","","","","","","","","","","","","","","","","","","","",""
"","","","","","canvas-keyboard-response","32","576763","0.0-12.0-0.4","2d_cat_multi_stim_exp1","2022-4-19","15:17:22","25","75","3","9","10","40","30","120","44","19","[""White""]","No","Male","2184075","null","null","","","","fixation","","","","","","","","","","","","","","","","","","","","","","","","","",""
"","","","","","canvas-keyboard-response","33","577274","0.0-12.0-1.4","2d_cat_multi_stim_exp1","2022-4-19","15:17:22","25","75","3","9","10","40","30","120","44","19","[""White""]","No","Male","2184075","null","null","","","","clear_screen","","","","","","","","","","","","","","","","","","","","","","","","","",""
"","","","","","canvas-keyboard-response","34","578471","0.0-12.0-2.4","2d_cat_multi_stim_exp1","2022-4-19","15:17:22","25","75","3","9","10","40","30","120","44","19","[""White""]","No","Male","2184075","1188","u","learn","","","learn_trial","27.8087","71.8376","in","1","1","","","","","","","","","","","","","","","","","","","","",""
"","","","","","canvas-keyboard-response","35","578982","0.0-12.0-3.4","2d_cat_multi_stim_exp1","2022-4-19","15:17:22","25","75","3","9","10","40","30","120","44","19","[""White""]","No","Male","2184075","null","null","learn_feedback","","","learn_feedback","27.8087","71.8376","in","","","","","","","","","","","","","","","","","","","","","","",""
"","","","","","canvas-keyboard-response","36","579043","0.0-12.0-4.4","2d_cat_multi_stim_exp1","2022-4-19","15:17:22","25","75","3","9","10","40","30","120","44","19","[""White""]","No","Male","2184075","null","null","","","","clear_screen","","","","","","","","","","","","","","","","","","","","","","","","","",""
"","","","","","canvas-keyboard-response","37","579554","0.0-12.0-0.5","2d_cat_multi_stim_exp1","2022-4-19","15:17:22","25","75","3","9","10","40","30","120","44","19","[""White""]","No","Male","2184075","null","null","","","","fixation","","","","","","","","","","","","","","","","","","","","","","","","","",""
"","","","","","canvas-keyboard-response","38","580067","0.0-12.0-1.5","2d_cat_multi_stim_exp1","2022-4-19","15:17:22","25","75","3","9","10","40","30","120","44","19","[""White""]","No","Male","2184075","null","null","","","","clear_screen","","","","","","","","","","","","","","","","","","","","","","","","","",""
"","","","","","canvas-keyboard-response","39","581167","0.0-12.0-2.5","2d_cat_multi_stim_exp1","2022-4-19","15:17:22","25","75","3","9","10","40","30","120","44","19","[""White""]","No","Male","2184075","1089","u","learn","","","learn_trial","23.3333","40","out","1","0","","","","","","","","","","","","","","","","","","","","",""
"","","","","","canvas-keyboard-response","40","582179","0.0-12.0-3.5","2d_cat_multi_stim_exp1","2022-4-19","15:17:22","25","75","3","9","10","40","30","120","44","19","[""White""]","No","Male","2184075","null","null","learn_feedback","","","learn_feedback","23.3333","40","out","","","","","","","","","","","","","","","","","","","","","","",""
"","","","","","canvas-keyboard-response","41","582239","0.0-12.0-4.5","2d_cat_multi_stim_exp1","2022-4-19","15:17:22","25","75","3","9","10","40","30","120","44","19","[""White""]","No","Male","2184075","null","null","","","","clear_screen","","","","","","","","","","","","","","","","","","","","","","","","","",""
"","","","","","canvas-keyboard-response","42","582748","0.0-12.0-0.6","2d_cat_multi_stim_exp1","2022-4-19","15:17:22","25","75","3","9","10","40","30","120","44","19","[""White""]","No","Male","2184075","null","null","","","","fixation","","","","","","","","","","","","","","","","","","","","","","","","","",""
"","","","","","canvas-keyboard-response","43","583260","0.0-12.0-1.6","2d_cat_multi_stim_exp1","2022-4-19","15:17:22","25","75","3","9","10","40","30","120","44","19","[""White""]","No","Male","2184075","null","null","","","","clear_screen","","","","","","","","","","","","","","","","","","","","","","","","","",""
"","","","","","canvas-keyboard-response","44","583854","0.0-12.0-2.6","2d_cat_multi_stim_exp1","2022-4-19","15:17:22","25","75","3","9","10","40","30","120","44","19","[""White""]","No","Male","2184075","587","u","learn","","","learn_trial","25","75","in","1","1","","","","","","","","","","","","","","","","","","","","",""
"","","","","","canvas-keyboard-response","45","584366","0.0-12.0-3.6","2d_cat_multi_stim_exp1","2022-4-19","15:17:22","25","75","3","9","10","40","30","120","44","19","[""White""]","No","Male","2184075","null","null","learn_feedback","","","learn_feedback","25","75","in","","","","","","","","","","","","","","","","","","","","","","",""
"","","","","","canvas-keyboard-response","46","584425","0.0-12.0-4.6","2d_cat_multi_stim_exp1","2022-4-19","15:17:22","25","75","3","9","10","40","30","120","44","19","[""White""]","No","Male","2184075","null","null","","","","clear_screen","","","","","","","","","","","","","","","","","","","","","","","","","",""
"","","","","","canvas-keyboard-response","47","584934","0.0-12.0-0.7","2d_cat_multi_stim_exp1","2022-4-19","15:17:22","25","75","3","9","10","40","30","120","44","19","[""White""]","No","Male","2184075","null","null","","","","fixation","","","","","","","","","","","","","","","","","","","","","","","","","",""
"","","","","","canvas-keyboard-response","48","585444","0.0-12.0-1.7","2d_cat_multi_stim_exp1","2022-4-19","15:17:22","25","75","3","9","10","40","30","120","44","19","[""White""]","No","Male","2184075","null","null","","","","clear_screen","","","","","","","","","","","","","","","","","","","","","","","","","",""
"","","","","","canvas-keyboard-response","49","586184","0.0-12.0-2.7","2d_cat_multi_stim_exp1","2022-4-19","15:17:22","25","75","3","9","10","40","30","120","44","19","[""White""]","No","Male","2184075","729","i","learn","","","learn_trial","25","75","in","0","0","","","","","","","","","","","","","","","","","","","","",""
"","","","","","canvas-keyboard-response","50","587198","0.0-12.0-3.7","2d_cat_multi_stim_exp1","2022-4-19","15:17:22","25","75","3","9","10","40","30","120","44","19","[""White""]","No","Male","2184075","null","null","learn_feedback","","","learn_feedback","25","75","in","","","","","","","","","","","","","","","","","","","","","","",""
"","","","","","canvas-keyboard-response","51","587260","0.0-12.0-4.7","2d_cat_multi_stim_exp1","2022-4-19","15:17:22","25","75","3","9","10","40","30","120","44","19","[""White""]","No","Male","2184075","null","null","","","","clear_screen","","","","","","","","","","","","","","","","","","","","","","","","","",""
"","","","","","canvas-keyboard-response","52","587769","0.0-12.0-0.8","2d_cat_multi_stim_exp1","2022-4-19","15:17:22","25","75","3","9","10","40","30","120","44","19","[""White""]","No","Male","2184075","null","null","","","","fixation","","","","","","","","","","","","","","","","","","","","","","","","","",""
"","","","","","canvas-keyboard-response","53","588280","0.0-12.0-1.8","2d_cat_multi_stim_exp1","2022-4-19","15:17:22","25","75","3","9","10","40","30","120","44","19","[""White""]","No","Male","2184075","null","null","","","","clear_screen","","","","","","","","","","","","","","","","","","","","","","","","","",""
"","","","","","canvas-keyboard-response","54","589919","0.0-12.0-2.8","2d_cat_multi_stim_exp1","2022-4-19","15:17:22","25","75","3","9","10","40","30","120","44","19","[""White""]","No","Male","2184075","1629","i","learn","","","learn_trial","13.3333","110","out","0","1","","","","","","","","","","","","","","","","","","","","",""
"","","","","","canvas-keyboard-response","55","590429","0.0-12.0-3.8","2d_cat_multi_stim_exp1","2022-4-19","15:17:22","25","75","3","9","10","40","30","120","44","19","[""White""]","No","Male","2184075","null","null","learn_feedback","","","learn_feedback","13.3333","110","out","","","","","","","","","","","","","","","","","","","","","","",""
"","","","","","canvas-keyboard-response","56","590491","0.0-12.0-4.8","2d_cat_multi_stim_exp1","2022-4-19","15:17:22","25","75","3","9","10","40","30","120","44","19","[""White""]","No","Male","2184075","null","null","","","","clear_screen","","","","","","","","","","","","","","","","","","","","","","","","","",""
"","","","","","canvas-keyboard-response","57","591000","0.0-12.0-0.9","2d_cat_multi_stim_exp1","2022-4-19","15:17:22","25","75","3","9","10","40","30","120","44","19","[""White""]","No","Male","2184075","null","null","","","","fixation","","","","","","","","","","","","","","","","","","","","","","","","","",""
"","","","","","canvas-keyboard-response","58","591512","0.0-12.0-1.9","2d_cat_multi_stim_exp1","2022-4-19","15:17:22","25","75","3","9","10","40","30","120","44","19","[""White""]","No","Male","2184075","null","null","","","","clear_screen","","","","","","","","","","","","","","","","","","","","","","","","","",""
"","","","","","canvas-keyboard-response","59","592207","0.0-12.0-2.9","2d_cat_multi_stim_exp1","2022-4-19","15:17:22","25","75","3","9","10","40","30","120","44","19","[""White""]","No","Male","2184075","685","u","learn","","","learn_trial","25","75","in","1","1","","","","","","","","","","","","","","","","","","","","",""
"","","","","","canvas-keyboard-response","60","592716","0.0-12.0-3.9","2d_cat_multi_stim_exp1","2022-4-19","15:17:22","25","75","3","9","10","40","30","120","44","19","[""White""]","No","Male","2184075","null","null","learn_feedback","","","learn_feedback","25","75","in","","","","","","","","","","","","","","","","","","","","","","",""
"","","","","","canvas-keyboard-response","61","592776","0.0-12.0-4.9","2d_cat_multi_stim_exp1","2022-4-19","15:17:22","25","75","3","9","10","40","30","120","44","19","[""White""]","No","Male","2184075","null","null","","","","clear_screen","","","","","","","","","","","","","","","","","","","","","","","","","",""
"","","","","","canvas-keyboard-response","62","593286","0.0-12.0-0.10","2d_cat_multi_stim_exp1","2022-4-19","15:17:22","25","75","3","9","10","40","30","120","44","19","[""White""]","No","Male","2184075","null","null","","","","fixation","","","","","","","","","","","","","","","","","","","","","","","","","",""
"","","","","","canvas-keyboard-response","63","593800","0.0-12.0-1.10","2d_cat_multi_stim_exp1","2022-4-19","15:17:22","25","75","3","9","10","40","30","120","44","19","[""White""]","No","Male","2184075","null","null","","","","clear_screen","","","","","","","","","","","","","","","","","","","","","","","","","",""
"","","","","","canvas-keyboard-response","64","594526","0.0-12.0-2.10","2d_cat_multi_stim_exp1","2022-4-19","15:17:22","25","75","3","9","10","40","30","120","44","19","[""White""]","No","Male","2184075","720","u","learn","","","learn_trial","26.6667","100","out","1","0","","","","","","","","","","","","","","","","","","","","",""
"","","","","","canvas-keyboard-response","65","595535","0.0-12.0-3.10","2d_cat_multi_stim_exp1","2022-4-19","15:17:22","25","75","3","9","10","40","30","120","44","19","[""White""]","No","Male","2184075","null","null","learn_feedback","","","learn_feedback","26.6667","100","out","","","","","","","","","","","","","","","","","","","","","","",""
"","","","","","canvas-keyboard-response","66","595594","0.0-12.0-4.10","2d_cat_multi_stim_exp1","2022-4-19","15:17:22","25","75","3","9","10","40","30","120","44","19","[""White""]","No","Male","2184075","null","null","","","","clear_screen","","","","","","","","","","","","","","","","","","","","","","","","","",""
"","","","","","canvas-keyboard-response","67","596103","0.0-12.0-0.11","2d_cat_multi_stim_exp1","2022-4-19","15:17:22","25","75","3","9","10","40","30","120","44","19","[""White""]","No","Male","2184075","null","null","","","","fixation","","","","","","","","","","","","","","","","","","","","","","","","","",""
"","","","","","canvas-keyboard-response","68","596615","0.0-12.0-1.11","2d_cat_multi_stim_exp1","2022-4-19","15:17:22","25","75","3","9","10","40","30","120","44","19","[""White""]","No","Male","2184075","null","null","","","","clear_screen","","","","","","","","","","","","","","","","","","","","","","","","","",""
"","","","","","canvas-keyboard-response","69","597271","0.0-12.0-2.11","2d_cat_multi_stim_exp1","2022-4-19","15:17:22","25","75","3","9","10","40","30","120","44","19","[""White""]","No","Male","2184075","646","u","learn","","","learn_trial","33.3333","90","out","1","0","","","","","","","","","","","","","","","","","","","","",""
"","","","","","canvas-keyboard-response","70","598282","0.0-12.0-3.11","2d_cat_multi_stim_exp1","2022-4-19","15:17:22","25","75","3","9","10","40","30","120","44","19","[""White""]","No","Male","2184075","null","null","learn_feedback","","","learn_feedback","33.3333","90","out","","","","","","","","","","","","","","","","","","","","","","",""
"","","","","","canvas-keyboard-response","71","598342","0.0-12.0-4.11","2d_cat_multi_stim_exp1","2022-4-19","15:17:22","25","75","3","9","10","40","30","120","44","19","[""White""]","No","Male","2184075","null","null","","","","clear_screen","","","","","","","","","","","","","","","","","","","","","","","","","",""
"","","","","","canvas-keyboard-response","72","598850","0.0-12.0-0.12","2d_cat_multi_stim_exp1","2022-4-19","15:17:22","25","75","3","9","10","40","30","120","44","19","[""White""]","No","Male","2184075","null","null","","","","fixation","","","","","","","","","","","","","","","","","","","","","","","","","",""
"","","","","","canvas-keyboard-response","73","599363","0.0-12.0-1.12","2d_cat_multi_stim_exp1","2022-4-19","15:17:22","25","75","3","9","10","40","30","120","44","19","[""White""]","No","Male","2184075","null","null","","","","clear_screen","","","","","","","","","","","","","","","","","","","","","","","","","",""
"","","","","","canvas-keyboard-response","74","600167","0.0-12.0-2.12","2d_cat_multi_stim_exp1","2022-4-19","15:17:22","25","75","3","9","10","40","30","120","44","19","[""White""]","No","Male","2184075","796","i","learn","","","learn_trial","36.6667","120","out","0","1","","","","","","","","","","","","","","","","","","","","",""
"","","","","","canvas-keyboard-response","75","600676","0.0-12.0-3.12","2d_cat_multi_stim_exp1","2022-4-19","15:17:22","25","75","3","9","10","40","30","120","44","19","[""White""]","No","Male","2184075","null","null","learn_feedback","","","learn_feedback","36.6667","120","out","","","","","","","","","","","","","","","","","","","","","","",""
"","","","","","canvas-keyboard-response","76","600740","0.0-12.0-4.12","2d_cat_multi_stim_exp1","2022-4-19","15:17:22","25","75","3","9","10","40","30","120","44","19","[""White""]","No","Male","2184075","null","null","","","","clear_screen","","","","","","","","","","","","","","","","","","","","","","","","","",""
"","","","","","canvas-keyboard-response","77","601251","0.0-12.0-0.13","2d_cat_multi_stim_exp1","2022-4-19","15:17:22","25","75","3","9","10","40","30","120","44","19","[""White""]","No","Male","2184075","null","null","","","","fixation","","","","","","","","","","","","","","","","","","","","","","","","","",""
"","","","","","canvas-keyboard-response","78","601762","0.0-12.0-1.13","2d_cat_multi_stim_exp1","2022-4-19","15:17:22","25","75","3","9","10","40","30","120","44","19","[""White""]","No","Male","2184075","null","null","","","","clear_screen","","","","","","","","","","","","","","","","","","","","","","","","","",""
"","","","","","canvas-keyboard-response","79","602456","0.0-12.0-2.13","2d_cat_multi_stim_exp1","2022-4-19","15:17:22","25","75","3","9","10","40","30","120","44","19","[""White""]","No","Male","2184075","682","i","learn","","","learn_trial","20","50","out","0","1","","","","","","","","","","","","","","","","","","","","",""
"","","","","","canvas-keyboard-response","80","602964","0.0-12.0-3.13","2d_cat_multi_stim_exp1","2022-4-19","15:17:22","25","75","3","9","10","40","30","120","44","19","[""White""]","No","Male","2184075","null","null","learn_feedback","","","learn_feedback","20","50","out","","","","","","","","","","","","","","","","","","","","","","",""
"","","","","","canvas-keyboard-response","81","603028","0.0-12.0-4.13","2d_cat_multi_stim_exp1","2022-4-19","15:17:22","25","75","3","9","10","40","30","120","44","19","[""White""]","No","Male","2184075","null","null","","","","clear_screen","","","","","","","","","","","","","","","","","","","","","","","","","",""
"","","","","","canvas-keyboard-response","82","603536","0.0-12.0-0.14","2d_cat_multi_stim_exp1","2022-4-19","15:17:22","25","75","3","9","10","40","30","120","44","19","[""White""]","No","Male","2184075","null","null","","","","fixation","","","","","","","","","","","","","","","","","","","","","","","","","",""
"","","","","","canvas-keyboard-response","83","604047","0.0-12.0-1.14","2d_cat_multi_stim_exp1","2022-4-19","15:17:22","25","75","3","9","10","40","30","120","44","19","[""White""]","No","Male","2184075","null","null","","","","clear_screen","","","","","","","","","","","","","","","","","","","","","","","","","",""
"","","","","","canvas-keyboard-response","84","604775","0.0-12.0-2.14","2d_cat_multi_stim_exp1","2022-4-19","15:17:22","25","75","3","9","10","40","30","120","44","19","[""White""]","No","Male","2184075","717","u","learn","","","learn_trial","31","75","in","1","1","","","","","","","","","","","","","","","","","","","","",""
"","","","","","canvas-keyboard-response","85","605285","0.0-12.0-3.14","2d_cat_multi_stim_exp1","2022-4-19","15:17:22","25","75","3","9","10","40","30","120","44","19","[""White""]","No","Male","2184075","null","null","learn_feedback","","","learn_feedback","31","75","in","","","","","","","","","","","","","","","","","","","","","","",""
"","","","","","canvas-keyboard-response","86","605348","0.0-12.0-4.14","2d_cat_multi_stim_exp1","2022-4-19","15:17:22","25","75","3","9","10","40","30","120","44","19","[""White""]","No","Male","2184075","null","null","","","","clear_screen","","","","","","","","","","","","","","","","","","","","","","","","","",""
"","","","","","canvas-keyboard-response","87","605858","0.0-12.0-0.15","2d_cat_multi_stim_exp1","2022-4-19","15:17:22","25","75","3","9","10","40","30","120","44","19","[""White""]","No","Male","2184075","null","null","","","","fixation","","","","","","","","","","","","","","","","","","","","","","","","","",""
"","","","","","canvas-keyboard-response","88","606369","0.0-12.0-1.15","2d_cat_multi_stim_exp1","2022-4-19","15:17:22","25","75","3","9","10","40","30","120","44","19","[""White""]","No","Male","2184075","null","null","","","","clear_screen","","","","","","","","","","","","","","","","","","","","","","","","","",""
"","","","","","canvas-keyboard-response","89","607007","0.0-12.0-2.15","2d_cat_multi_stim_exp1","2022-4-19","15:17:22","25","75","3","9","10","40","30","120","44","19","[""White""]","No","Male","2184075","628","u","learn","","","learn_trial","25","75","in","1","1","","","","","","","","","","","","","","","","","","","","",""
"","","","","","canvas-keyboard-response","90","607516","0.0-12.0-3.15","2d_cat_multi_stim_exp1","2022-4-19","15:17:22","25","75","3","9","10","40","30","120","44","19","[""White""]","No","Male","2184075","null","null","learn_feedback","","","learn_feedback","25","75","in","","","","","","","","","","","","","","","","","","","","","","",""
"","","","","","canvas-keyboard-response","91","607576","0.0-12.0-4.15","2d_cat_multi_stim_exp1","2022-4-19","15:17:22","25","75","3","9","10","40","30","120","44","19","[""White""]","No","Male","2184075","null","null","","","","clear_screen","","","","","","","","","","","","","","","","","","","","","","","","","",""
"","","","","","canvas-keyboard-response","92","608088","0.0-12.0-0.16","2d_cat_multi_stim_exp1","2022-4-19","15:17:22","25","75","3","9","10","40","30","120","44","19","[""White""]","No","Male","2184075","null","null","","","","fixation","","","","","","","","","","","","","","","","","","","","","","","","","",""
"","","","","","canvas-keyboard-response","93","608600","0.0-12.0-1.16","2d_cat_multi_stim_exp1","2022-4-19","15:17:22","25","75","3","9","10","40","30","120","44","19","[""White""]","No","Male","2184075","null","null","","","","clear_screen","","","","","","","","","","","","","","","","","","","","","","","","","",""
"","","","","","canvas-keyboard-response","94","609255","0.0-12.0-2.16","2d_cat_multi_stim_exp1","2022-4-19","15:17:22","25","75","3","9","10","40","30","120","44","19","[""White""]","No","Male","2184075","645","u","learn","","","learn_trial","22.5729","80.2901","in","1","1","","","","","","","","","","","","","","","","","","","","",""
"","","","","","canvas-keyboard-response","95","609764","0.0-12.0-3.16","2d_cat_multi_stim_exp1","2022-4-19","15:17:22","25","75","3","9","10","40","30","120","44","19","[""White""]","No","Male","2184075","null","null","learn_feedback","","","learn_feedback","22.5729","80.2901","in","","","","","","","","","","","","","","","","","","","","","","",""
"","","","","","canvas-keyboard-response","96","609824","0.0-12.0-4.16","2d_cat_multi_stim_exp1","2022-4-19","15:17:22","25","75","3","9","10","40","30","120","44","19","[""White""]","No","Male","2184075","null","null","","","","clear_screen","","","","","","","","","","","","","","","","","","","","","","","","","",""
"","","","","","canvas-keyboard-response","97","610332","0.0-12.0-0.17","2d_cat_multi_stim_exp1","2022-4-19","15:17:22","25","75","3","9","10","40","30","120","44","19","[""White""]","No","Male","2184075","null","null","","","","fixation","","","","","","","","","","","","","","","","","","","","","","","","","",""
"","","","","","canvas-keyboard-response","98","610842","0.0-12.0-1.17","2d_cat_multi_stim_exp1","2022-4-19","15:17:22","25","75","3","9","10","40","30","120","44","19","[""White""]","No","Male","2184075","null","null","","","","clear_screen","","","","","","","","","","","","","","","","","","","","","","","","","",""
"","","","","","canvas-keyboard-response","99","611719","0.0-12.0-2.17","2d_cat_multi_stim_exp1","2022-4-19","15:17:22","25","75","3","9","10","40","30","120","44","19","[""White""]","No","Male","2184075","869","i","learn","","","learn_trial","25","75","in","0","0","","","","","","","","","","","","","","","","","","","","",""
"","","","","","canvas-keyboard-response","100","612730","0.0-12.0-3.17","2d_cat_multi_stim_exp1","2022-4-19","15:17:22","25","75","3","9","10","40","30","120","44","19","[""White""]","No","Male","2184075","null","null","learn_feedback","","","learn_feedback","25","75","in","","","","","","","","","","","","","","","","","","","","","","",""
"","","","","","canvas-keyboard-response","101","612793","0.0-12.0-4.17","2d_cat_multi_stim_exp1","2022-4-19","15:17:22","25","75","3","9","10","40","30","120","44","19","[""White""]","No","Male","2184075","null","null","","","","clear_screen","","","","","","","","","","","","","","","","","","","","","","","","","",""
"","","","","","canvas-keyboard-response","102","613304","0.0-12.0-0.18","2d_cat_multi_stim_exp1","2022-4-19","15:17:22","25","75","3","9","10","40","30","120","44","19","[""White""]","No","Male","2184075","null","null","","","","fixation","","","","","","","","","","","","","","","","","","","","","","","","","",""
"","","","","","canvas-keyboard-response","103","613813","0.0-12.0-1.18","2d_cat_multi_stim_exp1","2022-4-19","15:17:22","25","75","3","9","10","40","30","120","44","19","[""White""]","No","Male","2184075","null","null","","","","clear_screen","","","","","","","","","","","","","","","","","","","","","","","","","",""
"","","","","","canvas-keyboard-response","104","614479","0.0-12.0-2.18","2d_cat_multi_stim_exp1","2022-4-19","15:17:22","25","75","3","9","10","40","30","120","44","19","[""White""]","No","Male","2184075","656","u","learn","","","learn_trial","25","75","in","1","1","","","","","","","","","","","","","","","","","","","","",""
"","","","","","canvas-keyboard-response","105","614991","0.0-12.0-3.18","2d_cat_multi_stim_exp1","2022-4-19","15:17:22","25","75","3","9","10","40","30","120","44","19","[""White""]","No","Male","2184075","null","null","learn_feedback","","","learn_feedback","25","75","in","","","","","","","","","","","","","","","","","","","","","","",""
"","","","","","canvas-keyboard-response","106","615054","0.0-12.0-4.18","2d_cat_multi_stim_exp1","2022-4-19","15:17:22","25","75","3","9","10","40","30","120","44","19","[""White""]","No","Male","2184075","null","null","","","","clear_screen","","","","","","","","","","","","","","","","","","","","","","","","","",""
"","","","","","canvas-keyboard-response","107","615561","0.0-12.0-0.19","2d_cat_multi_stim_exp1","2022-4-19","15:17:22","25","75","3","9","10","40","30","120","44","19","[""White""]","No","Male","2184075","null","null","","","","fixation","","","","","","","","","","","","","","","","","","","","","","","","","",""
"","","","","","canvas-keyboard-response","108","616075","0.0-12.0-1.19","2d_cat_multi_stim_exp1","2022-4-19","15:17:22","25","75","3","9","10","40","30","120","44","19","[""White""]","No","Male","2184075","null","null","","","","clear_screen","","","","","","","","","","","","","","","","","","","","","","","","","",""
"","","","","","canvas-keyboard-response","109","616791","0.0-12.0-2.19","2d_cat_multi_stim_exp1","2022-4-19","15:17:22","25","75","3","9","10","40","30","120","44","19","[""White""]","No","Male","2184075","708","i","learn","","","learn_trial","10","30","out","0","1","","","","","","","","","","","","","","","","","","","","",""
"","","","","","canvas-keyboard-response","110","617300","0.0-12.0-3.19","2d_cat_multi_stim_exp1","2022-4-19","15:17:22","25","75","3","9","10","40","30","120","44","19","[""White""]","No","Male","2184075","null","null","learn_feedback","","","learn_feedback","10","30","out","","","","","","","","","","","","","","","","","","","","","","",""
"","","","","","canvas-keyboard-response","111","617363","0.0-12.0-4.19","2d_cat_multi_stim_exp1","2022-4-19","15:17:22","25","75","3","9","10","40","30","120","44","19","[""White""]","No","Male","2184075","null","null","","","","clear_screen","","","","","","","","","","","","","","","","","","","","","","","","","",""
"","","","","","canvas-keyboard-response","112","617872","0.0-12.0-0.20","2d_cat_multi_stim_exp1","2022-4-19","15:17:22","25","75","3","9","10","40","30","120","44","19","[""White""]","No","Male","2184075","null","null","","","","fixation","","","","","","","","","","","","","","","","","","","","","","","","","",""
"","","","","","canvas-keyboard-response","113","618387","0.0-12.0-1.20","2d_cat_multi_stim_exp1","2022-4-19","15:17:22","25","75","3","9","10","40","30","120","44","19","[""White""]","No","Male","2184075","null","null","","","","clear_screen","","","","","","","","","","","","","","","","","","","","","","","","","",""
"","","","","","canvas-keyboard-response","114","619175","0.0-12.0-2.20","2d_cat_multi_stim_exp1","2022-4-19","15:17:22","25","75","3","9","10","40","30","120","44","19","[""White""]","No","Male","2184075","779","u","learn","","","learn_trial","25.9271","83.5595","in","1","1","","","","","","","","","","","","","","","","","","","","",""
"","","","","","canvas-keyboard-response","115","619684","0.0-12.0-3.20","2d_cat_multi_stim_exp1","2022-4-19","15:17:22","25","75","3","9","10","40","30","120","44","19","[""White""]","No","Male","2184075","null","null","learn_feedback","","","learn_feedback","25.9271","83.5595","in","","","","","","","","","","","","","","","","","","","","","","",""
"","","","","","canvas-keyboard-response","116","619745","0.0-12.0-4.20","2d_cat_multi_stim_exp1","2022-4-19","15:17:22","25","75","3","9","10","40","30","120","44","19","[""White""]","No","Male","2184075","null","null","","","","clear_screen","","","","","","","","","","","","","","","","","","","","","","","","","",""
"","","","","","canvas-keyboard-response","117","620253","0.0-12.0-0.21","2d_cat_multi_stim_exp1","2022-4-19","15:17:22","25","75","3","9","10","40","30","120","44","19","[""White""]","No","Male","2184075","null","null","","","","fixation","","","","","","","","","","","","","","","","","","","","","","","","","",""
"","","","","","canvas-keyboard-response","118","620766","0.0-12.0-1.21","2d_cat_multi_stim_exp1","2022-4-19","15:17:22","25","75","3","9","10","40","30","120","44","19","[""White""]","No","Male","2184075","null","null","","","","clear_screen","","","","","","","","","","","","","","","","","","","","","","","","","",""
"","","","","","canvas-keyboard-response","119","621256","0.0-12.0-2.21","2d_cat_multi_stim_exp1","2022-4-19","15:17:22","25","75","3","9","10","40","30","120","44","19","[""White""]","No","Male","2184075","482","u","learn","","","learn_trial","30","80","out","1","0","","","","","","","","","","","","","","","","","","","","",""
"","","","","","canvas-keyboard-response","120","622266","0.0-12.0-3.21","2d_cat_multi_stim_exp1","2022-4-19","15:17:22","25","75","3","9","10","40","30","120","44","19","[""White""]","No","Male","2184075","null","null","learn_feedback","","","learn_feedback","30","80","out","","","","","","","","","","","","","","","","","","","","","","",""
"","","","","","canvas-keyboard-response","121","622328","0.0-12.0-4.21","2d_cat_multi_stim_exp1","2022-4-19","15:17:22","25","75","3","9","10","40","30","120","44","19","[""White""]","No","Male","2184075","null","null","","","","clear_screen","","","","","","","","","","","","","","","","","","","","","","","","","",""
"","","","","","canvas-keyboard-response","122","622837","0.0-12.0-0.22","2d_cat_multi_stim_exp1","2022-4-19","15:17:22","25","75","3","9","10","40","30","120","44","19","[""White""]","No","Male","2184075","null","null","","","","fixation","","","","","","","","","","","","","","","","","","","","","","","","","",""
"","","","","","canvas-keyboard-response","123","623348","0.0-12.0-1.22","2d_cat_multi_stim_exp1","2022-4-19","15:17:22","25","75","3","9","10","40","30","120","44","19","[""White""]","No","Male","2184075","null","null","","","","clear_screen","","","","","","","","","","","","","","","","","","","","","","","","","",""
"","","","","","canvas-keyboard-response","124","623911","0.0-12.0-2.22","2d_cat_multi_stim_exp1","2022-4-19","15:17:22","25","75","3","9","10","40","30","120","44","19","[""White""]","No","Male","2184075","554","u","learn","","","learn_trial","25.9271","66.4405","in","1","1","","","","","","","","","","","","","","","","","","","","",""
"","","","","","canvas-keyboard-response","125","624423","0.0-12.0-3.22","2d_cat_multi_stim_exp1","2022-4-19","15:17:22","25","75","3","9","10","40","30","120","44","19","[""White""]","No","Male","2184075","null","null","learn_feedback","","","learn_feedback","25.9271","66.4405","in","","","","","","","","","","","","","","","","","","","","","","",""
"","","","","","canvas-keyboard-response","126","624483","0.0-12.0-4.22","2d_cat_multi_stim_exp1","2022-4-19","15:17:22","25","75","3","9","10","40","30","120","44","19","[""White""]","No","Male","2184075","null","null","","","","clear_screen","","","","","","","","","","","","","","","","","","","","","","","","","",""
"","","","","","canvas-keyboard-response","127","624990","0.0-12.0-0.23","2d_cat_multi_stim_exp1","2022-4-19","15:17:22","25","75","3","9","10","40","30","120","44","19","[""White""]","No","Male","2184075","null","null","","","","fixation","","","","","","","","","","","","","","","","","","","","","","","","","",""
"","","","","","canvas-keyboard-response","128","625503","0.0-12.0-1.23","2d_cat_multi_stim_exp1","2022-4-19","15:17:22","25","75","3","9","10","40","30","120","44","19","[""White""]","No","Male","2184075","null","null","","","","clear_screen","","","","","","","","","","","","","","","","","","","","","","","","","",""
"","","","","","canvas-keyboard-response","129","626119","0.0-12.0-2.23","2d_cat_multi_stim_exp1","2022-4-19","15:17:22","25","75","3","9","10","40","30","120","44","19","[""White""]","No","Male","2184075","610","u","learn","","","learn_trial","26.6667","70","out","1","0","","","","","","","","","","","","","","","","","","","","",""
"","","","","","canvas-keyboard-response","130","627130","0.0-12.0-3.23","2d_cat_multi_stim_exp1","2022-4-19","15:17:22","25","75","3","9","10","40","30","120","44","19","[""White""]","No","Male","2184075","null","null","learn_feedback","","","learn_feedback","26.6667","70","out","","","","","","","","","","","","","","","","","","","","","","",""
"","","","","","canvas-keyboard-response","131","627190","0.0-12.0-4.23","2d_cat_multi_stim_exp1","2022-4-19","15:17:22","25","75","3","9","10","40","30","120","44","19","[""White""]","No","Male","2184075","null","null","","","","clear_screen","","","","","","","","","","","","","","","","","","","","","","","","","",""
"","","","","","canvas-keyboard-response","132","627699","0.0-12.0-0.24","2d_cat_multi_stim_exp1","2022-4-19","15:17:22","25","75","3","9","10","40","30","120","44","19","[""White""]","No","Male","2184075","null","null","","","","fixation","","","","","","","","","","","","","","","","","","","","","","","","","",""
"","","","","","canvas-keyboard-response","133","628212","0.0-12.0-1.24","2d_cat_multi_stim_exp1","2022-4-19","15:17:22","25","75","3","9","10","40","30","120","44","19","[""White""]","No","Male","2184075","null","null","","","","clear_screen","","","","","","","","","","","","","","","","","","","","","","","","","",""
"","","","","","canvas-keyboard-response","134","628974","0.0-12.0-2.24","2d_cat_multi_stim_exp1","2022-4-19","15:17:22","25","75","3","9","10","40","30","120","44","19","[""White""]","No","Male","2184075","753","u","learn","","","learn_trial","23.3333","80","out","1","0","","","","","","","","","","","","","","","","","","","","",""
"","","","","","canvas-keyboard-response","135","629982","0.0-12.0-3.24","2d_cat_multi_stim_exp1","2022-4-19","15:17:22","25","75","3","9","10","40","30","120","44","19","[""White""]","No","Male","2184075","null","null","learn_feedback","","","learn_feedback","23.3333","80","out","","","","","","","","","","","","","","","","","","","","","","",""
"","","","","","canvas-keyboard-response","136","630043","0.0-12.0-4.24","2d_cat_multi_stim_exp1","2022-4-19","15:17:22","25","75","3","9","10","40","30","120","44","19","[""White""]","No","Male","2184075","null","null","","","","clear_screen","","","","","","","","","","","","","","","","","","","","","","","","","",""
"","","","","","canvas-keyboard-response","137","630552","0.0-12.0-0.25","2d_cat_multi_stim_exp1","2022-4-19","15:17:22","25","75","3","9","10","40","30","120","44","19","[""White""]","No","Male","2184075","null","null","","","","fixation","","","","","","","","","","","","","","","","","","","","","","","","","",""
"","","","","","canvas-keyboard-response","138","631062","0.0-12.0-1.25","2d_cat_multi_stim_exp1","2022-4-19","15:17:22","25","75","3","9","10","40","30","120","44","19","[""White""]","No","Male","2184075","null","null","","","","clear_screen","","","","","","","","","","","","","","","","","","","","","","","","","",""
"","","","","","canvas-keyboard-response","139","631712","0.0-12.0-2.25","2d_cat_multi_stim_exp1","2022-4-19","15:17:22","25","75","3","9","10","40","30","120","44","19","[""White""]","No","Male","2184075","639","u","learn","","","learn_trial","25","75","in","1","1","","","","","","","","","","","","","","","","","","","","",""
"","","","","","canvas-keyboard-response","140","632223","0.0-12.0-3.25","2d_cat_multi_stim_exp1","2022-4-19","15:17:22","25","75","3","9","10","40","30","120","44","19","[""White""]","No","Male","2184075","null","null","learn_feedback","","","learn_feedback","25","75","in","","","","","","","","","","","","","","","","","","","","","","",""
"","","","","","canvas-keyboard-response","141","632281","0.0-12.0-4.25","2d_cat_multi_stim_exp1","2022-4-19","15:17:22","25","75","3","9","10","40","30","120","44","19","[""White""]","No","Male","2184075","null","null","","","","clear_screen","","","","","","","","","","","","","","","","","","","","","","","","","",""
"","","","","","canvas-keyboard-response","142","632790","0.0-12.0-0.26","2d_cat_multi_stim_exp1","2022-4-19","15:17:22","25","75","3","9","10","40","30","120","44","19","[""White""]","No","Male","2184075","null","null","","","","fixation","","","","","","","","","","","","","","","","","","","","","","","","","",""
"","","","","","canvas-keyboard-response","143","633304","0.0-12.0-1.26","2d_cat_multi_stim_exp1","2022-4-19","15:17:22","25","75","3","9","10","40","30","120","44","19","[""White""]","No","Male","2184075","null","null","","","","clear_screen","","","","","","","","","","","","","","","","","","","","","","","","","",""
"","","","","","canvas-keyboard-response","144","633832","0.0-12.0-2.26","2d_cat_multi_stim_exp1","2022-4-19","15:17:22","25","75","3","9","10","40","30","120","44","19","[""White""]","No","Male","2184075","517","i","learn","","","learn_trial","16.6667","30","out","0","1","","","","","","","","","","","","","","","","","","","","",""
"","","","","","canvas-keyboard-response","145","634343","0.0-12.0-3.26","2d_cat_multi_stim_exp1","2022-4-19","15:17:22","25","75","3","9","10","40","30","120","44","19","[""White""]","No","Male","2184075","null","null","learn_feedback","","","learn_feedback","16.6667","30","out","","","","","","","","","","","","","","","","","","","","","","",""
"","","","","","canvas-keyboard-response","146","634404","0.0-12.0-4.26","2d_cat_multi_stim_exp1","2022-4-19","15:17:22","25","75","3","9","10","40","30","120","44","19","[""White""]","No","Male","2184075","null","null","","","","clear_screen","","","","","","","","","","","","","","","","","","","","","","","","","",""
"","","","","","canvas-keyboard-response","147","634912","0.0-12.0-0.27","2d_cat_multi_stim_exp1","2022-4-19","15:17:22","25","75","3","9","10","40","30","120","44","19","[""White""]","No","Male","2184075","null","null","","","","fixation","","","","","","","","","","","","","","","","","","","","","","","","","",""
"","","","","","canvas-keyboard-response","148","635422","0.0-12.0-1.27","2d_cat_multi_stim_exp1","2022-4-19","15:17:22","25","75","3","9","10","40","30","120","44","19","[""White""]","No","Male","2184075","null","null","","","","clear_screen","","","","","","","","","","","","","","","","","","","","","","","","","",""
"","","","","","canvas-keyboard-response","149","635975","0.0-12.0-2.27","2d_cat_multi_stim_exp1","2022-4-19","15:17:22","25","75","3","9","10","40","30","120","44","19","[""White""]","No","Male","2184075","544","i","learn","","","learn_trial","16.6667","50","out","0","1","","","","","","","","","","","","","","","","","","","","",""
"","","","","","canvas-keyboard-response","150","636487","0.0-12.0-3.27","2d_cat_multi_stim_exp1","2022-4-19","15:17:22","25","75","3","9","10","40","30","120","44","19","[""White""]","No","Male","2184075","null","null","learn_feedback","","","learn_feedback","16.6667","50","out","","","","","","","","","","","","","","","","","","","","","","",""
"","","","","","canvas-keyboard-response","151","636548","0.0-12.0-4.27","2d_cat_multi_stim_exp1","2022-4-19","15:17:22","25","75","3","9","10","40","30","120","44","19","[""White""]","No","Male","2184075","null","null","","","","clear_screen","","","","","","","","","","","","","","","","","","","","","","","","","",""
"","","","","","canvas-keyboard-response","152","637059","0.0-12.0-0.28","2d_cat_multi_stim_exp1","2022-4-19","15:17:22","25","75","3","9","10","40","30","120","44","19","[""White""]","No","Male","2184075","null","null","","","","fixation","","","","","","","","","","","","","","","","","","","","","","","","","",""
"","","","","","canvas-keyboard-response","153","637574","0.0-12.0-1.28","2d_cat_multi_stim_exp1","2022-4-19","15:17:22","25","75","3","9","10","40","30","120","44","19","[""White""]","No","Male","2184075","null","null","","","","clear_screen","","","","","","","","","","","","","","","","","","","","","","","","","",""
"","","","","","canvas-keyboard-response","154","638119","0.0-12.0-2.28","2d_cat_multi_stim_exp1","2022-4-19","15:17:22","25","75","3","9","10","40","30","120","44","19","[""White""]","No","Male","2184075","533","u","learn","","","learn_trial","23.3333","70","out","1","0","","","","","","","","","","","","","","","","","","","","",""
"","","","","","canvas-keyboard-response","155","639125","0.0-12.0-3.28","2d_cat_multi_stim_exp1","2022-4-19","15:17:22","25","75","3","9","10","40","30","120","44","19","[""White""]","No","Male","2184075","null","null","learn_feedback","","","learn_feedback","23.3333","70","out","","","","","","","","","","","","","","","","","","","","","","",""
"","","","","","canvas-keyboard-response","156","639191","0.0-12.0-4.28","2d_cat_multi_stim_exp1","2022-4-19","15:17:22","25","75","3","9","10","40","30","120","44","19","[""White""]","No","Male","2184075","null","null","","","","clear_screen","","","","","","","","","","","","","","","","","","","","","","","","","",""
"","","","","","canvas-keyboard-response","157","639701","0.0-12.0-0.29","2d_cat_multi_stim_exp1","2022-4-19","15:17:22","25","75","3","9","10","40","30","120","44","19","[""White""]","No","Male","2184075","null","null","","","","fixation","","","","","","","","","","","","","","","","","","","","","","","","","",""
"","","","","","canvas-keyboard-response","158","640212","0.0-12.0-1.29","2d_cat_multi_stim_exp1","2022-4-19","15:17:22","25","75","3","9","10","40","30","120","44","19","[""White""]","No","Male","2184075","null","null","","","","clear_screen","","","","","","","","","","","","","","","","","","","","","","","","","",""
"","","","","","canvas-keyboard-response","159","640823","0.0-12.0-2.29","2d_cat_multi_stim_exp1","2022-4-19","15:17:22","25","75","3","9","10","40","30","120","44","19","[""White""]","No","Male","2184075","603","u","learn","","","learn_trial","23.3333","60","out","1","0","","","","","","","","","","","","","","","","","","","","",""
"","","","","","canvas-keyboard-response","160","641833","0.0-12.0-3.29","2d_cat_multi_stim_exp1","2022-4-19","15:17:22","25","75","3","9","10","40","30","120","44","19","[""White""]","No","Male","2184075","null","null","learn_feedback","","","learn_feedback","23.3333","60","out","","","","","","","","","","","","","","","","","","","","","","",""
"","","","","","canvas-keyboard-response","161","641895","0.0-12.0-4.29","2d_cat_multi_stim_exp1","2022-4-19","15:17:22","25","75","3","9","10","40","30","120","44","19","[""White""]","No","Male","2184075","null","null","","","","clear_screen","","","","","","","","","","","","","","","","","","","","","","","","","",""
"","","","","","canvas-keyboard-response","162","642406","0.0-12.0-0.30","2d_cat_multi_stim_exp1","2022-4-19","15:17:22","25","75","3","9","10","40","30","120","44","19","[""White""]","No","Male","2184075","null","null","","","","fixation","","","","","","","","","","","","","","","","","","","","","","","","","",""
"","","","","","canvas-keyboard-response","163","642917","0.0-12.0-1.30","2d_cat_multi_stim_exp1","2022-4-19","15:17:22","25","75","3","9","10","40","30","120","44","19","[""White""]","No","Male","2184075","null","null","","","","clear_screen","","","","","","","","","","","","","","","","","","","","","","","","","",""
"","","","","","canvas-keyboard-response","164","643655","0.0-12.0-2.30","2d_cat_multi_stim_exp1","2022-4-19","15:17:22","25","75","3","9","10","40","30","120","44","19","[""White""]","No","Male","2184075","730","i","learn","","","learn_trial","20","100","out","0","1","","","","","","","","","","","","","","","","","","","","",""
"","","","","","canvas-keyboard-response","165","644166","0.0-12.0-3.30","2d_cat_multi_stim_exp1","2022-4-19","15:17:22","25","75","3","9","10","40","30","120","44","19","[""White""]","No","Male","2184075","null","null","learn_feedback","","","learn_feedback","20","100","out","","","","","","","","","","","","","","","","","","","","","","",""
"","","","","","canvas-keyboard-response","166","644226","0.0-12.0-4.30","2d_cat_multi_stim_exp1","2022-4-19","15:17:22","25","75","3","9","10","40","30","120","44","19","[""White""]","No","Male","2184075","null","null","","","","clear_screen","","","","","","","","","","","","","","","","","","","","","","","","","",""
"","","","","","canvas-keyboard-response","167","644735","0.0-12.0-0.31","2d_cat_multi_stim_exp1","2022-4-19","15:17:22","25","75","3","9","10","40","30","120","44","19","[""White""]","No","Male","2184075","null","null","","","","fixation","","","","","","","","","","","","","","","","","","","","","","","","","",""
"","","","","","canvas-keyboard-response","168","645244","0.0-12.0-1.31","2d_cat_multi_stim_exp1","2022-4-19","15:17:22","25","75","3","9","10","40","30","120","44","19","[""White""]","No","Male","2184075","null","null","","","","clear_screen","","","","","","","","","","","","","","","","","","","","","","","","","",""
"","","","","","canvas-keyboard-response","169","645912","0.0-12.0-2.31","2d_cat_multi_stim_exp1","2022-4-19","15:17:22","25","75","3","9","10","40","30","120","44","19","[""White""]","No","Male","2184075","657","u","learn","","","learn_trial","25","75","in","1","1","","","","","","","","","","","","","","","","","","","","",""
"","","","","","canvas-keyboard-response","170","646422","0.0-12.0-3.31","2d_cat_multi_stim_exp1","2022-4-19","15:17:22","25","75","3","9","10","40","30","120","44","19","[""White""]","No","Male","2184075","null","null","learn_feedback","","","learn_feedback","25","75","in","","","","","","","","","","","","","","","","","","","","","","",""
"","","","","","canvas-keyboard-response","171","646483","0.0-12.0-4.31","2d_cat_multi_stim_exp1","2022-4-19","15:17:22","25","75","3","9","10","40","30","120","44","19","[""White""]","No","Male","2184075","null","null","","","","clear_screen","","","","","","","","","","","","","","","","","","","","","","","","","",""
"","","","","","canvas-keyboard-response","172","646992","0.0-12.0-0.32","2d_cat_multi_stim_exp1","2022-4-19","15:17:22","25","75","3","9","10","40","30","120","44","19","[""White""]","No","Male","2184075","null","null","","","","fixation","","","","","","","","","","","","","","","","","","","","","","","","","",""
"","","","","","canvas-keyboard-response","173","647501","0.0-12.0-1.32","2d_cat_multi_stim_exp1","2022-4-19","15:17:22","25","75","3","9","10","40","30","120","44","19","[""White""]","No","Male","2184075","null","null","","","","clear_screen","","","","","","","","","","","","","","","","","","","","","","","","","",""
"","","","","","canvas-keyboard-response","174","648079","0.0-12.0-2.32","2d_cat_multi_stim_exp1","2022-4-19","15:17:22","25","75","3","9","10","40","30","120","44","19","[""White""]","No","Male","2184075","567","u","learn","","","learn_trial","25","75","in","1","1","","","","","","","","","","","","","","","","","","","","",""
"","","","","","canvas-keyboard-response","175","648592","0.0-12.0-3.32","2d_cat_multi_stim_exp1","2022-4-19","15:17:22","25","75","3","9","10","40","30","120","44","19","[""White""]","No","Male","2184075","null","null","learn_feedback","","","learn_feedback","25","75","in","","","","","","","","","","","","","","","","","","","","","","",""
"","","","","","canvas-keyboard-response","176","648653","0.0-12.0-4.32","2d_cat_multi_stim_exp1","2022-4-19","15:17:22","25","75","3","9","10","40","30","120","44","19","[""White""]","No","Male","2184075","null","null","","","","clear_screen","","","","","","","","","","","","","","","","","","","","","","","","","",""
"","","","","","canvas-keyboard-response","177","649158","0.0-12.0-0.33","2d_cat_multi_stim_exp1","2022-4-19","15:17:22","25","75","3","9","10","40","30","120","44","19","[""White""]","No","Male","2184075","null","null","","","","fixation","","","","","","","","","","","","","","","","","","","","","","","","","",""
"","","","","","canvas-keyboard-response","178","649667","0.0-12.0-1.33","2d_cat_multi_stim_exp1","2022-4-19","15:17:22","25","75","3","9","10","40","30","120","44","19","[""White""]","No","Male","2184075","null","null","","","","clear_screen","","","","","","","","","","","","","","","","","","","","","","","","","",""
"","","","","","canvas-keyboard-response","179","650135","0.0-12.0-2.33","2d_cat_multi_stim_exp1","2022-4-19","15:17:22","25","75","3","9","10","40","30","120","44","19","[""White""]","No","Male","2184075","455","u","learn","","","learn_trial","16.6667","70","out","1","0","","","","","","","","","","","","","","","","","","","","",""
"","","","","","canvas-keyboard-response","180","651147","0.0-12.0-3.33","2d_cat_multi_stim_exp1","2022-4-19","15:17:22","25","75","3","9","10","40","30","120","44","19","[""White""]","No","Male","2184075","null","null","learn_feedback","","","learn_feedback","16.6667","70","out","","","","","","","","","","","","","","","","","","","","","","",""
"","","","","","canvas-keyboard-response","181","651205","0.0-12.0-4.33","2d_cat_multi_stim_exp1","2022-4-19","15:17:22","25","75","3","9","10","40","30","120","44","19","[""White""]","No","Male","2184075","null","null","","","","clear_screen","","","","","","","","","","","","","","","","","","","","","","","","","",""
"","","","","","canvas-keyboard-response","182","651713","0.0-12.0-0.34","2d_cat_multi_stim_exp1","2022-4-19","15:17:22","25","75","3","9","10","40","30","120","44","19","[""White""]","No","Male","2184075","null","null","","","","fixation","","","","","","","","","","","","","","","","","","","","","","","","","",""
"","","","","","canvas-keyboard-response","183","652227","0.0-12.0-1.34","2d_cat_multi_stim_exp1","2022-4-19","15:17:22","25","75","3","9","10","40","30","120","44","19","[""White""]","No","Male","2184075","null","null","","","","clear_screen","","","","","","","","","","","","","","","","","","","","","","","","","",""
"","","","","","canvas-keyboard-response","184","653607","0.0-12.0-2.34","2d_cat_multi_stim_exp1","2022-4-19","15:17:22","25","75","3","9","10","40","30","120","44","19","[""White""]","No","Male","2184075","1374","i","learn","","","learn_trial","24.3324","66.2256","in","0","0","","","","","","","","","","","","","","","","","","","","",""
"","","","","","canvas-keyboard-response","185","654619","0.0-12.0-3.34","2d_cat_multi_stim_exp1","2022-4-19","15:17:22","25","75","3","9","10","40","30","120","44","19","[""White""]","No","Male","2184075","null","null","learn_feedback","","","learn_feedback","24.3324","66.2256","in","","","","","","","","","","","","","","","","","","","","","","",""
"","","","","","canvas-keyboard-response","186","654683","0.0-12.0-4.34","2d_cat_multi_stim_exp1","2022-4-19","15:17:22","25","75","3","9","10","40","30","120","44","19","[""White""]","No","Male","2184075","null","null","","","","clear_screen","","","","","","","","","","","","","","","","","","","","","","","","","",""
"","","","","","canvas-keyboard-response","187","655191","0.0-12.0-0.35","2d_cat_multi_stim_exp1","2022-4-19","15:17:22","25","75","3","9","10","40","30","120","44","19","[""White""]","No","Male","2184075","null","null","","","","fixation","","","","","","","","","","","","","","","","","","","","","","","","","",""
"","","","","","canvas-keyboard-response","188","655701","0.0-12.0-1.35","2d_cat_multi_stim_exp1","2022-4-19","15:17:22","25","75","3","9","10","40","30","120","44","19","[""White""]","No","Male","2184075","null","null","","","","clear_screen","","","","","","","","","","","","","","","","","","","","","","","","","",""
"","","","","","canvas-keyboard-response","189","656335","0.0-12.0-2.35","2d_cat_multi_stim_exp1","2022-4-19","15:17:22","25","75","3","9","10","40","30","120","44","19","[""White""]","No","Male","2184075","622","i","learn","","","learn_trial","40","40","out","0","1","","","","","","","","","","","","","","","","","","","","",""
"","","","","","canvas-keyboard-response","190","656844","0.0-12.0-3.35","2d_cat_multi_stim_exp1","2022-4-19","15:17:22","25","75","3","9","10","40","30","120","44","19","[""White""]","No","Male","2184075","null","null","learn_feedback","","","learn_feedback","40","40","out","","","","","","","","","","","","","","","","","","","","","","",""
"","","","","","canvas-keyboard-response","191","656905","0.0-12.0-4.35","2d_cat_multi_stim_exp1","2022-4-19","15:17:22","25","75","3","9","10","40","30","120","44","19","[""White""]","No","Male","2184075","null","null","","","","clear_screen","","","","","","","","","","","","","","","","","","","","","","","","","",""
"","","","","","canvas-keyboard-response","192","657414","0.0-12.0-0.36","2d_cat_multi_stim_exp1","2022-4-19","15:17:22","25","75","3","9","10","40","30","120","44","19","[""White""]","No","Male","2184075","null","null","","","","fixation","","","","","","","","","","","","","","","","","","","","","","","","","",""
"","","","","","canvas-keyboard-response","193","657927","0.0-12.0-1.36","2d_cat_multi_stim_exp1","2022-4-19","15:17:22","25","75","3","9","10","40","30","120","44","19","[""White""]","No","Male","2184075","null","null","","","","clear_screen","","","","","","","","","","","","","","","","","","","","","","","","","",""
"","","","","","canvas-keyboard-response","194","658367","0.0-12.0-2.36","2d_cat_multi_stim_exp1","2022-4-19","15:17:22","25","75","3","9","10","40","30","120","44","19","[""White""]","No","Male","2184075","428","u","learn","","","learn_trial","25","75","in","1","1","","","","","","","","","","","","","","","","","","","","",""
"","","","","","canvas-keyboard-response","195","658878","0.0-12.0-3.36","2d_cat_multi_stim_exp1","2022-4-19","15:17:22","25","75","3","9","10","40","30","120","44","19","[""White""]","No","Male","2184075","null","null","learn_feedback","","","learn_feedback","25","75","in","","","","","","","","","","","","","","","","","","","","","","",""
"","","","","","canvas-keyboard-response","196","658937","0.0-12.0-4.36","2d_cat_multi_stim_exp1","2022-4-19","15:17:22","25","75","3","9","10","40","30","120","44","19","[""White""]","No","Male","2184075","null","null","","","","clear_screen","","","","","","","","","","","","","","","","","","","","","","","","","",""
"","","","","","canvas-keyboard-response","197","659447","0.0-12.0-0.37","2d_cat_multi_stim_exp1","2022-4-19","15:17:22","25","75","3","9","10","40","30","120","44","19","[""White""]","No","Male","2184075","null","null","","","","fixation","","","","","","","","","","","","","","","","","","","","","","","","","",""
"","","","","","canvas-keyboard-response","198","659957","0.0-12.0-1.37","2d_cat_multi_stim_exp1","2022-4-19","15:17:22","25","75","3","9","10","40","30","120","44","19","[""White""]","No","Male","2184075","null","null","","","","clear_screen","","","","","","","","","","","","","","","","","","","","","","","","","",""
"","","","","","canvas-keyboard-response","199","661607","0.0-12.0-2.37","2d_cat_multi_stim_exp1","2022-4-19","15:17:22","25","75","3","9","10","40","30","120","44","19","[""White""]","No","Male","2184075","1638","u","learn","","","learn_trial","25.4027","83.9185","in","1","1","","","","","","","","","","","","","","","","","","","","",""
"","","","","","canvas-keyboard-response","200","662119","0.0-12.0-3.37","2d_cat_multi_stim_exp1","2022-4-19","15:17:22","25","75","3","9","10","40","30","120","44","19","[""White""]","No","Male","2184075","null","null","learn_feedback","","","learn_feedback","25.4027","83.9185","in","","","","","","","","","","","","","","","","","","","","","","",""
"","","","","","canvas-keyboard-response","201","662178","0.0-12.0-4.37","2d_cat_multi_stim_exp1","2022-4-19","15:17:22","25","75","3","9","10","40","30","120","44","19","[""White""]","No","Male","2184075","null","null","","","","clear_screen","","","","","","","","","","","","","","","","","","","","","","","","","",""
"","","","","","canvas-keyboard-response","202","662688","0.0-12.0-0.38","2d_cat_multi_stim_exp1","2022-4-19","15:17:22","25","75","3","9","10","40","30","120","44","19","[""White""]","No","Male","2184075","null","null","","","","fixation","","","","","","","","","","","","","","","","","","","","","","","","","",""
"","","","","","canvas-keyboard-response","203","663198","0.0-12.0-1.38","2d_cat_multi_stim_exp1","2022-4-19","15:17:22","25","75","3","9","10","40","30","120","44","19","[""White""]","No","Male","2184075","null","null","","","","clear_screen","","","","","","","","","","","","","","","","","","","","","","","","","",""
"","","","","","canvas-keyboard-response","204","663759","0.0-12.0-2.38","2d_cat_multi_stim_exp1","2022-4-19","15:17:22","25","75","3","9","10","40","30","120","44","19","[""White""]","No","Male","2184075","552","u","learn","","","learn_trial","25","75","in","1","1","","","","","","","","","","","","","","","","","","","","",""
"","","","","","canvas-keyboard-response","205","664270","0.0-12.0-3.38","2d_cat_multi_stim_exp1","2022-4-19","15:17:22","25","75","3","9","10","40","30","120","44","19","[""White""]","No","Male","2184075","null","null","learn_feedback","","","learn_feedback","25","75","in","","","","","","","","","","","","","","","","","","","","","","",""
"","","","","","canvas-keyboard-response","206","664328","0.0-12.0-4.38","2d_cat_multi_stim_exp1","2022-4-19","15:17:22","25","75","3","9","10","40","30","120","44","19","[""White""]","No","Male","2184075","null","null","","","","clear_screen","","","","","","","","","","","","","","","","","","","","","","","","","",""
"","","","","","canvas-keyboard-response","207","664836","0.0-12.0-0.39","2d_cat_multi_stim_exp1","2022-4-19","15:17:22","25","75","3","9","10","40","30","120","44","19","[""White""]","No","Male","2184075","null","null","","","","fixation","","","","","","","","","","","","","","","","","","","","","","","","","",""
"","","","","","canvas-keyboard-response","208","665348","0.0-12.0-1.39","2d_cat_multi_stim_exp1","2022-4-19","15:17:22","25","75","3","9","10","40","30","120","44","19","[""White""]","No","Male","2184075","null","null","","","","clear_screen","","","","","","","","","","","","","","","","","","","","","","","","","",""
"","","","","","canvas-keyboard-response","209","666022","0.0-12.0-2.39","2d_cat_multi_stim_exp1","2022-4-19","15:17:22","25","75","3","9","10","40","30","120","44","19","[""White""]","No","Male","2184075","666","i","learn","","","learn_trial","24.3324","83.7744","in","0","0","","","","","","","","","","","","","","","","","","","","",""
"","","","","","canvas-keyboard-response","210","667035","0.0-12.0-3.39","2d_cat_multi_stim_exp1","2022-4-19","15:17:22","25","75","3","9","10","40","30","120","44","19","[""White""]","No","Male","2184075","null","null","learn_feedback","","","learn_feedback","24.3324","83.7744","in","","","","","","","","","","","","","","","","","","","","","","",""
"","","","","","canvas-keyboard-response","211","667094","0.0-12.0-4.39","2d_cat_multi_stim_exp1","2022-4-19","15:17:22","25","75","3","9","10","40","30","120","44","19","[""White""]","No","Male","2184075","null","null","","","","clear_screen","","","","","","","","","","","","","","","","","","","","","","","","","",""
"","","","","","canvas-keyboard-response","212","667602","0.0-12.0-0.40","2d_cat_multi_stim_exp1","2022-4-19","15:17:22","25","75","3","9","10","40","30","120","44","19","[""White""]","No","Male","2184075","null","null","","","","fixation","","","","","","","","","","","","","","","","","","","","","","","","","",""
"","","","","","canvas-keyboard-response","213","668111","0.0-12.0-1.40","2d_cat_multi_stim_exp1","2022-4-19","15:17:22","25","75","3","9","10","40","30","120","44","19","[""White""]","No","Male","2184075","null","null","","","","clear_screen","","","","","","","","","","","","","","","","","","","","","","","","","",""
"","","","","","canvas-keyboard-response","214","668910","0.0-12.0-2.40","2d_cat_multi_stim_exp1","2022-4-19","15:17:22","25","75","3","9","10","40","30","120","44","19","[""White""]","No","Male","2184075","790","i","learn","","","learn_trial","25","93","in","0","0","","","","","","","","","","","","","","","","","","","","",""
"","","","","","canvas-keyboard-response","215","669921","0.0-12.0-3.40","2d_cat_multi_stim_exp1","2022-4-19","15:17:22","25","75","3","9","10","40","30","120","44","19","[""White""]","No","Male","2184075","null","null","learn_feedback","","","learn_feedback","25","93","in","","","","","","","","","","","","","","","","","","","","","","",""
"","","","","","canvas-keyboard-response","216","669981","0.0-12.0-4.40","2d_cat_multi_stim_exp1","2022-4-19","15:17:22","25","75","3","9","10","40","30","120","44","19","[""White""]","No","Male","2184075","null","null","","","","clear_screen","","","","","","","","","","","","","","","","","","","","","","","","","",""
"","","","","","canvas-keyboard-response","217","670494","0.0-12.0-0.41","2d_cat_multi_stim_exp1","2022-4-19","15:17:22","25","75","3","9","10","40","30","120","44","19","[""White""]","No","Male","2184075","null","null","","","","fixation","","","","","","","","","","","","","","","","","","","","","","","","","",""
"","","","","","canvas-keyboard-response","218","671012","0.0-12.0-1.41","2d_cat_multi_stim_exp1","2022-4-19","15:17:22","25","75","3","9","10","40","30","120","44","19","[""White""]","No","Male","2184075","null","null","","","","clear_screen","","","","","","","","","","","","","","","","","","","","","","","","","",""
"","","","","","canvas-keyboard-response","219","672527","0.0-12.0-2.41","2d_cat_multi_stim_exp1","2022-4-19","15:17:22","25","75","3","9","10","40","30","120","44","19","[""White""]","No","Male","2184075","1505","i","learn","","","learn_trial","26.6667","110","out","0","1","","","","","","","","","","","","","","","","","","","","",""
"","","","","","canvas-keyboard-response","220","673039","0.0-12.0-3.41","2d_cat_multi_stim_exp1","2022-4-19","15:17:22","25","75","3","9","10","40","30","120","44","19","[""White""]","No","Male","2184075","null","null","learn_feedback","","","learn_feedback","26.6667","110","out","","","","","","","","","","","","","","","","","","","","","","",""
"","","","","","canvas-keyboard-response","221","673099","0.0-12.0-4.41","2d_cat_multi_stim_exp1","2022-4-19","15:17:22","25","75","3","9","10","40","30","120","44","19","[""White""]","No","Male","2184075","null","null","","","","clear_screen","","","","","","","","","","","","","","","","","","","","","","","","","",""
"","","","","","canvas-keyboard-response","222","673610","0.0-12.0-0.42","2d_cat_multi_stim_exp1","2022-4-19","15:17:22","25","75","3","9","10","40","30","120","44","19","[""White""]","No","Male","2184075","null","null","","","","fixation","","","","","","","","","","","","","","","","","","","","","","","","","",""
"","","","","","canvas-keyboard-response","223","674123","0.0-12.0-1.42","2d_cat_multi_stim_exp1","2022-4-19","15:17:22","25","75","3","9","10","40","30","120","44","19","[""White""]","No","Male","2184075","null","null","","","","clear_screen","","","","","","","","","","","","","","","","","","","","","","","","","",""
"","","","","","canvas-keyboard-response","224","675119","0.0-12.0-2.42","2d_cat_multi_stim_exp1","2022-4-19","15:17:22","25","75","3","9","10","40","30","120","44","19","[""White""]","No","Male","2184075","988","u","learn","","","learn_trial","22.5729","69.7099","in","1","1","","","","","","","","","","","","","","","","","","","","",""
"","","","","","canvas-keyboard-response","225","675628","0.0-12.0-3.42","2d_cat_multi_stim_exp1","2022-4-19","15:17:22","25","75","3","9","10","40","30","120","44","19","[""White""]","No","Male","2184075","null","null","learn_feedback","","","learn_feedback","22.5729","69.7099","in","","","","","","","","","","","","","","","","","","","","","","",""
"","","","","","canvas-keyboard-response","226","675688","0.0-12.0-4.42","2d_cat_multi_stim_exp1","2022-4-19","15:17:22","25","75","3","9","10","40","30","120","44","19","[""White""]","No","Male","2184075","null","null","","","","clear_screen","","","","","","","","","","","","","","","","","","","","","","","","","",""
"","","","","","canvas-keyboard-response","227","676199","0.0-12.0-0.43","2d_cat_multi_stim_exp1","2022-4-19","15:17:22","25","75","3","9","10","40","30","120","44","19","[""White""]","No","Male","2184075","null","null","","","","fixation","","","","","","","","","","","","","","","","","","","","","","","","","",""
"","","","","","canvas-keyboard-response","228","676709","0.0-12.0-1.43","2d_cat_multi_stim_exp1","2022-4-19","15:17:22","25","75","3","9","10","40","30","120","44","19","[""White""]","No","Male","2184075","null","null","","","","clear_screen","","","","","","","","","","","","","","","","","","","","","","","","","",""
"","","","","","canvas-keyboard-response","229","677687","0.0-12.0-2.43","2d_cat_multi_stim_exp1","2022-4-19","15:17:22","25","75","3","9","10","40","30","120","44","19","[""White""]","No","Male","2184075","968","i","learn","","","learn_trial","25","75","in","0","0","","","","","","","","","","","","","","","","","","","","",""
"","","","","","canvas-keyboard-response","230","678699","0.0-12.0-3.43","2d_cat_multi_stim_exp1","2022-4-19","15:17:22","25","75","3","9","10","40","30","120","44","19","[""White""]","No","Male","2184075","null","null","learn_feedback","","","learn_feedback","25","75","in","","","","","","","","","","","","","","","","","","","","","","",""
"","","","","","canvas-keyboard-response","231","678758","0.0-12.0-4.43","2d_cat_multi_stim_exp1","2022-4-19","15:17:22","25","75","3","9","10","40","30","120","44","19","[""White""]","No","Male","2184075","null","null","","","","clear_screen","","","","","","","","","","","","","","","","","","","","","","","","","",""
"","","","","","canvas-keyboard-response","232","679267","0.0-12.0-0.44","2d_cat_multi_stim_exp1","2022-4-19","15:17:22","25","75","3","9","10","40","30","120","44","19","[""White""]","No","Male","2184075","null","null","","","","fixation","","","","","","","","","","","","","","","","","","","","","","","","","",""
"","","","","","canvas-keyboard-response","233","679777","0.0-12.0-1.44","2d_cat_multi_stim_exp1","2022-4-19","15:17:22","25","75","3","9","10","40","30","120","44","19","[""White""]","No","Male","2184075","null","null","","","","clear_screen","","","","","","","","","","","","","","","","","","","","","","","","","",""
"","","","","","canvas-keyboard-response","234","680823","0.0-12.0-2.44","2d_cat_multi_stim_exp1","2022-4-19","15:17:22","25","75","3","9","10","40","30","120","44","19","[""White""]","No","Male","2184075","1038","u","learn","","","learn_trial","25","75","in","1","1","","","","","","","","","","","","","","","","","","","","",""
"","","","","","canvas-keyboard-response","235","681333","0.0-12.0-3.44","2d_cat_multi_stim_exp1","2022-4-19","15:17:22","25","75","3","9","10","40","30","120","44","19","[""White""]","No","Male","2184075","null","null","learn_feedback","","","learn_feedback","25","75","in","","","","","","","","","","","","","","","","","","","","","","",""
"","","","","","canvas-keyboard-response","236","681393","0.0-12.0-4.44","2d_cat_multi_stim_exp1","2022-4-19","15:17:22","25","75","3","9","10","40","30","120","44","19","[""White""]","No","Male","2184075","null","null","","","","clear_screen","","","","","","","","","","","","","","","","","","","","","","","","","",""
"","","","","","canvas-keyboard-response","237","681901","0.0-12.0-0.45","2d_cat_multi_stim_exp1","2022-4-19","15:17:22","25","75","3","9","10","40","30","120","44","19","[""White""]","No","Male","2184075","null","null","","","","fixation","","","","","","","","","","","","","","","","","","","","","","","","","",""
"","","","","","canvas-keyboard-response","238","682411","0.0-12.0-1.45","2d_cat_multi_stim_exp1","2022-4-19","15:17:22","25","75","3","9","10","40","30","120","44","19","[""White""]","No","Male","2184075","null","null","","","","clear_screen","","","","","","","","","","","","","","","","","","","","","","","","","",""
"","","","","","canvas-keyboard-response","239","683527","0.0-12.0-2.45","2d_cat_multi_stim_exp1","2022-4-19","15:17:22","25","75","3","9","10","40","30","120","44","19","[""White""]","No","Male","2184075","1106","i","learn","","","learn_trial","23.3333","110","out","0","1","","","","","","","","","","","","","","","","","","","","",""
"","","","","","canvas-keyboard-response","240","684039","0.0-12.0-3.45","2d_cat_multi_stim_exp1","2022-4-19","15:17:22","25","75","3","9","10","40","30","120","44","19","[""White""]","No","Male","2184075","null","null","learn_feedback","","","learn_feedback","23.3333","110","out","","","","","","","","","","","","","","","","","","","","","","",""
"","","","","","canvas-keyboard-response","241","684103","0.0-12.0-4.45","2d_cat_multi_stim_exp1","2022-4-19","15:17:22","25","75","3","9","10","40","30","120","44","19","[""White""]","No","Male","2184075","null","null","","","","clear_screen","","","","","","","","","","","","","","","","","","","","","","","","","",""
"","","","","","canvas-keyboard-response","242","684613","0.0-12.0-0.46","2d_cat_multi_stim_exp1","2022-4-19","15:17:22","25","75","3","9","10","40","30","120","44","19","[""White""]","No","Male","2184075","null","null","","","","fixation","","","","","","","","","","","","","","","","","","","","","","","","","",""
"","","","","","canvas-keyboard-response","243","685126","0.0-12.0-1.46","2d_cat_multi_stim_exp1","2022-4-19","15:17:22","25","75","3","9","10","40","30","120","44","19","[""White""]","No","Male","2184075","null","null","","","","clear_screen","","","","","","","","","","","","","","","","","","","","","","","","","",""
"","","","","","canvas-keyboard-response","244","685751","0.0-12.0-2.46","2d_cat_multi_stim_exp1","2022-4-19","15:17:22","25","75","3","9","10","40","30","120","44","19","[""White""]","No","Male","2184075","615","i","learn","","","learn_trial","36.6667","50","out","0","1","","","","","","","","","","","","","","","","","","","","",""
"","","","","","canvas-keyboard-response","245","686260","0.0-12.0-3.46","2d_cat_multi_stim_exp1","2022-4-19","15:17:22","25","75","3","9","10","40","30","120","44","19","[""White""]","No","Male","2184075","null","null","learn_feedback","","","learn_feedback","36.6667","50","out","","","","","","","","","","","","","","","","","","","","","","",""
"","","","","","canvas-keyboard-response","246","686318","0.0-12.0-4.46","2d_cat_multi_stim_exp1","2022-4-19","15:17:22","25","75","3","9","10","40","30","120","44","19","[""White""]","No","Male","2184075","null","null","","","","clear_screen","","","","","","","","","","","","","","","","","","","","","","","","","",""
"","","","","","canvas-keyboard-response","247","686827","0.0-12.0-0.47","2d_cat_multi_stim_exp1","2022-4-19","15:17:22","25","75","3","9","10","40","30","120","44","19","[""White""]","No","Male","2184075","null","null","","","","fixation","","","","","","","","","","","","","","","","","","","","","","","","","",""
"","","","","","canvas-keyboard-response","248","687341","0.0-12.0-1.47","2d_cat_multi_stim_exp1","2022-4-19","15:17:22","25","75","3","9","10","40","30","120","44","19","[""White""]","No","Male","2184075","null","null","","","","clear_screen","","","","","","","","","","","","","","","","","","","","","","","","","",""
"","","","","","canvas-keyboard-response","249","688151","0.0-12.0-2.47","2d_cat_multi_stim_exp1","2022-4-19","15:17:22","25","75","3","9","10","40","30","120","44","19","[""White""]","No","Male","2184075","800","u","learn","","","learn_trial","23.3333","50","out","1","0","","","","","","","","","","","","","","","","","","","","",""
"","","","","","canvas-keyboard-response","250","689163","0.0-12.0-3.47","2d_cat_multi_stim_exp1","2022-4-19","15:17:22","25","75","3","9","10","40","30","120","44","19","[""White""]","No","Male","2184075","null","null","learn_feedback","","","learn_feedback","23.3333","50","out","","","","","","","","","","","","","","","","","","","","","","",""
"","","","","","canvas-keyboard-response","251","689224","0.0-12.0-4.47","2d_cat_multi_stim_exp1","2022-4-19","15:17:22","25","75","3","9","10","40","30","120","44","19","[""White""]","No","Male","2184075","null","null","","","","clear_screen","","","","","","","","","","","","","","","","","","","","","","","","","",""
"","","","","","canvas-keyboard-response","252","689732","0.0-12.0-0.48","2d_cat_multi_stim_exp1","2022-4-19","15:17:22","25","75","3","9","10","40","30","120","44","19","[""White""]","No","Male","2184075","null","null","","","","fixation","","","","","","","","","","","","","","","","","","","","","","","","","",""
"","","","","","canvas-keyboard-response","253","690242","0.0-12.0-1.48","2d_cat_multi_stim_exp1","2022-4-19","15:17:22","25","75","3","9","10","40","30","120","44","19","[""White""]","No","Male","2184075","null","null","","","","clear_screen","","","","","","","","","","","","","","","","","","","","","","","","","",""
"","","","","","canvas-keyboard-response","254","690943","0.0-12.0-2.48","2d_cat_multi_stim_exp1","2022-4-19","15:17:22","25","75","3","9","10","40","30","120","44","19","[""White""]","No","Male","2184075","691","u","learn","","","learn_trial","27.2592","69.0786","in","1","1","","","","","","","","","","","","","","","","","","","","",""
"","","","","","canvas-keyboard-response","255","691454","0.0-12.0-3.48","2d_cat_multi_stim_exp1","2022-4-19","15:17:22","25","75","3","9","10","40","30","120","44","19","[""White""]","No","Male","2184075","null","null","learn_feedback","","","learn_feedback","27.2592","69.0786","in","","","","","","","","","","","","","","","","","","","","","","",""
"","","","","","canvas-keyboard-response","256","691513","0.0-12.0-4.48","2d_cat_multi_stim_exp1","2022-4-19","15:17:22","25","75","3","9","10","40","30","120","44","19","[""White""]","No","Male","2184075","null","null","","","","clear_screen","","","","","","","","","","","","","","","","","","","","","","","","","",""
"","","","","","canvas-keyboard-response","257","692023","0.0-12.0-0.49","2d_cat_multi_stim_exp1","2022-4-19","15:17:22","25","75","3","9","10","40","30","120","44","19","[""White""]","No","Male","2184075","null","null","","","","fixation","","","","","","","","","","","","","","","","","","","","","","","","","",""
"","","","","","canvas-keyboard-response","258","692534","0.0-12.0-1.49","2d_cat_multi_stim_exp1","2022-4-19","15:17:22","25","75","3","9","10","40","30","120","44","19","[""White""]","No","Male","2184075","null","null","","","","clear_screen","","","","","","","","","","","","","","","","","","","","","","","","","",""
"","","","","","canvas-keyboard-response","259","693159","0.0-12.0-2.49","2d_cat_multi_stim_exp1","2022-4-19","15:17:22","25","75","3","9","10","40","30","120","44","19","[""White""]","No","Male","2184075","613","u","learn","","","learn_trial","25","75","in","1","1","","","","","","","","","","","","","","","","","","","","",""
"","","","","","canvas-keyboard-response","260","693668","0.0-12.0-3.49","2d_cat_multi_stim_exp1","2022-4-19","15:17:22","25","75","3","9","10","40","30","120","44","19","[""White""]","No","Male","2184075","null","null","learn_feedback","","","learn_feedback","25","75","in","","","","","","","","","","","","","","","","","","","","","","",""
"","","","","","canvas-keyboard-response","261","693731","0.0-12.0-4.49","2d_cat_multi_stim_exp1","2022-4-19","15:17:22","25","75","3","9","10","40","30","120","44","19","[""White""]","No","Male","2184075","null","null","","","","clear_screen","","","","","","","","","","","","","","","","","","","","","","","","","",""
"","","","","","canvas-keyboard-response","262","694241","0.0-12.0-0.50","2d_cat_multi_stim_exp1","2022-4-19","15:17:22","25","75","3","9","10","40","30","120","44","19","[""White""]","No","Male","2184075","null","null","","","","fixation","","","","","","","","","","","","","","","","","","","","","","","","","",""
"","","","","","canvas-keyboard-response","263","694754","0.0-12.0-1.50","2d_cat_multi_stim_exp1","2022-4-19","15:17:22","25","75","3","9","10","40","30","120","44","19","[""White""]","No","Male","2184075","null","null","","","","clear_screen","","","","","","","","","","","","","","","","","","","","","","","","","",""
"","","","","","canvas-keyboard-response","264","695295","0.0-12.0-2.50","2d_cat_multi_stim_exp1","2022-4-19","15:17:22","25","75","3","9","10","40","30","120","44","19","[""White""]","No","Male","2184075","529","u","learn","","","learn_trial","25","75","in","1","1","","","","","","","","","","","","","","","","","","","","",""
"","","","","","canvas-keyboard-response","265","695806","0.0-12.0-3.50","2d_cat_multi_stim_exp1","2022-4-19","15:17:22","25","75","3","9","10","40","30","120","44","19","[""White""]","No","Male","2184075","null","null","learn_feedback","","","learn_feedback","25","75","in","","","","","","","","","","","","","","","","","","","","","","",""
"","","","","","canvas-keyboard-response","266","695863","0.0-12.0-4.50","2d_cat_multi_stim_exp1","2022-4-19","15:17:22","25","75","3","9","10","40","30","120","44","19","[""White""]","No","Male","2184075","null","null","","","","clear_screen","","","","","","","","","","","","","","","","","","","","","","","","","",""
"","","","","","canvas-keyboard-response","267","696371","0.0-12.0-0.51","2d_cat_multi_stim_exp1","2022-4-19","15:17:22","25","75","3","9","10","40","30","120","44","19","[""White""]","No","Male","2184075","null","null","","","","fixation","","","","","","","","","","","","","","","","","","","","","","","","","",""
"","","","","","canvas-keyboard-response","268","696881","0.0-12.0-1.51","2d_cat_multi_stim_exp1","2022-4-19","15:17:22","25","75","3","9","10","40","30","120","44","19","[""White""]","No","Male","2184075","null","null","","","","clear_screen","","","","","","","","","","","","","","","","","","","","","","","","","",""
"","","","","","canvas-keyboard-response","269","697511","0.0-12.0-2.51","2d_cat_multi_stim_exp1","2022-4-19","15:17:22","25","75","3","9","10","40","30","120","44","19","[""White""]","No","Male","2184075","621","i","learn","","","learn_trial","25","75","in","0","0","","","","","","","","","","","","","","","","","","","","",""
"","","","","","canvas-keyboard-response","270","698521","0.0-12.0-3.51","2d_cat_multi_stim_exp1","2022-4-19","15:17:22","25","75","3","9","10","40","30","120","44","19","[""White""]","No","Male","2184075","null","null","learn_feedback","","","learn_feedback","25","75","in","","","","","","","","","","","","","","","","","","","","","","",""
"","","","","","canvas-keyboard-response","271","698581","0.0-12.0-4.51","2d_cat_multi_stim_exp1","2022-4-19","15:17:22","25","75","3","9","10","40","30","120","44","19","[""White""]","No","Male","2184075","null","null","","","","clear_screen","","","","","","","","","","","","","","","","","","","","","","","","","",""
"","","","","","canvas-keyboard-response","272","699089","0.0-12.0-0.52","2d_cat_multi_stim_exp1","2022-4-19","15:17:22","25","75","3","9","10","40","30","120","44","19","[""White""]","No","Male","2184075","null","null","","","","fixation","","","","","","","","","","","","","","","","","","","","","","","","","",""
"","","","","","canvas-keyboard-response","273","699600","0.0-12.0-1.52","2d_cat_multi_stim_exp1","2022-4-19","15:17:22","25","75","3","9","10","40","30","120","44","19","[""White""]","No","Male","2184075","null","null","","","","clear_screen","","","","","","","","","","","","","","","","","","","","","","","","","",""
"","","","","","canvas-keyboard-response","274","700295","0.0-12.0-2.52","2d_cat_multi_stim_exp1","2022-4-19","15:17:22","25","75","3","9","10","40","30","120","44","19","[""White""]","No","Male","2184075","688","i","learn","","","learn_trial","10","50","out","0","1","","","","","","","","","","","","","","","","","","","","",""
"","","","","","canvas-keyboard-response","275","700807","0.0-12.0-3.52","2d_cat_multi_stim_exp1","2022-4-19","15:17:22","25","75","3","9","10","40","30","120","44","19","[""White""]","No","Male","2184075","null","null","learn_feedback","","","learn_feedback","10","50","out","","","","","","","","","","","","","","","","","","","","","","",""
"","","","","","canvas-keyboard-response","276","700871","0.0-12.0-4.52","2d_cat_multi_stim_exp1","2022-4-19","15:17:22","25","75","3","9","10","40","30","120","44","19","[""White""]","No","Male","2184075","null","null","","","","clear_screen","","","","","","","","","","","","","","","","","","","","","","","","","",""
"","","","","","canvas-keyboard-response","277","701380","0.0-12.0-0.53","2d_cat_multi_stim_exp1","2022-4-19","15:17:22","25","75","3","9","10","40","30","120","44","19","[""White""]","No","Male","2184075","null","null","","","","fixation","","","","","","","","","","","","","","","","","","","","","","","","","",""
"","","","","","canvas-keyboard-response","278","701891","0.0-12.0-1.53","2d_cat_multi_stim_exp1","2022-4-19","15:17:22","25","75","3","9","10","40","30","120","44","19","[""White""]","No","Male","2184075","null","null","","","","clear_screen","","","","","","","","","","","","","","","","","","","","","","","","","",""
"","","","","","canvas-keyboard-response","279","702695","0.0-12.0-2.53","2d_cat_multi_stim_exp1","2022-4-19","15:17:22","25","75","3","9","10","40","30","120","44","19","[""White""]","No","Male","2184075","790","u","learn","","","learn_trial","24.8654","83.9909","in","1","1","","","","","","","","","","","","","","","","","","","","",""
"","","","","","canvas-keyboard-response","280","703205","0.0-12.0-3.53","2d_cat_multi_stim_exp1","2022-4-19","15:17:22","25","75","3","9","10","40","30","120","44","19","[""White""]","No","Male","2184075","null","null","learn_feedback","","","learn_feedback","24.8654","83.9909","in","","","","","","","","","","","","","","","","","","","","","","",""
"","","","","","canvas-keyboard-response","281","703265","0.0-12.0-4.53","2d_cat_multi_stim_exp1","2022-4-19","15:17:22","25","75","3","9","10","40","30","120","44","19","[""White""]","No","Male","2184075","null","null","","","","clear_screen","","","","","","","","","","","","","","","","","","","","","","","","","",""
"","","","","","canvas-keyboard-response","282","703773","0.0-12.0-0.54","2d_cat_multi_stim_exp1","2022-4-19","15:17:22","25","75","3","9","10","40","30","120","44","19","[""White""]","No","Male","2184075","null","null","","","","fixation","","","","","","","","","","","","","","","","","","","","","","","","","",""
"","","","","","canvas-keyboard-response","283","704281","0.0-12.0-1.54","2d_cat_multi_stim_exp1","2022-4-19","15:17:22","25","75","3","9","10","40","30","120","44","19","[""White""]","No","Male","2184075","null","null","","","","clear_screen","","","","","","","","","","","","","","","","","","","","","","","","","",""
"","","","","","canvas-keyboard-response","284","704832","0.0-12.0-2.54","2d_cat_multi_stim_exp1","2022-4-19","15:17:22","25","75","3","9","10","40","30","120","44","19","[""White""]","No","Male","2184075","541","u","learn","","","learn_trial","25","75","in","1","1","","","","","","","","","","","","","","","","","","","","",""
"","","","","","canvas-keyboard-response","285","705338","0.0-12.0-3.54","2d_cat_multi_stim_exp1","2022-4-19","15:17:22","25","75","3","9","10","40","30","120","44","19","[""White""]","No","Male","2184075","null","null","learn_feedback","","","learn_feedback","25","75","in","","","","","","","","","","","","","","","","","","","","","","",""
"","","","","","canvas-keyboard-response","286","705398","0.0-12.0-4.54","2d_cat_multi_stim_exp1","2022-4-19","15:17:22","25","75","3","9","10","40","30","120","44","19","[""White""]","No","Male","2184075","null","null","","","","clear_screen","","","","","","","","","","","","","","","","","","","","","","","","","",""
"","","","","","canvas-keyboard-response","287","705909","0.0-12.0-0.55","2d_cat_multi_stim_exp1","2022-4-19","15:17:22","25","75","3","9","10","40","30","120","44","19","[""White""]","No","Male","2184075","null","null","","","","fixation","","","","","","","","","","","","","","","","","","","","","","","","","",""
"","","","","","canvas-keyboard-response","288","706420","0.0-12.0-1.55","2d_cat_multi_stim_exp1","2022-4-19","15:17:22","25","75","3","9","10","40","30","120","44","19","[""White""]","No","Male","2184075","null","null","","","","clear_screen","","","","","","","","","","","","","","","","","","","","","","","","","",""
"","","","","","canvas-keyboard-response","289","707087","0.0-12.0-2.55","2d_cat_multi_stim_exp1","2022-4-19","15:17:22","25","75","3","9","10","40","30","120","44","19","[""White""]","No","Male","2184075","656","i","learn","","","learn_trial","20","110","out","0","1","","","","","","","","","","","","","","","","","","","","",""
"","","","","","canvas-keyboard-response","290","707597","0.0-12.0-3.55","2d_cat_multi_stim_exp1","2022-4-19","15:17:22","25","75","3","9","10","40","30","120","44","19","[""White""]","No","Male","2184075","null","null","learn_feedback","","","learn_feedback","20","110","out","","","","","","","","","","","","","","","","","","","","","","",""
"","","","","","canvas-keyboard-response","291","707657","0.0-12.0-4.55","2d_cat_multi_stim_exp1","2022-4-19","15:17:22","25","75","3","9","10","40","30","120","44","19","[""White""]","No","Male","2184075","null","null","","","","clear_screen","","","","","","","","","","","","","","","","","","","","","","","","","",""
"","","","","","canvas-keyboard-response","292","708166","0.0-12.0-0.56","2d_cat_multi_stim_exp1","2022-4-19","15:17:22","25","75","3","9","10","40","30","120","44","19","[""White""]","No","Male","2184075","null","null","","","","fixation","","","","","","","","","","","","","","","","","","","","","","","","","",""
"","","","","","canvas-keyboard-response","293","708678","0.0-12.0-1.56","2d_cat_multi_stim_exp1","2022-4-19","15:17:22","25","75","3","9","10","40","30","120","44","19","[""White""]","No","Male","2184075","null","null","","","","clear_screen","","","","","","","","","","","","","","","","","","","","","","","","","",""
"","","","","","canvas-keyboard-response","294","709367","0.0-12.0-2.56","2d_cat_multi_stim_exp1","2022-4-19","15:17:22","25","75","3","9","10","40","30","120","44","19","[""White""]","No","Male","2184075","680","u","learn","","","learn_trial","25","75","in","1","1","","","","","","","","","","","","","","","","","","","","",""
"","","","","","canvas-keyboard-response","295","709879","0.0-12.0-3.56","2d_cat_multi_stim_exp1","2022-4-19","15:17:22","25","75","3","9","10","40","30","120","44","19","[""White""]","No","Male","2184075","null","null","learn_feedback","","","learn_feedback","25","75","in","","","","","","","","","","","","","","","","","","","","","","",""
"","","","","","canvas-keyboard-response","296","709937","0.0-12.0-4.56","2d_cat_multi_stim_exp1","2022-4-19","15:17:22","25","75","3","9","10","40","30","120","44","19","[""White""]","No","Male","2184075","null","null","","","","clear_screen","","","","","","","","","","","","","","","","","","","","","","","","","",""
"","","","","","canvas-keyboard-response","297","710446","0.0-12.0-0.57","2d_cat_multi_stim_exp1","2022-4-19","15:17:22","25","75","3","9","10","40","30","120","44","19","[""White""]","No","Male","2184075","null","null","","","","fixation","","","","","","","","","","","","","","","","","","","","","","","","","",""
"","","","","","canvas-keyboard-response","298","710957","0.0-12.0-1.57","2d_cat_multi_stim_exp1","2022-4-19","15:17:22","25","75","3","9","10","40","30","120","44","19","[""White""]","No","Male","2184075","null","null","","","","clear_screen","","","","","","","","","","","","","","","","","","","","","","","","","",""
