"success","timeout","failed_images","failed_audio","failed_video","trial_type","trial_index","time_elapsed","internal_node_id","exp_name","date","time","angle_mean_in","radius_mean_in","angle_sd_in","radius_sd_in","angle_min_out","angle_max_out","radius_min_out","radius_max_out","sub_n","age","race","ethnicity","gender","exp_duration","rt","response","exp_trial_type","stimulus","view_history","screen_id","angle","radius","distribution","choice","correct","order","angle_a","radius_a","angle_b","radius_b","jkl_correct","transfer_trial_type","choice_set","abc_correct","tc_correct","tc_angle","tdc_a","tdc_b","tdc_c","pair","category_a","category_b","category_c","angle_c","radius_c","question_order"
"true","false","[]","[]","[]","preload","0","21","0.0-0.0","2d_cat_multi_stim_exp1","2022-4-6","10:17:36","25","75","3","9","10","40","30","120","16","20","[""White""]","No","Female","2339664","","","","","","","","","","","","","","","","","","","","","","","","","","","","","","","",""
"","","","","","survey-html-form","1","70006","0.0-1.0","2d_cat_multi_stim_exp1","2022-4-6","10:17:36","25","75","3","9","10","40","30","120","16","20","[""White""]","No","Female","2339664","69972","{""response"":""16""}","enter-sub-number","","","","","","","","","","","","","","","","","","","","","","","","","","","","",""
"true","","","","","fullscreen","2","81594","0.0-2.0","2d_cat_multi_stim_exp1","2022-4-6","10:17:36","25","75","3","9","10","40","30","120","16","20","[""White""]","No","Female","2339664","","","","","","","","","","","","","","","","","","","","","","","","","","","","","","","",""
"","","","","","image-button-response","3","98403","0.0-3.0","2d_cat_multi_stim_exp1","2022-4-6","10:17:36","25","75","3","9","10","40","30","120","16","20","[""White""]","No","Female","2339664","16796","0","","consent.png","","","","","","","","","","","","","","","","","","","","","","","","","","","",""
"","","","","","html-button-response","4","108642","0.0-4.0","2d_cat_multi_stim_exp1","2022-4-6","10:17:36","25","75","3","9","10","40","30","120","16","20","[""White""]","No","Female","2339664","10234","0","","<div style= ""font-size:25px;"" <p> <strong> Welcome to the experiment! </strong><br> <p style=""color:#8B0000; font-size:25px;""><strong> Please do NOT exit full screen until you are done with the experiment. </strong> </p><p style=""font-size:25px;color:#8B0000;""> <strong> The experiment will be canceled and your data will be lost <br> if you try to go back or refresh the page at any point during the experiment.</strong> </p><br><p> <strong> Thanks in advance for your contribution to our research! </strong></p>","","","","","","","","","","","","","","","","","","","","","","","","","","","",""
"","","","","","instructions","5","255634","0.0-5.0","2d_cat_multi_stim_exp1","2022-4-6","10:17:36","25","75","3","9","10","40","30","120","16","20","[""White""]","No","Female","2339664","146987","","","","[{""page_index"":0,""viewing_time"":13235},{""page_index"":1,""viewing_time"":5055},{""page_index"":2,""viewing_time"":72672},{""page_index"":3,""viewing_time"":56025}]","instructions_1","","","","","","","","","","","","","","","","","","","","","","","","","",""
"","","","","","instructions","6","258761","0.0-6.0","2d_cat_multi_stim_exp1","2022-4-6","10:17:36","25","75","3","9","10","40","30","120","16","20","[""White""]","No","Female","2339664","3125","","","","[{""page_index"":0,""viewing_time"":3124}]","Click to see the kinds of turtles that will appear in the study.","","","","","","","","","","","","","","","","","","","","","","","","","",""
"","","","","","canvas-keyboard-response","7","273779","0.0-7.0","2d_cat_multi_stim_exp1","2022-4-6","10:17:36","25","75","3","9","10","40","30","120","16","20","[""White""]","No","Female","2339664","null","null","","","","demo_range","","","","","","","","","","","","","","","","","","","","","","","","","",""
"","","","","","instructions","8","277962","0.0-8.0","2d_cat_multi_stim_exp1","2022-4-6","10:17:36","25","75","3","9","10","40","30","120","16","20","[""White""]","No","Female","2339664","3680","","","","[{""page_index"":0,""viewing_time"":3680}]","Click to see some turtles in the subspecies.","","","","","","","","","","","","","","","","","","","","","","","","","",""
"","","","","","canvas-keyboard-response","9","292978","0.0-9.0","2d_cat_multi_stim_exp1","2022-4-6","10:17:36","25","75","3","9","10","40","30","120","16","20","[""White""]","No","Female","2339664","null","null","","","","demo_in","","","","","","","","","","","","","","","","","","","","","","","","","",""
"","","","","","instructions","10","391466","0.0-10.0","2d_cat_multi_stim_exp1","2022-4-6","10:17:36","25","75","3","9","10","40","30","120","16","20","[""White""]","No","Female","2339664","97986","","","","[{""page_index"":0,""viewing_time"":20329},{""page_index"":1,""viewing_time"":71504},{""page_index"":2,""viewing_time"":6152}]","instructions_2","","","","","","","","","","","","","","","","","","","","","","","","","",""
"","","","","","instructions","11","393353","0.0-11.0","2d_cat_multi_stim_exp1","2022-4-6","10:17:36","25","75","3","9","10","40","30","120","16","20","[""White""]","No","Female","2339664","1885","","","","[{""page_index"":0,""viewing_time"":1885}]","Click to begin the first phase of the experiment.","","","","","","","","","","","","","","","","","","","","","","","","","",""
"","","","","","canvas-keyboard-response","12","393866","0.0-12.0-0.0","2d_cat_multi_stim_exp1","2022-4-6","10:17:36","25","75","3","9","10","40","30","120","16","20","[""White""]","No","Female","2339664","null","null","","","","fixation","","","","","","","","","","","","","","","","","","","","","","","","","",""
"","","","","","canvas-keyboard-response","13","394378","0.0-12.0-1.0","2d_cat_multi_stim_exp1","2022-4-6","10:17:36","25","75","3","9","10","40","30","120","16","20","[""White""]","No","Female","2339664","null","null","","","","clear_screen","","","","","","","","","","","","","","","","","","","","","","","","","",""
"","","","","","canvas-keyboard-response","14","404034","0.0-12.0-2.0","2d_cat_multi_stim_exp1","2022-4-6","10:17:36","25","75","3","9","10","40","30","120","16","20","[""White""]","No","Female","2339664","9642","u","learn","","","learn_trial","19","75","in","1","1","","","","","","","","","","","","","","","","","","","","",""
"","","","","","canvas-keyboard-response","15","404546","0.0-12.0-3.0","2d_cat_multi_stim_exp1","2022-4-6","10:17:36","25","75","3","9","10","40","30","120","16","20","[""White""]","No","Female","2339664","null","null","learn_feedback","","","learn_feedback","19","75","in","","","","","","","","","","","","","","","","","","","","","","",""
"","","","","","canvas-keyboard-response","16","404611","0.0-12.0-4.0","2d_cat_multi_stim_exp1","2022-4-6","10:17:36","25","75","3","9","10","40","30","120","16","20","[""White""]","No","Female","2339664","null","null","","","","clear_screen","","","","","","","","","","","","","","","","","","","","","","","","","",""
"","","","","","canvas-keyboard-response","17","405123","0.0-12.0-0.1","2d_cat_multi_stim_exp1","2022-4-6","10:17:36","25","75","3","9","10","40","30","120","16","20","[""White""]","No","Female","2339664","null","null","","","","fixation","","","","","","","","","","","","","","","","","","","","","","","","","",""
"","","","","","canvas-keyboard-response","18","405636","0.0-12.0-1.1","2d_cat_multi_stim_exp1","2022-4-6","10:17:36","25","75","3","9","10","40","30","120","16","20","[""White""]","No","Female","2339664","null","null","","","","clear_screen","","","","","","","","","","","","","","","","","","","","","","","","","",""
"","","","","","canvas-keyboard-response","19","408080","0.0-12.0-2.1","2d_cat_multi_stim_exp1","2022-4-6","10:17:36","25","75","3","9","10","40","30","120","16","20","[""White""]","No","Female","2339664","2434","u","learn","","","learn_trial","25","75","in","1","1","","","","","","","","","","","","","","","","","","","","",""
"","","","","","canvas-keyboard-response","20","408591","0.0-12.0-3.1","2d_cat_multi_stim_exp1","2022-4-6","10:17:36","25","75","3","9","10","40","30","120","16","20","[""White""]","No","Female","2339664","null","null","learn_feedback","","","learn_feedback","25","75","in","","","","","","","","","","","","","","","","","","","","","","",""
"","","","","","canvas-keyboard-response","21","408652","0.0-12.0-4.1","2d_cat_multi_stim_exp1","2022-4-6","10:17:36","25","75","3","9","10","40","30","120","16","20","[""White""]","No","Female","2339664","null","null","","","","clear_screen","","","","","","","","","","","","","","","","","","","","","","","","","",""
"","","","","","canvas-keyboard-response","22","409166","0.0-12.0-0.2","2d_cat_multi_stim_exp1","2022-4-6","10:17:36","25","75","3","9","10","40","30","120","16","20","[""White""]","No","Female","2339664","null","null","","","","fixation","","","","","","","","","","","","","","","","","","","","","","","","","",""
"","","","","","canvas-keyboard-response","23","409682","0.0-12.0-1.2","2d_cat_multi_stim_exp1","2022-4-6","10:17:36","25","75","3","9","10","40","30","120","16","20","[""White""]","No","Female","2339664","null","null","","","","clear_screen","","","","","","","","","","","","","","","","","","","","","","","","","",""
"","","","","","canvas-keyboard-response","24","410929","0.0-12.0-2.2","2d_cat_multi_stim_exp1","2022-4-6","10:17:36","25","75","3","9","10","40","30","120","16","20","[""White""]","No","Female","2339664","1235","i","learn","","","learn_trial","40","60","out","0","1","","","","","","","","","","","","","","","","","","","","",""
"","","","","","canvas-keyboard-response","25","411440","0.0-12.0-3.2","2d_cat_multi_stim_exp1","2022-4-6","10:17:36","25","75","3","9","10","40","30","120","16","20","[""White""]","No","Female","2339664","null","null","learn_feedback","","","learn_feedback","40","60","out","","","","","","","","","","","","","","","","","","","","","","",""
"","","","","","canvas-keyboard-response","26","411503","0.0-12.0-4.2","2d_cat_multi_stim_exp1","2022-4-6","10:17:36","25","75","3","9","10","40","30","120","16","20","[""White""]","No","Female","2339664","null","null","","","","clear_screen","","","","","","","","","","","","","","","","","","","","","","","","","",""
"","","","","","canvas-keyboard-response","27","412014","0.0-12.0-0.3","2d_cat_multi_stim_exp1","2022-4-6","10:17:36","25","75","3","9","10","40","30","120","16","20","[""White""]","No","Female","2339664","null","null","","","","fixation","","","","","","","","","","","","","","","","","","","","","","","","","",""
"","","","","","canvas-keyboard-response","28","412527","0.0-12.0-1.3","2d_cat_multi_stim_exp1","2022-4-6","10:17:36","25","75","3","9","10","40","30","120","16","20","[""White""]","No","Female","2339664","null","null","","","","clear_screen","","","","","","","","","","","","","","","","","","","","","","","","","",""
"","","","","","canvas-keyboard-response","29","413577","0.0-12.0-2.3","2d_cat_multi_stim_exp1","2022-4-6","10:17:36","25","75","3","9","10","40","30","120","16","20","[""White""]","No","Female","2339664","1038","u","learn","","","learn_trial","23.3333","80","out","1","0","","","","","","","","","","","","","","","","","","","","",""
"","","","","","canvas-keyboard-response","30","414588","0.0-12.0-3.3","2d_cat_multi_stim_exp1","2022-4-6","10:17:36","25","75","3","9","10","40","30","120","16","20","[""White""]","No","Female","2339664","null","null","learn_feedback","","","learn_feedback","23.3333","80","out","","","","","","","","","","","","","","","","","","","","","","",""
"","","","","","canvas-keyboard-response","31","414648","0.0-12.0-4.3","2d_cat_multi_stim_exp1","2022-4-6","10:17:36","25","75","3","9","10","40","30","120","16","20","[""White""]","No","Female","2339664","null","null","","","","clear_screen","","","","","","","","","","","","","","","","","","","","","","","","","",""
"","","","","","canvas-keyboard-response","32","415158","0.0-12.0-0.4","2d_cat_multi_stim_exp1","2022-4-6","10:17:36","25","75","3","9","10","40","30","120","16","20","[""White""]","No","Female","2339664","null","null","","","","fixation","","","","","","","","","","","","","","","","","","","","","","","","","",""
"","","","","","canvas-keyboard-response","33","415670","0.0-12.0-1.4","2d_cat_multi_stim_exp1","2022-4-6","10:17:36","25","75","3","9","10","40","30","120","16","20","[""White""]","No","Female","2339664","null","null","","","","clear_screen","","","","","","","","","","","","","","","","","","","","","","","","","",""
"","","","","","canvas-keyboard-response","34","417697","0.0-12.0-2.4","2d_cat_multi_stim_exp1","2022-4-6","10:17:36","25","75","3","9","10","40","30","120","16","20","[""White""]","No","Female","2339664","2015","u","learn","","","learn_trial","25","75","in","1","1","","","","","","","","","","","","","","","","","","","","",""
"","","","","","canvas-keyboard-response","35","418207","0.0-12.0-3.4","2d_cat_multi_stim_exp1","2022-4-6","10:17:36","25","75","3","9","10","40","30","120","16","20","[""White""]","No","Female","2339664","null","null","learn_feedback","","","learn_feedback","25","75","in","","","","","","","","","","","","","","","","","","","","","","",""
"","","","","","canvas-keyboard-response","36","418267","0.0-12.0-4.4","2d_cat_multi_stim_exp1","2022-4-6","10:17:36","25","75","3","9","10","40","30","120","16","20","[""White""]","No","Female","2339664","null","null","","","","clear_screen","","","","","","","","","","","","","","","","","","","","","","","","","",""
"","","","","","canvas-keyboard-response","37","418776","0.0-12.0-0.5","2d_cat_multi_stim_exp1","2022-4-6","10:17:36","25","75","3","9","10","40","30","120","16","20","[""White""]","No","Female","2339664","null","null","","","","fixation","","","","","","","","","","","","","","","","","","","","","","","","","",""
"","","","","","canvas-keyboard-response","38","419287","0.0-12.0-1.5","2d_cat_multi_stim_exp1","2022-4-6","10:17:36","25","75","3","9","10","40","30","120","16","20","[""White""]","No","Female","2339664","null","null","","","","clear_screen","","","","","","","","","","","","","","","","","","","","","","","","","",""
"","","","","","canvas-keyboard-response","39","420290","0.0-12.0-2.5","2d_cat_multi_stim_exp1","2022-4-6","10:17:36","25","75","3","9","10","40","30","120","16","20","[""White""]","No","Female","2339664","998","u","learn","","","learn_trial","23.3333","90","out","1","0","","","","","","","","","","","","","","","","","","","","",""
"","","","","","canvas-keyboard-response","40","421299","0.0-12.0-3.5","2d_cat_multi_stim_exp1","2022-4-6","10:17:36","25","75","3","9","10","40","30","120","16","20","[""White""]","No","Female","2339664","null","null","learn_feedback","","","learn_feedback","23.3333","90","out","","","","","","","","","","","","","","","","","","","","","","",""
"","","","","","canvas-keyboard-response","41","421361","0.0-12.0-4.5","2d_cat_multi_stim_exp1","2022-4-6","10:17:36","25","75","3","9","10","40","30","120","16","20","[""White""]","No","Female","2339664","null","null","","","","clear_screen","","","","","","","","","","","","","","","","","","","","","","","","","",""
"","","","","","canvas-keyboard-response","42","421872","0.0-12.0-0.6","2d_cat_multi_stim_exp1","2022-4-6","10:17:36","25","75","3","9","10","40","30","120","16","20","[""White""]","No","Female","2339664","null","null","","","","fixation","","","","","","","","","","","","","","","","","","","","","","","","","",""
"","","","","","canvas-keyboard-response","43","422386","0.0-12.0-1.6","2d_cat_multi_stim_exp1","2022-4-6","10:17:36","25","75","3","9","10","40","30","120","16","20","[""White""]","No","Female","2339664","null","null","","","","clear_screen","","","","","","","","","","","","","","","","","","","","","","","","","",""
"","","","","","canvas-keyboard-response","44","423704","0.0-12.0-2.6","2d_cat_multi_stim_exp1","2022-4-6","10:17:36","25","75","3","9","10","40","30","120","16","20","[""White""]","No","Female","2339664","1307","i","learn","","","learn_trial","10","100","out","0","1","","","","","","","","","","","","","","","","","","","","",""
"","","","","","canvas-keyboard-response","45","424217","0.0-12.0-3.6","2d_cat_multi_stim_exp1","2022-4-6","10:17:36","25","75","3","9","10","40","30","120","16","20","[""White""]","No","Female","2339664","null","null","learn_feedback","","","learn_feedback","10","100","out","","","","","","","","","","","","","","","","","","","","","","",""
"","","","","","canvas-keyboard-response","46","424276","0.0-12.0-4.6","2d_cat_multi_stim_exp1","2022-4-6","10:17:36","25","75","3","9","10","40","30","120","16","20","[""White""]","No","Female","2339664","null","null","","","","clear_screen","","","","","","","","","","","","","","","","","","","","","","","","","",""
"","","","","","canvas-keyboard-response","47","424786","0.0-12.0-0.7","2d_cat_multi_stim_exp1","2022-4-6","10:17:36","25","75","3","9","10","40","30","120","16","20","[""White""]","No","Female","2339664","null","null","","","","fixation","","","","","","","","","","","","","","","","","","","","","","","","","",""
"","","","","","canvas-keyboard-response","48","425298","0.0-12.0-1.7","2d_cat_multi_stim_exp1","2022-4-6","10:17:36","25","75","3","9","10","40","30","120","16","20","[""White""]","No","Female","2339664","null","null","","","","clear_screen","","","","","","","","","","","","","","","","","","","","","","","","","",""
"","","","","","canvas-keyboard-response","49","426241","0.0-12.0-2.7","2d_cat_multi_stim_exp1","2022-4-6","10:17:36","25","75","3","9","10","40","30","120","16","20","[""White""]","No","Female","2339664","932","i","learn","","","learn_trial","13.3333","40","out","0","1","","","","","","","","","","","","","","","","","","","","",""
"","","","","","canvas-keyboard-response","50","426750","0.0-12.0-3.7","2d_cat_multi_stim_exp1","2022-4-6","10:17:36","25","75","3","9","10","40","30","120","16","20","[""White""]","No","Female","2339664","null","null","learn_feedback","","","learn_feedback","13.3333","40","out","","","","","","","","","","","","","","","","","","","","","","",""
"","","","","","canvas-keyboard-response","51","426811","0.0-12.0-4.7","2d_cat_multi_stim_exp1","2022-4-6","10:17:36","25","75","3","9","10","40","30","120","16","20","[""White""]","No","Female","2339664","null","null","","","","clear_screen","","","","","","","","","","","","","","","","","","","","","","","","","",""
"","","","","","canvas-keyboard-response","52","427321","0.0-12.0-0.8","2d_cat_multi_stim_exp1","2022-4-6","10:17:36","25","75","3","9","10","40","30","120","16","20","[""White""]","No","Female","2339664","null","null","","","","fixation","","","","","","","","","","","","","","","","","","","","","","","","","",""
"","","","","","canvas-keyboard-response","53","427833","0.0-12.0-1.8","2d_cat_multi_stim_exp1","2022-4-6","10:17:36","25","75","3","9","10","40","30","120","16","20","[""White""]","No","Female","2339664","null","null","","","","clear_screen","","","","","","","","","","","","","","","","","","","","","","","","","",""
"","","","","","canvas-keyboard-response","54","428625","0.0-12.0-2.8","2d_cat_multi_stim_exp1","2022-4-6","10:17:36","25","75","3","9","10","40","30","120","16","20","[""White""]","No","Female","2339664","778","i","learn","","","learn_trial","10","60","out","0","1","","","","","","","","","","","","","","","","","","","","",""
"","","","","","canvas-keyboard-response","55","429137","0.0-12.0-3.8","2d_cat_multi_stim_exp1","2022-4-6","10:17:36","25","75","3","9","10","40","30","120","16","20","[""White""]","No","Female","2339664","null","null","learn_feedback","","","learn_feedback","10","60","out","","","","","","","","","","","","","","","","","","","","","","",""
"","","","","","canvas-keyboard-response","56","429199","0.0-12.0-4.8","2d_cat_multi_stim_exp1","2022-4-6","10:17:36","25","75","3","9","10","40","30","120","16","20","[""White""]","No","Female","2339664","null","null","","","","clear_screen","","","","","","","","","","","","","","","","","","","","","","","","","",""
"","","","","","canvas-keyboard-response","57","429709","0.0-12.0-0.9","2d_cat_multi_stim_exp1","2022-4-6","10:17:36","25","75","3","9","10","40","30","120","16","20","[""White""]","No","Female","2339664","null","null","","","","fixation","","","","","","","","","","","","","","","","","","","","","","","","","",""
"","","","","","canvas-keyboard-response","58","430224","0.0-12.0-1.9","2d_cat_multi_stim_exp1","2022-4-6","10:17:36","25","75","3","9","10","40","30","120","16","20","[""White""]","No","Female","2339664","null","null","","","","clear_screen","","","","","","","","","","","","","","","","","","","","","","","","","",""
"","","","","","canvas-keyboard-response","59","432865","0.0-12.0-2.9","2d_cat_multi_stim_exp1","2022-4-6","10:17:36","25","75","3","9","10","40","30","120","16","20","[""White""]","No","Female","2339664","2631","u","learn","","","learn_trial","27.2592","80.9214","in","1","1","","","","","","","","","","","","","","","","","","","","",""
"","","","","","canvas-keyboard-response","60","433378","0.0-12.0-3.9","2d_cat_multi_stim_exp1","2022-4-6","10:17:36","25","75","3","9","10","40","30","120","16","20","[""White""]","No","Female","2339664","null","null","learn_feedback","","","learn_feedback","27.2592","80.9214","in","","","","","","","","","","","","","","","","","","","","","","",""
"","","","","","canvas-keyboard-response","61","433441","0.0-12.0-4.9","2d_cat_multi_stim_exp1","2022-4-6","10:17:36","25","75","3","9","10","40","30","120","16","20","[""White""]","No","Female","2339664","null","null","","","","clear_screen","","","","","","","","","","","","","","","","","","","","","","","","","",""
"","","","","","canvas-keyboard-response","62","433952","0.0-12.0-0.10","2d_cat_multi_stim_exp1","2022-4-6","10:17:36","25","75","3","9","10","40","30","120","16","20","[""White""]","No","Female","2339664","null","null","","","","fixation","","","","","","","","","","","","","","","","","","","","","","","","","",""
"","","","","","canvas-keyboard-response","63","434466","0.0-12.0-1.10","2d_cat_multi_stim_exp1","2022-4-6","10:17:36","25","75","3","9","10","40","30","120","16","20","[""White""]","No","Female","2339664","null","null","","","","clear_screen","","","","","","","","","","","","","","","","","","","","","","","","","",""
"","","","","","canvas-keyboard-response","64","436410","0.0-12.0-2.10","2d_cat_multi_stim_exp1","2022-4-6","10:17:36","25","75","3","9","10","40","30","120","16","20","[""White""]","No","Female","2339664","1932","u","learn","","","learn_trial","20","70","out","1","0","","","","","","","","","","","","","","","","","","","","",""
"","","","","","canvas-keyboard-response","65","437420","0.0-12.0-3.10","2d_cat_multi_stim_exp1","2022-4-6","10:17:36","25","75","3","9","10","40","30","120","16","20","[""White""]","No","Female","2339664","null","null","learn_feedback","","","learn_feedback","20","70","out","","","","","","","","","","","","","","","","","","","","","","",""
"","","","","","canvas-keyboard-response","66","437482","0.0-12.0-4.10","2d_cat_multi_stim_exp1","2022-4-6","10:17:36","25","75","3","9","10","40","30","120","16","20","[""White""]","No","Female","2339664","null","null","","","","clear_screen","","","","","","","","","","","","","","","","","","","","","","","","","",""
"","","","","","canvas-keyboard-response","67","437994","0.0-12.0-0.11","2d_cat_multi_stim_exp1","2022-4-6","10:17:36","25","75","3","9","10","40","30","120","16","20","[""White""]","No","Female","2339664","null","null","","","","fixation","","","","","","","","","","","","","","","","","","","","","","","","","",""
"","","","","","canvas-keyboard-response","68","438509","0.0-12.0-1.11","2d_cat_multi_stim_exp1","2022-4-6","10:17:36","25","75","3","9","10","40","30","120","16","20","[""White""]","No","Female","2339664","null","null","","","","clear_screen","","","","","","","","","","","","","","","","","","","","","","","","","",""
"","","","","","canvas-keyboard-response","69","439441","0.0-12.0-2.11","2d_cat_multi_stim_exp1","2022-4-6","10:17:36","25","75","3","9","10","40","30","120","16","20","[""White""]","No","Female","2339664","924","u","learn","","","learn_trial","25","75","in","1","1","","","","","","","","","","","","","","","","","","","","",""
"","","","","","canvas-keyboard-response","70","439954","0.0-12.0-3.11","2d_cat_multi_stim_exp1","2022-4-6","10:17:36","25","75","3","9","10","40","30","120","16","20","[""White""]","No","Female","2339664","null","null","learn_feedback","","","learn_feedback","25","75","in","","","","","","","","","","","","","","","","","","","","","","",""
"","","","","","canvas-keyboard-response","71","440014","0.0-12.0-4.11","2d_cat_multi_stim_exp1","2022-4-6","10:17:36","25","75","3","9","10","40","30","120","16","20","[""White""]","No","Female","2339664","null","null","","","","clear_screen","","","","","","","","","","","","","","","","","","","","","","","","","",""
"","","","","","canvas-keyboard-response","72","440524","0.0-12.0-0.12","2d_cat_multi_stim_exp1","2022-4-6","10:17:36","25","75","3","9","10","40","30","120","16","20","[""White""]","No","Female","2339664","null","null","","","","fixation","","","","","","","","","","","","","","","","","","","","","","","","","",""
"","","","","","canvas-keyboard-response","73","441038","0.0-12.0-1.12","2d_cat_multi_stim_exp1","2022-4-6","10:17:36","25","75","3","9","10","40","30","120","16","20","[""White""]","No","Female","2339664","null","null","","","","clear_screen","","","","","","","","","","","","","","","","","","","","","","","","","",""
"","","","","","canvas-keyboard-response","74","441977","0.0-12.0-2.12","2d_cat_multi_stim_exp1","2022-4-6","10:17:36","25","75","3","9","10","40","30","120","16","20","[""White""]","No","Female","2339664","929","i","learn","","","learn_trial","10","110","out","0","1","","","","","","","","","","","","","","","","","","","","",""
"","","","","","canvas-keyboard-response","75","442489","0.0-12.0-3.12","2d_cat_multi_stim_exp1","2022-4-6","10:17:36","25","75","3","9","10","40","30","120","16","20","[""White""]","No","Female","2339664","null","null","learn_feedback","","","learn_feedback","10","110","out","","","","","","","","","","","","","","","","","","","","","","",""
"","","","","","canvas-keyboard-response","76","442548","0.0-12.0-4.12","2d_cat_multi_stim_exp1","2022-4-6","10:17:36","25","75","3","9","10","40","30","120","16","20","[""White""]","No","Female","2339664","null","null","","","","clear_screen","","","","","","","","","","","","","","","","","","","","","","","","","",""
"","","","","","canvas-keyboard-response","77","443060","0.0-12.0-0.13","2d_cat_multi_stim_exp1","2022-4-6","10:17:36","25","75","3","9","10","40","30","120","16","20","[""White""]","No","Female","2339664","null","null","","","","fixation","","","","","","","","","","","","","","","","","","","","","","","","","",""
"","","","","","canvas-keyboard-response","78","443571","0.0-12.0-1.13","2d_cat_multi_stim_exp1","2022-4-6","10:17:36","25","75","3","9","10","40","30","120","16","20","[""White""]","No","Female","2339664","null","null","","","","clear_screen","","","","","","","","","","","","","","","","","","","","","","","","","",""
"","","","","","canvas-keyboard-response","79","444232","0.0-12.0-2.13","2d_cat_multi_stim_exp1","2022-4-6","10:17:36","25","75","3","9","10","40","30","120","16","20","[""White""]","No","Female","2339664","649","i","learn","","","learn_trial","10","80","out","0","1","","","","","","","","","","","","","","","","","","","","",""
"","","","","","canvas-keyboard-response","80","444741","0.0-12.0-3.13","2d_cat_multi_stim_exp1","2022-4-6","10:17:36","25","75","3","9","10","40","30","120","16","20","[""White""]","No","Female","2339664","null","null","learn_feedback","","","learn_feedback","10","80","out","","","","","","","","","","","","","","","","","","","","","","",""
"","","","","","canvas-keyboard-response","81","444801","0.0-12.0-4.13","2d_cat_multi_stim_exp1","2022-4-6","10:17:36","25","75","3","9","10","40","30","120","16","20","[""White""]","No","Female","2339664","null","null","","","","clear_screen","","","","","","","","","","","","","","","","","","","","","","","","","",""
"","","","","","canvas-keyboard-response","82","445315","0.0-12.0-0.14","2d_cat_multi_stim_exp1","2022-4-6","10:17:36","25","75","3","9","10","40","30","120","16","20","[""White""]","No","Female","2339664","null","null","","","","fixation","","","","","","","","","","","","","","","","","","","","","","","","","",""
"","","","","","canvas-keyboard-response","83","445826","0.0-12.0-1.14","2d_cat_multi_stim_exp1","2022-4-6","10:17:36","25","75","3","9","10","40","30","120","16","20","[""White""]","No","Female","2339664","null","null","","","","clear_screen","","","","","","","","","","","","","","","","","","","","","","","","","",""
"","","","","","canvas-keyboard-response","84","449089","0.0-12.0-2.14","2d_cat_multi_stim_exp1","2022-4-6","10:17:36","25","75","3","9","10","40","30","120","16","20","[""White""]","No","Female","2339664","3251","i","learn","","","learn_trial","23.3333","110","out","0","1","","","","","","","","","","","","","","","","","","","","",""
"","","","","","canvas-keyboard-response","85","449600","0.0-12.0-3.14","2d_cat_multi_stim_exp1","2022-4-6","10:17:36","25","75","3","9","10","40","30","120","16","20","[""White""]","No","Female","2339664","null","null","learn_feedback","","","learn_feedback","23.3333","110","out","","","","","","","","","","","","","","","","","","","","","","",""
"","","","","","canvas-keyboard-response","86","449663","0.0-12.0-4.14","2d_cat_multi_stim_exp1","2022-4-6","10:17:36","25","75","3","9","10","40","30","120","16","20","[""White""]","No","Female","2339664","null","null","","","","clear_screen","","","","","","","","","","","","","","","","","","","","","","","","","",""
"","","","","","canvas-keyboard-response","87","450173","0.0-12.0-0.15","2d_cat_multi_stim_exp1","2022-4-6","10:17:36","25","75","3","9","10","40","30","120","16","20","[""White""]","No","Female","2339664","null","null","","","","fixation","","","","","","","","","","","","","","","","","","","","","","","","","",""
"","","","","","canvas-keyboard-response","88","450685","0.0-12.0-1.15","2d_cat_multi_stim_exp1","2022-4-6","10:17:36","25","75","3","9","10","40","30","120","16","20","[""White""]","No","Female","2339664","null","null","","","","clear_screen","","","","","","","","","","","","","","","","","","","","","","","","","",""
"","","","","","canvas-keyboard-response","89","451753","0.0-12.0-2.15","2d_cat_multi_stim_exp1","2022-4-6","10:17:36","25","75","3","9","10","40","30","120","16","20","[""White""]","No","Female","2339664","1055","i","learn","","","learn_trial","36.6667","40","out","0","1","","","","","","","","","","","","","","","","","","","","",""
"","","","","","canvas-keyboard-response","90","452262","0.0-12.0-3.15","2d_cat_multi_stim_exp1","2022-4-6","10:17:36","25","75","3","9","10","40","30","120","16","20","[""White""]","No","Female","2339664","null","null","learn_feedback","","","learn_feedback","36.6667","40","out","","","","","","","","","","","","","","","","","","","","","","",""
"","","","","","canvas-keyboard-response","91","452325","0.0-12.0-4.15","2d_cat_multi_stim_exp1","2022-4-6","10:17:36","25","75","3","9","10","40","30","120","16","20","[""White""]","No","Female","2339664","null","null","","","","clear_screen","","","","","","","","","","","","","","","","","","","","","","","","","",""
"","","","","","canvas-keyboard-response","92","452835","0.0-12.0-0.16","2d_cat_multi_stim_exp1","2022-4-6","10:17:36","25","75","3","9","10","40","30","120","16","20","[""White""]","No","Female","2339664","null","null","","","","fixation","","","","","","","","","","","","","","","","","","","","","","","","","",""
"","","","","","canvas-keyboard-response","93","453350","0.0-12.0-1.16","2d_cat_multi_stim_exp1","2022-4-6","10:17:36","25","75","3","9","10","40","30","120","16","20","[""White""]","No","Female","2339664","null","null","","","","clear_screen","","","","","","","","","","","","","","","","","","","","","","","","","",""
"","","","","","canvas-keyboard-response","94","454833","0.0-12.0-2.16","2d_cat_multi_stim_exp1","2022-4-6","10:17:36","25","75","3","9","10","40","30","120","16","20","[""White""]","No","Female","2339664","1471","u","learn","","","learn_trial","25","75","in","1","1","","","","","","","","","","","","","","","","","","","","",""
"","","","","","canvas-keyboard-response","95","455343","0.0-12.0-3.16","2d_cat_multi_stim_exp1","2022-4-6","10:17:36","25","75","3","9","10","40","30","120","16","20","[""White""]","No","Female","2339664","null","null","learn_feedback","","","learn_feedback","25","75","in","","","","","","","","","","","","","","","","","","","","","","",""
"","","","","","canvas-keyboard-response","96","455404","0.0-12.0-4.16","2d_cat_multi_stim_exp1","2022-4-6","10:17:36","25","75","3","9","10","40","30","120","16","20","[""White""]","No","Female","2339664","null","null","","","","clear_screen","","","","","","","","","","","","","","","","","","","","","","","","","",""
"","","","","","canvas-keyboard-response","97","455916","0.0-12.0-0.17","2d_cat_multi_stim_exp1","2022-4-6","10:17:36","25","75","3","9","10","40","30","120","16","20","[""White""]","No","Female","2339664","null","null","","","","fixation","","","","","","","","","","","","","","","","","","","","","","","","","",""
"","","","","","canvas-keyboard-response","98","456430","0.0-12.0-1.17","2d_cat_multi_stim_exp1","2022-4-6","10:17:36","25","75","3","9","10","40","30","120","16","20","[""White""]","No","Female","2339664","null","null","","","","clear_screen","","","","","","","","","","","","","","","","","","","","","","","","","",""
"","","","","","canvas-keyboard-response","99","458434","0.0-12.0-2.17","2d_cat_multi_stim_exp1","2022-4-6","10:17:36","25","75","3","9","10","40","30","120","16","20","[""White""]","No","Female","2339664","1989","u","learn","","","learn_trial","27.8087","71.8376","in","1","1","","","","","","","","","","","","","","","","","","","","",""
"","","","","","canvas-keyboard-response","100","458945","0.0-12.0-3.17","2d_cat_multi_stim_exp1","2022-4-6","10:17:36","25","75","3","9","10","40","30","120","16","20","[""White""]","No","Female","2339664","null","null","learn_feedback","","","learn_feedback","27.8087","71.8376","in","","","","","","","","","","","","","","","","","","","","","","",""
"","","","","","canvas-keyboard-response","101","459009","0.0-12.0-4.17","2d_cat_multi_stim_exp1","2022-4-6","10:17:36","25","75","3","9","10","40","30","120","16","20","[""White""]","No","Female","2339664","null","null","","","","clear_screen","","","","","","","","","","","","","","","","","","","","","","","","","",""
"","","","","","canvas-keyboard-response","102","459518","0.0-12.0-0.18","2d_cat_multi_stim_exp1","2022-4-6","10:17:36","25","75","3","9","10","40","30","120","16","20","[""White""]","No","Female","2339664","null","null","","","","fixation","","","","","","","","","","","","","","","","","","","","","","","","","",""
"","","","","","canvas-keyboard-response","103","460032","0.0-12.0-1.18","2d_cat_multi_stim_exp1","2022-4-6","10:17:36","25","75","3","9","10","40","30","120","16","20","[""White""]","No","Female","2339664","null","null","","","","clear_screen","","","","","","","","","","","","","","","","","","","","","","","","","",""
"","","","","","canvas-keyboard-response","104","462369","0.0-12.0-2.18","2d_cat_multi_stim_exp1","2022-4-6","10:17:36","25","75","3","9","10","40","30","120","16","20","[""White""]","No","Female","2339664","2325","u","learn","","","learn_trial","25","75","in","1","1","","","","","","","","","","","","","","","","","","","","",""
"","","","","","canvas-keyboard-response","105","462881","0.0-12.0-3.18","2d_cat_multi_stim_exp1","2022-4-6","10:17:36","25","75","3","9","10","40","30","120","16","20","[""White""]","No","Female","2339664","null","null","learn_feedback","","","learn_feedback","25","75","in","","","","","","","","","","","","","","","","","","","","","","",""
"","","","","","canvas-keyboard-response","106","462944","0.0-12.0-4.18","2d_cat_multi_stim_exp1","2022-4-6","10:17:36","25","75","3","9","10","40","30","120","16","20","[""White""]","No","Female","2339664","null","null","","","","clear_screen","","","","","","","","","","","","","","","","","","","","","","","","","",""
"","","","","","canvas-keyboard-response","107","463456","0.0-12.0-0.19","2d_cat_multi_stim_exp1","2022-4-6","10:17:36","25","75","3","9","10","40","30","120","16","20","[""White""]","No","Female","2339664","null","null","","","","fixation","","","","","","","","","","","","","","","","","","","","","","","","","",""
"","","","","","canvas-keyboard-response","108","463971","0.0-12.0-1.19","2d_cat_multi_stim_exp1","2022-4-6","10:17:36","25","75","3","9","10","40","30","120","16","20","[""White""]","No","Female","2339664","null","null","","","","clear_screen","","","","","","","","","","","","","","","","","","","","","","","","","",""
"","","","","","canvas-keyboard-response","109","464809","0.0-12.0-2.19","2d_cat_multi_stim_exp1","2022-4-6","10:17:36","25","75","3","9","10","40","30","120","16","20","[""White""]","No","Female","2339664","828","i","learn","","","learn_trial","10","70","out","0","1","","","","","","","","","","","","","","","","","","","","",""
"","","","","","canvas-keyboard-response","110","465324","0.0-12.0-3.19","2d_cat_multi_stim_exp1","2022-4-6","10:17:36","25","75","3","9","10","40","30","120","16","20","[""White""]","No","Female","2339664","null","null","learn_feedback","","","learn_feedback","10","70","out","","","","","","","","","","","","","","","","","","","","","","",""
"","","","","","canvas-keyboard-response","111","465389","0.0-12.0-4.19","2d_cat_multi_stim_exp1","2022-4-6","10:17:36","25","75","3","9","10","40","30","120","16","20","[""White""]","No","Female","2339664","null","null","","","","clear_screen","","","","","","","","","","","","","","","","","","","","","","","","","",""
"","","","","","canvas-keyboard-response","112","465898","0.0-12.0-0.20","2d_cat_multi_stim_exp1","2022-4-6","10:17:36","25","75","3","9","10","40","30","120","16","20","[""White""]","No","Female","2339664","null","null","","","","fixation","","","","","","","","","","","","","","","","","","","","","","","","","",""
"","","","","","canvas-keyboard-response","113","466413","0.0-12.0-1.20","2d_cat_multi_stim_exp1","2022-4-6","10:17:36","25","75","3","9","10","40","30","120","16","20","[""White""]","No","Female","2339664","null","null","","","","clear_screen","","","","","","","","","","","","","","","","","","","","","","","","","",""
"","","","","","canvas-keyboard-response","114","467465","0.0-12.0-2.20","2d_cat_multi_stim_exp1","2022-4-6","10:17:36","25","75","3","9","10","40","30","120","16","20","[""White""]","No","Female","2339664","1039","u","learn","","","learn_trial","25","75","in","1","1","","","","","","","","","","","","","","","","","","","","",""
"","","","","","canvas-keyboard-response","115","467976","0.0-12.0-3.20","2d_cat_multi_stim_exp1","2022-4-6","10:17:36","25","75","3","9","10","40","30","120","16","20","[""White""]","No","Female","2339664","null","null","learn_feedback","","","learn_feedback","25","75","in","","","","","","","","","","","","","","","","","","","","","","",""
"","","","","","canvas-keyboard-response","116","468038","0.0-12.0-4.20","2d_cat_multi_stim_exp1","2022-4-6","10:17:36","25","75","3","9","10","40","30","120","16","20","[""White""]","No","Female","2339664","null","null","","","","clear_screen","","","","","","","","","","","","","","","","","","","","","","","","","",""
"","","","","","canvas-keyboard-response","117","468550","0.0-12.0-0.21","2d_cat_multi_stim_exp1","2022-4-6","10:17:36","25","75","3","9","10","40","30","120","16","20","[""White""]","No","Female","2339664","null","null","","","","fixation","","","","","","","","","","","","","","","","","","","","","","","","","",""
"","","","","","canvas-keyboard-response","118","469066","0.0-12.0-1.21","2d_cat_multi_stim_exp1","2022-4-6","10:17:36","25","75","3","9","10","40","30","120","16","20","[""White""]","No","Female","2339664","null","null","","","","clear_screen","","","","","","","","","","","","","","","","","","","","","","","","","",""
"","","","","","canvas-keyboard-response","119","470705","0.0-12.0-2.21","2d_cat_multi_stim_exp1","2022-4-6","10:17:36","25","75","3","9","10","40","30","120","16","20","[""White""]","No","Female","2339664","1626","i","learn","","","learn_trial","26.6667","110","out","0","1","","","","","","","","","","","","","","","","","","","","",""
"","","","","","canvas-keyboard-response","120","471217","0.0-12.0-3.21","2d_cat_multi_stim_exp1","2022-4-6","10:17:36","25","75","3","9","10","40","30","120","16","20","[""White""]","No","Female","2339664","null","null","learn_feedback","","","learn_feedback","26.6667","110","out","","","","","","","","","","","","","","","","","","","","","","",""
"","","","","","canvas-keyboard-response","121","471281","0.0-12.0-4.21","2d_cat_multi_stim_exp1","2022-4-6","10:17:36","25","75","3","9","10","40","30","120","16","20","[""White""]","No","Female","2339664","null","null","","","","clear_screen","","","","","","","","","","","","","","","","","","","","","","","","","",""
"","","","","","canvas-keyboard-response","122","471792","0.0-12.0-0.22","2d_cat_multi_stim_exp1","2022-4-6","10:17:36","25","75","3","9","10","40","30","120","16","20","[""White""]","No","Female","2339664","null","null","","","","fixation","","","","","","","","","","","","","","","","","","","","","","","","","",""
"","","","","","canvas-keyboard-response","123","472306","0.0-12.0-1.22","2d_cat_multi_stim_exp1","2022-4-6","10:17:36","25","75","3","9","10","40","30","120","16","20","[""White""]","No","Female","2339664","null","null","","","","clear_screen","","","","","","","","","","","","","","","","","","","","","","","","","",""
"","","","","","canvas-keyboard-response","124","473720","0.0-12.0-2.22","2d_cat_multi_stim_exp1","2022-4-6","10:17:36","25","75","3","9","10","40","30","120","16","20","[""White""]","No","Female","2339664","1402","i","learn","","","learn_trial","40","90","out","0","1","","","","","","","","","","","","","","","","","","","","",""
"","","","","","canvas-keyboard-response","125","474233","0.0-12.0-3.22","2d_cat_multi_stim_exp1","2022-4-6","10:17:36","25","75","3","9","10","40","30","120","16","20","[""White""]","No","Female","2339664","null","null","learn_feedback","","","learn_feedback","40","90","out","","","","","","","","","","","","","","","","","","","","","","",""
"","","","","","canvas-keyboard-response","126","474297","0.0-12.0-4.22","2d_cat_multi_stim_exp1","2022-4-6","10:17:36","25","75","3","9","10","40","30","120","16","20","[""White""]","No","Female","2339664","null","null","","","","clear_screen","","","","","","","","","","","","","","","","","","","","","","","","","",""
"","","","","","canvas-keyboard-response","127","474807","0.0-12.0-0.23","2d_cat_multi_stim_exp1","2022-4-6","10:17:36","25","75","3","9","10","40","30","120","16","20","[""White""]","No","Female","2339664","null","null","","","","fixation","","","","","","","","","","","","","","","","","","","","","","","","","",""
"","","","","","canvas-keyboard-response","128","475321","0.0-12.0-1.23","2d_cat_multi_stim_exp1","2022-4-6","10:17:36","25","75","3","9","10","40","30","120","16","20","[""White""]","No","Female","2339664","null","null","","","","clear_screen","","","","","","","","","","","","","","","","","","","","","","","","","",""
"","","","","","canvas-keyboard-response","129","476385","0.0-12.0-2.23","2d_cat_multi_stim_exp1","2022-4-6","10:17:36","25","75","3","9","10","40","30","120","16","20","[""White""]","No","Female","2339664","1054","i","learn","","","learn_trial","16.6667","30","out","0","1","","","","","","","","","","","","","","","","","","","","",""
"","","","","","canvas-keyboard-response","130","476895","0.0-12.0-3.23","2d_cat_multi_stim_exp1","2022-4-6","10:17:36","25","75","3","9","10","40","30","120","16","20","[""White""]","No","Female","2339664","null","null","learn_feedback","","","learn_feedback","16.6667","30","out","","","","","","","","","","","","","","","","","","","","","","",""
"","","","","","canvas-keyboard-response","131","476958","0.0-12.0-4.23","2d_cat_multi_stim_exp1","2022-4-6","10:17:36","25","75","3","9","10","40","30","120","16","20","[""White""]","No","Female","2339664","null","null","","","","clear_screen","","","","","","","","","","","","","","","","","","","","","","","","","",""
"","","","","","canvas-keyboard-response","132","477467","0.0-12.0-0.24","2d_cat_multi_stim_exp1","2022-4-6","10:17:36","25","75","3","9","10","40","30","120","16","20","[""White""]","No","Female","2339664","null","null","","","","fixation","","","","","","","","","","","","","","","","","","","","","","","","","",""
"","","","","","canvas-keyboard-response","133","477981","0.0-12.0-1.24","2d_cat_multi_stim_exp1","2022-4-6","10:17:36","25","75","3","9","10","40","30","120","16","20","[""White""]","No","Female","2339664","null","null","","","","clear_screen","","","","","","","","","","","","","","","","","","","","","","","","","",""
"","","","","","canvas-keyboard-response","134","479096","0.0-12.0-2.24","2d_cat_multi_stim_exp1","2022-4-6","10:17:36","25","75","3","9","10","40","30","120","16","20","[""White""]","No","Female","2339664","1103","u","learn","","","learn_trial","25","75","in","1","1","","","","","","","","","","","","","","","","","","","","",""
"","","","","","canvas-keyboard-response","135","479607","0.0-12.0-3.24","2d_cat_multi_stim_exp1","2022-4-6","10:17:36","25","75","3","9","10","40","30","120","16","20","[""White""]","No","Female","2339664","null","null","learn_feedback","","","learn_feedback","25","75","in","","","","","","","","","","","","","","","","","","","","","","",""
"","","","","","canvas-keyboard-response","136","479672","0.0-12.0-4.24","2d_cat_multi_stim_exp1","2022-4-6","10:17:36","25","75","3","9","10","40","30","120","16","20","[""White""]","No","Female","2339664","null","null","","","","clear_screen","","","","","","","","","","","","","","","","","","","","","","","","","",""
"","","","","","canvas-keyboard-response","137","480184","0.0-12.0-0.25","2d_cat_multi_stim_exp1","2022-4-6","10:17:36","25","75","3","9","10","40","30","120","16","20","[""White""]","No","Female","2339664","null","null","","","","fixation","","","","","","","","","","","","","","","","","","","","","","","","","",""
"","","","","","canvas-keyboard-response","138","480700","0.0-12.0-1.25","2d_cat_multi_stim_exp1","2022-4-6","10:17:36","25","75","3","9","10","40","30","120","16","20","[""White""]","No","Female","2339664","null","null","","","","clear_screen","","","","","","","","","","","","","","","","","","","","","","","","","",""
"","","","","","canvas-keyboard-response","139","482304","0.0-12.0-2.25","2d_cat_multi_stim_exp1","2022-4-6","10:17:36","25","75","3","9","10","40","30","120","16","20","[""White""]","No","Female","2339664","1598","u","learn","","","learn_trial","22.2971","71.095","in","1","1","","","","","","","","","","","","","","","","","","","","",""
"","","","","","canvas-keyboard-response","140","482816","0.0-12.0-3.25","2d_cat_multi_stim_exp1","2022-4-6","10:17:36","25","75","3","9","10","40","30","120","16","20","[""White""]","No","Female","2339664","null","null","learn_feedback","","","learn_feedback","22.2971","71.095","in","","","","","","","","","","","","","","","","","","","","","","",""
"","","","","","canvas-keyboard-response","141","482879","0.0-12.0-4.25","2d_cat_multi_stim_exp1","2022-4-6","10:17:36","25","75","3","9","10","40","30","120","16","20","[""White""]","No","Female","2339664","null","null","","","","clear_screen","","","","","","","","","","","","","","","","","","","","","","","","","",""
"","","","","","canvas-keyboard-response","142","483391","0.0-12.0-0.26","2d_cat_multi_stim_exp1","2022-4-6","10:17:36","25","75","3","9","10","40","30","120","16","20","[""White""]","No","Female","2339664","null","null","","","","fixation","","","","","","","","","","","","","","","","","","","","","","","","","",""
"","","","","","canvas-keyboard-response","143","483905","0.0-12.0-1.26","2d_cat_multi_stim_exp1","2022-4-6","10:17:36","25","75","3","9","10","40","30","120","16","20","[""White""]","No","Female","2339664","null","null","","","","clear_screen","","","","","","","","","","","","","","","","","","","","","","","","","",""
"","","","","","canvas-keyboard-response","144","485128","0.0-12.0-2.26","2d_cat_multi_stim_exp1","2022-4-6","10:17:36","25","75","3","9","10","40","30","120","16","20","[""White""]","No","Female","2339664","1212","u","learn","","","learn_trial","25","75","in","1","1","","","","","","","","","","","","","","","","","","","","",""
"","","","","","canvas-keyboard-response","145","485639","0.0-12.0-3.26","2d_cat_multi_stim_exp1","2022-4-6","10:17:36","25","75","3","9","10","40","30","120","16","20","[""White""]","No","Female","2339664","null","null","learn_feedback","","","learn_feedback","25","75","in","","","","","","","","","","","","","","","","","","","","","","",""
"","","","","","canvas-keyboard-response","146","485702","0.0-12.0-4.26","2d_cat_multi_stim_exp1","2022-4-6","10:17:36","25","75","3","9","10","40","30","120","16","20","[""White""]","No","Female","2339664","null","null","","","","clear_screen","","","","","","","","","","","","","","","","","","","","","","","","","",""
"","","","","","canvas-keyboard-response","147","486212","0.0-12.0-0.27","2d_cat_multi_stim_exp1","2022-4-6","10:17:36","25","75","3","9","10","40","30","120","16","20","[""White""]","No","Female","2339664","null","null","","","","fixation","","","","","","","","","","","","","","","","","","","","","","","","","",""
"","","","","","canvas-keyboard-response","148","486723","0.0-12.0-1.27","2d_cat_multi_stim_exp1","2022-4-6","10:17:36","25","75","3","9","10","40","30","120","16","20","[""White""]","No","Female","2339664","null","null","","","","clear_screen","","","","","","","","","","","","","","","","","","","","","","","","","",""
"","","","","","canvas-keyboard-response","149","488161","0.0-12.0-2.27","2d_cat_multi_stim_exp1","2022-4-6","10:17:36","25","75","3","9","10","40","30","120","16","20","[""White""]","No","Female","2339664","1429","i","learn","","","learn_trial","33.3333","60","out","0","1","","","","","","","","","","","","","","","","","","","","",""
"","","","","","canvas-keyboard-response","150","488673","0.0-12.0-3.27","2d_cat_multi_stim_exp1","2022-4-6","10:17:36","25","75","3","9","10","40","30","120","16","20","[""White""]","No","Female","2339664","null","null","learn_feedback","","","learn_feedback","33.3333","60","out","","","","","","","","","","","","","","","","","","","","","","",""
"","","","","","canvas-keyboard-response","151","488735","0.0-12.0-4.27","2d_cat_multi_stim_exp1","2022-4-6","10:17:36","25","75","3","9","10","40","30","120","16","20","[""White""]","No","Female","2339664","null","null","","","","clear_screen","","","","","","","","","","","","","","","","","","","","","","","","","",""
"","","","","","canvas-keyboard-response","152","489245","0.0-12.0-0.28","2d_cat_multi_stim_exp1","2022-4-6","10:17:36","25","75","3","9","10","40","30","120","16","20","[""White""]","No","Female","2339664","null","null","","","","fixation","","","","","","","","","","","","","","","","","","","","","","","","","",""
"","","","","","canvas-keyboard-response","153","489755","0.0-12.0-1.28","2d_cat_multi_stim_exp1","2022-4-6","10:17:36","25","75","3","9","10","40","30","120","16","20","[""White""]","No","Female","2339664","null","null","","","","clear_screen","","","","","","","","","","","","","","","","","","","","","","","","","",""
"","","","","","canvas-keyboard-response","154","490553","0.0-12.0-2.28","2d_cat_multi_stim_exp1","2022-4-6","10:17:36","25","75","3","9","10","40","30","120","16","20","[""White""]","No","Female","2339664","784","i","learn","","","learn_trial","13.3333","90","out","0","1","","","","","","","","","","","","","","","","","","","","",""
"","","","","","canvas-keyboard-response","155","491065","0.0-12.0-3.28","2d_cat_multi_stim_exp1","2022-4-6","10:17:36","25","75","3","9","10","40","30","120","16","20","[""White""]","No","Female","2339664","null","null","learn_feedback","","","learn_feedback","13.3333","90","out","","","","","","","","","","","","","","","","","","","","","","",""
"","","","","","canvas-keyboard-response","156","491129","0.0-12.0-4.28","2d_cat_multi_stim_exp1","2022-4-6","10:17:36","25","75","3","9","10","40","30","120","16","20","[""White""]","No","Female","2339664","null","null","","","","clear_screen","","","","","","","","","","","","","","","","","","","","","","","","","",""
"","","","","","canvas-keyboard-response","157","491642","0.0-12.0-0.29","2d_cat_multi_stim_exp1","2022-4-6","10:17:36","25","75","3","9","10","40","30","120","16","20","[""White""]","No","Female","2339664","null","null","","","","fixation","","","","","","","","","","","","","","","","","","","","","","","","","",""
"","","","","","canvas-keyboard-response","158","492157","0.0-12.0-1.29","2d_cat_multi_stim_exp1","2022-4-6","10:17:36","25","75","3","9","10","40","30","120","16","20","[""White""]","No","Female","2339664","null","null","","","","clear_screen","","","","","","","","","","","","","","","","","","","","","","","","","",""
"","","","","","canvas-keyboard-response","159","492817","0.0-12.0-2.29","2d_cat_multi_stim_exp1","2022-4-6","10:17:36","25","75","3","9","10","40","30","120","16","20","[""White""]","No","Female","2339664","645","u","learn","","","learn_trial","25","75","in","1","1","","","","","","","","","","","","","","","","","","","","",""
"","","","","","canvas-keyboard-response","160","493329","0.0-12.0-3.29","2d_cat_multi_stim_exp1","2022-4-6","10:17:36","25","75","3","9","10","40","30","120","16","20","[""White""]","No","Female","2339664","null","null","learn_feedback","","","learn_feedback","25","75","in","","","","","","","","","","","","","","","","","","","","","","",""
"","","","","","canvas-keyboard-response","161","493389","0.0-12.0-4.29","2d_cat_multi_stim_exp1","2022-4-6","10:17:36","25","75","3","9","10","40","30","120","16","20","[""White""]","No","Female","2339664","null","null","","","","clear_screen","","","","","","","","","","","","","","","","","","","","","","","","","",""
"","","","","","canvas-keyboard-response","162","493901","0.0-12.0-0.30","2d_cat_multi_stim_exp1","2022-4-6","10:17:36","25","75","3","9","10","40","30","120","16","20","[""White""]","No","Female","2339664","null","null","","","","fixation","","","","","","","","","","","","","","","","","","","","","","","","","",""
"","","","","","canvas-keyboard-response","163","494411","0.0-12.0-1.30","2d_cat_multi_stim_exp1","2022-4-6","10:17:36","25","75","3","9","10","40","30","120","16","20","[""White""]","No","Female","2339664","null","null","","","","clear_screen","","","","","","","","","","","","","","","","","","","","","","","","","",""
"","","","","","canvas-keyboard-response","164","495305","0.0-12.0-2.30","2d_cat_multi_stim_exp1","2022-4-6","10:17:36","25","75","3","9","10","40","30","120","16","20","[""White""]","No","Female","2339664","884","u","learn","","","learn_trial","25","75","in","1","1","","","","","","","","","","","","","","","","","","","","",""
"","","","","","canvas-keyboard-response","165","495817","0.0-12.0-3.30","2d_cat_multi_stim_exp1","2022-4-6","10:17:36","25","75","3","9","10","40","30","120","16","20","[""White""]","No","Female","2339664","null","null","learn_feedback","","","learn_feedback","25","75","in","","","","","","","","","","","","","","","","","","","","","","",""
"","","","","","canvas-keyboard-response","166","495881","0.0-12.0-4.30","2d_cat_multi_stim_exp1","2022-4-6","10:17:36","25","75","3","9","10","40","30","120","16","20","[""White""]","No","Female","2339664","null","null","","","","clear_screen","","","","","","","","","","","","","","","","","","","","","","","","","",""
"","","","","","canvas-keyboard-response","167","496393","0.0-12.0-0.31","2d_cat_multi_stim_exp1","2022-4-6","10:17:36","25","75","3","9","10","40","30","120","16","20","[""White""]","No","Female","2339664","null","null","","","","fixation","","","","","","","","","","","","","","","","","","","","","","","","","",""
"","","","","","canvas-keyboard-response","168","496908","0.0-12.0-1.31","2d_cat_multi_stim_exp1","2022-4-6","10:17:36","25","75","3","9","10","40","30","120","16","20","[""White""]","No","Female","2339664","null","null","","","","clear_screen","","","","","","","","","","","","","","","","","","","","","","","","","",""
"","","","","","canvas-keyboard-response","169","497633","0.0-12.0-2.31","2d_cat_multi_stim_exp1","2022-4-6","10:17:36","25","75","3","9","10","40","30","120","16","20","[""White""]","No","Female","2339664","715","u","learn","","","learn_trial","25","75","in","1","1","","","","","","","","","","","","","","","","","","","","",""
"","","","","","canvas-keyboard-response","170","498146","0.0-12.0-3.31","2d_cat_multi_stim_exp1","2022-4-6","10:17:36","25","75","3","9","10","40","30","120","16","20","[""White""]","No","Female","2339664","null","null","learn_feedback","","","learn_feedback","25","75","in","","","","","","","","","","","","","","","","","","","","","","",""
"","","","","","canvas-keyboard-response","171","498207","0.0-12.0-4.31","2d_cat_multi_stim_exp1","2022-4-6","10:17:36","25","75","3","9","10","40","30","120","16","20","[""White""]","No","Female","2339664","null","null","","","","clear_screen","","","","","","","","","","","","","","","","","","","","","","","","","",""
"","","","","","canvas-keyboard-response","172","498719","0.0-12.0-0.32","2d_cat_multi_stim_exp1","2022-4-6","10:17:36","25","75","3","9","10","40","30","120","16","20","[""White""]","No","Female","2339664","null","null","","","","fixation","","","","","","","","","","","","","","","","","","","","","","","","","",""
"","","","","","canvas-keyboard-response","173","499231","0.0-12.0-1.32","2d_cat_multi_stim_exp1","2022-4-6","10:17:36","25","75","3","9","10","40","30","120","16","20","[""White""]","No","Female","2339664","null","null","","","","clear_screen","","","","","","","","","","","","","","","","","","","","","","","","","",""
"","","","","","canvas-keyboard-response","174","499800","0.0-12.0-2.32","2d_cat_multi_stim_exp1","2022-4-6","10:17:36","25","75","3","9","10","40","30","120","16","20","[""White""]","No","Female","2339664","557","i","learn","","","learn_trial","40","50","out","0","1","","","","","","","","","","","","","","","","","","","","",""
"","","","","","canvas-keyboard-response","175","500313","0.0-12.0-3.32","2d_cat_multi_stim_exp1","2022-4-6","10:17:36","25","75","3","9","10","40","30","120","16","20","[""White""]","No","Female","2339664","null","null","learn_feedback","","","learn_feedback","40","50","out","","","","","","","","","","","","","","","","","","","","","","",""
"","","","","","canvas-keyboard-response","176","500372","0.0-12.0-4.32","2d_cat_multi_stim_exp1","2022-4-6","10:17:36","25","75","3","9","10","40","30","120","16","20","[""White""]","No","Female","2339664","null","null","","","","clear_screen","","","","","","","","","","","","","","","","","","","","","","","","","",""
"","","","","","canvas-keyboard-response","177","500882","0.0-12.0-0.33","2d_cat_multi_stim_exp1","2022-4-6","10:17:36","25","75","3","9","10","40","30","120","16","20","[""White""]","No","Female","2339664","null","null","","","","fixation","","","","","","","","","","","","","","","","","","","","","","","","","",""
"","","","","","canvas-keyboard-response","178","501398","0.0-12.0-1.33","2d_cat_multi_stim_exp1","2022-4-6","10:17:36","25","75","3","9","10","40","30","120","16","20","[""White""]","No","Female","2339664","null","null","","","","clear_screen","","","","","","","","","","","","","","","","","","","","","","","","","",""
"","","","","","canvas-keyboard-response","179","502010","0.0-12.0-2.33","2d_cat_multi_stim_exp1","2022-4-6","10:17:36","25","75","3","9","10","40","30","120","16","20","[""White""]","No","Female","2339664","602","i","learn","","","learn_trial","40","30","out","0","1","","","","","","","","","","","","","","","","","","","","",""
"","","","","","canvas-keyboard-response","180","502519","0.0-12.0-3.33","2d_cat_multi_stim_exp1","2022-4-6","10:17:36","25","75","3","9","10","40","30","120","16","20","[""White""]","No","Female","2339664","null","null","learn_feedback","","","learn_feedback","40","30","out","","","","","","","","","","","","","","","","","","","","","","",""
"","","","","","canvas-keyboard-response","181","502580","0.0-12.0-4.33","2d_cat_multi_stim_exp1","2022-4-6","10:17:36","25","75","3","9","10","40","30","120","16","20","[""White""]","No","Female","2339664","null","null","","","","clear_screen","","","","","","","","","","","","","","","","","","","","","","","","","",""
"","","","","","canvas-keyboard-response","182","503092","0.0-12.0-0.34","2d_cat_multi_stim_exp1","2022-4-6","10:17:36","25","75","3","9","10","40","30","120","16","20","[""White""]","No","Female","2339664","null","null","","","","fixation","","","","","","","","","","","","","","","","","","","","","","","","","",""
"","","","","","canvas-keyboard-response","183","503606","0.0-12.0-1.34","2d_cat_multi_stim_exp1","2022-4-6","10:17:36","25","75","3","9","10","40","30","120","16","20","[""White""]","No","Female","2339664","null","null","","","","clear_screen","","","","","","","","","","","","","","","","","","","","","","","","","",""
"","","","","","canvas-keyboard-response","184","504489","0.0-12.0-2.34","2d_cat_multi_stim_exp1","2022-4-6","10:17:36","25","75","3","9","10","40","30","120","16","20","[""White""]","No","Female","2339664","871","u","learn","","","learn_trial","25","75","in","1","1","","","","","","","","","","","","","","","","","","","","",""
"","","","","","canvas-keyboard-response","185","505001","0.0-12.0-3.34","2d_cat_multi_stim_exp1","2022-4-6","10:17:36","25","75","3","9","10","40","30","120","16","20","[""White""]","No","Female","2339664","null","null","learn_feedback","","","learn_feedback","25","75","in","","","","","","","","","","","","","","","","","","","","","","",""
"","","","","","canvas-keyboard-response","186","505061","0.0-12.0-4.34","2d_cat_multi_stim_exp1","2022-4-6","10:17:36","25","75","3","9","10","40","30","120","16","20","[""White""]","No","Female","2339664","null","null","","","","clear_screen","","","","","","","","","","","","","","","","","","","","","","","","","",""
"","","","","","canvas-keyboard-response","187","505574","0.0-12.0-0.35","2d_cat_multi_stim_exp1","2022-4-6","10:17:36","25","75","3","9","10","40","30","120","16","20","[""White""]","No","Female","2339664","null","null","","","","fixation","","","","","","","","","","","","","","","","","","","","","","","","","",""
"","","","","","canvas-keyboard-response","188","506088","0.0-12.0-1.35","2d_cat_multi_stim_exp1","2022-4-6","10:17:36","25","75","3","9","10","40","30","120","16","20","[""White""]","No","Female","2339664","null","null","","","","clear_screen","","","","","","","","","","","","","","","","","","","","","","","","","",""
"","","","","","canvas-keyboard-response","189","507385","0.0-12.0-2.35","2d_cat_multi_stim_exp1","2022-4-6","10:17:36","25","75","3","9","10","40","30","120","16","20","[""White""]","No","Female","2339664","1284","u","learn","","","learn_trial","25","75","in","1","1","","","","","","","","","","","","","","","","","","","","",""
"","","","","","canvas-keyboard-response","190","507897","0.0-12.0-3.35","2d_cat_multi_stim_exp1","2022-4-6","10:17:36","25","75","3","9","10","40","30","120","16","20","[""White""]","No","Female","2339664","null","null","learn_feedback","","","learn_feedback","25","75","in","","","","","","","","","","","","","","","","","","","","","","",""
"","","","","","canvas-keyboard-response","191","507959","0.0-12.0-4.35","2d_cat_multi_stim_exp1","2022-4-6","10:17:36","25","75","3","9","10","40","30","120","16","20","[""White""]","No","Female","2339664","null","null","","","","clear_screen","","","","","","","","","","","","","","","","","","","","","","","","","",""
"","","","","","canvas-keyboard-response","192","508469","0.0-12.0-0.36","2d_cat_multi_stim_exp1","2022-4-6","10:17:36","25","75","3","9","10","40","30","120","16","20","[""White""]","No","Female","2339664","null","null","","","","fixation","","","","","","","","","","","","","","","","","","","","","","","","","",""
"","","","","","canvas-keyboard-response","193","508985","0.0-12.0-1.36","2d_cat_multi_stim_exp1","2022-4-6","10:17:36","25","75","3","9","10","40","30","120","16","20","[""White""]","No","Female","2339664","null","null","","","","clear_screen","","","","","","","","","","","","","","","","","","","","","","","","","",""
"","","","","","canvas-keyboard-response","194","509585","0.0-12.0-2.36","2d_cat_multi_stim_exp1","2022-4-6","10:17:36","25","75","3","9","10","40","30","120","16","20","[""White""]","No","Female","2339664","590","i","learn","","","learn_trial","13.3333","50","out","0","1","","","","","","","","","","","","","","","","","","","","",""
"","","","","","canvas-keyboard-response","195","510095","0.0-12.0-3.36","2d_cat_multi_stim_exp1","2022-4-6","10:17:36","25","75","3","9","10","40","30","120","16","20","[""White""]","No","Female","2339664","null","null","learn_feedback","","","learn_feedback","13.3333","50","out","","","","","","","","","","","","","","","","","","","","","","",""
"","","","","","canvas-keyboard-response","196","510156","0.0-12.0-4.36","2d_cat_multi_stim_exp1","2022-4-6","10:17:36","25","75","3","9","10","40","30","120","16","20","[""White""]","No","Female","2339664","null","null","","","","clear_screen","","","","","","","","","","","","","","","","","","","","","","","","","",""
"","","","","","canvas-keyboard-response","197","510666","0.0-12.0-0.37","2d_cat_multi_stim_exp1","2022-4-6","10:17:36","25","75","3","9","10","40","30","120","16","20","[""White""]","No","Female","2339664","null","null","","","","fixation","","","","","","","","","","","","","","","","","","","","","","","","","",""
"","","","","","canvas-keyboard-response","198","511178","0.0-12.0-1.37","2d_cat_multi_stim_exp1","2022-4-6","10:17:36","25","75","3","9","10","40","30","120","16","20","[""White""]","No","Female","2339664","null","null","","","","clear_screen","","","","","","","","","","","","","","","","","","","","","","","","","",""
"","","","","","canvas-keyboard-response","199","512289","0.0-12.0-2.37","2d_cat_multi_stim_exp1","2022-4-6","10:17:36","25","75","3","9","10","40","30","120","16","20","[""White""]","No","Female","2339664","1101","u","learn","","","learn_trial","27.5753","79.6161","in","1","1","","","","","","","","","","","","","","","","","","","","",""
"","","","","","canvas-keyboard-response","200","512799","0.0-12.0-3.37","2d_cat_multi_stim_exp1","2022-4-6","10:17:36","25","75","3","9","10","40","30","120","16","20","[""White""]","No","Female","2339664","null","null","learn_feedback","","","learn_feedback","27.5753","79.6161","in","","","","","","","","","","","","","","","","","","","","","","",""
"","","","","","canvas-keyboard-response","201","512858","0.0-12.0-4.37","2d_cat_multi_stim_exp1","2022-4-6","10:17:36","25","75","3","9","10","40","30","120","16","20","[""White""]","No","Female","2339664","null","null","","","","clear_screen","","","","","","","","","","","","","","","","","","","","","","","","","",""
"","","","","","canvas-keyboard-response","202","513367","0.0-12.0-0.38","2d_cat_multi_stim_exp1","2022-4-6","10:17:36","25","75","3","9","10","40","30","120","16","20","[""White""]","No","Female","2339664","null","null","","","","fixation","","","","","","","","","","","","","","","","","","","","","","","","","",""
"","","","","","canvas-keyboard-response","203","513878","0.0-12.0-1.38","2d_cat_multi_stim_exp1","2022-4-6","10:17:36","25","75","3","9","10","40","30","120","16","20","[""White""]","No","Female","2339664","null","null","","","","clear_screen","","","","","","","","","","","","","","","","","","","","","","","","","",""
"","","","","","canvas-keyboard-response","204","514769","0.0-12.0-2.38","2d_cat_multi_stim_exp1","2022-4-6","10:17:36","25","75","3","9","10","40","30","120","16","20","[""White""]","No","Female","2339664","881","u","learn","","","learn_trial","25","75","in","1","1","","","","","","","","","","","","","","","","","","","","",""
"","","","","","canvas-keyboard-response","205","515279","0.0-12.0-3.38","2d_cat_multi_stim_exp1","2022-4-6","10:17:36","25","75","3","9","10","40","30","120","16","20","[""White""]","No","Female","2339664","null","null","learn_feedback","","","learn_feedback","25","75","in","","","","","","","","","","","","","","","","","","","","","","",""
"","","","","","canvas-keyboard-response","206","515341","0.0-12.0-4.38","2d_cat_multi_stim_exp1","2022-4-6","10:17:36","25","75","3","9","10","40","30","120","16","20","[""White""]","No","Female","2339664","null","null","","","","clear_screen","","","","","","","","","","","","","","","","","","","","","","","","","",""
"","","","","","canvas-keyboard-response","207","515853","0.0-12.0-0.39","2d_cat_multi_stim_exp1","2022-4-6","10:17:36","25","75","3","9","10","40","30","120","16","20","[""White""]","No","Female","2339664","null","null","","","","fixation","","","","","","","","","","","","","","","","","","","","","","","","","",""
"","","","","","canvas-keyboard-response","208","516364","0.0-12.0-1.39","2d_cat_multi_stim_exp1","2022-4-6","10:17:36","25","75","3","9","10","40","30","120","16","20","[""White""]","No","Female","2339664","null","null","","","","clear_screen","","","","","","","","","","","","","","","","","","","","","","","","","",""
"","","","","","canvas-keyboard-response","209","517049","0.0-12.0-2.39","2d_cat_multi_stim_exp1","2022-4-6","10:17:36","25","75","3","9","10","40","30","120","16","20","[""White""]","No","Female","2339664","670","u","learn","","","learn_trial","25","75","in","1","1","","","","","","","","","","","","","","","","","","","","",""
"","","","","","canvas-keyboard-response","210","517562","0.0-12.0-3.39","2d_cat_multi_stim_exp1","2022-4-6","10:17:36","25","75","3","9","10","40","30","120","16","20","[""White""]","No","Female","2339664","null","null","learn_feedback","","","learn_feedback","25","75","in","","","","","","","","","","","","","","","","","","","","","","",""
"","","","","","canvas-keyboard-response","211","517621","0.0-12.0-4.39","2d_cat_multi_stim_exp1","2022-4-6","10:17:36","25","75","3","9","10","40","30","120","16","20","[""White""]","No","Female","2339664","null","null","","","","clear_screen","","","","","","","","","","","","","","","","","","","","","","","","","",""
"","","","","","canvas-keyboard-response","212","518134","0.0-12.0-0.40","2d_cat_multi_stim_exp1","2022-4-6","10:17:36","25","75","3","9","10","40","30","120","16","20","[""White""]","No","Female","2339664","null","null","","","","fixation","","","","","","","","","","","","","","","","","","","","","","","","","",""
"","","","","","canvas-keyboard-response","213","518649","0.0-12.0-1.40","2d_cat_multi_stim_exp1","2022-4-6","10:17:36","25","75","3","9","10","40","30","120","16","20","[""White""]","No","Female","2339664","null","null","","","","clear_screen","","","","","","","","","","","","","","","","","","","","","","","","","",""
"","","","","","canvas-keyboard-response","214","519441","0.0-12.0-2.40","2d_cat_multi_stim_exp1","2022-4-6","10:17:36","25","75","3","9","10","40","30","120","16","20","[""White""]","No","Female","2339664","781","u","learn","","","learn_trial","22.5729","80.2901","in","1","1","","","","","","","","","","","","","","","","","","","","",""
"","","","","","canvas-keyboard-response","215","519954","0.0-12.0-3.40","2d_cat_multi_stim_exp1","2022-4-6","10:17:36","25","75","3","9","10","40","30","120","16","20","[""White""]","No","Female","2339664","null","null","learn_feedback","","","learn_feedback","22.5729","80.2901","in","","","","","","","","","","","","","","","","","","","","","","",""
"","","","","","canvas-keyboard-response","216","520017","0.0-12.0-4.40","2d_cat_multi_stim_exp1","2022-4-6","10:17:36","25","75","3","9","10","40","30","120","16","20","[""White""]","No","Female","2339664","null","null","","","","clear_screen","","","","","","","","","","","","","","","","","","","","","","","","","",""
"","","","","","canvas-keyboard-response","217","520528","0.0-12.0-0.41","2d_cat_multi_stim_exp1","2022-4-6","10:17:36","25","75","3","9","10","40","30","120","16","20","[""White""]","No","Female","2339664","null","null","","","","fixation","","","","","","","","","","","","","","","","","","","","","","","","","",""
"","","","","","canvas-keyboard-response","218","521039","0.0-12.0-1.41","2d_cat_multi_stim_exp1","2022-4-6","10:17:36","25","75","3","9","10","40","30","120","16","20","[""White""]","No","Female","2339664","null","null","","","","clear_screen","","","","","","","","","","","","","","","","","","","","","","","","","",""
"","","","","","canvas-keyboard-response","219","523673","0.0-12.0-2.41","2d_cat_multi_stim_exp1","2022-4-6","10:17:36","25","75","3","9","10","40","30","120","16","20","[""White""]","No","Female","2339664","2624","u","learn","","","learn_trial","26.8705","67.9635","in","1","1","","","","","","","","","","","","","","","","","","","","",""
"","","","","","canvas-keyboard-response","220","524185","0.0-12.0-3.41","2d_cat_multi_stim_exp1","2022-4-6","10:17:36","25","75","3","9","10","40","30","120","16","20","[""White""]","No","Female","2339664","null","null","learn_feedback","","","learn_feedback","26.8705","67.9635","in","","","","","","","","","","","","","","","","","","","","","","",""
"","","","","","canvas-keyboard-response","221","524245","0.0-12.0-4.41","2d_cat_multi_stim_exp1","2022-4-6","10:17:36","25","75","3","9","10","40","30","120","16","20","[""White""]","No","Female","2339664","null","null","","","","clear_screen","","","","","","","","","","","","","","","","","","","","","","","","","",""
"","","","","","canvas-keyboard-response","222","524758","0.0-12.0-0.42","2d_cat_multi_stim_exp1","2022-4-6","10:17:36","25","75","3","9","10","40","30","120","16","20","[""White""]","No","Female","2339664","null","null","","","","fixation","","","","","","","","","","","","","","","","","","","","","","","","","",""
"","","","","","canvas-keyboard-response","223","525269","0.0-12.0-1.42","2d_cat_multi_stim_exp1","2022-4-6","10:17:36","25","75","3","9","10","40","30","120","16","20","[""White""]","No","Female","2339664","null","null","","","","clear_screen","","","","","","","","","","","","","","","","","","","","","","","","","",""
"","","","","","canvas-keyboard-response","224","526025","0.0-12.0-2.42","2d_cat_multi_stim_exp1","2022-4-6","10:17:36","25","75","3","9","10","40","30","120","16","20","[""White""]","No","Female","2339664","743","u","learn","","","learn_trial","26.8705","82.0365","in","1","1","","","","","","","","","","","","","","","","","","","","",""
"","","","","","canvas-keyboard-response","225","526536","0.0-12.0-3.42","2d_cat_multi_stim_exp1","2022-4-6","10:17:36","25","75","3","9","10","40","30","120","16","20","[""White""]","No","Female","2339664","null","null","learn_feedback","","","learn_feedback","26.8705","82.0365","in","","","","","","","","","","","","","","","","","","","","","","",""
"","","","","","canvas-keyboard-response","226","526601","0.0-12.0-4.42","2d_cat_multi_stim_exp1","2022-4-6","10:17:36","25","75","3","9","10","40","30","120","16","20","[""White""]","No","Female","2339664","null","null","","","","clear_screen","","","","","","","","","","","","","","","","","","","","","","","","","",""
"","","","","","canvas-keyboard-response","227","527107","0.0-12.0-0.43","2d_cat_multi_stim_exp1","2022-4-6","10:17:36","25","75","3","9","10","40","30","120","16","20","[""White""]","No","Female","2339664","null","null","","","","fixation","","","","","","","","","","","","","","","","","","","","","","","","","",""
"","","","","","canvas-keyboard-response","228","527621","0.0-12.0-1.43","2d_cat_multi_stim_exp1","2022-4-6","10:17:36","25","75","3","9","10","40","30","120","16","20","[""White""]","No","Female","2339664","null","null","","","","clear_screen","","","","","","","","","","","","","","","","","","","","","","","","","",""
"","","","","","canvas-keyboard-response","229","528145","0.0-12.0-2.43","2d_cat_multi_stim_exp1","2022-4-6","10:17:36","25","75","3","9","10","40","30","120","16","20","[""White""]","No","Female","2339664","514","i","learn","","","learn_trial","10","120","out","0","1","","","","","","","","","","","","","","","","","","","","",""
"","","","","","canvas-keyboard-response","230","528658","0.0-12.0-3.43","2d_cat_multi_stim_exp1","2022-4-6","10:17:36","25","75","3","9","10","40","30","120","16","20","[""White""]","No","Female","2339664","null","null","learn_feedback","","","learn_feedback","10","120","out","","","","","","","","","","","","","","","","","","","","","","",""
"","","","","","canvas-keyboard-response","231","528718","0.0-12.0-4.43","2d_cat_multi_stim_exp1","2022-4-6","10:17:36","25","75","3","9","10","40","30","120","16","20","[""White""]","No","Female","2339664","null","null","","","","clear_screen","","","","","","","","","","","","","","","","","","","","","","","","","",""
"","","","","","canvas-keyboard-response","232","529230","0.0-12.0-0.44","2d_cat_multi_stim_exp1","2022-4-6","10:17:36","25","75","3","9","10","40","30","120","16","20","[""White""]","No","Female","2339664","null","null","","","","fixation","","","","","","","","","","","","","","","","","","","","","","","","","",""
"","","","","","canvas-keyboard-response","233","529745","0.0-12.0-1.44","2d_cat_multi_stim_exp1","2022-4-6","10:17:36","25","75","3","9","10","40","30","120","16","20","[""White""]","No","Female","2339664","null","null","","","","clear_screen","","","","","","","","","","","","","","","","","","","","","","","","","",""
"","","","","","canvas-keyboard-response","234","530489","0.0-12.0-2.44","2d_cat_multi_stim_exp1","2022-4-6","10:17:36","25","75","3","9","10","40","30","120","16","20","[""White""]","No","Female","2339664","731","u","learn","","","learn_trial","27.5753","70.3839","in","1","1","","","","","","","","","","","","","","","","","","","","",""
"","","","","","canvas-keyboard-response","235","531000","0.0-12.0-3.44","2d_cat_multi_stim_exp1","2022-4-6","10:17:36","25","75","3","9","10","40","30","120","16","20","[""White""]","No","Female","2339664","null","null","learn_feedback","","","learn_feedback","27.5753","70.3839","in","","","","","","","","","","","","","","","","","","","","","","",""
"","","","","","canvas-keyboard-response","236","531060","0.0-12.0-4.44","2d_cat_multi_stim_exp1","2022-4-6","10:17:36","25","75","3","9","10","40","30","120","16","20","[""White""]","No","Female","2339664","null","null","","","","clear_screen","","","","","","","","","","","","","","","","","","","","","","","","","",""
"","","","","","canvas-keyboard-response","237","531569","0.0-12.0-0.45","2d_cat_multi_stim_exp1","2022-4-6","10:17:36","25","75","3","9","10","40","30","120","16","20","[""White""]","No","Female","2339664","null","null","","","","fixation","","","","","","","","","","","","","","","","","","","","","","","","","",""
"","","","","","canvas-keyboard-response","238","532083","0.0-12.0-1.45","2d_cat_multi_stim_exp1","2022-4-6","10:17:36","25","75","3","9","10","40","30","120","16","20","[""White""]","No","Female","2339664","null","null","","","","clear_screen","","","","","","","","","","","","","","","","","","","","","","","","","",""
"","","","","","canvas-keyboard-response","239","535800","0.0-12.0-2.45","2d_cat_multi_stim_exp1","2022-4-6","10:17:36","25","75","3","9","10","40","30","120","16","20","[""White""]","No","Female","2339664","3707","i","learn","","","learn_trial","40","110","out","0","1","","","","","","","","","","","","","","","","","","","","",""
"","","","","","canvas-keyboard-response","240","536311","0.0-12.0-3.45","2d_cat_multi_stim_exp1","2022-4-6","10:17:36","25","75","3","9","10","40","30","120","16","20","[""White""]","No","Female","2339664","null","null","learn_feedback","","","learn_feedback","40","110","out","","","","","","","","","","","","","","","","","","","","","","",""
"","","","","","canvas-keyboard-response","241","536374","0.0-12.0-4.45","2d_cat_multi_stim_exp1","2022-4-6","10:17:36","25","75","3","9","10","40","30","120","16","20","[""White""]","No","Female","2339664","null","null","","","","clear_screen","","","","","","","","","","","","","","","","","","","","","","","","","",""
"","","","","","canvas-keyboard-response","242","536883","0.0-12.0-0.46","2d_cat_multi_stim_exp1","2022-4-6","10:17:36","25","75","3","9","10","40","30","120","16","20","[""White""]","No","Female","2339664","null","null","","","","fixation","","","","","","","","","","","","","","","","","","","","","","","","","",""
"","","","","","canvas-keyboard-response","243","537394","0.0-12.0-1.46","2d_cat_multi_stim_exp1","2022-4-6","10:17:36","25","75","3","9","10","40","30","120","16","20","[""White""]","No","Female","2339664","null","null","","","","clear_screen","","","","","","","","","","","","","","","","","","","","","","","","","",""
"","","","","","canvas-keyboard-response","244","538321","0.0-12.0-2.46","2d_cat_multi_stim_exp1","2022-4-6","10:17:36","25","75","3","9","10","40","30","120","16","20","[""White""]","No","Female","2339664","917","u","learn","","","learn_trial","26.6667","90","out","1","0","","","","","","","","","","","","","","","","","","","","",""
"","","","","","canvas-keyboard-response","245","539333","0.0-12.0-3.46","2d_cat_multi_stim_exp1","2022-4-6","10:17:36","25","75","3","9","10","40","30","120","16","20","[""White""]","No","Female","2339664","null","null","learn_feedback","","","learn_feedback","26.6667","90","out","","","","","","","","","","","","","","","","","","","","","","",""
"","","","","","canvas-keyboard-response","246","539398","0.0-12.0-4.46","2d_cat_multi_stim_exp1","2022-4-6","10:17:36","25","75","3","9","10","40","30","120","16","20","[""White""]","No","Female","2339664","null","null","","","","clear_screen","","","","","","","","","","","","","","","","","","","","","","","","","",""
"","","","","","canvas-keyboard-response","247","539906","0.0-12.0-0.47","2d_cat_multi_stim_exp1","2022-4-6","10:17:36","25","75","3","9","10","40","30","120","16","20","[""White""]","No","Female","2339664","null","null","","","","fixation","","","","","","","","","","","","","","","","","","","","","","","","","",""
"","","","","","canvas-keyboard-response","248","540419","0.0-12.0-1.47","2d_cat_multi_stim_exp1","2022-4-6","10:17:36","25","75","3","9","10","40","30","120","16","20","[""White""]","No","Female","2339664","null","null","","","","clear_screen","","","","","","","","","","","","","","","","","","","","","","","","","",""
"","","","","","canvas-keyboard-response","249","541121","0.0-12.0-2.47","2d_cat_multi_stim_exp1","2022-4-6","10:17:36","25","75","3","9","10","40","30","120","16","20","[""White""]","No","Female","2339664","692","i","learn","","","learn_trial","13.3333","120","out","0","1","","","","","","","","","","","","","","","","","","","","",""
"","","","","","canvas-keyboard-response","250","541631","0.0-12.0-3.47","2d_cat_multi_stim_exp1","2022-4-6","10:17:36","25","75","3","9","10","40","30","120","16","20","[""White""]","No","Female","2339664","null","null","learn_feedback","","","learn_feedback","13.3333","120","out","","","","","","","","","","","","","","","","","","","","","","",""
"","","","","","canvas-keyboard-response","251","541691","0.0-12.0-4.47","2d_cat_multi_stim_exp1","2022-4-6","10:17:36","25","75","3","9","10","40","30","120","16","20","[""White""]","No","Female","2339664","null","null","","","","clear_screen","","","","","","","","","","","","","","","","","","","","","","","","","",""
"","","","","","canvas-keyboard-response","252","542203","0.0-12.0-0.48","2d_cat_multi_stim_exp1","2022-4-6","10:17:36","25","75","3","9","10","40","30","120","16","20","[""White""]","No","Female","2339664","null","null","","","","fixation","","","","","","","","","","","","","","","","","","","","","","","","","",""
"","","","","","canvas-keyboard-response","253","542715","0.0-12.0-1.48","2d_cat_multi_stim_exp1","2022-4-6","10:17:36","25","75","3","9","10","40","30","120","16","20","[""White""]","No","Female","2339664","null","null","","","","clear_screen","","","","","","","","","","","","","","","","","","","","","","","","","",""
"","","","","","canvas-keyboard-response","254","543817","0.0-12.0-2.48","2d_cat_multi_stim_exp1","2022-4-6","10:17:36","25","75","3","9","10","40","30","120","16","20","[""White""]","No","Female","2339664","1092","i","learn","","","learn_trial","16.6667","70","out","0","1","","","","","","","","","","","","","","","","","","","","",""
"","","","","","canvas-keyboard-response","255","544330","0.0-12.0-3.48","2d_cat_multi_stim_exp1","2022-4-6","10:17:36","25","75","3","9","10","40","30","120","16","20","[""White""]","No","Female","2339664","null","null","learn_feedback","","","learn_feedback","16.6667","70","out","","","","","","","","","","","","","","","","","","","","","","",""
"","","","","","canvas-keyboard-response","256","544390","0.0-12.0-4.48","2d_cat_multi_stim_exp1","2022-4-6","10:17:36","25","75","3","9","10","40","30","120","16","20","[""White""]","No","Female","2339664","null","null","","","","clear_screen","","","","","","","","","","","","","","","","","","","","","","","","","",""
"","","","","","canvas-keyboard-response","257","544899","0.0-12.0-0.49","2d_cat_multi_stim_exp1","2022-4-6","10:17:36","25","75","3","9","10","40","30","120","16","20","[""White""]","No","Female","2339664","null","null","","","","fixation","","","","","","","","","","","","","","","","","","","","","","","","","",""
"","","","","","canvas-keyboard-response","258","545414","0.0-12.0-1.49","2d_cat_multi_stim_exp1","2022-4-6","10:17:36","25","75","3","9","10","40","30","120","16","20","[""White""]","No","Female","2339664","null","null","","","","clear_screen","","","","","","","","","","","","","","","","","","","","","","","","","",""
"","","","","","canvas-keyboard-response","259","546481","0.0-12.0-2.49","2d_cat_multi_stim_exp1","2022-4-6","10:17:36","25","75","3","9","10","40","30","120","16","20","[""White""]","No","Female","2339664","1056","u","learn","","","learn_trial","22.9268","68.4948","in","1","1","","","","","","","","","","","","","","","","","","","","",""
"","","","","","canvas-keyboard-response","260","546992","0.0-12.0-3.49","2d_cat_multi_stim_exp1","2022-4-6","10:17:36","25","75","3","9","10","40","30","120","16","20","[""White""]","No","Female","2339664","null","null","learn_feedback","","","learn_feedback","22.9268","68.4948","in","","","","","","","","","","","","","","","","","","","","","","",""
"","","","","","canvas-keyboard-response","261","547054","0.0-12.0-4.49","2d_cat_multi_stim_exp1","2022-4-6","10:17:36","25","75","3","9","10","40","30","120","16","20","[""White""]","No","Female","2339664","null","null","","","","clear_screen","","","","","","","","","","","","","","","","","","","","","","","","","",""
"","","","","","canvas-keyboard-response","262","547564","0.0-12.0-0.50","2d_cat_multi_stim_exp1","2022-4-6","10:17:36","25","75","3","9","10","40","30","120","16","20","[""White""]","No","Female","2339664","null","null","","","","fixation","","","","","","","","","","","","","","","","","","","","","","","","","",""
"","","","","","canvas-keyboard-response","263","548078","0.0-12.0-1.50","2d_cat_multi_stim_exp1","2022-4-6","10:17:36","25","75","3","9","10","40","30","120","16","20","[""White""]","No","Female","2339664","null","null","","","","clear_screen","","","","","","","","","","","","","","","","","","","","","","","","","",""
"","","","","","canvas-keyboard-response","264","550041","0.0-12.0-2.50","2d_cat_multi_stim_exp1","2022-4-6","10:17:36","25","75","3","9","10","40","30","120","16","20","[""White""]","No","Female","2339664","1954","i","learn","","","learn_trial","30","100","out","0","1","","","","","","","","","","","","","","","","","","","","",""
"","","","","","canvas-keyboard-response","265","550551","0.0-12.0-3.50","2d_cat_multi_stim_exp1","2022-4-6","10:17:36","25","75","3","9","10","40","30","120","16","20","[""White""]","No","Female","2339664","null","null","learn_feedback","","","learn_feedback","30","100","out","","","","","","","","","","","","","","","","","","","","","","",""
"","","","","","canvas-keyboard-response","266","550614","0.0-12.0-4.50","2d_cat_multi_stim_exp1","2022-4-6","10:17:36","25","75","3","9","10","40","30","120","16","20","[""White""]","No","Female","2339664","null","null","","","","clear_screen","","","","","","","","","","","","","","","","","","","","","","","","","",""
"","","","","","canvas-keyboard-response","267","551124","0.0-12.0-0.51","2d_cat_multi_stim_exp1","2022-4-6","10:17:36","25","75","3","9","10","40","30","120","16","20","[""White""]","No","Female","2339664","null","null","","","","fixation","","","","","","","","","","","","","","","","","","","","","","","","","",""
"","","","","","canvas-keyboard-response","268","551636","0.0-12.0-1.51","2d_cat_multi_stim_exp1","2022-4-6","10:17:36","25","75","3","9","10","40","30","120","16","20","[""White""]","No","Female","2339664","null","null","","","","clear_screen","","","","","","","","","","","","","","","","","","","","","","","","","",""
"","","","","","canvas-keyboard-response","269","553193","0.0-12.0-2.51","2d_cat_multi_stim_exp1","2022-4-6","10:17:36","25","75","3","9","10","40","30","120","16","20","[""White""]","No","Female","2339664","1548","i","learn","","","learn_trial","36.6667","100","out","0","1","","","","","","","","","","","","","","","","","","","","",""
"","","","","","canvas-keyboard-response","270","553703","0.0-12.0-3.51","2d_cat_multi_stim_exp1","2022-4-6","10:17:36","25","75","3","9","10","40","30","120","16","20","[""White""]","No","Female","2339664","null","null","learn_feedback","","","learn_feedback","36.6667","100","out","","","","","","","","","","","","","","","","","","","","","","",""
"","","","","","canvas-keyboard-response","271","553763","0.0-12.0-4.51","2d_cat_multi_stim_exp1","2022-4-6","10:17:36","25","75","3","9","10","40","30","120","16","20","[""White""]","No","Female","2339664","null","null","","","","clear_screen","","","","","","","","","","","","","","","","","","","","","","","","","",""
"","","","","","canvas-keyboard-response","272","554275","0.0-12.0-0.52","2d_cat_multi_stim_exp1","2022-4-6","10:17:36","25","75","3","9","10","40","30","120","16","20","[""White""]","No","Female","2339664","null","null","","","","fixation","","","","","","","","","","","","","","","","","","","","","","","","","",""
"","","","","","canvas-keyboard-response","273","554789","0.0-12.0-1.52","2d_cat_multi_stim_exp1","2022-4-6","10:17:36","25","75","3","9","10","40","30","120","16","20","[""White""]","No","Female","2339664","null","null","","","","clear_screen","","","","","","","","","","","","","","","","","","","","","","","","","",""
"","","","","","canvas-keyboard-response","274","555457","0.0-12.0-2.52","2d_cat_multi_stim_exp1","2022-4-6","10:17:36","25","75","3","9","10","40","30","120","16","20","[""White""]","No","Female","2339664","658","i","learn","","","learn_trial","13.3333","30","out","0","1","","","","","","","","","","","","","","","","","","","","",""
"","","","","","canvas-keyboard-response","275","555967","0.0-12.0-3.52","2d_cat_multi_stim_exp1","2022-4-6","10:17:36","25","75","3","9","10","40","30","120","16","20","[""White""]","No","Female","2339664","null","null","learn_feedback","","","learn_feedback","13.3333","30","out","","","","","","","","","","","","","","","","","","","","","","",""
"","","","","","canvas-keyboard-response","276","556031","0.0-12.0-4.52","2d_cat_multi_stim_exp1","2022-4-6","10:17:36","25","75","3","9","10","40","30","120","16","20","[""White""]","No","Female","2339664","null","null","","","","clear_screen","","","","","","","","","","","","","","","","","","","","","","","","","",""
"","","","","","canvas-keyboard-response","277","556541","0.0-12.0-0.53","2d_cat_multi_stim_exp1","2022-4-6","10:17:36","25","75","3","9","10","40","30","120","16","20","[""White""]","No","Female","2339664","null","null","","","","fixation","","","","","","","","","","","","","","","","","","","","","","","","","",""
"","","","","","canvas-keyboard-response","278","557057","0.0-12.0-1.53","2d_cat_multi_stim_exp1","2022-4-6","10:17:36","25","75","3","9","10","40","30","120","16","20","[""White""]","No","Female","2339664","null","null","","","","clear_screen","","","","","","","","","","","","","","","","","","","","","","","","","",""
"","","","","","canvas-keyboard-response","279","557697","0.0-12.0-2.53","2d_cat_multi_stim_exp1","2022-4-6","10:17:36","25","75","3","9","10","40","30","120","16","20","[""White""]","No","Female","2339664","630","i","learn","","","learn_trial","10","90","out","0","1","","","","","","","","","","","","","","","","","","","","",""
"","","","","","canvas-keyboard-response","280","558208","0.0-12.0-3.53","2d_cat_multi_stim_exp1","2022-4-6","10:17:36","25","75","3","9","10","40","30","120","16","20","[""White""]","No","Female","2339664","null","null","learn_feedback","","","learn_feedback","10","90","out","","","","","","","","","","","","","","","","","","","","","","",""
"","","","","","canvas-keyboard-response","281","558268","0.0-12.0-4.53","2d_cat_multi_stim_exp1","2022-4-6","10:17:36","25","75","3","9","10","40","30","120","16","20","[""White""]","No","Female","2339664","null","null","","","","clear_screen","","","","","","","","","","","","","","","","","","","","","","","","","",""
"","","","","","canvas-keyboard-response","282","558780","0.0-12.0-0.54","2d_cat_multi_stim_exp1","2022-4-6","10:17:36","25","75","3","9","10","40","30","120","16","20","[""White""]","No","Female","2339664","null","null","","","","fixation","","","","","","","","","","","","","","","","","","","","","","","","","",""
"","","","","","canvas-keyboard-response","283","559294","0.0-12.0-1.54","2d_cat_multi_stim_exp1","2022-4-6","10:17:36","25","75","3","9","10","40","30","120","16","20","[""White""]","No","Female","2339664","null","null","","","","clear_screen","","","","","","","","","","","","","","","","","","","","","","","","","",""
"","","","","","canvas-keyboard-response","284","560521","0.0-12.0-2.54","2d_cat_multi_stim_exp1","2022-4-6","10:17:36","25","75","3","9","10","40","30","120","16","20","[""White""]","No","Female","2339664","1217","i","learn","","","learn_trial","20","120","out","0","1","","","","","","","","","","","","","","","","","","","","",""
"","","","","","canvas-keyboard-response","285","561031","0.0-12.0-3.54","2d_cat_multi_stim_exp1","2022-4-6","10:17:36","25","75","3","9","10","40","30","120","16","20","[""White""]","No","Female","2339664","null","null","learn_feedback","","","learn_feedback","20","120","out","","","","","","","","","","","","","","","","","","","","","","",""
"","","","","","canvas-keyboard-response","286","561091","0.0-12.0-4.54","2d_cat_multi_stim_exp1","2022-4-6","10:17:36","25","75","3","9","10","40","30","120","16","20","[""White""]","No","Female","2339664","null","null","","","","clear_screen","","","","","","","","","","","","","","","","","","","","","","","","","",""
"","","","","","canvas-keyboard-response","287","561602","0.0-12.0-0.55","2d_cat_multi_stim_exp1","2022-4-6","10:17:36","25","75","3","9","10","40","30","120","16","20","[""White""]","No","Female","2339664","null","null","","","","fixation","","","","","","","","","","","","","","","","","","","","","","","","","",""
"","","","","","canvas-keyboard-response","288","562117","0.0-12.0-1.55","2d_cat_multi_stim_exp1","2022-4-6","10:17:36","25","75","3","9","10","40","30","120","16","20","[""White""]","No","Female","2339664","null","null","","","","clear_screen","","","","","","","","","","","","","","","","","","","","","","","","","",""
"","","","","","canvas-keyboard-response","289","565281","0.0-12.0-2.55","2d_cat_multi_stim_exp1","2022-4-6","10:17:36","25","75","3","9","10","40","30","120","16","20","[""White""]","No","Female","2339664","3152","u","learn","","","learn_trial","25","75","in","1","1","","","","","","","","","","","","","","","","","","","","",""
"","","","","","canvas-keyboard-response","290","565791","0.0-12.0-3.55","2d_cat_multi_stim_exp1","2022-4-6","10:17:36","25","75","3","9","10","40","30","120","16","20","[""White""]","No","Female","2339664","null","null","learn_feedback","","","learn_feedback","25","75","in","","","","","","","","","","","","","","","","","","","","","","",""
"","","","","","canvas-keyboard-response","291","565856","0.0-12.0-4.55","2d_cat_multi_stim_exp1","2022-4-6","10:17:36","25","75","3","9","10","40","30","120","16","20","[""White""]","No","Female","2339664","null","null","","","","clear_screen","","","","","","","","","","","","","","","","","","","","","","","","","",""
"","","","","","canvas-keyboard-response","292","566368","0.0-12.0-0.56","2d_cat_multi_stim_exp1","2022-4-6","10:17:36","25","75","3","9","10","40","30","120","16","20","[""White""]","No","Female","2339664","null","null","","","","fixation","","","","","","","","","","","","","","","","","","","","","","","","","",""
"","","","","","canvas-keyboard-response","293","566879","0.0-12.0-1.56","2d_cat_multi_stim_exp1","2022-4-6","10:17:36","25","75","3","9","10","40","30","120","16","20","[""White""]","No","Female","2339664","null","null","","","","clear_screen","","","","","","","","","","","","","","","","","","","","","","","","","",""
"","","","","","canvas-keyboard-response","294","567713","0.0-12.0-2.56","2d_cat_multi_stim_exp1","2022-4-6","10:17:36","25","75","3","9","10","40","30","120","16","20","[""White""]","No","Female","2339664","820","u","learn","","","learn_trial","25","75","in","1","1","","","","","","","","","","","","","","","","","","","","",""
"","","","","","canvas-keyboard-response","295","568222","0.0-12.0-3.56","2d_cat_multi_stim_exp1","2022-4-6","10:17:36","25","75","3","9","10","40","30","120","16","20","[""White""]","No","Female","2339664","null","null","learn_feedback","","","learn_feedback","25","75","in","","","","","","","","","","","","","","","","","","","","","","",""
"","","","","","canvas-keyboard-response","296","568286","0.0-12.0-4.56","2d_cat_multi_stim_exp1","2022-4-6","10:17:36","25","75","3","9","10","40","30","120","16","20","[""White""]","No","Female","2339664","null","null","","","","clear_screen","","","","","","","","","","","","","","","","","","","","","","","","","",""
"","","","","","canvas-keyboard-response","297","568795","0.0-12.0-0.57","2d_cat_multi_stim_exp1","2022-4-6","10:17:36","25","75","3","9","10","40","30","120","16","20","[""White""]","No","Female","2339664","null","null","","","","fixation","","","","","","","","","","","","","","","","","","","","","","","","","",""
