"success","timeout","failed_images","failed_audio","failed_video","trial_type","trial_index","time_elapsed","internal_node_id","exp_name","date","time","angle_mean_in","radius_mean_in","angle_sd_in","radius_sd_in","angle_min_out","angle_max_out","radius_min_out","radius_max_out","sub_n","age","race","ethnicity","gender","exp_duration","rt","stimulus","response","exp_trial_type","view_history","screen_id","angle","radius","distribution","choice","correct","order","angle_a","radius_a","angle_b","radius_b","angle_c","radius_c","jkl_correct","transfer_trial_type","choice_set","abc_correct","tc_correct","tdc_a","tdc_b","tdc_c","pair","category_a","category_b","category_c","question_order"
"true","false","[]","[]","[]","preload","0","23","0.0-0.0","2d_cat_multi_stim_exp1","2022-3-28","11:31:56","25","75","3","9","10","40","30","120","3","19","[""Asian""]","No","Female","1442291","","","","","","","","","","","","","","","","","","","","","","","","","","","","","","",""
"","","","","","html-button-response","1","2469","0.0-1.0","2d_cat_multi_stim_exp1","2022-3-28","11:31:56","25","75","3","9","10","40","30","120","3","19","[""Asian""]","No","Female","1442291","2444","<p><b>WAIT!</b></p></p><p>Did you mean to start this experiment? Only Walker, Esther, and Sean are running participants on this experiment.</p>","0","","","","","","","","","","","","","","","","","","","","","","","","","","","",""
"","","","","","survey-html-form","2","5245","0.0-2.0","2d_cat_multi_stim_exp1","2022-3-28","11:31:56","25","75","3","9","10","40","30","120","3","19","[""Asian""]","No","Female","1442291","2770","","{""response"":""3""}","enter-sub-number","","","","","","","","","","","","","","","","","","","","","","","","","","",""
"true","","","","","fullscreen","3","17021","0.0-3.0","2d_cat_multi_stim_exp1","2022-3-28","11:31:56","25","75","3","9","10","40","30","120","3","19","[""Asian""]","No","Female","1442291","","","","","","","","","","","","","","","","","","","","","","","","","","","","","","",""
"","","","","","image-button-response","4","22037","0.0-4.0","2d_cat_multi_stim_exp1","2022-3-28","11:31:56","25","75","3","9","10","40","30","120","3","19","[""Asian""]","No","Female","1442291","5006","consent.png","0","","","","","","","","","","","","","","","","","","","","","","","","","","","",""
"","","","","","html-button-response","5","31022","0.0-5.0","2d_cat_multi_stim_exp1","2022-3-28","11:31:56","25","75","3","9","10","40","30","120","3","19","[""Asian""]","No","Female","1442291","8977","<div style= ""font-size:25px;"" <p> <strong> Welcome to the experiment! </strong><br> <p style=""color:#8B0000; font-size:25px;""><strong> Please do NOT exit full screen until you are done with the experiment. </strong> </p><p style=""font-size:25px;color:#8B0000;""> <strong> The experiment will be canceled and your data will be lost <br> if you try to go back or refresh the page at any point during the experiment.</strong> </p><br><p> <strong> Thanks in advance for your contribution to our research! </strong></p>","0","","","","","","","","","","","","","","","","","","","","","","","","","","","",""
"","","","","","instructions","6","55614","0.0-6.0","2d_cat_multi_stim_exp1","2022-3-28","11:31:56","25","75","3","9","10","40","30","120","3","19","[""Asian""]","No","Female","1442291","24588","","","","[{""page_index"":0,""viewing_time"":4340},{""page_index"":1,""viewing_time"":1822},{""page_index"":2,""viewing_time"":7162},{""page_index"":3,""viewing_time"":11264}]","instructions_1","","","","","","","","","","","","","","","","","","","","","","","","",""
"","","","","","instructions","7","57286","0.0-7.0","2d_cat_multi_stim_exp1","2022-3-28","11:31:56","25","75","3","9","10","40","30","120","3","19","[""Asian""]","No","Female","1442291","1668","","","","[{""page_index"":0,""viewing_time"":1668}]","Click to see the kinds of turtles that will appear in the study.","","","","","","","","","","","","","","","","","","","","","","","","",""
"","","","","","canvas-keyboard-response","8","72301","0.0-8.0","2d_cat_multi_stim_exp1","2022-3-28","11:31:56","25","75","3","9","10","40","30","120","3","19","[""Asian""]","No","Female","1442291","null","","null","","","demo_range","","","","","","","","","","","","","","","","","","","","","","","","",""
"","","","","","instructions","9","74012","0.0-9.0","2d_cat_multi_stim_exp1","2022-3-28","11:31:56","25","75","3","9","10","40","30","120","3","19","[""Asian""]","No","Female","1442291","1207","","","","[{""page_index"":0,""viewing_time"":1207}]","Click to see some turtles in the subspecies.","","","","","","","","","","","","","","","","","","","","","","","","",""
"","","","","","canvas-keyboard-response","10","89029","0.0-10.0","2d_cat_multi_stim_exp1","2022-3-28","11:31:56","25","75","3","9","10","40","30","120","3","19","[""Asian""]","No","Female","1442291","null","","null","","","demo_in","","","","","","","","","","","","","","","","","","","","","","","","",""
"","","","","","instructions","11","111966","0.0-11.0","2d_cat_multi_stim_exp1","2022-3-28","11:31:56","25","75","3","9","10","40","30","120","3","19","[""Asian""]","No","Female","1442291","22435","","","","[{""page_index"":0,""viewing_time"":5209},{""page_index"":1,""viewing_time"":13833},{""page_index"":2,""viewing_time"":3392}]","instructions_2","","","","","","","","","","","","","","","","","","","","","","","","",""
"","","","","","instructions","12","113102","0.0-12.0","2d_cat_multi_stim_exp1","2022-3-28","11:31:56","25","75","3","9","10","40","30","120","3","19","[""Asian""]","No","Female","1442291","1135","","","","[{""page_index"":0,""viewing_time"":1134}]","Click to begin the first phase of the experiment.","","","","","","","","","","","","","","","","","","","","","","","","",""
"","","","","","canvas-keyboard-response","13","113612","0.0-13.0-0.0","2d_cat_multi_stim_exp1","2022-3-28","11:31:56","25","75","3","9","10","40","30","120","3","19","[""Asian""]","No","Female","1442291","null","","null","","","fixation","","","","","","","","","","","","","","","","","","","","","","","","",""
"","","","","","canvas-keyboard-response","14","114123","0.0-13.0-1.0","2d_cat_multi_stim_exp1","2022-3-28","11:31:56","25","75","3","9","10","40","30","120","3","19","[""Asian""]","No","Female","1442291","null","","null","","","clear_screen","","","","","","","","","","","","","","","","","","","","","","","","",""
"","","","","","canvas-keyboard-response","15","117189","0.0-13.0-2.0","2d_cat_multi_stim_exp1","2022-3-28","11:31:56","25","75","3","9","10","40","30","120","3","19","[""Asian""]","No","Female","1442291","3057","","i","learn","","learn_trial","36.6667","50","out","0","1","","","","","","","","","","","","","","","","","","","",""
"","","","","","canvas-keyboard-response","16","117702","0.0-13.0-3.0","2d_cat_multi_stim_exp1","2022-3-28","11:31:56","25","75","3","9","10","40","30","120","3","19","[""Asian""]","No","Female","1442291","null","","null","learn_feedback","","learn_feedback","36.6667","50","out","","","","","","","","","","","","","","","","","","","","","",""
"","","","","","canvas-keyboard-response","17","117765","0.0-13.0-4.0","2d_cat_multi_stim_exp1","2022-3-28","11:31:56","25","75","3","9","10","40","30","120","3","19","[""Asian""]","No","Female","1442291","null","","null","","","clear_screen","","","","","","","","","","","","","","","","","","","","","","","","",""
"","","","","","canvas-keyboard-response","18","118274","0.0-13.0-0.1","2d_cat_multi_stim_exp1","2022-3-28","11:31:56","25","75","3","9","10","40","30","120","3","19","[""Asian""]","No","Female","1442291","null","","null","","","fixation","","","","","","","","","","","","","","","","","","","","","","","","",""
"","","","","","canvas-keyboard-response","19","118784","0.0-13.0-1.1","2d_cat_multi_stim_exp1","2022-3-28","11:31:56","25","75","3","9","10","40","30","120","3","19","[""Asian""]","No","Female","1442291","null","","null","","","clear_screen","","","","","","","","","","","","","","","","","","","","","","","","",""
"","","","","","canvas-keyboard-response","20","120277","0.0-13.0-2.1","2d_cat_multi_stim_exp1","2022-3-28","11:31:56","25","75","3","9","10","40","30","120","3","19","[""Asian""]","No","Female","1442291","1480","","u","learn","","learn_trial","25.9271","83.5595","in","1","1","","","","","","","","","","","","","","","","","","","",""
"","","","","","canvas-keyboard-response","21","120788","0.0-13.0-3.1","2d_cat_multi_stim_exp1","2022-3-28","11:31:56","25","75","3","9","10","40","30","120","3","19","[""Asian""]","No","Female","1442291","null","","null","learn_feedback","","learn_feedback","25.9271","83.5595","in","","","","","","","","","","","","","","","","","","","","","",""
"","","","","","canvas-keyboard-response","22","120853","0.0-13.0-4.1","2d_cat_multi_stim_exp1","2022-3-28","11:31:56","25","75","3","9","10","40","30","120","3","19","[""Asian""]","No","Female","1442291","null","","null","","","clear_screen","","","","","","","","","","","","","","","","","","","","","","","","",""
"","","","","","canvas-keyboard-response","23","121361","0.0-13.0-0.2","2d_cat_multi_stim_exp1","2022-3-28","11:31:56","25","75","3","9","10","40","30","120","3","19","[""Asian""]","No","Female","1442291","null","","null","","","fixation","","","","","","","","","","","","","","","","","","","","","","","","",""
"","","","","","canvas-keyboard-response","24","121876","0.0-13.0-1.2","2d_cat_multi_stim_exp1","2022-3-28","11:31:56","25","75","3","9","10","40","30","120","3","19","[""Asian""]","No","Female","1442291","null","","null","","","clear_screen","","","","","","","","","","","","","","","","","","","","","","","","",""
"","","","","","canvas-keyboard-response","25","122877","0.0-13.0-2.2","2d_cat_multi_stim_exp1","2022-3-28","11:31:56","25","75","3","9","10","40","30","120","3","19","[""Asian""]","No","Female","1442291","994","","u","learn","","learn_trial","25","75","in","1","1","","","","","","","","","","","","","","","","","","","",""
"","","","","","canvas-keyboard-response","26","123389","0.0-13.0-3.2","2d_cat_multi_stim_exp1","2022-3-28","11:31:56","25","75","3","9","10","40","30","120","3","19","[""Asian""]","No","Female","1442291","null","","null","learn_feedback","","learn_feedback","25","75","in","","","","","","","","","","","","","","","","","","","","","",""
"","","","","","canvas-keyboard-response","27","123449","0.0-13.0-4.2","2d_cat_multi_stim_exp1","2022-3-28","11:31:56","25","75","3","9","10","40","30","120","3","19","[""Asian""]","No","Female","1442291","null","","null","","","clear_screen","","","","","","","","","","","","","","","","","","","","","","","","",""
"","","","","","canvas-keyboard-response","28","123959","0.0-13.0-0.3","2d_cat_multi_stim_exp1","2022-3-28","11:31:56","25","75","3","9","10","40","30","120","3","19","[""Asian""]","No","Female","1442291","null","","null","","","fixation","","","","","","","","","","","","","","","","","","","","","","","","",""
"","","","","","canvas-keyboard-response","29","124469","0.0-13.0-1.3","2d_cat_multi_stim_exp1","2022-3-28","11:31:56","25","75","3","9","10","40","30","120","3","19","[""Asian""]","No","Female","1442291","null","","null","","","clear_screen","","","","","","","","","","","","","","","","","","","","","","","","",""
"","","","","","canvas-keyboard-response","30","125533","0.0-13.0-2.3","2d_cat_multi_stim_exp1","2022-3-28","11:31:56","25","75","3","9","10","40","30","120","3","19","[""Asian""]","No","Female","1442291","1053","","u","learn","","learn_trial","25","75","in","1","1","","","","","","","","","","","","","","","","","","","",""
"","","","","","canvas-keyboard-response","31","126042","0.0-13.0-3.3","2d_cat_multi_stim_exp1","2022-3-28","11:31:56","25","75","3","9","10","40","30","120","3","19","[""Asian""]","No","Female","1442291","null","","null","learn_feedback","","learn_feedback","25","75","in","","","","","","","","","","","","","","","","","","","","","",""
"","","","","","canvas-keyboard-response","32","126103","0.0-13.0-4.3","2d_cat_multi_stim_exp1","2022-3-28","11:31:56","25","75","3","9","10","40","30","120","3","19","[""Asian""]","No","Female","1442291","null","","null","","","clear_screen","","","","","","","","","","","","","","","","","","","","","","","","",""
"","","","","","canvas-keyboard-response","33","126611","0.0-13.0-0.4","2d_cat_multi_stim_exp1","2022-3-28","11:31:56","25","75","3","9","10","40","30","120","3","19","[""Asian""]","No","Female","1442291","null","","null","","","fixation","","","","","","","","","","","","","","","","","","","","","","","","",""
"","","","","","canvas-keyboard-response","34","127122","0.0-13.0-1.4","2d_cat_multi_stim_exp1","2022-3-28","11:31:56","25","75","3","9","10","40","30","120","3","19","[""Asian""]","No","Female","1442291","null","","null","","","clear_screen","","","","","","","","","","","","","","","","","","","","","","","","",""
"","","","","","canvas-keyboard-response","35","127749","0.0-13.0-2.4","2d_cat_multi_stim_exp1","2022-3-28","11:31:56","25","75","3","9","10","40","30","120","3","19","[""Asian""]","No","Female","1442291","619","","i","learn","","learn_trial","40","60","out","0","1","","","","","","","","","","","","","","","","","","","",""
"","","","","","canvas-keyboard-response","36","128258","0.0-13.0-3.4","2d_cat_multi_stim_exp1","2022-3-28","11:31:56","25","75","3","9","10","40","30","120","3","19","[""Asian""]","No","Female","1442291","null","","null","learn_feedback","","learn_feedback","40","60","out","","","","","","","","","","","","","","","","","","","","","",""
"","","","","","canvas-keyboard-response","37","128320","0.0-13.0-4.4","2d_cat_multi_stim_exp1","2022-3-28","11:31:56","25","75","3","9","10","40","30","120","3","19","[""Asian""]","No","Female","1442291","null","","null","","","clear_screen","","","","","","","","","","","","","","","","","","","","","","","","",""
"","","","","","canvas-keyboard-response","38","128830","0.0-13.0-0.5","2d_cat_multi_stim_exp1","2022-3-28","11:31:56","25","75","3","9","10","40","30","120","3","19","[""Asian""]","No","Female","1442291","null","","null","","","fixation","","","","","","","","","","","","","","","","","","","","","","","","",""
"","","","","","canvas-keyboard-response","39","129333","0.0-13.0-1.5","2d_cat_multi_stim_exp1","2022-3-28","11:31:56","25","75","3","9","10","40","30","120","3","19","[""Asian""]","No","Female","1442291","null","","null","","","clear_screen","","","","","","","","","","","","","","","","","","","","","","","","",""
"","","","","","canvas-keyboard-response","40","130700","0.0-13.0-2.5","2d_cat_multi_stim_exp1","2022-3-28","11:31:56","25","75","3","9","10","40","30","120","3","19","[""Asian""]","No","Female","1442291","1358","","u","learn","","learn_trial","25.4027","83.9185","in","1","1","","","","","","","","","","","","","","","","","","","",""
"","","","","","canvas-keyboard-response","41","131210","0.0-13.0-3.5","2d_cat_multi_stim_exp1","2022-3-28","11:31:56","25","75","3","9","10","40","30","120","3","19","[""Asian""]","No","Female","1442291","null","","null","learn_feedback","","learn_feedback","25.4027","83.9185","in","","","","","","","","","","","","","","","","","","","","","",""
"","","","","","canvas-keyboard-response","42","131269","0.0-13.0-4.5","2d_cat_multi_stim_exp1","2022-3-28","11:31:56","25","75","3","9","10","40","30","120","3","19","[""Asian""]","No","Female","1442291","null","","null","","","clear_screen","","","","","","","","","","","","","","","","","","","","","","","","",""
"","","","","","canvas-keyboard-response","43","131777","0.0-13.0-0.6","2d_cat_multi_stim_exp1","2022-3-28","11:31:56","25","75","3","9","10","40","30","120","3","19","[""Asian""]","No","Female","1442291","null","","null","","","fixation","","","","","","","","","","","","","","","","","","","","","","","","",""
"","","","","","canvas-keyboard-response","44","132291","0.0-13.0-1.6","2d_cat_multi_stim_exp1","2022-3-28","11:31:56","25","75","3","9","10","40","30","120","3","19","[""Asian""]","No","Female","1442291","null","","null","","","clear_screen","","","","","","","","","","","","","","","","","","","","","","","","",""
"","","","","","canvas-keyboard-response","45","134444","0.0-13.0-2.6","2d_cat_multi_stim_exp1","2022-3-28","11:31:56","25","75","3","9","10","40","30","120","3","19","[""Asian""]","No","Female","1442291","2144","","u","learn","","learn_trial","20","80","out","1","0","","","","","","","","","","","","","","","","","","","",""
"","","","","","canvas-keyboard-response","46","135453","0.0-13.0-3.6","2d_cat_multi_stim_exp1","2022-3-28","11:31:56","25","75","3","9","10","40","30","120","3","19","[""Asian""]","No","Female","1442291","null","","null","learn_feedback","","learn_feedback","20","80","out","","","","","","","","","","","","","","","","","","","","","",""
"","","","","","canvas-keyboard-response","47","135513","0.0-13.0-4.6","2d_cat_multi_stim_exp1","2022-3-28","11:31:56","25","75","3","9","10","40","30","120","3","19","[""Asian""]","No","Female","1442291","null","","null","","","clear_screen","","","","","","","","","","","","","","","","","","","","","","","","",""
"","","","","","canvas-keyboard-response","48","136021","0.0-13.0-0.7","2d_cat_multi_stim_exp1","2022-3-28","11:31:56","25","75","3","9","10","40","30","120","3","19","[""Asian""]","No","Female","1442291","null","","null","","","fixation","","","","","","","","","","","","","","","","","","","","","","","","",""
"","","","","","canvas-keyboard-response","49","136526","0.0-13.0-1.7","2d_cat_multi_stim_exp1","2022-3-28","11:31:56","25","75","3","9","10","40","30","120","3","19","[""Asian""]","No","Female","1442291","null","","null","","","clear_screen","","","","","","","","","","","","","","","","","","","","","","","","",""
"","","","","","canvas-keyboard-response","50","140669","0.0-13.0-2.7","2d_cat_multi_stim_exp1","2022-3-28","11:31:56","25","75","3","9","10","40","30","120","3","19","[""Asian""]","No","Female","1442291","4135","","u","learn","","learn_trial","26.6667","120","out","1","0","","","","","","","","","","","","","","","","","","","",""
"","","","","","canvas-keyboard-response","51","141679","0.0-13.0-3.7","2d_cat_multi_stim_exp1","2022-3-28","11:31:56","25","75","3","9","10","40","30","120","3","19","[""Asian""]","No","Female","1442291","null","","null","learn_feedback","","learn_feedback","26.6667","120","out","","","","","","","","","","","","","","","","","","","","","",""
"","","","","","canvas-keyboard-response","52","141740","0.0-13.0-4.7","2d_cat_multi_stim_exp1","2022-3-28","11:31:56","25","75","3","9","10","40","30","120","3","19","[""Asian""]","No","Female","1442291","null","","null","","","clear_screen","","","","","","","","","","","","","","","","","","","","","","","","",""
"","","","","","canvas-keyboard-response","53","142247","0.0-13.0-0.8","2d_cat_multi_stim_exp1","2022-3-28","11:31:56","25","75","3","9","10","40","30","120","3","19","[""Asian""]","No","Female","1442291","null","","null","","","fixation","","","","","","","","","","","","","","","","","","","","","","","","",""
"","","","","","canvas-keyboard-response","54","142758","0.0-13.0-1.8","2d_cat_multi_stim_exp1","2022-3-28","11:31:56","25","75","3","9","10","40","30","120","3","19","[""Asian""]","No","Female","1442291","null","","null","","","clear_screen","","","","","","","","","","","","","","","","","","","","","","","","",""
"","","","","","canvas-keyboard-response","55","143637","0.0-13.0-2.8","2d_cat_multi_stim_exp1","2022-3-28","11:31:56","25","75","3","9","10","40","30","120","3","19","[""Asian""]","No","Female","1442291","871","","i","learn","","learn_trial","10","80","out","0","1","","","","","","","","","","","","","","","","","","","",""
"","","","","","canvas-keyboard-response","56","144148","0.0-13.0-3.8","2d_cat_multi_stim_exp1","2022-3-28","11:31:56","25","75","3","9","10","40","30","120","3","19","[""Asian""]","No","Female","1442291","null","","null","learn_feedback","","learn_feedback","10","80","out","","","","","","","","","","","","","","","","","","","","","",""
"","","","","","canvas-keyboard-response","57","144207","0.0-13.0-4.8","2d_cat_multi_stim_exp1","2022-3-28","11:31:56","25","75","3","9","10","40","30","120","3","19","[""Asian""]","No","Female","1442291","null","","null","","","clear_screen","","","","","","","","","","","","","","","","","","","","","","","","",""
"","","","","","canvas-keyboard-response","58","144716","0.0-13.0-0.9","2d_cat_multi_stim_exp1","2022-3-28","11:31:56","25","75","3","9","10","40","30","120","3","19","[""Asian""]","No","Female","1442291","null","","null","","","fixation","","","","","","","","","","","","","","","","","","","","","","","","",""
"","","","","","canvas-keyboard-response","59","145229","0.0-13.0-1.9","2d_cat_multi_stim_exp1","2022-3-28","11:31:56","25","75","3","9","10","40","30","120","3","19","[""Asian""]","No","Female","1442291","null","","null","","","clear_screen","","","","","","","","","","","","","","","","","","","","","","","","",""
"","","","","","canvas-keyboard-response","60","147382","0.0-13.0-2.9","2d_cat_multi_stim_exp1","2022-3-28","11:31:56","25","75","3","9","10","40","30","120","3","19","[""Asian""]","No","Female","1442291","2144","","u","learn","","learn_trial","20","40","out","1","0","","","","","","","","","","","","","","","","","","","",""
"","","","","","canvas-keyboard-response","61","148390","0.0-13.0-3.9","2d_cat_multi_stim_exp1","2022-3-28","11:31:56","25","75","3","9","10","40","30","120","3","19","[""Asian""]","No","Female","1442291","null","","null","learn_feedback","","learn_feedback","20","40","out","","","","","","","","","","","","","","","","","","","","","",""
"","","","","","canvas-keyboard-response","62","148450","0.0-13.0-4.9","2d_cat_multi_stim_exp1","2022-3-28","11:31:56","25","75","3","9","10","40","30","120","3","19","[""Asian""]","No","Female","1442291","null","","null","","","clear_screen","","","","","","","","","","","","","","","","","","","","","","","","",""
"","","","","","canvas-keyboard-response","63","148961","0.0-13.0-0.10","2d_cat_multi_stim_exp1","2022-3-28","11:31:56","25","75","3","9","10","40","30","120","3","19","[""Asian""]","No","Female","1442291","null","","null","","","fixation","","","","","","","","","","","","","","","","","","","","","","","","",""
"","","","","","canvas-keyboard-response","64","149474","0.0-13.0-1.10","2d_cat_multi_stim_exp1","2022-3-28","11:31:56","25","75","3","9","10","40","30","120","3","19","[""Asian""]","No","Female","1442291","null","","null","","","clear_screen","","","","","","","","","","","","","","","","","","","","","","","","",""
"","","","","","canvas-keyboard-response","65","151069","0.0-13.0-2.10","2d_cat_multi_stim_exp1","2022-3-28","11:31:56","25","75","3","9","10","40","30","120","3","19","[""Asian""]","No","Female","1442291","1586","","i","learn","","learn_trial","33.3333","100","out","0","1","","","","","","","","","","","","","","","","","","","",""
"","","","","","canvas-keyboard-response","66","151579","0.0-13.0-3.10","2d_cat_multi_stim_exp1","2022-3-28","11:31:56","25","75","3","9","10","40","30","120","3","19","[""Asian""]","No","Female","1442291","null","","null","learn_feedback","","learn_feedback","33.3333","100","out","","","","","","","","","","","","","","","","","","","","","",""
"","","","","","canvas-keyboard-response","67","151639","0.0-13.0-4.10","2d_cat_multi_stim_exp1","2022-3-28","11:31:56","25","75","3","9","10","40","30","120","3","19","[""Asian""]","No","Female","1442291","null","","null","","","clear_screen","","","","","","","","","","","","","","","","","","","","","","","","",""
"","","","","","canvas-keyboard-response","68","152151","0.0-13.0-0.11","2d_cat_multi_stim_exp1","2022-3-28","11:31:56","25","75","3","9","10","40","30","120","3","19","[""Asian""]","No","Female","1442291","null","","null","","","fixation","","","","","","","","","","","","","","","","","","","","","","","","",""
"","","","","","canvas-keyboard-response","69","152657","0.0-13.0-1.11","2d_cat_multi_stim_exp1","2022-3-28","11:31:56","25","75","3","9","10","40","30","120","3","19","[""Asian""]","No","Female","1442291","null","","null","","","clear_screen","","","","","","","","","","","","","","","","","","","","","","","","",""
"","","","","","canvas-keyboard-response","70","154012","0.0-13.0-2.11","2d_cat_multi_stim_exp1","2022-3-28","11:31:56","25","75","3","9","10","40","30","120","3","19","[""Asian""]","No","Female","1442291","1343","","i","learn","","learn_trial","26.8705","67.9635","in","0","0","","","","","","","","","","","","","","","","","","","",""
"","","","","","canvas-keyboard-response","71","155023","0.0-13.0-3.11","2d_cat_multi_stim_exp1","2022-3-28","11:31:56","25","75","3","9","10","40","30","120","3","19","[""Asian""]","No","Female","1442291","null","","null","learn_feedback","","learn_feedback","26.8705","67.9635","in","","","","","","","","","","","","","","","","","","","","","",""
"","","","","","canvas-keyboard-response","72","155085","0.0-13.0-4.11","2d_cat_multi_stim_exp1","2022-3-28","11:31:56","25","75","3","9","10","40","30","120","3","19","[""Asian""]","No","Female","1442291","null","","null","","","clear_screen","","","","","","","","","","","","","","","","","","","","","","","","",""
"","","","","","canvas-keyboard-response","73","155595","0.0-13.0-0.12","2d_cat_multi_stim_exp1","2022-3-28","11:31:56","25","75","3","9","10","40","30","120","3","19","[""Asian""]","No","Female","1442291","null","","null","","","fixation","","","","","","","","","","","","","","","","","","","","","","","","",""
"","","","","","canvas-keyboard-response","74","156108","0.0-13.0-1.12","2d_cat_multi_stim_exp1","2022-3-28","11:31:56","25","75","3","9","10","40","30","120","3","19","[""Asian""]","No","Female","1442291","null","","null","","","clear_screen","","","","","","","","","","","","","","","","","","","","","","","","",""
"","","","","","canvas-keyboard-response","75","157333","0.0-13.0-2.12","2d_cat_multi_stim_exp1","2022-3-28","11:31:56","25","75","3","9","10","40","30","120","3","19","[""Asian""]","No","Female","1442291","1216","","i","learn","","learn_trial","40","100","out","0","1","","","","","","","","","","","","","","","","","","","",""
"","","","","","canvas-keyboard-response","76","157843","0.0-13.0-3.12","2d_cat_multi_stim_exp1","2022-3-28","11:31:56","25","75","3","9","10","40","30","120","3","19","[""Asian""]","No","Female","1442291","null","","null","learn_feedback","","learn_feedback","40","100","out","","","","","","","","","","","","","","","","","","","","","",""
"","","","","","canvas-keyboard-response","77","157903","0.0-13.0-4.12","2d_cat_multi_stim_exp1","2022-3-28","11:31:56","25","75","3","9","10","40","30","120","3","19","[""Asian""]","No","Female","1442291","null","","null","","","clear_screen","","","","","","","","","","","","","","","","","","","","","","","","",""
"","","","","","canvas-keyboard-response","78","158413","0.0-13.0-0.13","2d_cat_multi_stim_exp1","2022-3-28","11:31:56","25","75","3","9","10","40","30","120","3","19","[""Asian""]","No","Female","1442291","null","","null","","","fixation","","","","","","","","","","","","","","","","","","","","","","","","",""
"","","","","","canvas-keyboard-response","79","158924","0.0-13.0-1.13","2d_cat_multi_stim_exp1","2022-3-28","11:31:56","25","75","3","9","10","40","30","120","3","19","[""Asian""]","No","Female","1442291","null","","null","","","clear_screen","","","","","","","","","","","","","","","","","","","","","","","","",""
"","","","","","canvas-keyboard-response","80","160925","0.0-13.0-2.13","2d_cat_multi_stim_exp1","2022-3-28","11:31:56","25","75","3","9","10","40","30","120","3","19","[""Asian""]","No","Female","1442291","1991","","i","learn","","learn_trial","10","50","out","0","1","","","","","","","","","","","","","","","","","","","",""
"","","","","","canvas-keyboard-response","81","161437","0.0-13.0-3.13","2d_cat_multi_stim_exp1","2022-3-28","11:31:56","25","75","3","9","10","40","30","120","3","19","[""Asian""]","No","Female","1442291","null","","null","learn_feedback","","learn_feedback","10","50","out","","","","","","","","","","","","","","","","","","","","","",""
"","","","","","canvas-keyboard-response","82","161498","0.0-13.0-4.13","2d_cat_multi_stim_exp1","2022-3-28","11:31:56","25","75","3","9","10","40","30","120","3","19","[""Asian""]","No","Female","1442291","null","","null","","","clear_screen","","","","","","","","","","","","","","","","","","","","","","","","",""
"","","","","","canvas-keyboard-response","83","162008","0.0-13.0-0.14","2d_cat_multi_stim_exp1","2022-3-28","11:31:56","25","75","3","9","10","40","30","120","3","19","[""Asian""]","No","Female","1442291","null","","null","","","fixation","","","","","","","","","","","","","","","","","","","","","","","","",""
"","","","","","canvas-keyboard-response","84","162521","0.0-13.0-1.14","2d_cat_multi_stim_exp1","2022-3-28","11:31:56","25","75","3","9","10","40","30","120","3","19","[""Asian""]","No","Female","1442291","null","","null","","","clear_screen","","","","","","","","","","","","","","","","","","","","","","","","",""
"","","","","","canvas-keyboard-response","85","164477","0.0-13.0-2.14","2d_cat_multi_stim_exp1","2022-3-28","11:31:56","25","75","3","9","10","40","30","120","3","19","[""Asian""]","No","Female","1442291","1947","","u","learn","","learn_trial","28","75","in","1","1","","","","","","","","","","","","","","","","","","","",""
"","","","","","canvas-keyboard-response","86","164988","0.0-13.0-3.14","2d_cat_multi_stim_exp1","2022-3-28","11:31:56","25","75","3","9","10","40","30","120","3","19","[""Asian""]","No","Female","1442291","null","","null","learn_feedback","","learn_feedback","28","75","in","","","","","","","","","","","","","","","","","","","","","",""
"","","","","","canvas-keyboard-response","87","165046","0.0-13.0-4.14","2d_cat_multi_stim_exp1","2022-3-28","11:31:56","25","75","3","9","10","40","30","120","3","19","[""Asian""]","No","Female","1442291","null","","null","","","clear_screen","","","","","","","","","","","","","","","","","","","","","","","","",""
"","","","","","canvas-keyboard-response","88","165556","0.0-13.0-0.15","2d_cat_multi_stim_exp1","2022-3-28","11:31:56","25","75","3","9","10","40","30","120","3","19","[""Asian""]","No","Female","1442291","null","","null","","","fixation","","","","","","","","","","","","","","","","","","","","","","","","",""
"","","","","","canvas-keyboard-response","89","166069","0.0-13.0-1.15","2d_cat_multi_stim_exp1","2022-3-28","11:31:56","25","75","3","9","10","40","30","120","3","19","[""Asian""]","No","Female","1442291","null","","null","","","clear_screen","","","","","","","","","","","","","","","","","","","","","","","","",""
"","","","","","canvas-keyboard-response","90","166700","0.0-13.0-2.15","2d_cat_multi_stim_exp1","2022-3-28","11:31:56","25","75","3","9","10","40","30","120","3","19","[""Asian""]","No","Female","1442291","623","","u","learn","","learn_trial","25","75","in","1","1","","","","","","","","","","","","","","","","","","","",""
"","","","","","canvas-keyboard-response","91","167208","0.0-13.0-3.15","2d_cat_multi_stim_exp1","2022-3-28","11:31:56","25","75","3","9","10","40","30","120","3","19","[""Asian""]","No","Female","1442291","null","","null","learn_feedback","","learn_feedback","25","75","in","","","","","","","","","","","","","","","","","","","","","",""
"","","","","","canvas-keyboard-response","92","167269","0.0-13.0-4.15","2d_cat_multi_stim_exp1","2022-3-28","11:31:56","25","75","3","9","10","40","30","120","3","19","[""Asian""]","No","Female","1442291","null","","null","","","clear_screen","","","","","","","","","","","","","","","","","","","","","","","","",""
"","","","","","canvas-keyboard-response","93","167778","0.0-13.0-0.16","2d_cat_multi_stim_exp1","2022-3-28","11:31:56","25","75","3","9","10","40","30","120","3","19","[""Asian""]","No","Female","1442291","null","","null","","","fixation","","","","","","","","","","","","","","","","","","","","","","","","",""
"","","","","","canvas-keyboard-response","94","168288","0.0-13.0-1.16","2d_cat_multi_stim_exp1","2022-3-28","11:31:56","25","75","3","9","10","40","30","120","3","19","[""Asian""]","No","Female","1442291","null","","null","","","clear_screen","","","","","","","","","","","","","","","","","","","","","","","","",""
"","","","","","canvas-keyboard-response","95","169717","0.0-13.0-2.16","2d_cat_multi_stim_exp1","2022-3-28","11:31:56","25","75","3","9","10","40","30","120","3","19","[""Asian""]","No","Female","1442291","1420","","i","learn","","learn_trial","26.6667","110","out","0","1","","","","","","","","","","","","","","","","","","","",""
"","","","","","canvas-keyboard-response","96","170226","0.0-13.0-3.16","2d_cat_multi_stim_exp1","2022-3-28","11:31:56","25","75","3","9","10","40","30","120","3","19","[""Asian""]","No","Female","1442291","null","","null","learn_feedback","","learn_feedback","26.6667","110","out","","","","","","","","","","","","","","","","","","","","","",""
"","","","","","canvas-keyboard-response","97","170285","0.0-13.0-4.16","2d_cat_multi_stim_exp1","2022-3-28","11:31:56","25","75","3","9","10","40","30","120","3","19","[""Asian""]","No","Female","1442291","null","","null","","","clear_screen","","","","","","","","","","","","","","","","","","","","","","","","",""
"","","","","","canvas-keyboard-response","98","170796","0.0-13.0-0.17","2d_cat_multi_stim_exp1","2022-3-28","11:31:56","25","75","3","9","10","40","30","120","3","19","[""Asian""]","No","Female","1442291","null","","null","","","fixation","","","","","","","","","","","","","","","","","","","","","","","","",""
"","","","","","canvas-keyboard-response","99","171304","0.0-13.0-1.17","2d_cat_multi_stim_exp1","2022-3-28","11:31:56","25","75","3","9","10","40","30","120","3","19","[""Asian""]","No","Female","1442291","null","","null","","","clear_screen","","","","","","","","","","","","","","","","","","","","","","","","",""
"","","","","","canvas-keyboard-response","100","172133","0.0-13.0-2.17","2d_cat_multi_stim_exp1","2022-3-28","11:31:56","25","75","3","9","10","40","30","120","3","19","[""Asian""]","No","Female","1442291","819","","i","learn","","learn_trial","40","90","out","0","1","","","","","","","","","","","","","","","","","","","",""
"","","","","","canvas-keyboard-response","101","172642","0.0-13.0-3.17","2d_cat_multi_stim_exp1","2022-3-28","11:31:56","25","75","3","9","10","40","30","120","3","19","[""Asian""]","No","Female","1442291","null","","null","learn_feedback","","learn_feedback","40","90","out","","","","","","","","","","","","","","","","","","","","","",""
"","","","","","canvas-keyboard-response","102","172702","0.0-13.0-4.17","2d_cat_multi_stim_exp1","2022-3-28","11:31:56","25","75","3","9","10","40","30","120","3","19","[""Asian""]","No","Female","1442291","null","","null","","","clear_screen","","","","","","","","","","","","","","","","","","","","","","","","",""
"","","","","","canvas-keyboard-response","103","173211","0.0-13.0-0.18","2d_cat_multi_stim_exp1","2022-3-28","11:31:56","25","75","3","9","10","40","30","120","3","19","[""Asian""]","No","Female","1442291","null","","null","","","fixation","","","","","","","","","","","","","","","","","","","","","","","","",""
"","","","","","canvas-keyboard-response","104","173720","0.0-13.0-1.18","2d_cat_multi_stim_exp1","2022-3-28","11:31:56","25","75","3","9","10","40","30","120","3","19","[""Asian""]","No","Female","1442291","null","","null","","","clear_screen","","","","","","","","","","","","","","","","","","","","","","","","",""
"","","","","","canvas-keyboard-response","105","177758","0.0-13.0-2.18","2d_cat_multi_stim_exp1","2022-3-28","11:31:56","25","75","3","9","10","40","30","120","3","19","[""Asian""]","No","Female","1442291","4028","","u","learn","","learn_trial","25","75","in","1","1","","","","","","","","","","","","","","","","","","","",""
"","","","","","canvas-keyboard-response","106","178272","0.0-13.0-3.18","2d_cat_multi_stim_exp1","2022-3-28","11:31:56","25","75","3","9","10","40","30","120","3","19","[""Asian""]","No","Female","1442291","null","","null","learn_feedback","","learn_feedback","25","75","in","","","","","","","","","","","","","","","","","","","","","",""
"","","","","","canvas-keyboard-response","107","178334","0.0-13.0-4.18","2d_cat_multi_stim_exp1","2022-3-28","11:31:56","25","75","3","9","10","40","30","120","3","19","[""Asian""]","No","Female","1442291","null","","null","","","clear_screen","","","","","","","","","","","","","","","","","","","","","","","","",""
"","","","","","canvas-keyboard-response","108","178844","0.0-13.0-0.19","2d_cat_multi_stim_exp1","2022-3-28","11:31:56","25","75","3","9","10","40","30","120","3","19","[""Asian""]","No","Female","1442291","null","","null","","","fixation","","","","","","","","","","","","","","","","","","","","","","","","",""
"","","","","","canvas-keyboard-response","109","179356","0.0-13.0-1.19","2d_cat_multi_stim_exp1","2022-3-28","11:31:56","25","75","3","9","10","40","30","120","3","19","[""Asian""]","No","Female","1442291","null","","null","","","clear_screen","","","","","","","","","","","","","","","","","","","","","","","","",""
"","","","","","canvas-keyboard-response","110","180085","0.0-13.0-2.19","2d_cat_multi_stim_exp1","2022-3-28","11:31:56","25","75","3","9","10","40","30","120","3","19","[""Asian""]","No","Female","1442291","723","","u","learn","","learn_trial","25","75","in","1","1","","","","","","","","","","","","","","","","","","","",""
"","","","","","canvas-keyboard-response","111","180597","0.0-13.0-3.19","2d_cat_multi_stim_exp1","2022-3-28","11:31:56","25","75","3","9","10","40","30","120","3","19","[""Asian""]","No","Female","1442291","null","","null","learn_feedback","","learn_feedback","25","75","in","","","","","","","","","","","","","","","","","","","","","",""
"","","","","","canvas-keyboard-response","112","180657","0.0-13.0-4.19","2d_cat_multi_stim_exp1","2022-3-28","11:31:56","25","75","3","9","10","40","30","120","3","19","[""Asian""]","No","Female","1442291","null","","null","","","clear_screen","","","","","","","","","","","","","","","","","","","","","","","","",""
"","","","","","canvas-keyboard-response","113","181171","0.0-13.0-0.20","2d_cat_multi_stim_exp1","2022-3-28","11:31:56","25","75","3","9","10","40","30","120","3","19","[""Asian""]","No","Female","1442291","null","","null","","","fixation","","","","","","","","","","","","","","","","","","","","","","","","",""
"","","","","","canvas-keyboard-response","114","181682","0.0-13.0-1.20","2d_cat_multi_stim_exp1","2022-3-28","11:31:56","25","75","3","9","10","40","30","120","3","19","[""Asian""]","No","Female","1442291","null","","null","","","clear_screen","","","","","","","","","","","","","","","","","","","","","","","","",""
"","","","","","canvas-keyboard-response","115","182926","0.0-13.0-2.20","2d_cat_multi_stim_exp1","2022-3-28","11:31:56","25","75","3","9","10","40","30","120","3","19","[""Asian""]","No","Female","1442291","1232","","u","learn","","learn_trial","33.3333","110","out","1","0","","","","","","","","","","","","","","","","","","","",""
"","","","","","canvas-keyboard-response","116","183936","0.0-13.0-3.20","2d_cat_multi_stim_exp1","2022-3-28","11:31:56","25","75","3","9","10","40","30","120","3","19","[""Asian""]","No","Female","1442291","null","","null","learn_feedback","","learn_feedback","33.3333","110","out","","","","","","","","","","","","","","","","","","","","","",""
"","","","","","canvas-keyboard-response","117","183999","0.0-13.0-4.20","2d_cat_multi_stim_exp1","2022-3-28","11:31:56","25","75","3","9","10","40","30","120","3","19","[""Asian""]","No","Female","1442291","null","","null","","","clear_screen","","","","","","","","","","","","","","","","","","","","","","","","",""
"","","","","","canvas-keyboard-response","118","184510","0.0-13.0-0.21","2d_cat_multi_stim_exp1","2022-3-28","11:31:56","25","75","3","9","10","40","30","120","3","19","[""Asian""]","No","Female","1442291","null","","null","","","fixation","","","","","","","","","","","","","","","","","","","","","","","","",""
"","","","","","canvas-keyboard-response","119","185023","0.0-13.0-1.21","2d_cat_multi_stim_exp1","2022-3-28","11:31:56","25","75","3","9","10","40","30","120","3","19","[""Asian""]","No","Female","1442291","null","","null","","","clear_screen","","","","","","","","","","","","","","","","","","","","","","","","",""
"","","","","","canvas-keyboard-response","120","185652","0.0-13.0-2.21","2d_cat_multi_stim_exp1","2022-3-28","11:31:56","25","75","3","9","10","40","30","120","3","19","[""Asian""]","No","Female","1442291","620","","u","learn","","learn_trial","16.6667","80","out","1","0","","","","","","","","","","","","","","","","","","","",""
"","","","","","canvas-keyboard-response","121","186661","0.0-13.0-3.21","2d_cat_multi_stim_exp1","2022-3-28","11:31:56","25","75","3","9","10","40","30","120","3","19","[""Asian""]","No","Female","1442291","null","","null","learn_feedback","","learn_feedback","16.6667","80","out","","","","","","","","","","","","","","","","","","","","","",""
"","","","","","canvas-keyboard-response","122","186724","0.0-13.0-4.21","2d_cat_multi_stim_exp1","2022-3-28","11:31:56","25","75","3","9","10","40","30","120","3","19","[""Asian""]","No","Female","1442291","null","","null","","","clear_screen","","","","","","","","","","","","","","","","","","","","","","","","",""
"","","","","","canvas-keyboard-response","123","187234","0.0-13.0-0.22","2d_cat_multi_stim_exp1","2022-3-28","11:31:56","25","75","3","9","10","40","30","120","3","19","[""Asian""]","No","Female","1442291","null","","null","","","fixation","","","","","","","","","","","","","","","","","","","","","","","","",""
"","","","","","canvas-keyboard-response","124","187745","0.0-13.0-1.22","2d_cat_multi_stim_exp1","2022-3-28","11:31:56","25","75","3","9","10","40","30","120","3","19","[""Asian""]","No","Female","1442291","null","","null","","","clear_screen","","","","","","","","","","","","","","","","","","","","","","","","",""
"","","","","","canvas-keyboard-response","125","188461","0.0-13.0-2.22","2d_cat_multi_stim_exp1","2022-3-28","11:31:56","25","75","3","9","10","40","30","120","3","19","[""Asian""]","No","Female","1442291","705","","u","learn","","learn_trial","22.0121","74.1932","in","1","1","","","","","","","","","","","","","","","","","","","",""
"","","","","","canvas-keyboard-response","126","188972","0.0-13.0-3.22","2d_cat_multi_stim_exp1","2022-3-28","11:31:56","25","75","3","9","10","40","30","120","3","19","[""Asian""]","No","Female","1442291","null","","null","learn_feedback","","learn_feedback","22.0121","74.1932","in","","","","","","","","","","","","","","","","","","","","","",""
"","","","","","canvas-keyboard-response","127","189031","0.0-13.0-4.22","2d_cat_multi_stim_exp1","2022-3-28","11:31:56","25","75","3","9","10","40","30","120","3","19","[""Asian""]","No","Female","1442291","null","","null","","","clear_screen","","","","","","","","","","","","","","","","","","","","","","","","",""
"","","","","","canvas-keyboard-response","128","189540","0.0-13.0-0.23","2d_cat_multi_stim_exp1","2022-3-28","11:31:56","25","75","3","9","10","40","30","120","3","19","[""Asian""]","No","Female","1442291","null","","null","","","fixation","","","","","","","","","","","","","","","","","","","","","","","","",""
"","","","","","canvas-keyboard-response","129","190053","0.0-13.0-1.23","2d_cat_multi_stim_exp1","2022-3-28","11:31:56","25","75","3","9","10","40","30","120","3","19","[""Asian""]","No","Female","1442291","null","","null","","","clear_screen","","","","","","","","","","","","","","","","","","","","","","","","",""
"","","","","","canvas-keyboard-response","130","190709","0.0-13.0-2.23","2d_cat_multi_stim_exp1","2022-3-28","11:31:56","25","75","3","9","10","40","30","120","3","19","[""Asian""]","No","Female","1442291","646","","i","learn","","learn_trial","16.6667","60","out","0","1","","","","","","","","","","","","","","","","","","","",""
"","","","","","canvas-keyboard-response","131","191221","0.0-13.0-3.23","2d_cat_multi_stim_exp1","2022-3-28","11:31:56","25","75","3","9","10","40","30","120","3","19","[""Asian""]","No","Female","1442291","null","","null","learn_feedback","","learn_feedback","16.6667","60","out","","","","","","","","","","","","","","","","","","","","","",""
"","","","","","canvas-keyboard-response","132","191280","0.0-13.0-4.23","2d_cat_multi_stim_exp1","2022-3-28","11:31:56","25","75","3","9","10","40","30","120","3","19","[""Asian""]","No","Female","1442291","null","","null","","","clear_screen","","","","","","","","","","","","","","","","","","","","","","","","",""
"","","","","","canvas-keyboard-response","133","191788","0.0-13.0-0.24","2d_cat_multi_stim_exp1","2022-3-28","11:31:56","25","75","3","9","10","40","30","120","3","19","[""Asian""]","No","Female","1442291","null","","null","","","fixation","","","","","","","","","","","","","","","","","","","","","","","","",""
"","","","","","canvas-keyboard-response","134","192299","0.0-13.0-1.24","2d_cat_multi_stim_exp1","2022-3-28","11:31:56","25","75","3","9","10","40","30","120","3","19","[""Asian""]","No","Female","1442291","null","","null","","","clear_screen","","","","","","","","","","","","","","","","","","","","","","","","",""
"","","","","","canvas-keyboard-response","135","192949","0.0-13.0-2.24","2d_cat_multi_stim_exp1","2022-3-28","11:31:56","25","75","3","9","10","40","30","120","3","19","[""Asian""]","No","Female","1442291","641","","u","learn","","learn_trial","31","75","in","1","1","","","","","","","","","","","","","","","","","","","",""
"","","","","","canvas-keyboard-response","136","193459","0.0-13.0-3.24","2d_cat_multi_stim_exp1","2022-3-28","11:31:56","25","75","3","9","10","40","30","120","3","19","[""Asian""]","No","Female","1442291","null","","null","learn_feedback","","learn_feedback","31","75","in","","","","","","","","","","","","","","","","","","","","","",""
"","","","","","canvas-keyboard-response","137","193519","0.0-13.0-4.24","2d_cat_multi_stim_exp1","2022-3-28","11:31:56","25","75","3","9","10","40","30","120","3","19","[""Asian""]","No","Female","1442291","null","","null","","","clear_screen","","","","","","","","","","","","","","","","","","","","","","","","",""
"","","","","","canvas-keyboard-response","138","194027","0.0-13.0-0.25","2d_cat_multi_stim_exp1","2022-3-28","11:31:56","25","75","3","9","10","40","30","120","3","19","[""Asian""]","No","Female","1442291","null","","null","","","fixation","","","","","","","","","","","","","","","","","","","","","","","","",""
"","","","","","canvas-keyboard-response","139","194538","0.0-13.0-1.25","2d_cat_multi_stim_exp1","2022-3-28","11:31:56","25","75","3","9","10","40","30","120","3","19","[""Asian""]","No","Female","1442291","null","","null","","","clear_screen","","","","","","","","","","","","","","","","","","","","","","","","",""
"","","","","","canvas-keyboard-response","140","195189","0.0-13.0-2.25","2d_cat_multi_stim_exp1","2022-3-28","11:31:56","25","75","3","9","10","40","30","120","3","19","[""Asian""]","No","Female","1442291","639","","i","learn","","learn_trial","40","120","out","0","1","","","","","","","","","","","","","","","","","","","",""
"","","","","","canvas-keyboard-response","141","195699","0.0-13.0-3.25","2d_cat_multi_stim_exp1","2022-3-28","11:31:56","25","75","3","9","10","40","30","120","3","19","[""Asian""]","No","Female","1442291","null","","null","learn_feedback","","learn_feedback","40","120","out","","","","","","","","","","","","","","","","","","","","","",""
"","","","","","canvas-keyboard-response","142","195761","0.0-13.0-4.25","2d_cat_multi_stim_exp1","2022-3-28","11:31:56","25","75","3","9","10","40","30","120","3","19","[""Asian""]","No","Female","1442291","null","","null","","","clear_screen","","","","","","","","","","","","","","","","","","","","","","","","",""
"","","","","","canvas-keyboard-response","143","196269","0.0-13.0-0.26","2d_cat_multi_stim_exp1","2022-3-28","11:31:56","25","75","3","9","10","40","30","120","3","19","[""Asian""]","No","Female","1442291","null","","null","","","fixation","","","","","","","","","","","","","","","","","","","","","","","","",""
"","","","","","canvas-keyboard-response","144","196783","0.0-13.0-1.26","2d_cat_multi_stim_exp1","2022-3-28","11:31:56","25","75","3","9","10","40","30","120","3","19","[""Asian""]","No","Female","1442291","null","","null","","","clear_screen","","","","","","","","","","","","","","","","","","","","","","","","",""
"","","","","","canvas-keyboard-response","145","197829","0.0-13.0-2.26","2d_cat_multi_stim_exp1","2022-3-28","11:31:56","25","75","3","9","10","40","30","120","3","19","[""Asian""]","No","Female","1442291","1036","","u","learn","","learn_trial","25","75","in","1","1","","","","","","","","","","","","","","","","","","","",""
"","","","","","canvas-keyboard-response","146","198338","0.0-13.0-3.26","2d_cat_multi_stim_exp1","2022-3-28","11:31:56","25","75","3","9","10","40","30","120","3","19","[""Asian""]","No","Female","1442291","null","","null","learn_feedback","","learn_feedback","25","75","in","","","","","","","","","","","","","","","","","","","","","",""
"","","","","","canvas-keyboard-response","147","198401","0.0-13.0-4.26","2d_cat_multi_stim_exp1","2022-3-28","11:31:56","25","75","3","9","10","40","30","120","3","19","[""Asian""]","No","Female","1442291","null","","null","","","clear_screen","","","","","","","","","","","","","","","","","","","","","","","","",""
"","","","","","canvas-keyboard-response","148","198910","0.0-13.0-0.27","2d_cat_multi_stim_exp1","2022-3-28","11:31:56","25","75","3","9","10","40","30","120","3","19","[""Asian""]","No","Female","1442291","null","","null","","","fixation","","","","","","","","","","","","","","","","","","","","","","","","",""
"","","","","","canvas-keyboard-response","149","199424","0.0-13.0-1.27","2d_cat_multi_stim_exp1","2022-3-28","11:31:56","25","75","3","9","10","40","30","120","3","19","[""Asian""]","No","Female","1442291","null","","null","","","clear_screen","","","","","","","","","","","","","","","","","","","","","","","","",""
"","","","","","canvas-keyboard-response","150","200021","0.0-13.0-2.27","2d_cat_multi_stim_exp1","2022-3-28","11:31:56","25","75","3","9","10","40","30","120","3","19","[""Asian""]","No","Female","1442291","586","","i","learn","","learn_trial","13.3333","90","out","0","1","","","","","","","","","","","","","","","","","","","",""
"","","","","","canvas-keyboard-response","151","200531","0.0-13.0-3.27","2d_cat_multi_stim_exp1","2022-3-28","11:31:56","25","75","3","9","10","40","30","120","3","19","[""Asian""]","No","Female","1442291","null","","null","learn_feedback","","learn_feedback","13.3333","90","out","","","","","","","","","","","","","","","","","","","","","",""
"","","","","","canvas-keyboard-response","152","200591","0.0-13.0-4.27","2d_cat_multi_stim_exp1","2022-3-28","11:31:56","25","75","3","9","10","40","30","120","3","19","[""Asian""]","No","Female","1442291","null","","null","","","clear_screen","","","","","","","","","","","","","","","","","","","","","","","","",""
"","","","","","canvas-keyboard-response","153","201100","0.0-13.0-0.28","2d_cat_multi_stim_exp1","2022-3-28","11:31:56","25","75","3","9","10","40","30","120","3","19","[""Asian""]","No","Female","1442291","null","","null","","","fixation","","","","","","","","","","","","","","","","","","","","","","","","",""
"","","","","","canvas-keyboard-response","154","201613","0.0-13.0-1.28","2d_cat_multi_stim_exp1","2022-3-28","11:31:56","25","75","3","9","10","40","30","120","3","19","[""Asian""]","No","Female","1442291","null","","null","","","clear_screen","","","","","","","","","","","","","","","","","","","","","","","","",""
"","","","","","canvas-keyboard-response","155","202261","0.0-13.0-2.28","2d_cat_multi_stim_exp1","2022-3-28","11:31:56","25","75","3","9","10","40","30","120","3","19","[""Asian""]","No","Female","1442291","639","","u","learn","","learn_trial","25","75","in","1","1","","","","","","","","","","","","","","","","","","","",""
"","","","","","canvas-keyboard-response","156","202771","0.0-13.0-3.28","2d_cat_multi_stim_exp1","2022-3-28","11:31:56","25","75","3","9","10","40","30","120","3","19","[""Asian""]","No","Female","1442291","null","","null","learn_feedback","","learn_feedback","25","75","in","","","","","","","","","","","","","","","","","","","","","",""
"","","","","","canvas-keyboard-response","157","202829","0.0-13.0-4.28","2d_cat_multi_stim_exp1","2022-3-28","11:31:56","25","75","3","9","10","40","30","120","3","19","[""Asian""]","No","Female","1442291","null","","null","","","clear_screen","","","","","","","","","","","","","","","","","","","","","","","","",""
"","","","","","canvas-keyboard-response","158","203341","0.0-13.0-0.29","2d_cat_multi_stim_exp1","2022-3-28","11:31:56","25","75","3","9","10","40","30","120","3","19","[""Asian""]","No","Female","1442291","null","","null","","","fixation","","","","","","","","","","","","","","","","","","","","","","","","",""
"","","","","","canvas-keyboard-response","159","203855","0.0-13.0-1.29","2d_cat_multi_stim_exp1","2022-3-28","11:31:56","25","75","3","9","10","40","30","120","3","19","[""Asian""]","No","Female","1442291","null","","null","","","clear_screen","","","","","","","","","","","","","","","","","","","","","","","","",""
"","","","","","canvas-keyboard-response","160","204621","0.0-13.0-2.29","2d_cat_multi_stim_exp1","2022-3-28","11:31:56","25","75","3","9","10","40","30","120","3","19","[""Asian""]","No","Female","1442291","756","","i","learn","","learn_trial","13.3333","50","out","0","1","","","","","","","","","","","","","","","","","","","",""
"","","","","","canvas-keyboard-response","161","205132","0.0-13.0-3.29","2d_cat_multi_stim_exp1","2022-3-28","11:31:56","25","75","3","9","10","40","30","120","3","19","[""Asian""]","No","Female","1442291","null","","null","learn_feedback","","learn_feedback","13.3333","50","out","","","","","","","","","","","","","","","","","","","","","",""
"","","","","","canvas-keyboard-response","162","205192","0.0-13.0-4.29","2d_cat_multi_stim_exp1","2022-3-28","11:31:56","25","75","3","9","10","40","30","120","3","19","[""Asian""]","No","Female","1442291","null","","null","","","clear_screen","","","","","","","","","","","","","","","","","","","","","","","","",""
"","","","","","canvas-keyboard-response","163","205702","0.0-13.0-0.30","2d_cat_multi_stim_exp1","2022-3-28","11:31:56","25","75","3","9","10","40","30","120","3","19","[""Asian""]","No","Female","1442291","null","","null","","","fixation","","","","","","","","","","","","","","","","","","","","","","","","",""
"","","","","","canvas-keyboard-response","164","206211","0.0-13.0-1.30","2d_cat_multi_stim_exp1","2022-3-28","11:31:56","25","75","3","9","10","40","30","120","3","19","[""Asian""]","No","Female","1442291","null","","null","","","clear_screen","","","","","","","","","","","","","","","","","","","","","","","","",""
"","","","","","canvas-keyboard-response","165","206924","0.0-13.0-2.30","2d_cat_multi_stim_exp1","2022-3-28","11:31:56","25","75","3","9","10","40","30","120","3","19","[""Asian""]","No","Female","1442291","702","","u","learn","","learn_trial","25","75","in","1","1","","","","","","","","","","","","","","","","","","","",""
"","","","","","canvas-keyboard-response","166","207435","0.0-13.0-3.30","2d_cat_multi_stim_exp1","2022-3-28","11:31:56","25","75","3","9","10","40","30","120","3","19","[""Asian""]","No","Female","1442291","null","","null","learn_feedback","","learn_feedback","25","75","in","","","","","","","","","","","","","","","","","","","","","",""
"","","","","","canvas-keyboard-response","167","207497","0.0-13.0-4.30","2d_cat_multi_stim_exp1","2022-3-28","11:31:56","25","75","3","9","10","40","30","120","3","19","[""Asian""]","No","Female","1442291","null","","null","","","clear_screen","","","","","","","","","","","","","","","","","","","","","","","","",""
"","","","","","canvas-keyboard-response","168","208006","0.0-13.0-0.31","2d_cat_multi_stim_exp1","2022-3-28","11:31:56","25","75","3","9","10","40","30","120","3","19","[""Asian""]","No","Female","1442291","null","","null","","","fixation","","","","","","","","","","","","","","","","","","","","","","","","",""
"","","","","","canvas-keyboard-response","169","208518","0.0-13.0-1.31","2d_cat_multi_stim_exp1","2022-3-28","11:31:56","25","75","3","9","10","40","30","120","3","19","[""Asian""]","No","Female","1442291","null","","null","","","clear_screen","","","","","","","","","","","","","","","","","","","","","","","","",""
"","","","","","canvas-keyboard-response","170","209285","0.0-13.0-2.31","2d_cat_multi_stim_exp1","2022-3-28","11:31:56","25","75","3","9","10","40","30","120","3","19","[""Asian""]","No","Female","1442291","756","","i","learn","","learn_trial","13.3333","110","out","0","1","","","","","","","","","","","","","","","","","","","",""
"","","","","","canvas-keyboard-response","171","209794","0.0-13.0-3.31","2d_cat_multi_stim_exp1","2022-3-28","11:31:56","25","75","3","9","10","40","30","120","3","19","[""Asian""]","No","Female","1442291","null","","null","learn_feedback","","learn_feedback","13.3333","110","out","","","","","","","","","","","","","","","","","","","","","",""
"","","","","","canvas-keyboard-response","172","209856","0.0-13.0-4.31","2d_cat_multi_stim_exp1","2022-3-28","11:31:56","25","75","3","9","10","40","30","120","3","19","[""Asian""]","No","Female","1442291","null","","null","","","clear_screen","","","","","","","","","","","","","","","","","","","","","","","","",""
"","","","","","canvas-keyboard-response","173","210367","0.0-13.0-0.32","2d_cat_multi_stim_exp1","2022-3-28","11:31:56","25","75","3","9","10","40","30","120","3","19","[""Asian""]","No","Female","1442291","null","","null","","","fixation","","","","","","","","","","","","","","","","","","","","","","","","",""
"","","","","","canvas-keyboard-response","174","210879","0.0-13.0-1.32","2d_cat_multi_stim_exp1","2022-3-28","11:31:56","25","75","3","9","10","40","30","120","3","19","[""Asian""]","No","Female","1442291","null","","null","","","clear_screen","","","","","","","","","","","","","","","","","","","","","","","","",""
"","","","","","canvas-keyboard-response","175","211861","0.0-13.0-2.32","2d_cat_multi_stim_exp1","2022-3-28","11:31:56","25","75","3","9","10","40","30","120","3","19","[""Asian""]","No","Female","1442291","974","","u","learn","","learn_trial","25","75","in","1","1","","","","","","","","","","","","","","","","","","","",""
"","","","","","canvas-keyboard-response","176","212373","0.0-13.0-3.32","2d_cat_multi_stim_exp1","2022-3-28","11:31:56","25","75","3","9","10","40","30","120","3","19","[""Asian""]","No","Female","1442291","null","","null","learn_feedback","","learn_feedback","25","75","in","","","","","","","","","","","","","","","","","","","","","",""
"","","","","","canvas-keyboard-response","177","212435","0.0-13.0-4.32","2d_cat_multi_stim_exp1","2022-3-28","11:31:56","25","75","3","9","10","40","30","120","3","19","[""Asian""]","No","Female","1442291","null","","null","","","clear_screen","","","","","","","","","","","","","","","","","","","","","","","","",""
"","","","","","canvas-keyboard-response","178","212946","0.0-13.0-0.33","2d_cat_multi_stim_exp1","2022-3-28","11:31:56","25","75","3","9","10","40","30","120","3","19","[""Asian""]","No","Female","1442291","null","","null","","","fixation","","","","","","","","","","","","","","","","","","","","","","","","",""
"","","","","","canvas-keyboard-response","179","213457","0.0-13.0-1.33","2d_cat_multi_stim_exp1","2022-3-28","11:31:56","25","75","3","9","10","40","30","120","3","19","[""Asian""]","No","Female","1442291","null","","null","","","clear_screen","","","","","","","","","","","","","","","","","","","","","","","","",""
"","","","","","canvas-keyboard-response","180","214214","0.0-13.0-2.33","2d_cat_multi_stim_exp1","2022-3-28","11:31:56","25","75","3","9","10","40","30","120","3","19","[""Asian""]","No","Female","1442291","745","","u","learn","","learn_trial","25","75","in","1","1","","","","","","","","","","","","","","","","","","","",""
"","","","","","canvas-keyboard-response","181","214724","0.0-13.0-3.33","2d_cat_multi_stim_exp1","2022-3-28","11:31:56","25","75","3","9","10","40","30","120","3","19","[""Asian""]","No","Female","1442291","null","","null","learn_feedback","","learn_feedback","25","75","in","","","","","","","","","","","","","","","","","","","","","",""
"","","","","","canvas-keyboard-response","182","214787","0.0-13.0-4.33","2d_cat_multi_stim_exp1","2022-3-28","11:31:56","25","75","3","9","10","40","30","120","3","19","[""Asian""]","No","Female","1442291","null","","null","","","clear_screen","","","","","","","","","","","","","","","","","","","","","","","","",""
"","","","","","canvas-keyboard-response","183","215295","0.0-13.0-0.34","2d_cat_multi_stim_exp1","2022-3-28","11:31:56","25","75","3","9","10","40","30","120","3","19","[""Asian""]","No","Female","1442291","null","","null","","","fixation","","","","","","","","","","","","","","","","","","","","","","","","",""
"","","","","","canvas-keyboard-response","184","215805","0.0-13.0-1.34","2d_cat_multi_stim_exp1","2022-3-28","11:31:56","25","75","3","9","10","40","30","120","3","19","[""Asian""]","No","Female","1442291","null","","null","","","clear_screen","","","","","","","","","","","","","","","","","","","","","","","","",""
"","","","","","canvas-keyboard-response","185","217261","0.0-13.0-2.34","2d_cat_multi_stim_exp1","2022-3-28","11:31:56","25","75","3","9","10","40","30","120","3","19","[""Asian""]","No","Female","1442291","1446","","u","learn","","learn_trial","25","75","in","1","1","","","","","","","","","","","","","","","","","","","",""
"","","","","","canvas-keyboard-response","186","217772","0.0-13.0-3.34","2d_cat_multi_stim_exp1","2022-3-28","11:31:56","25","75","3","9","10","40","30","120","3","19","[""Asian""]","No","Female","1442291","null","","null","learn_feedback","","learn_feedback","25","75","in","","","","","","","","","","","","","","","","","","","","","",""
"","","","","","canvas-keyboard-response","187","217833","0.0-13.0-4.34","2d_cat_multi_stim_exp1","2022-3-28","11:31:56","25","75","3","9","10","40","30","120","3","19","[""Asian""]","No","Female","1442291","null","","null","","","clear_screen","","","","","","","","","","","","","","","","","","","","","","","","",""
"","","","","","canvas-keyboard-response","188","218343","0.0-13.0-0.35","2d_cat_multi_stim_exp1","2022-3-28","11:31:56","25","75","3","9","10","40","30","120","3","19","[""Asian""]","No","Female","1442291","null","","null","","","fixation","","","","","","","","","","","","","","","","","","","","","","","","",""
"","","","","","canvas-keyboard-response","189","218855","0.0-13.0-1.35","2d_cat_multi_stim_exp1","2022-3-28","11:31:56","25","75","3","9","10","40","30","120","3","19","[""Asian""]","No","Female","1442291","null","","null","","","clear_screen","","","","","","","","","","","","","","","","","","","","","","","","",""
"","","","","","canvas-keyboard-response","190","219445","0.0-13.0-2.35","2d_cat_multi_stim_exp1","2022-3-28","11:31:56","25","75","3","9","10","40","30","120","3","19","[""Asian""]","No","Female","1442291","581","","i","learn","","learn_trial","36.6667","40","out","0","1","","","","","","","","","","","","","","","","","","","",""
"","","","","","canvas-keyboard-response","191","219952","0.0-13.0-3.35","2d_cat_multi_stim_exp1","2022-3-28","11:31:56","25","75","3","9","10","40","30","120","3","19","[""Asian""]","No","Female","1442291","null","","null","learn_feedback","","learn_feedback","36.6667","40","out","","","","","","","","","","","","","","","","","","","","","",""
"","","","","","canvas-keyboard-response","192","220015","0.0-13.0-4.35","2d_cat_multi_stim_exp1","2022-3-28","11:31:56","25","75","3","9","10","40","30","120","3","19","[""Asian""]","No","Female","1442291","null","","null","","","clear_screen","","","","","","","","","","","","","","","","","","","","","","","","",""
"","","","","","canvas-keyboard-response","193","220524","0.0-13.0-0.36","2d_cat_multi_stim_exp1","2022-3-28","11:31:56","25","75","3","9","10","40","30","120","3","19","[""Asian""]","No","Female","1442291","null","","null","","","fixation","","","","","","","","","","","","","","","","","","","","","","","","",""
"","","","","","canvas-keyboard-response","194","221034","0.0-13.0-1.36","2d_cat_multi_stim_exp1","2022-3-28","11:31:56","25","75","3","9","10","40","30","120","3","19","[""Asian""]","No","Female","1442291","null","","null","","","clear_screen","","","","","","","","","","","","","","","","","","","","","","","","",""
"","","","","","canvas-keyboard-response","195","221742","0.0-13.0-2.36","2d_cat_multi_stim_exp1","2022-3-28","11:31:56","25","75","3","9","10","40","30","120","3","19","[""Asian""]","No","Female","1442291","699","","u","learn","","learn_trial","23.8209","66.7243","in","1","1","","","","","","","","","","","","","","","","","","","",""
"","","","","","canvas-keyboard-response","196","222250","0.0-13.0-3.36","2d_cat_multi_stim_exp1","2022-3-28","11:31:56","25","75","3","9","10","40","30","120","3","19","[""Asian""]","No","Female","1442291","null","","null","learn_feedback","","learn_feedback","23.8209","66.7243","in","","","","","","","","","","","","","","","","","","","","","",""
"","","","","","canvas-keyboard-response","197","222310","0.0-13.0-4.36","2d_cat_multi_stim_exp1","2022-3-28","11:31:56","25","75","3","9","10","40","30","120","3","19","[""Asian""]","No","Female","1442291","null","","null","","","clear_screen","","","","","","","","","","","","","","","","","","","","","","","","",""
"","","","","","canvas-keyboard-response","198","222820","0.0-13.0-0.37","2d_cat_multi_stim_exp1","2022-3-28","11:31:56","25","75","3","9","10","40","30","120","3","19","[""Asian""]","No","Female","1442291","null","","null","","","fixation","","","","","","","","","","","","","","","","","","","","","","","","",""
"","","","","","canvas-keyboard-response","199","223331","0.0-13.0-1.37","2d_cat_multi_stim_exp1","2022-3-28","11:31:56","25","75","3","9","10","40","30","120","3","19","[""Asian""]","No","Female","1442291","null","","null","","","clear_screen","","","","","","","","","","","","","","","","","","","","","","","","",""
"","","","","","canvas-keyboard-response","200","223837","0.0-13.0-2.37","2d_cat_multi_stim_exp1","2022-3-28","11:31:56","25","75","3","9","10","40","30","120","3","19","[""Asian""]","No","Female","1442291","497","","u","learn","","learn_trial","23.3333","60","out","1","0","","","","","","","","","","","","","","","","","","","",""
"","","","","","canvas-keyboard-response","201","224848","0.0-13.0-3.37","2d_cat_multi_stim_exp1","2022-3-28","11:31:56","25","75","3","9","10","40","30","120","3","19","[""Asian""]","No","Female","1442291","null","","null","learn_feedback","","learn_feedback","23.3333","60","out","","","","","","","","","","","","","","","","","","","","","",""
"","","","","","canvas-keyboard-response","202","224908","0.0-13.0-4.37","2d_cat_multi_stim_exp1","2022-3-28","11:31:56","25","75","3","9","10","40","30","120","3","19","[""Asian""]","No","Female","1442291","null","","null","","","clear_screen","","","","","","","","","","","","","","","","","","","","","","","","",""
"","","","","","canvas-keyboard-response","203","225418","0.0-13.0-0.38","2d_cat_multi_stim_exp1","2022-3-28","11:31:56","25","75","3","9","10","40","30","120","3","19","[""Asian""]","No","Female","1442291","null","","null","","","fixation","","","","","","","","","","","","","","","","","","","","","","","","",""
"","","","","","canvas-keyboard-response","204","225928","0.0-13.0-1.38","2d_cat_multi_stim_exp1","2022-3-28","11:31:56","25","75","3","9","10","40","30","120","3","19","[""Asian""]","No","Female","1442291","null","","null","","","clear_screen","","","","","","","","","","","","","","","","","","","","","","","","",""
"","","","","","canvas-keyboard-response","205","226932","0.0-13.0-2.38","2d_cat_multi_stim_exp1","2022-3-28","11:31:56","25","75","3","9","10","40","30","120","3","19","[""Asian""]","No","Female","1442291","994","","u","learn","","learn_trial","24.8654","83.9909","in","1","1","","","","","","","","","","","","","","","","","","","",""
"","","","","","canvas-keyboard-response","206","227443","0.0-13.0-3.38","2d_cat_multi_stim_exp1","2022-3-28","11:31:56","25","75","3","9","10","40","30","120","3","19","[""Asian""]","No","Female","1442291","null","","null","learn_feedback","","learn_feedback","24.8654","83.9909","in","","","","","","","","","","","","","","","","","","","","","",""
"","","","","","canvas-keyboard-response","207","227507","0.0-13.0-4.38","2d_cat_multi_stim_exp1","2022-3-28","11:31:56","25","75","3","9","10","40","30","120","3","19","[""Asian""]","No","Female","1442291","null","","null","","","clear_screen","","","","","","","","","","","","","","","","","","","","","","","","",""
"","","","","","canvas-keyboard-response","208","228016","0.0-13.0-0.39","2d_cat_multi_stim_exp1","2022-3-28","11:31:56","25","75","3","9","10","40","30","120","3","19","[""Asian""]","No","Female","1442291","null","","null","","","fixation","","","","","","","","","","","","","","","","","","","","","","","","",""
"","","","","","canvas-keyboard-response","209","228526","0.0-13.0-1.39","2d_cat_multi_stim_exp1","2022-3-28","11:31:56","25","75","3","9","10","40","30","120","3","19","[""Asian""]","No","Female","1442291","null","","null","","","clear_screen","","","","","","","","","","","","","","","","","","","","","","","","",""
"","","","","","canvas-keyboard-response","210","229285","0.0-13.0-2.39","2d_cat_multi_stim_exp1","2022-3-28","11:31:56","25","75","3","9","10","40","30","120","3","19","[""Asian""]","No","Female","1442291","749","","i","learn","","learn_trial","13.3333","60","out","0","1","","","","","","","","","","","","","","","","","","","",""
"","","","","","canvas-keyboard-response","211","229794","0.0-13.0-3.39","2d_cat_multi_stim_exp1","2022-3-28","11:31:56","25","75","3","9","10","40","30","120","3","19","[""Asian""]","No","Female","1442291","null","","null","learn_feedback","","learn_feedback","13.3333","60","out","","","","","","","","","","","","","","","","","","","","","",""
"","","","","","canvas-keyboard-response","212","229853","0.0-13.0-4.39","2d_cat_multi_stim_exp1","2022-3-28","11:31:56","25","75","3","9","10","40","30","120","3","19","[""Asian""]","No","Female","1442291","null","","null","","","clear_screen","","","","","","","","","","","","","","","","","","","","","","","","",""
"","","","","","canvas-keyboard-response","213","230364","0.0-13.0-0.40","2d_cat_multi_stim_exp1","2022-3-28","11:31:56","25","75","3","9","10","40","30","120","3","19","[""Asian""]","No","Female","1442291","null","","null","","","fixation","","","","","","","","","","","","","","","","","","","","","","","","",""
"","","","","","canvas-keyboard-response","214","230874","0.0-13.0-1.40","2d_cat_multi_stim_exp1","2022-3-28","11:31:56","25","75","3","9","10","40","30","120","3","19","[""Asian""]","No","Female","1442291","null","","null","","","clear_screen","","","","","","","","","","","","","","","","","","","","","","","","",""
"","","","","","canvas-keyboard-response","215","231549","0.0-13.0-2.40","2d_cat_multi_stim_exp1","2022-3-28","11:31:56","25","75","3","9","10","40","30","120","3","19","[""Asian""]","No","Female","1442291","662","","u","learn","","learn_trial","25","75","in","1","1","","","","","","","","","","","","","","","","","","","",""
"","","","","","canvas-keyboard-response","216","232059","0.0-13.0-3.40","2d_cat_multi_stim_exp1","2022-3-28","11:31:56","25","75","3","9","10","40","30","120","3","19","[""Asian""]","No","Female","1442291","null","","null","learn_feedback","","learn_feedback","25","75","in","","","","","","","","","","","","","","","","","","","","","",""
"","","","","","canvas-keyboard-response","217","232118","0.0-13.0-4.40","2d_cat_multi_stim_exp1","2022-3-28","11:31:56","25","75","3","9","10","40","30","120","3","19","[""Asian""]","No","Female","1442291","null","","null","","","clear_screen","","","","","","","","","","","","","","","","","","","","","","","","",""
"","","","","","canvas-keyboard-response","218","232628","0.0-13.0-0.41","2d_cat_multi_stim_exp1","2022-3-28","11:31:56","25","75","3","9","10","40","30","120","3","19","[""Asian""]","No","Female","1442291","null","","null","","","fixation","","","","","","","","","","","","","","","","","","","","","","","","",""
"","","","","","canvas-keyboard-response","219","233140","0.0-13.0-1.41","2d_cat_multi_stim_exp1","2022-3-28","11:31:56","25","75","3","9","10","40","30","120","3","19","[""Asian""]","No","Female","1442291","null","","null","","","clear_screen","","","","","","","","","","","","","","","","","","","","","","","","",""
"","","","","","canvas-keyboard-response","220","233749","0.0-13.0-2.41","2d_cat_multi_stim_exp1","2022-3-28","11:31:56","25","75","3","9","10","40","30","120","3","19","[""Asian""]","No","Female","1442291","602","","i","learn","","learn_trial","36.6667","120","out","0","1","","","","","","","","","","","","","","","","","","","",""
"","","","","","canvas-keyboard-response","221","234261","0.0-13.0-3.41","2d_cat_multi_stim_exp1","2022-3-28","11:31:56","25","75","3","9","10","40","30","120","3","19","[""Asian""]","No","Female","1442291","null","","null","learn_feedback","","learn_feedback","36.6667","120","out","","","","","","","","","","","","","","","","","","","","","",""
"","","","","","canvas-keyboard-response","222","234320","0.0-13.0-4.41","2d_cat_multi_stim_exp1","2022-3-28","11:31:56","25","75","3","9","10","40","30","120","3","19","[""Asian""]","No","Female","1442291","null","","null","","","clear_screen","","","","","","","","","","","","","","","","","","","","","","","","",""
"","","","","","canvas-keyboard-response","223","234831","0.0-13.0-0.42","2d_cat_multi_stim_exp1","2022-3-28","11:31:56","25","75","3","9","10","40","30","120","3","19","[""Asian""]","No","Female","1442291","null","","null","","","fixation","","","","","","","","","","","","","","","","","","","","","","","","",""
"","","","","","canvas-keyboard-response","224","235344","0.0-13.0-1.42","2d_cat_multi_stim_exp1","2022-3-28","11:31:56","25","75","3","9","10","40","30","120","3","19","[""Asian""]","No","Female","1442291","null","","null","","","clear_screen","","","","","","","","","","","","","","","","","","","","","","","","",""
"","","","","","canvas-keyboard-response","225","236068","0.0-13.0-2.42","2d_cat_multi_stim_exp1","2022-3-28","11:31:56","25","75","3","9","10","40","30","120","3","19","[""Asian""]","No","Female","1442291","710","","u","learn","","learn_trial","25","75","in","1","1","","","","","","","","","","","","","","","","","","","",""
"","","","","","canvas-keyboard-response","226","236579","0.0-13.0-3.42","2d_cat_multi_stim_exp1","2022-3-28","11:31:56","25","75","3","9","10","40","30","120","3","19","[""Asian""]","No","Female","1442291","null","","null","learn_feedback","","learn_feedback","25","75","in","","","","","","","","","","","","","","","","","","","","","",""
"","","","","","canvas-keyboard-response","227","236643","0.0-13.0-4.42","2d_cat_multi_stim_exp1","2022-3-28","11:31:56","25","75","3","9","10","40","30","120","3","19","[""Asian""]","No","Female","1442291","null","","null","","","clear_screen","","","","","","","","","","","","","","","","","","","","","","","","",""
"","","","","","canvas-keyboard-response","228","237153","0.0-13.0-0.43","2d_cat_multi_stim_exp1","2022-3-28","11:31:56","25","75","3","9","10","40","30","120","3","19","[""Asian""]","No","Female","1442291","null","","null","","","fixation","","","","","","","","","","","","","","","","","","","","","","","","",""
"","","","","","canvas-keyboard-response","229","237665","0.0-13.0-1.43","2d_cat_multi_stim_exp1","2022-3-28","11:31:56","25","75","3","9","10","40","30","120","3","19","[""Asian""]","No","Female","1442291","null","","null","","","clear_screen","","","","","","","","","","","","","","","","","","","","","","","","",""
"","","","","","canvas-keyboard-response","230","238509","0.0-13.0-2.43","2d_cat_multi_stim_exp1","2022-3-28","11:31:56","25","75","3","9","10","40","30","120","3","19","[""Asian""]","No","Female","1442291","833","","i","learn","","learn_trial","13.3333","100","out","0","1","","","","","","","","","","","","","","","","","","","",""
"","","","","","canvas-keyboard-response","231","239017","0.0-13.0-3.43","2d_cat_multi_stim_exp1","2022-3-28","11:31:56","25","75","3","9","10","40","30","120","3","19","[""Asian""]","No","Female","1442291","null","","null","learn_feedback","","learn_feedback","13.3333","100","out","","","","","","","","","","","","","","","","","","","","","",""
"","","","","","canvas-keyboard-response","232","239081","0.0-13.0-4.43","2d_cat_multi_stim_exp1","2022-3-28","11:31:56","25","75","3","9","10","40","30","120","3","19","[""Asian""]","No","Female","1442291","null","","null","","","clear_screen","","","","","","","","","","","","","","","","","","","","","","","","",""
"","","","","","canvas-keyboard-response","233","239589","0.0-13.0-0.44","2d_cat_multi_stim_exp1","2022-3-28","11:31:56","25","75","3","9","10","40","30","120","3","19","[""Asian""]","No","Female","1442291","null","","null","","","fixation","","","","","","","","","","","","","","","","","","","","","","","","",""
"","","","","","canvas-keyboard-response","234","240103","0.0-13.0-1.44","2d_cat_multi_stim_exp1","2022-3-28","11:31:56","25","75","3","9","10","40","30","120","3","19","[""Asian""]","No","Female","1442291","null","","null","","","clear_screen","","","","","","","","","","","","","","","","","","","","","","","","",""
"","","","","","canvas-keyboard-response","235","241757","0.0-13.0-2.44","2d_cat_multi_stim_exp1","2022-3-28","11:31:56","25","75","3","9","10","40","30","120","3","19","[""Asian""]","No","Female","1442291","1645","","i","learn","","learn_trial","40","70","out","0","1","","","","","","","","","","","","","","","","","","","",""
"","","","","","canvas-keyboard-response","236","242269","0.0-13.0-3.44","2d_cat_multi_stim_exp1","2022-3-28","11:31:56","25","75","3","9","10","40","30","120","3","19","[""Asian""]","No","Female","1442291","null","","null","learn_feedback","","learn_feedback","40","70","out","","","","","","","","","","","","","","","","","","","","","",""
"","","","","","canvas-keyboard-response","237","242329","0.0-13.0-4.44","2d_cat_multi_stim_exp1","2022-3-28","11:31:56","25","75","3","9","10","40","30","120","3","19","[""Asian""]","No","Female","1442291","null","","null","","","clear_screen","","","","","","","","","","","","","","","","","","","","","","","","",""
"","","","","","canvas-keyboard-response","238","242840","0.0-13.0-0.45","2d_cat_multi_stim_exp1","2022-3-28","11:31:56","25","75","3","9","10","40","30","120","3","19","[""Asian""]","No","Female","1442291","null","","null","","","fixation","","","","","","","","","","","","","","","","","","","","","","","","",""
"","","","","","canvas-keyboard-response","239","243348","0.0-13.0-1.45","2d_cat_multi_stim_exp1","2022-3-28","11:31:56","25","75","3","9","10","40","30","120","3","19","[""Asian""]","No","Female","1442291","null","","null","","","clear_screen","","","","","","","","","","","","","","","","","","","","","","","","",""
"","","","","","canvas-keyboard-response","240","244092","0.0-13.0-2.45","2d_cat_multi_stim_exp1","2022-3-28","11:31:56","25","75","3","9","10","40","30","120","3","19","[""Asian""]","No","Female","1442291","734","","u","learn","","learn_trial","24.3324","83.7744","in","1","1","","","","","","","","","","","","","","","","","","","",""
"","","","","","canvas-keyboard-response","241","244605","0.0-13.0-3.45","2d_cat_multi_stim_exp1","2022-3-28","11:31:56","25","75","3","9","10","40","30","120","3","19","[""Asian""]","No","Female","1442291","null","","null","learn_feedback","","learn_feedback","24.3324","83.7744","in","","","","","","","","","","","","","","","","","","","","","",""
"","","","","","canvas-keyboard-response","242","244668","0.0-13.0-4.45","2d_cat_multi_stim_exp1","2022-3-28","11:31:56","25","75","3","9","10","40","30","120","3","19","[""Asian""]","No","Female","1442291","null","","null","","","clear_screen","","","","","","","","","","","","","","","","","","","","","","","","",""
"","","","","","canvas-keyboard-response","243","245181","0.0-13.0-0.46","2d_cat_multi_stim_exp1","2022-3-28","11:31:56","25","75","3","9","10","40","30","120","3","19","[""Asian""]","No","Female","1442291","null","","null","","","fixation","","","","","","","","","","","","","","","","","","","","","","","","",""
"","","","","","canvas-keyboard-response","244","245691","0.0-13.0-1.46","2d_cat_multi_stim_exp1","2022-3-28","11:31:56","25","75","3","9","10","40","30","120","3","19","[""Asian""]","No","Female","1442291","null","","null","","","clear_screen","","","","","","","","","","","","","","","","","","","","","","","","",""
"","","","","","canvas-keyboard-response","245","246317","0.0-13.0-2.46","2d_cat_multi_stim_exp1","2022-3-28","11:31:56","25","75","3","9","10","40","30","120","3","19","[""Asian""]","No","Female","1442291","614","","u","learn","","learn_trial","16.6667","30","out","1","0","","","","","","","","","","","","","","","","","","","",""
"","","","","","canvas-keyboard-response","246","247329","0.0-13.0-3.46","2d_cat_multi_stim_exp1","2022-3-28","11:31:56","25","75","3","9","10","40","30","120","3","19","[""Asian""]","No","Female","1442291","null","","null","learn_feedback","","learn_feedback","16.6667","30","out","","","","","","","","","","","","","","","","","","","","","",""
"","","","","","canvas-keyboard-response","247","247363","0.0-13.0-4.46","2d_cat_multi_stim_exp1","2022-3-28","11:31:56","25","75","3","9","10","40","30","120","3","19","[""Asian""]","No","Female","1442291","27","","i","","","clear_screen","","","","","","","","","","","","","","","","","","","","","","","","",""
"","","","","","canvas-keyboard-response","248","247873","0.0-13.0-0.47","2d_cat_multi_stim_exp1","2022-3-28","11:31:56","25","75","3","9","10","40","30","120","3","19","[""Asian""]","No","Female","1442291","null","","null","","","fixation","","","","","","","","","","","","","","","","","","","","","","","","",""
"","","","","","canvas-keyboard-response","249","248388","0.0-13.0-1.47","2d_cat_multi_stim_exp1","2022-3-28","11:31:56","25","75","3","9","10","40","30","120","3","19","[""Asian""]","No","Female","1442291","null","","null","","","clear_screen","","","","","","","","","","","","","","","","","","","","","","","","",""
"","","","","","canvas-keyboard-response","250","249221","0.0-13.0-2.47","2d_cat_multi_stim_exp1","2022-3-28","11:31:56","25","75","3","9","10","40","30","120","3","19","[""Asian""]","No","Female","1442291","824","","u","learn","","learn_trial","29.2426","87.7279","in","1","1","","","","","","","","","","","","","","","","","","","",""
"","","","","","canvas-keyboard-response","251","249734","0.0-13.0-3.47","2d_cat_multi_stim_exp1","2022-3-28","11:31:56","25","75","3","9","10","40","30","120","3","19","[""Asian""]","No","Female","1442291","null","","null","learn_feedback","","learn_feedback","29.2426","87.7279","in","","","","","","","","","","","","","","","","","","","","","",""
"","","","","","canvas-keyboard-response","252","249792","0.0-13.0-4.47","2d_cat_multi_stim_exp1","2022-3-28","11:31:56","25","75","3","9","10","40","30","120","3","19","[""Asian""]","No","Female","1442291","null","","null","","","clear_screen","","","","","","","","","","","","","","","","","","","","","","","","",""
"","","","","","canvas-keyboard-response","253","250303","0.0-13.0-0.48","2d_cat_multi_stim_exp1","2022-3-28","11:31:56","25","75","3","9","10","40","30","120","3","19","[""Asian""]","No","Female","1442291","null","","null","","","fixation","","","","","","","","","","","","","","","","","","","","","","","","",""
"","","","","","canvas-keyboard-response","254","250813","0.0-13.0-1.48","2d_cat_multi_stim_exp1","2022-3-28","11:31:56","25","75","3","9","10","40","30","120","3","19","[""Asian""]","No","Female","1442291","null","","null","","","clear_screen","","","","","","","","","","","","","","","","","","","","","","","","",""
"","","","","","canvas-keyboard-response","255","251549","0.0-13.0-2.48","2d_cat_multi_stim_exp1","2022-3-28","11:31:56","25","75","3","9","10","40","30","120","3","19","[""Asian""]","No","Female","1442291","724","","u","learn","","learn_trial","25","75","in","1","1","","","","","","","","","","","","","","","","","","","",""
"","","","","","canvas-keyboard-response","256","252060","0.0-13.0-3.48","2d_cat_multi_stim_exp1","2022-3-28","11:31:56","25","75","3","9","10","40","30","120","3","19","[""Asian""]","No","Female","1442291","null","","null","learn_feedback","","learn_feedback","25","75","in","","","","","","","","","","","","","","","","","","","","","",""
"","","","","","canvas-keyboard-response","257","252121","0.0-13.0-4.48","2d_cat_multi_stim_exp1","2022-3-28","11:31:56","25","75","3","9","10","40","30","120","3","19","[""Asian""]","No","Female","1442291","null","","null","","","clear_screen","","","","","","","","","","","","","","","","","","","","","","","","",""
"","","","","","canvas-keyboard-response","258","252629","0.0-13.0-0.49","2d_cat_multi_stim_exp1","2022-3-28","11:31:56","25","75","3","9","10","40","30","120","3","19","[""Asian""]","No","Female","1442291","null","","null","","","fixation","","","","","","","","","","","","","","","","","","","","","","","","",""
"","","","","","canvas-keyboard-response","259","253143","0.0-13.0-1.49","2d_cat_multi_stim_exp1","2022-3-28","11:31:56","25","75","3","9","10","40","30","120","3","19","[""Asian""]","No","Female","1442291","null","","null","","","clear_screen","","","","","","","","","","","","","","","","","","","","","","","","",""
"","","","","","canvas-keyboard-response","260","253822","0.0-13.0-2.49","2d_cat_multi_stim_exp1","2022-3-28","11:31:56","25","75","3","9","10","40","30","120","3","19","[""Asian""]","No","Female","1442291","666","","i","learn","","learn_trial","26.6667","40","out","0","1","","","","","","","","","","","","","","","","","","","",""
"","","","","","canvas-keyboard-response","261","254334","0.0-13.0-3.49","2d_cat_multi_stim_exp1","2022-3-28","11:31:56","25","75","3","9","10","40","30","120","3","19","[""Asian""]","No","Female","1442291","null","","null","learn_feedback","","learn_feedback","26.6667","40","out","","","","","","","","","","","","","","","","","","","","","",""
"","","","","","canvas-keyboard-response","262","254395","0.0-13.0-4.49","2d_cat_multi_stim_exp1","2022-3-28","11:31:56","25","75","3","9","10","40","30","120","3","19","[""Asian""]","No","Female","1442291","null","","null","","","clear_screen","","","","","","","","","","","","","","","","","","","","","","","","",""
"","","","","","canvas-keyboard-response","263","254905","0.0-13.0-0.50","2d_cat_multi_stim_exp1","2022-3-28","11:31:56","25","75","3","9","10","40","30","120","3","19","[""Asian""]","No","Female","1442291","null","","null","","","fixation","","","","","","","","","","","","","","","","","","","","","","","","",""
"","","","","","canvas-keyboard-response","264","255417","0.0-13.0-1.50","2d_cat_multi_stim_exp1","2022-3-28","11:31:56","25","75","3","9","10","40","30","120","3","19","[""Asian""]","No","Female","1442291","null","","null","","","clear_screen","","","","","","","","","","","","","","","","","","","","","","","","",""
"","","","","","canvas-keyboard-response","265","256164","0.0-13.0-2.50","2d_cat_multi_stim_exp1","2022-3-28","11:31:56","25","75","3","9","10","40","30","120","3","19","[""Asian""]","No","Female","1442291","735","","i","learn","","learn_trial","10","90","out","0","1","","","","","","","","","","","","","","","","","","","",""
"","","","","","canvas-keyboard-response","266","256676","0.0-13.0-3.50","2d_cat_multi_stim_exp1","2022-3-28","11:31:56","25","75","3","9","10","40","30","120","3","19","[""Asian""]","No","Female","1442291","null","","null","learn_feedback","","learn_feedback","10","90","out","","","","","","","","","","","","","","","","","","","","","",""
"","","","","","canvas-keyboard-response","267","256736","0.0-13.0-4.50","2d_cat_multi_stim_exp1","2022-3-28","11:31:56","25","75","3","9","10","40","30","120","3","19","[""Asian""]","No","Female","1442291","null","","null","","","clear_screen","","","","","","","","","","","","","","","","","","","","","","","","",""
"","","","","","canvas-keyboard-response","268","257245","0.0-13.0-0.51","2d_cat_multi_stim_exp1","2022-3-28","11:31:56","25","75","3","9","10","40","30","120","3","19","[""Asian""]","No","Female","1442291","null","","null","","","fixation","","","","","","","","","","","","","","","","","","","","","","","","",""
"","","","","","canvas-keyboard-response","269","257756","0.0-13.0-1.51","2d_cat_multi_stim_exp1","2022-3-28","11:31:56","25","75","3","9","10","40","30","120","3","19","[""Asian""]","No","Female","1442291","null","","null","","","clear_screen","","","","","","","","","","","","","","","","","","","","","","","","",""
"","","","","","canvas-keyboard-response","270","259021","0.0-13.0-2.51","2d_cat_multi_stim_exp1","2022-3-28","11:31:56","25","75","3","9","10","40","30","120","3","19","[""Asian""]","No","Female","1442291","1253","","u","learn","","learn_trial","26.6667","100","out","1","0","","","","","","","","","","","","","","","","","","","",""
"","","","","","canvas-keyboard-response","271","260032","0.0-13.0-3.51","2d_cat_multi_stim_exp1","2022-3-28","11:31:56","25","75","3","9","10","40","30","120","3","19","[""Asian""]","No","Female","1442291","null","","null","learn_feedback","","learn_feedback","26.6667","100","out","","","","","","","","","","","","","","","","","","","","","",""
"","","","","","canvas-keyboard-response","272","260091","0.0-13.0-4.51","2d_cat_multi_stim_exp1","2022-3-28","11:31:56","25","75","3","9","10","40","30","120","3","19","[""Asian""]","No","Female","1442291","null","","null","","","clear_screen","","","","","","","","","","","","","","","","","","","","","","","","",""
"","","","","","canvas-keyboard-response","273","260601","0.0-13.0-0.52","2d_cat_multi_stim_exp1","2022-3-28","11:31:56","25","75","3","9","10","40","30","120","3","19","[""Asian""]","No","Female","1442291","null","","null","","","fixation","","","","","","","","","","","","","","","","","","","","","","","","",""
"","","","","","canvas-keyboard-response","274","261113","0.0-13.0-1.52","2d_cat_multi_stim_exp1","2022-3-28","11:31:56","25","75","3","9","10","40","30","120","3","19","[""Asian""]","No","Female","1442291","null","","null","","","clear_screen","","","","","","","","","","","","","","","","","","","","","","","","",""
"","","","","","canvas-keyboard-response","275","261789","0.0-13.0-2.52","2d_cat_multi_stim_exp1","2022-3-28","11:31:56","25","75","3","9","10","40","30","120","3","19","[""Asian""]","No","Female","1442291","667","","u","learn","","learn_trial","25","75","in","1","1","","","","","","","","","","","","","","","","","","","",""
"","","","","","canvas-keyboard-response","276","262299","0.0-13.0-3.52","2d_cat_multi_stim_exp1","2022-3-28","11:31:56","25","75","3","9","10","40","30","120","3","19","[""Asian""]","No","Female","1442291","null","","null","learn_feedback","","learn_feedback","25","75","in","","","","","","","","","","","","","","","","","","","","","",""
"","","","","","canvas-keyboard-response","277","262360","0.0-13.0-4.52","2d_cat_multi_stim_exp1","2022-3-28","11:31:56","25","75","3","9","10","40","30","120","3","19","[""Asian""]","No","Female","1442291","null","","null","","","clear_screen","","","","","","","","","","","","","","","","","","","","","","","","",""
"","","","","","canvas-keyboard-response","278","262868","0.0-13.0-0.53","2d_cat_multi_stim_exp1","2022-3-28","11:31:56","25","75","3","9","10","40","30","120","3","19","[""Asian""]","No","Female","1442291","null","","null","","","fixation","","","","","","","","","","","","","","","","","","","","","","","","",""
"","","","","","canvas-keyboard-response","279","263377","0.0-13.0-1.53","2d_cat_multi_stim_exp1","2022-3-28","11:31:56","25","75","3","9","10","40","30","120","3","19","[""Asian""]","No","Female","1442291","null","","null","","","clear_screen","","","","","","","","","","","","","","","","","","","","","","","","",""
"","","","","","canvas-keyboard-response","280","264053","0.0-13.0-2.53","2d_cat_multi_stim_exp1","2022-3-28","11:31:56","25","75","3","9","10","40","30","120","3","19","[""Asian""]","No","Female","1442291","664","","u","learn","","learn_trial","27.8087","78.1624","in","1","1","","","","","","","","","","","","","","","","","","","",""
"","","","","","canvas-keyboard-response","281","264561","0.0-13.0-3.53","2d_cat_multi_stim_exp1","2022-3-28","11:31:56","25","75","3","9","10","40","30","120","3","19","[""Asian""]","No","Female","1442291","null","","null","learn_feedback","","learn_feedback","27.8087","78.1624","in","","","","","","","","","","","","","","","","","","","","","",""
"","","","","","canvas-keyboard-response","282","264621","0.0-13.0-4.53","2d_cat_multi_stim_exp1","2022-3-28","11:31:56","25","75","3","9","10","40","30","120","3","19","[""Asian""]","No","Female","1442291","null","","null","","","clear_screen","","","","","","","","","","","","","","","","","","","","","","","","",""
"","","","","","canvas-keyboard-response","283","265129","0.0-13.0-0.54","2d_cat_multi_stim_exp1","2022-3-28","11:31:56","25","75","3","9","10","40","30","120","3","19","[""Asian""]","No","Female","1442291","null","","null","","","fixation","","","","","","","","","","","","","","","","","","","","","","","","",""
"","","","","","canvas-keyboard-response","284","265644","0.0-13.0-1.54","2d_cat_multi_stim_exp1","2022-3-28","11:31:56","25","75","3","9","10","40","30","120","3","19","[""Asian""]","No","Female","1442291","null","","null","","","clear_screen","","","","","","","","","","","","","","","","","","","","","","","","",""
"","","","","","canvas-keyboard-response","285","266213","0.0-13.0-2.54","2d_cat_multi_stim_exp1","2022-3-28","11:31:56","25","75","3","9","10","40","30","120","3","19","[""Asian""]","No","Female","1442291","558","","u","learn","","learn_trial","25","75","in","1","1","","","","","","","","","","","","","","","","","","","",""
"","","","","","canvas-keyboard-response","286","266725","0.0-13.0-3.54","2d_cat_multi_stim_exp1","2022-3-28","11:31:56","25","75","3","9","10","40","30","120","3","19","[""Asian""]","No","Female","1442291","null","","null","learn_feedback","","learn_feedback","25","75","in","","","","","","","","","","","","","","","","","","","","","",""
"","","","","","canvas-keyboard-response","287","266786","0.0-13.0-4.54","2d_cat_multi_stim_exp1","2022-3-28","11:31:56","25","75","3","9","10","40","30","120","3","19","[""Asian""]","No","Female","1442291","null","","null","","","clear_screen","","","","","","","","","","","","","","","","","","","","","","","","",""
"","","","","","canvas-keyboard-response","288","267295","0.0-13.0-0.55","2d_cat_multi_stim_exp1","2022-3-28","11:31:56","25","75","3","9","10","40","30","120","3","19","[""Asian""]","No","Female","1442291","null","","null","","","fixation","","","","","","","","","","","","","","","","","","","","","","","","",""
"","","","","","canvas-keyboard-response","289","267805","0.0-13.0-1.55","2d_cat_multi_stim_exp1","2022-3-28","11:31:56","25","75","3","9","10","40","30","120","3","19","[""Asian""]","No","Female","1442291","null","","null","","","clear_screen","","","","","","","","","","","","","","","","","","","","","","","","",""
"","","","","","canvas-keyboard-response","290","268644","0.0-13.0-2.55","2d_cat_multi_stim_exp1","2022-3-28","11:31:56","25","75","3","9","10","40","30","120","3","19","[""Asian""]","No","Female","1442291","831","","i","learn","","learn_trial","36.6667","90","out","0","1","","","","","","","","","","","","","","","","","","","",""
"","","","","","canvas-keyboard-response","291","269154","0.0-13.0-3.55","2d_cat_multi_stim_exp1","2022-3-28","11:31:56","25","75","3","9","10","40","30","120","3","19","[""Asian""]","No","Female","1442291","null","","null","learn_feedback","","learn_feedback","36.6667","90","out","","","","","","","","","","","","","","","","","","","","","",""
"","","","","","canvas-keyboard-response","292","269213","0.0-13.0-4.55","2d_cat_multi_stim_exp1","2022-3-28","11:31:56","25","75","3","9","10","40","30","120","3","19","[""Asian""]","No","Female","1442291","null","","null","","","clear_screen","","","","","","","","","","","","","","","","","","","","","","","","",""
"","","","","","canvas-keyboard-response","293","269723","0.0-13.0-0.56","2d_cat_multi_stim_exp1","2022-3-28","11:31:56","25","75","3","9","10","40","30","120","3","19","[""Asian""]","No","Female","1442291","null","","null","","","fixation","","","","","","","","","","","","","","","","","","","","","","","","",""
"","","","","","canvas-keyboard-response","294","270237","0.0-13.0-1.56","2d_cat_multi_stim_exp1","2022-3-28","11:31:56","25","75","3","9","10","40","30","120","3","19","[""Asian""]","No","Female","1442291","null","","null","","","clear_screen","","","","","","","","","","","","","","","","","","","","","","","","",""
"","","","","","canvas-keyboard-response","295","270900","0.0-13.0-2.56","2d_cat_multi_stim_exp1","2022-3-28","11:31:56","25","75","3","9","10","40","30","120","3","19","[""Asian""]","No","Female","1442291","653","","i","learn","","learn_trial","33.3333","50","out","0","1","","","","","","","","","","","","","","","","","","","",""
"","","","","","canvas-keyboard-response","296","271411","0.0-13.0-3.56","2d_cat_multi_stim_exp1","2022-3-28","11:31:56","25","75","3","9","10","40","30","120","3","19","[""Asian""]","No","Female","1442291","null","","null","learn_feedback","","learn_feedback","33.3333","50","out","","","","","","","","","","","","","","","","","","","","","",""
"","","","","","canvas-keyboard-response","297","271473","0.0-13.0-4.56","2d_cat_multi_stim_exp1","2022-3-28","11:31:56","25","75","3","9","10","40","30","120","3","19","[""Asian""]","No","Female","1442291","null","","null","","","clear_screen","","","","","","","","","","","","","","","","","","","","","","","","",""
"","","","","","canvas-keyboard-response","298","271980","0.0-13.0-0.57","2d_cat_multi_stim_exp1","2022-3-28","11:31:56","25","75","3","9","10","40","30","120","3","19","[""Asian""]","No","Female","1442291","null","","null","","","fixation","","","","","","","","","","","","","","","","","","","","","","","","",""
"","","","","","canvas-keyboard-response","299","272493","0.0-13.0-1.57","2d_cat_multi_stim_exp1","2022-3-28","11:31:56","25","75","3","9","10","40","30","120","3","19","[""Asian""]","No","Female","1442291","null","","null","","","clear_screen","","","","","","","","","","","","","","","","","","","","","","","","",""
