"success","timeout","failed_images","failed_audio","failed_video","trial_type","trial_index","time_elapsed","internal_node_id","exp_name","date","time","angle_mean_in","radius_mean_in","angle_sd_in","radius_sd_in","angle_min_out","angle_max_out","radius_min_out","radius_max_out","sub_n","age","race","ethnicity","gender","exp_duration","rt","response","exp_trial_type","stimulus","view_history","screen_id","angle","radius","distribution","choice","correct","order","angle_a","radius_a","angle_b","radius_b","angle_c","radius_c","jkl_correct","transfer_trial_type","choice_set","abc_correct","tc_correct","tc_angle","tdc_a","tdc_b","tdc_c","pair","category_a","category_b","category_c","question_order"
"true","false","[]","[]","[]","preload","0","60","0.0-0.0","2d_cat_multi_stim_exp1","2022-4-8","15:6:31","25","75","3","9","10","40","30","120","22","20 years","[""White""]","No","Male","2112307","","","","","","","","","","","","","","","","","","","","","","","","","","","","","","","",""
"","","","","","survey-html-form","1","1799","0.0-1.0","2d_cat_multi_stim_exp1","2022-4-8","15:6:31","25","75","3","9","10","40","30","120","22","20 years","[""White""]","No","Male","2112307","1714","{""response"":""22""}","enter-sub-number","","","","","","","","","","","","","","","","","","","","","","","","","","","","",""
"true","","","","","fullscreen","2","5571","0.0-2.0","2d_cat_multi_stim_exp1","2022-4-8","15:6:31","25","75","3","9","10","40","30","120","22","20 years","[""White""]","No","Male","2112307","","","","","","","","","","","","","","","","","","","","","","","","","","","","","","","",""
"","","","","","image-button-response","3","91451","0.0-3.0","2d_cat_multi_stim_exp1","2022-4-8","15:6:31","25","75","3","9","10","40","30","120","22","20 years","[""White""]","No","Male","2112307","85872","0","","consent.png","","","","","","","","","","","","","","","","","","","","","","","","","","","",""
"","","","","","html-button-response","4","102162","0.0-4.0","2d_cat_multi_stim_exp1","2022-4-8","15:6:31","25","75","3","9","10","40","30","120","22","20 years","[""White""]","No","Male","2112307","10706","0","","<div style= ""font-size:25px;"" <p> <strong> Welcome to the experiment! </strong><br> <p style=""color:#8B0000; font-size:25px;""><strong> Please do NOT exit full screen until you are done with the experiment. </strong> </p><p style=""font-size:25px;color:#8B0000;""> <strong> The experiment will be canceled and your data will be lost <br> if you try to go back or refresh the page at any point during the experiment.</strong> </p><br><p> <strong> Thanks in advance for your contribution to our research! </strong></p>","","","","","","","","","","","","","","","","","","","","","","","","","","","",""
"","","","","","instructions","5","148258","0.0-5.0","2d_cat_multi_stim_exp1","2022-4-8","15:6:31","25","75","3","9","10","40","30","120","22","20 years","[""White""]","No","Male","2112307","46093","","","","[{""page_index"":0,""viewing_time"":7508},{""page_index"":1,""viewing_time"":3192},{""page_index"":2,""viewing_time"":12312},{""page_index"":3,""viewing_time"":23080}]","instructions_1","","","","","","","","","","","","","","","","","","","","","","","","","",""
"","","","","","instructions","6","152122","0.0-6.0","2d_cat_multi_stim_exp1","2022-4-8","15:6:31","25","75","3","9","10","40","30","120","22","20 years","[""White""]","No","Male","2112307","3860","","","","[{""page_index"":0,""viewing_time"":3860}]","Click to see the kinds of turtles that will appear in the study.","","","","","","","","","","","","","","","","","","","","","","","","","",""
"","","","","","canvas-keyboard-response","7","167144","0.0-7.0","2d_cat_multi_stim_exp1","2022-4-8","15:6:31","25","75","3","9","10","40","30","120","22","20 years","[""White""]","No","Male","2112307","null","null","","","","demo_range","","","","","","","","","","","","","","","","","","","","","","","","","",""
"","","","","","instructions","8","170745","0.0-8.0","2d_cat_multi_stim_exp1","2022-4-8","15:6:31","25","75","3","9","10","40","30","120","22","20 years","[""White""]","No","Male","2112307","3100","","","","[{""page_index"":0,""viewing_time"":3100}]","Click to see some turtles in the subspecies.","","","","","","","","","","","","","","","","","","","","","","","","","",""
"","","","","","canvas-keyboard-response","9","185767","0.0-9.0","2d_cat_multi_stim_exp1","2022-4-8","15:6:31","25","75","3","9","10","40","30","120","22","20 years","[""White""]","No","Male","2112307","null","null","","","","demo_in","","","","","","","","","","","","","","","","","","","","","","","","","",""
"","","","","","instructions","10","254193","0.0-10.0","2d_cat_multi_stim_exp1","2022-4-8","15:6:31","25","75","3","9","10","40","30","120","22","20 years","[""White""]","No","Male","2112307","67923","","","","[{""page_index"":0,""viewing_time"":9307},{""page_index"":1,""viewing_time"":50321},{""page_index"":2,""viewing_time"":8295}]","instructions_2","","","","","","","","","","","","","","","","","","","","","","","","","",""
"","","","","","instructions","11","257233","0.0-11.0","2d_cat_multi_stim_exp1","2022-4-8","15:6:31","25","75","3","9","10","40","30","120","22","20 years","[""White""]","No","Male","2112307","3038","","","","[{""page_index"":0,""viewing_time"":3038}]","Click to begin the first phase of the experiment.","","","","","","","","","","","","","","","","","","","","","","","","","",""
"","","","","","canvas-keyboard-response","12","257743","0.0-12.0-0.0","2d_cat_multi_stim_exp1","2022-4-8","15:6:31","25","75","3","9","10","40","30","120","22","20 years","[""White""]","No","Male","2112307","null","null","","","","fixation","","","","","","","","","","","","","","","","","","","","","","","","","",""
"","","","","","canvas-keyboard-response","13","258253","0.0-12.0-1.0","2d_cat_multi_stim_exp1","2022-4-8","15:6:31","25","75","3","9","10","40","30","120","22","20 years","[""White""]","No","Male","2112307","null","null","","","","clear_screen","","","","","","","","","","","","","","","","","","","","","","","","","",""
"","","","","","canvas-keyboard-response","14","260023","0.0-12.0-2.0","2d_cat_multi_stim_exp1","2022-4-8","15:6:31","25","75","3","9","10","40","30","120","22","20 years","[""White""]","No","Male","2112307","1757","u","learn","","","learn_trial","25.9271","66.4405","in","1","1","","","","","","","","","","","","","","","","","","","","",""
"","","","","","canvas-keyboard-response","15","260539","0.0-12.0-3.0","2d_cat_multi_stim_exp1","2022-4-8","15:6:31","25","75","3","9","10","40","30","120","22","20 years","[""White""]","No","Male","2112307","null","null","learn_feedback","","","learn_feedback","25.9271","66.4405","in","","","","","","","","","","","","","","","","","","","","","","",""
"","","","","","canvas-keyboard-response","16","260598","0.0-12.0-4.0","2d_cat_multi_stim_exp1","2022-4-8","15:6:31","25","75","3","9","10","40","30","120","22","20 years","[""White""]","No","Male","2112307","null","null","","","","clear_screen","","","","","","","","","","","","","","","","","","","","","","","","","",""
"","","","","","canvas-keyboard-response","17","261107","0.0-12.0-0.1","2d_cat_multi_stim_exp1","2022-4-8","15:6:31","25","75","3","9","10","40","30","120","22","20 years","[""White""]","No","Male","2112307","null","null","","","","fixation","","","","","","","","","","","","","","","","","","","","","","","","","",""
"","","","","","canvas-keyboard-response","18","261617","0.0-12.0-1.1","2d_cat_multi_stim_exp1","2022-4-8","15:6:31","25","75","3","9","10","40","30","120","22","20 years","[""White""]","No","Male","2112307","null","null","","","","clear_screen","","","","","","","","","","","","","","","","","","","","","","","","","",""
"","","","","","canvas-keyboard-response","19","262990","0.0-12.0-2.1","2d_cat_multi_stim_exp1","2022-4-8","15:6:31","25","75","3","9","10","40","30","120","22","20 years","[""White""]","No","Male","2112307","1364","u","learn","","","learn_trial","30","60","out","1","0","","","","","","","","","","","","","","","","","","","","",""
"","","","","","canvas-keyboard-response","20","264001","0.0-12.0-3.1","2d_cat_multi_stim_exp1","2022-4-8","15:6:31","25","75","3","9","10","40","30","120","22","20 years","[""White""]","No","Male","2112307","null","null","learn_feedback","","","learn_feedback","30","60","out","","","","","","","","","","","","","","","","","","","","","","",""
"","","","","","canvas-keyboard-response","21","264060","0.0-12.0-4.1","2d_cat_multi_stim_exp1","2022-4-8","15:6:31","25","75","3","9","10","40","30","120","22","20 years","[""White""]","No","Male","2112307","null","null","","","","clear_screen","","","","","","","","","","","","","","","","","","","","","","","","","",""
"","","","","","canvas-keyboard-response","22","264568","0.0-12.0-0.2","2d_cat_multi_stim_exp1","2022-4-8","15:6:31","25","75","3","9","10","40","30","120","22","20 years","[""White""]","No","Male","2112307","null","null","","","","fixation","","","","","","","","","","","","","","","","","","","","","","","","","",""
"","","","","","canvas-keyboard-response","23","265078","0.0-12.0-1.2","2d_cat_multi_stim_exp1","2022-4-8","15:6:31","25","75","3","9","10","40","30","120","22","20 years","[""White""]","No","Male","2112307","null","null","","","","clear_screen","","","","","","","","","","","","","","","","","","","","","","","","","",""
"","","","","","canvas-keyboard-response","24","266645","0.0-12.0-2.2","2d_cat_multi_stim_exp1","2022-4-8","15:6:31","25","75","3","9","10","40","30","120","22","20 years","[""White""]","No","Male","2112307","1557","i","learn","","","learn_trial","40","110","out","0","1","","","","","","","","","","","","","","","","","","","","",""
"","","","","","canvas-keyboard-response","25","267157","0.0-12.0-3.2","2d_cat_multi_stim_exp1","2022-4-8","15:6:31","25","75","3","9","10","40","30","120","22","20 years","[""White""]","No","Male","2112307","null","null","learn_feedback","","","learn_feedback","40","110","out","","","","","","","","","","","","","","","","","","","","","","",""
"","","","","","canvas-keyboard-response","26","267216","0.0-12.0-4.2","2d_cat_multi_stim_exp1","2022-4-8","15:6:31","25","75","3","9","10","40","30","120","22","20 years","[""White""]","No","Male","2112307","null","null","","","","clear_screen","","","","","","","","","","","","","","","","","","","","","","","","","",""
"","","","","","canvas-keyboard-response","27","267725","0.0-12.0-0.3","2d_cat_multi_stim_exp1","2022-4-8","15:6:31","25","75","3","9","10","40","30","120","22","20 years","[""White""]","No","Male","2112307","null","null","","","","fixation","","","","","","","","","","","","","","","","","","","","","","","","","",""
"","","","","","canvas-keyboard-response","28","268235","0.0-12.0-1.3","2d_cat_multi_stim_exp1","2022-4-8","15:6:31","25","75","3","9","10","40","30","120","22","20 years","[""White""]","No","Male","2112307","null","null","","","","clear_screen","","","","","","","","","","","","","","","","","","","","","","","","","",""
"","","","","","canvas-keyboard-response","29","270119","0.0-12.0-2.3","2d_cat_multi_stim_exp1","2022-4-8","15:6:31","25","75","3","9","10","40","30","120","22","20 years","[""White""]","No","Male","2112307","1873","i","learn","","","learn_trial","22.0121","74.1932","in","0","0","","","","","","","","","","","","","","","","","","","","",""
"","","","","","canvas-keyboard-response","30","271131","0.0-12.0-3.3","2d_cat_multi_stim_exp1","2022-4-8","15:6:31","25","75","3","9","10","40","30","120","22","20 years","[""White""]","No","Male","2112307","null","null","learn_feedback","","","learn_feedback","22.0121","74.1932","in","","","","","","","","","","","","","","","","","","","","","","",""
"","","","","","canvas-keyboard-response","31","271192","0.0-12.0-4.3","2d_cat_multi_stim_exp1","2022-4-8","15:6:31","25","75","3","9","10","40","30","120","22","20 years","[""White""]","No","Male","2112307","null","null","","","","clear_screen","","","","","","","","","","","","","","","","","","","","","","","","","",""
"","","","","","canvas-keyboard-response","32","271703","0.0-12.0-0.4","2d_cat_multi_stim_exp1","2022-4-8","15:6:31","25","75","3","9","10","40","30","120","22","20 years","[""White""]","No","Male","2112307","null","null","","","","fixation","","","","","","","","","","","","","","","","","","","","","","","","","",""
"","","","","","canvas-keyboard-response","33","272214","0.0-12.0-1.4","2d_cat_multi_stim_exp1","2022-4-8","15:6:31","25","75","3","9","10","40","30","120","22","20 years","[""White""]","No","Male","2112307","null","null","","","","clear_screen","","","","","","","","","","","","","","","","","","","","","","","","","",""
"","","","","","canvas-keyboard-response","34","273254","0.0-12.0-2.4","2d_cat_multi_stim_exp1","2022-4-8","15:6:31","25","75","3","9","10","40","30","120","22","20 years","[""White""]","No","Male","2112307","1029","i","learn","","","learn_trial","30","40","out","0","1","","","","","","","","","","","","","","","","","","","","",""
"","","","","","canvas-keyboard-response","35","273765","0.0-12.0-3.4","2d_cat_multi_stim_exp1","2022-4-8","15:6:31","25","75","3","9","10","40","30","120","22","20 years","[""White""]","No","Male","2112307","null","null","learn_feedback","","","learn_feedback","30","40","out","","","","","","","","","","","","","","","","","","","","","","",""
"","","","","","canvas-keyboard-response","36","273824","0.0-12.0-4.4","2d_cat_multi_stim_exp1","2022-4-8","15:6:31","25","75","3","9","10","40","30","120","22","20 years","[""White""]","No","Male","2112307","null","null","","","","clear_screen","","","","","","","","","","","","","","","","","","","","","","","","","",""
"","","","","","canvas-keyboard-response","37","274333","0.0-12.0-0.5","2d_cat_multi_stim_exp1","2022-4-8","15:6:31","25","75","3","9","10","40","30","120","22","20 years","[""White""]","No","Male","2112307","null","null","","","","fixation","","","","","","","","","","","","","","","","","","","","","","","","","",""
"","","","","","canvas-keyboard-response","38","274844","0.0-12.0-1.5","2d_cat_multi_stim_exp1","2022-4-8","15:6:31","25","75","3","9","10","40","30","120","22","20 years","[""White""]","No","Male","2112307","null","null","","","","clear_screen","","","","","","","","","","","","","","","","","","","","","","","","","",""
"","","","","","canvas-keyboard-response","39","276351","0.0-12.0-2.5","2d_cat_multi_stim_exp1","2022-4-8","15:6:31","25","75","3","9","10","40","30","120","22","20 years","[""White""]","No","Male","2112307","1493","i","learn","","","learn_trial","33.3333","110","out","0","1","","","","","","","","","","","","","","","","","","","","",""
"","","","","","canvas-keyboard-response","40","276861","0.0-12.0-3.5","2d_cat_multi_stim_exp1","2022-4-8","15:6:31","25","75","3","9","10","40","30","120","22","20 years","[""White""]","No","Male","2112307","null","null","learn_feedback","","","learn_feedback","33.3333","110","out","","","","","","","","","","","","","","","","","","","","","","",""
"","","","","","canvas-keyboard-response","41","276920","0.0-12.0-4.5","2d_cat_multi_stim_exp1","2022-4-8","15:6:31","25","75","3","9","10","40","30","120","22","20 years","[""White""]","No","Male","2112307","null","null","","","","clear_screen","","","","","","","","","","","","","","","","","","","","","","","","","",""
"","","","","","canvas-keyboard-response","42","277430","0.0-12.0-0.6","2d_cat_multi_stim_exp1","2022-4-8","15:6:31","25","75","3","9","10","40","30","120","22","20 years","[""White""]","No","Male","2112307","null","null","","","","fixation","","","","","","","","","","","","","","","","","","","","","","","","","",""
"","","","","","canvas-keyboard-response","43","277940","0.0-12.0-1.6","2d_cat_multi_stim_exp1","2022-4-8","15:6:31","25","75","3","9","10","40","30","120","22","20 years","[""White""]","No","Male","2112307","null","null","","","","clear_screen","","","","","","","","","","","","","","","","","","","","","","","","","",""
"","","","","","canvas-keyboard-response","44","278975","0.0-12.0-2.6","2d_cat_multi_stim_exp1","2022-4-8","15:6:31","25","75","3","9","10","40","30","120","22","20 years","[""White""]","No","Male","2112307","1024","u","learn","","","learn_trial","25","75","in","1","1","","","","","","","","","","","","","","","","","","","","",""
"","","","","","canvas-keyboard-response","45","279488","0.0-12.0-3.6","2d_cat_multi_stim_exp1","2022-4-8","15:6:31","25","75","3","9","10","40","30","120","22","20 years","[""White""]","No","Male","2112307","null","null","learn_feedback","","","learn_feedback","25","75","in","","","","","","","","","","","","","","","","","","","","","","",""
"","","","","","canvas-keyboard-response","46","279548","0.0-12.0-4.6","2d_cat_multi_stim_exp1","2022-4-8","15:6:31","25","75","3","9","10","40","30","120","22","20 years","[""White""]","No","Male","2112307","null","null","","","","clear_screen","","","","","","","","","","","","","","","","","","","","","","","","","",""
"","","","","","canvas-keyboard-response","47","280057","0.0-12.0-0.7","2d_cat_multi_stim_exp1","2022-4-8","15:6:31","25","75","3","9","10","40","30","120","22","20 years","[""White""]","No","Male","2112307","null","null","","","","fixation","","","","","","","","","","","","","","","","","","","","","","","","","",""
"","","","","","canvas-keyboard-response","48","280566","0.0-12.0-1.7","2d_cat_multi_stim_exp1","2022-4-8","15:6:31","25","75","3","9","10","40","30","120","22","20 years","[""White""]","No","Male","2112307","null","null","","","","clear_screen","","","","","","","","","","","","","","","","","","","","","","","","","",""
"","","","","","canvas-keyboard-response","49","281614","0.0-12.0-2.7","2d_cat_multi_stim_exp1","2022-4-8","15:6:31","25","75","3","9","10","40","30","120","22","20 years","[""White""]","No","Male","2112307","1039","u","learn","","","learn_trial","25","75","in","1","1","","","","","","","","","","","","","","","","","","","","",""
"","","","","","canvas-keyboard-response","50","282124","0.0-12.0-3.7","2d_cat_multi_stim_exp1","2022-4-8","15:6:31","25","75","3","9","10","40","30","120","22","20 years","[""White""]","No","Male","2112307","null","null","learn_feedback","","","learn_feedback","25","75","in","","","","","","","","","","","","","","","","","","","","","","",""
"","","","","","canvas-keyboard-response","51","282183","0.0-12.0-4.7","2d_cat_multi_stim_exp1","2022-4-8","15:6:31","25","75","3","9","10","40","30","120","22","20 years","[""White""]","No","Male","2112307","null","null","","","","clear_screen","","","","","","","","","","","","","","","","","","","","","","","","","",""
"","","","","","canvas-keyboard-response","52","282692","0.0-12.0-0.8","2d_cat_multi_stim_exp1","2022-4-8","15:6:31","25","75","3","9","10","40","30","120","22","20 years","[""White""]","No","Male","2112307","null","null","","","","fixation","","","","","","","","","","","","","","","","","","","","","","","","","",""
"","","","","","canvas-keyboard-response","53","283201","0.0-12.0-1.8","2d_cat_multi_stim_exp1","2022-4-8","15:6:31","25","75","3","9","10","40","30","120","22","20 years","[""White""]","No","Male","2112307","null","null","","","","clear_screen","","","","","","","","","","","","","","","","","","","","","","","","","",""
"","","","","","canvas-keyboard-response","54","284470","0.0-12.0-2.8","2d_cat_multi_stim_exp1","2022-4-8","15:6:31","25","75","3","9","10","40","30","120","22","20 years","[""White""]","No","Male","2112307","1259","u","learn","","","learn_trial","23.8209","83.2757","in","1","1","","","","","","","","","","","","","","","","","","","","",""
"","","","","","canvas-keyboard-response","55","284980","0.0-12.0-3.8","2d_cat_multi_stim_exp1","2022-4-8","15:6:31","25","75","3","9","10","40","30","120","22","20 years","[""White""]","No","Male","2112307","null","null","learn_feedback","","","learn_feedback","23.8209","83.2757","in","","","","","","","","","","","","","","","","","","","","","","",""
"","","","","","canvas-keyboard-response","56","285039","0.0-12.0-4.8","2d_cat_multi_stim_exp1","2022-4-8","15:6:31","25","75","3","9","10","40","30","120","22","20 years","[""White""]","No","Male","2112307","null","null","","","","clear_screen","","","","","","","","","","","","","","","","","","","","","","","","","",""
"","","","","","canvas-keyboard-response","57","285547","0.0-12.0-0.9","2d_cat_multi_stim_exp1","2022-4-8","15:6:31","25","75","3","9","10","40","30","120","22","20 years","[""White""]","No","Male","2112307","null","null","","","","fixation","","","","","","","","","","","","","","","","","","","","","","","","","",""
"","","","","","canvas-keyboard-response","58","286057","0.0-12.0-1.9","2d_cat_multi_stim_exp1","2022-4-8","15:6:31","25","75","3","9","10","40","30","120","22","20 years","[""White""]","No","Male","2112307","null","null","","","","clear_screen","","","","","","","","","","","","","","","","","","","","","","","","","",""
"","","","","","canvas-keyboard-response","59","287109","0.0-12.0-2.9","2d_cat_multi_stim_exp1","2022-4-8","15:6:31","25","75","3","9","10","40","30","120","22","20 years","[""White""]","No","Male","2112307","1043","u","learn","","","learn_trial","22.0121","75.8068","in","1","1","","","","","","","","","","","","","","","","","","","","",""
"","","","","","canvas-keyboard-response","60","287619","0.0-12.0-3.9","2d_cat_multi_stim_exp1","2022-4-8","15:6:31","25","75","3","9","10","40","30","120","22","20 years","[""White""]","No","Male","2112307","null","null","learn_feedback","","","learn_feedback","22.0121","75.8068","in","","","","","","","","","","","","","","","","","","","","","","",""
"","","","","","canvas-keyboard-response","61","287679","0.0-12.0-4.9","2d_cat_multi_stim_exp1","2022-4-8","15:6:31","25","75","3","9","10","40","30","120","22","20 years","[""White""]","No","Male","2112307","null","null","","","","clear_screen","","","","","","","","","","","","","","","","","","","","","","","","","",""
"","","","","","canvas-keyboard-response","62","288188","0.0-12.0-0.10","2d_cat_multi_stim_exp1","2022-4-8","15:6:31","25","75","3","9","10","40","30","120","22","20 years","[""White""]","No","Male","2112307","null","null","","","","fixation","","","","","","","","","","","","","","","","","","","","","","","","","",""
"","","","","","canvas-keyboard-response","63","288697","0.0-12.0-1.10","2d_cat_multi_stim_exp1","2022-4-8","15:6:31","25","75","3","9","10","40","30","120","22","20 years","[""White""]","No","Male","2112307","null","null","","","","clear_screen","","","","","","","","","","","","","","","","","","","","","","","","","",""
"","","","","","canvas-keyboard-response","64","289919","0.0-12.0-2.10","2d_cat_multi_stim_exp1","2022-4-8","15:6:31","25","75","3","9","10","40","30","120","22","20 years","[""White""]","No","Male","2112307","1211","u","learn","","","learn_trial","25","75","in","1","1","","","","","","","","","","","","","","","","","","","","",""
"","","","","","canvas-keyboard-response","65","290428","0.0-12.0-3.10","2d_cat_multi_stim_exp1","2022-4-8","15:6:31","25","75","3","9","10","40","30","120","22","20 years","[""White""]","No","Male","2112307","null","null","learn_feedback","","","learn_feedback","25","75","in","","","","","","","","","","","","","","","","","","","","","","",""
"","","","","","canvas-keyboard-response","66","290487","0.0-12.0-4.10","2d_cat_multi_stim_exp1","2022-4-8","15:6:31","25","75","3","9","10","40","30","120","22","20 years","[""White""]","No","Male","2112307","null","null","","","","clear_screen","","","","","","","","","","","","","","","","","","","","","","","","","",""
"","","","","","canvas-keyboard-response","67","290996","0.0-12.0-0.11","2d_cat_multi_stim_exp1","2022-4-8","15:6:31","25","75","3","9","10","40","30","120","22","20 years","[""White""]","No","Male","2112307","null","null","","","","fixation","","","","","","","","","","","","","","","","","","","","","","","","","",""
"","","","","","canvas-keyboard-response","68","291505","0.0-12.0-1.11","2d_cat_multi_stim_exp1","2022-4-8","15:6:31","25","75","3","9","10","40","30","120","22","20 years","[""White""]","No","Male","2112307","null","null","","","","clear_screen","","","","","","","","","","","","","","","","","","","","","","","","","",""
"","","","","","canvas-keyboard-response","69","292605","0.0-12.0-2.11","2d_cat_multi_stim_exp1","2022-4-8","15:6:31","25","75","3","9","10","40","30","120","22","20 years","[""White""]","No","Male","2112307","1091","u","learn","","","learn_trial","25","75","in","1","1","","","","","","","","","","","","","","","","","","","","",""
"","","","","","canvas-keyboard-response","70","293115","0.0-12.0-3.11","2d_cat_multi_stim_exp1","2022-4-8","15:6:31","25","75","3","9","10","40","30","120","22","20 years","[""White""]","No","Male","2112307","null","null","learn_feedback","","","learn_feedback","25","75","in","","","","","","","","","","","","","","","","","","","","","","",""
"","","","","","canvas-keyboard-response","71","293174","0.0-12.0-4.11","2d_cat_multi_stim_exp1","2022-4-8","15:6:31","25","75","3","9","10","40","30","120","22","20 years","[""White""]","No","Male","2112307","null","null","","","","clear_screen","","","","","","","","","","","","","","","","","","","","","","","","","",""
"","","","","","canvas-keyboard-response","72","293683","0.0-12.0-0.12","2d_cat_multi_stim_exp1","2022-4-8","15:6:31","25","75","3","9","10","40","30","120","22","20 years","[""White""]","No","Male","2112307","null","null","","","","fixation","","","","","","","","","","","","","","","","","","","","","","","","","",""
"","","","","","canvas-keyboard-response","73","294193","0.0-12.0-1.12","2d_cat_multi_stim_exp1","2022-4-8","15:6:31","25","75","3","9","10","40","30","120","22","20 years","[""White""]","No","Male","2112307","null","null","","","","clear_screen","","","","","","","","","","","","","","","","","","","","","","","","","",""
"","","","","","canvas-keyboard-response","74","295278","0.0-12.0-2.12","2d_cat_multi_stim_exp1","2022-4-8","15:6:31","25","75","3","9","10","40","30","120","22","20 years","[""White""]","No","Male","2112307","1076","u","learn","","","learn_trial","22.9268","81.5052","in","1","1","","","","","","","","","","","","","","","","","","","","",""
"","","","","","canvas-keyboard-response","75","295787","0.0-12.0-3.12","2d_cat_multi_stim_exp1","2022-4-8","15:6:31","25","75","3","9","10","40","30","120","22","20 years","[""White""]","No","Male","2112307","null","null","learn_feedback","","","learn_feedback","22.9268","81.5052","in","","","","","","","","","","","","","","","","","","","","","","",""
"","","","","","canvas-keyboard-response","76","295848","0.0-12.0-4.12","2d_cat_multi_stim_exp1","2022-4-8","15:6:31","25","75","3","9","10","40","30","120","22","20 years","[""White""]","No","Male","2112307","null","null","","","","clear_screen","","","","","","","","","","","","","","","","","","","","","","","","","",""
"","","","","","canvas-keyboard-response","77","296357","0.0-12.0-0.13","2d_cat_multi_stim_exp1","2022-4-8","15:6:31","25","75","3","9","10","40","30","120","22","20 years","[""White""]","No","Male","2112307","null","null","","","","fixation","","","","","","","","","","","","","","","","","","","","","","","","","",""
"","","","","","canvas-keyboard-response","78","296867","0.0-12.0-1.13","2d_cat_multi_stim_exp1","2022-4-8","15:6:31","25","75","3","9","10","40","30","120","22","20 years","[""White""]","No","Male","2112307","null","null","","","","clear_screen","","","","","","","","","","","","","","","","","","","","","","","","","",""
"","","","","","canvas-keyboard-response","79","297798","0.0-12.0-2.13","2d_cat_multi_stim_exp1","2022-4-8","15:6:31","25","75","3","9","10","40","30","120","22","20 years","[""White""]","No","Male","2112307","922","i","learn","","","learn_trial","13.3333","30","out","0","1","","","","","","","","","","","","","","","","","","","","",""
"","","","","","canvas-keyboard-response","80","298308","0.0-12.0-3.13","2d_cat_multi_stim_exp1","2022-4-8","15:6:31","25","75","3","9","10","40","30","120","22","20 years","[""White""]","No","Male","2112307","null","null","learn_feedback","","","learn_feedback","13.3333","30","out","","","","","","","","","","","","","","","","","","","","","","",""
"","","","","","canvas-keyboard-response","81","298366","0.0-12.0-4.13","2d_cat_multi_stim_exp1","2022-4-8","15:6:31","25","75","3","9","10","40","30","120","22","20 years","[""White""]","No","Male","2112307","null","null","","","","clear_screen","","","","","","","","","","","","","","","","","","","","","","","","","",""
"","","","","","canvas-keyboard-response","82","298874","0.0-12.0-0.14","2d_cat_multi_stim_exp1","2022-4-8","15:6:31","25","75","3","9","10","40","30","120","22","20 years","[""White""]","No","Male","2112307","null","null","","","","fixation","","","","","","","","","","","","","","","","","","","","","","","","","",""
"","","","","","canvas-keyboard-response","83","299384","0.0-12.0-1.14","2d_cat_multi_stim_exp1","2022-4-8","15:6:31","25","75","3","9","10","40","30","120","22","20 years","[""White""]","No","Male","2112307","null","null","","","","clear_screen","","","","","","","","","","","","","","","","","","","","","","","","","",""
"","","","","","canvas-keyboard-response","84","300358","0.0-12.0-2.14","2d_cat_multi_stim_exp1","2022-4-8","15:6:31","25","75","3","9","10","40","30","120","22","20 years","[""White""]","No","Male","2112307","964","u","learn","","","learn_trial","27.9518","76.607","in","1","1","","","","","","","","","","","","","","","","","","","","",""
"","","","","","canvas-keyboard-response","85","300868","0.0-12.0-3.14","2d_cat_multi_stim_exp1","2022-4-8","15:6:31","25","75","3","9","10","40","30","120","22","20 years","[""White""]","No","Male","2112307","null","null","learn_feedback","","","learn_feedback","27.9518","76.607","in","","","","","","","","","","","","","","","","","","","","","","",""
"","","","","","canvas-keyboard-response","86","300927","0.0-12.0-4.14","2d_cat_multi_stim_exp1","2022-4-8","15:6:31","25","75","3","9","10","40","30","120","22","20 years","[""White""]","No","Male","2112307","null","null","","","","clear_screen","","","","","","","","","","","","","","","","","","","","","","","","","",""
"","","","","","canvas-keyboard-response","87","301436","0.0-12.0-0.15","2d_cat_multi_stim_exp1","2022-4-8","15:6:31","25","75","3","9","10","40","30","120","22","20 years","[""White""]","No","Male","2112307","null","null","","","","fixation","","","","","","","","","","","","","","","","","","","","","","","","","",""
"","","","","","canvas-keyboard-response","88","301946","0.0-12.0-1.15","2d_cat_multi_stim_exp1","2022-4-8","15:6:31","25","75","3","9","10","40","30","120","22","20 years","[""White""]","No","Male","2112307","null","null","","","","clear_screen","","","","","","","","","","","","","","","","","","","","","","","","","",""
"","","","","","canvas-keyboard-response","89","302893","0.0-12.0-2.15","2d_cat_multi_stim_exp1","2022-4-8","15:6:31","25","75","3","9","10","40","30","120","22","20 years","[""White""]","No","Male","2112307","938","u","learn","","","learn_trial","25","75","in","1","1","","","","","","","","","","","","","","","","","","","","",""
"","","","","","canvas-keyboard-response","90","303403","0.0-12.0-3.15","2d_cat_multi_stim_exp1","2022-4-8","15:6:31","25","75","3","9","10","40","30","120","22","20 years","[""White""]","No","Male","2112307","null","null","learn_feedback","","","learn_feedback","25","75","in","","","","","","","","","","","","","","","","","","","","","","",""
"","","","","","canvas-keyboard-response","91","303462","0.0-12.0-4.15","2d_cat_multi_stim_exp1","2022-4-8","15:6:31","25","75","3","9","10","40","30","120","22","20 years","[""White""]","No","Male","2112307","null","null","","","","clear_screen","","","","","","","","","","","","","","","","","","","","","","","","","",""
"","","","","","canvas-keyboard-response","92","303973","0.0-12.0-0.16","2d_cat_multi_stim_exp1","2022-4-8","15:6:31","25","75","3","9","10","40","30","120","22","20 years","[""White""]","No","Male","2112307","null","null","","","","fixation","","","","","","","","","","","","","","","","","","","","","","","","","",""
"","","","","","canvas-keyboard-response","93","304486","0.0-12.0-1.16","2d_cat_multi_stim_exp1","2022-4-8","15:6:31","25","75","3","9","10","40","30","120","22","20 years","[""White""]","No","Male","2112307","null","null","","","","clear_screen","","","","","","","","","","","","","","","","","","","","","","","","","",""
"","","","","","canvas-keyboard-response","94","305710","0.0-12.0-2.16","2d_cat_multi_stim_exp1","2022-4-8","15:6:31","25","75","3","9","10","40","30","120","22","20 years","[""White""]","No","Male","2112307","1212","u","learn","","","learn_trial","26.6667","90","out","1","0","","","","","","","","","","","","","","","","","","","","",""
"","","","","","canvas-keyboard-response","95","306722","0.0-12.0-3.16","2d_cat_multi_stim_exp1","2022-4-8","15:6:31","25","75","3","9","10","40","30","120","22","20 years","[""White""]","No","Male","2112307","null","null","learn_feedback","","","learn_feedback","26.6667","90","out","","","","","","","","","","","","","","","","","","","","","","",""
"","","","","","canvas-keyboard-response","96","306781","0.0-12.0-4.16","2d_cat_multi_stim_exp1","2022-4-8","15:6:31","25","75","3","9","10","40","30","120","22","20 years","[""White""]","No","Male","2112307","null","null","","","","clear_screen","","","","","","","","","","","","","","","","","","","","","","","","","",""
"","","","","","canvas-keyboard-response","97","307292","0.0-12.0-0.17","2d_cat_multi_stim_exp1","2022-4-8","15:6:31","25","75","3","9","10","40","30","120","22","20 years","[""White""]","No","Male","2112307","null","null","","","","fixation","","","","","","","","","","","","","","","","","","","","","","","","","",""
"","","","","","canvas-keyboard-response","98","307801","0.0-12.0-1.17","2d_cat_multi_stim_exp1","2022-4-8","15:6:31","25","75","3","9","10","40","30","120","22","20 years","[""White""]","No","Male","2112307","null","null","","","","clear_screen","","","","","","","","","","","","","","","","","","","","","","","","","",""
"","","","","","canvas-keyboard-response","99","308726","0.0-12.0-2.17","2d_cat_multi_stim_exp1","2022-4-8","15:6:31","25","75","3","9","10","40","30","120","22","20 years","[""White""]","No","Male","2112307","915","u","learn","","","learn_trial","25","75","in","1","1","","","","","","","","","","","","","","","","","","","","",""
"","","","","","canvas-keyboard-response","100","309238","0.0-12.0-3.17","2d_cat_multi_stim_exp1","2022-4-8","15:6:31","25","75","3","9","10","40","30","120","22","20 years","[""White""]","No","Male","2112307","null","null","learn_feedback","","","learn_feedback","25","75","in","","","","","","","","","","","","","","","","","","","","","","",""
"","","","","","canvas-keyboard-response","101","309297","0.0-12.0-4.17","2d_cat_multi_stim_exp1","2022-4-8","15:6:31","25","75","3","9","10","40","30","120","22","20 years","[""White""]","No","Male","2112307","null","null","","","","clear_screen","","","","","","","","","","","","","","","","","","","","","","","","","",""
"","","","","","canvas-keyboard-response","102","309807","0.0-12.0-0.18","2d_cat_multi_stim_exp1","2022-4-8","15:6:31","25","75","3","9","10","40","30","120","22","20 years","[""White""]","No","Male","2112307","null","null","","","","fixation","","","","","","","","","","","","","","","","","","","","","","","","","",""
"","","","","","canvas-keyboard-response","103","310317","0.0-12.0-1.18","2d_cat_multi_stim_exp1","2022-4-8","15:6:31","25","75","3","9","10","40","30","120","22","20 years","[""White""]","No","Male","2112307","null","null","","","","clear_screen","","","","","","","","","","","","","","","","","","","","","","","","","",""
"","","","","","canvas-keyboard-response","104","311526","0.0-12.0-2.18","2d_cat_multi_stim_exp1","2022-4-8","15:6:31","25","75","3","9","10","40","30","120","22","20 years","[""White""]","No","Male","2112307","1198","i","learn","","","learn_trial","25","75","in","0","0","","","","","","","","","","","","","","","","","","","","",""
"","","","","","canvas-keyboard-response","105","312536","0.0-12.0-3.18","2d_cat_multi_stim_exp1","2022-4-8","15:6:31","25","75","3","9","10","40","30","120","22","20 years","[""White""]","No","Male","2112307","null","null","learn_feedback","","","learn_feedback","25","75","in","","","","","","","","","","","","","","","","","","","","","","",""
"","","","","","canvas-keyboard-response","106","312596","0.0-12.0-4.18","2d_cat_multi_stim_exp1","2022-4-8","15:6:31","25","75","3","9","10","40","30","120","22","20 years","[""White""]","No","Male","2112307","null","null","","","","clear_screen","","","","","","","","","","","","","","","","","","","","","","","","","",""
"","","","","","canvas-keyboard-response","107","313104","0.0-12.0-0.19","2d_cat_multi_stim_exp1","2022-4-8","15:6:31","25","75","3","9","10","40","30","120","22","20 years","[""White""]","No","Male","2112307","null","null","","","","fixation","","","","","","","","","","","","","","","","","","","","","","","","","",""
"","","","","","canvas-keyboard-response","108","313615","0.0-12.0-1.19","2d_cat_multi_stim_exp1","2022-4-8","15:6:31","25","75","3","9","10","40","30","120","22","20 years","[""White""]","No","Male","2112307","null","null","","","","clear_screen","","","","","","","","","","","","","","","","","","","","","","","","","",""
"","","","","","canvas-keyboard-response","109","314670","0.0-12.0-2.19","2d_cat_multi_stim_exp1","2022-4-8","15:6:31","25","75","3","9","10","40","30","120","22","20 years","[""White""]","No","Male","2112307","1047","u","learn","","","learn_trial","25","75","in","1","1","","","","","","","","","","","","","","","","","","","","",""
"","","","","","canvas-keyboard-response","110","315180","0.0-12.0-3.19","2d_cat_multi_stim_exp1","2022-4-8","15:6:31","25","75","3","9","10","40","30","120","22","20 years","[""White""]","No","Male","2112307","null","null","learn_feedback","","","learn_feedback","25","75","in","","","","","","","","","","","","","","","","","","","","","","",""
"","","","","","canvas-keyboard-response","111","315239","0.0-12.0-4.19","2d_cat_multi_stim_exp1","2022-4-8","15:6:31","25","75","3","9","10","40","30","120","22","20 years","[""White""]","No","Male","2112307","null","null","","","","clear_screen","","","","","","","","","","","","","","","","","","","","","","","","","",""
"","","","","","canvas-keyboard-response","112","315747","0.0-12.0-0.20","2d_cat_multi_stim_exp1","2022-4-8","15:6:31","25","75","3","9","10","40","30","120","22","20 years","[""White""]","No","Male","2112307","null","null","","","","fixation","","","","","","","","","","","","","","","","","","","","","","","","","",""
"","","","","","canvas-keyboard-response","113","316257","0.0-12.0-1.20","2d_cat_multi_stim_exp1","2022-4-8","15:6:31","25","75","3","9","10","40","30","120","22","20 years","[""White""]","No","Male","2112307","null","null","","","","clear_screen","","","","","","","","","","","","","","","","","","","","","","","","","",""
"","","","","","canvas-keyboard-response","114","317030","0.0-12.0-2.20","2d_cat_multi_stim_exp1","2022-4-8","15:6:31","25","75","3","9","10","40","30","120","22","20 years","[""White""]","No","Male","2112307","764","i","learn","","","learn_trial","10","90","out","0","1","","","","","","","","","","","","","","","","","","","","",""
"","","","","","canvas-keyboard-response","115","317540","0.0-12.0-3.20","2d_cat_multi_stim_exp1","2022-4-8","15:6:31","25","75","3","9","10","40","30","120","22","20 years","[""White""]","No","Male","2112307","null","null","learn_feedback","","","learn_feedback","10","90","out","","","","","","","","","","","","","","","","","","","","","","",""
"","","","","","canvas-keyboard-response","116","317599","0.0-12.0-4.20","2d_cat_multi_stim_exp1","2022-4-8","15:6:31","25","75","3","9","10","40","30","120","22","20 years","[""White""]","No","Male","2112307","null","null","","","","clear_screen","","","","","","","","","","","","","","","","","","","","","","","","","",""
"","","","","","canvas-keyboard-response","117","318108","0.0-12.0-0.21","2d_cat_multi_stim_exp1","2022-4-8","15:6:31","25","75","3","9","10","40","30","120","22","20 years","[""White""]","No","Male","2112307","null","null","","","","fixation","","","","","","","","","","","","","","","","","","","","","","","","","",""
"","","","","","canvas-keyboard-response","118","318618","0.0-12.0-1.21","2d_cat_multi_stim_exp1","2022-4-8","15:6:31","25","75","3","9","10","40","30","120","22","20 years","[""White""]","No","Male","2112307","null","null","","","","clear_screen","","","","","","","","","","","","","","","","","","","","","","","","","",""
"","","","","","canvas-keyboard-response","119","319894","0.0-12.0-2.21","2d_cat_multi_stim_exp1","2022-4-8","15:6:31","25","75","3","9","10","40","30","120","22","20 years","[""White""]","No","Male","2112307","1267","u","learn","","","learn_trial","36.6667","100","out","1","0","","","","","","","","","","","","","","","","","","","","",""
"","","","","","canvas-keyboard-response","120","320903","0.0-12.0-3.21","2d_cat_multi_stim_exp1","2022-4-8","15:6:31","25","75","3","9","10","40","30","120","22","20 years","[""White""]","No","Male","2112307","null","null","learn_feedback","","","learn_feedback","36.6667","100","out","","","","","","","","","","","","","","","","","","","","","","",""
"","","","","","canvas-keyboard-response","121","320962","0.0-12.0-4.21","2d_cat_multi_stim_exp1","2022-4-8","15:6:31","25","75","3","9","10","40","30","120","22","20 years","[""White""]","No","Male","2112307","null","null","","","","clear_screen","","","","","","","","","","","","","","","","","","","","","","","","","",""
"","","","","","canvas-keyboard-response","122","321471","0.0-12.0-0.22","2d_cat_multi_stim_exp1","2022-4-8","15:6:31","25","75","3","9","10","40","30","120","22","20 years","[""White""]","No","Male","2112307","null","null","","","","fixation","","","","","","","","","","","","","","","","","","","","","","","","","",""
"","","","","","canvas-keyboard-response","123","321981","0.0-12.0-1.22","2d_cat_multi_stim_exp1","2022-4-8","15:6:31","25","75","3","9","10","40","30","120","22","20 years","[""White""]","No","Male","2112307","null","null","","","","clear_screen","","","","","","","","","","","","","","","","","","","","","","","","","",""
"","","","","","canvas-keyboard-response","124","323061","0.0-12.0-2.22","2d_cat_multi_stim_exp1","2022-4-8","15:6:31","25","75","3","9","10","40","30","120","22","20 years","[""White""]","No","Male","2112307","1071","u","learn","","","learn_trial","22.1081","77.3943","in","1","1","","","","","","","","","","","","","","","","","","","","",""
"","","","","","canvas-keyboard-response","125","323571","0.0-12.0-3.22","2d_cat_multi_stim_exp1","2022-4-8","15:6:31","25","75","3","9","10","40","30","120","22","20 years","[""White""]","No","Male","2112307","null","null","learn_feedback","","","learn_feedback","22.1081","77.3943","in","","","","","","","","","","","","","","","","","","","","","","",""
"","","","","","canvas-keyboard-response","126","323630","0.0-12.0-4.22","2d_cat_multi_stim_exp1","2022-4-8","15:6:31","25","75","3","9","10","40","30","120","22","20 years","[""White""]","No","Male","2112307","null","null","","","","clear_screen","","","","","","","","","","","","","","","","","","","","","","","","","",""
"","","","","","canvas-keyboard-response","127","324140","0.0-12.0-0.23","2d_cat_multi_stim_exp1","2022-4-8","15:6:31","25","75","3","9","10","40","30","120","22","20 years","[""White""]","No","Male","2112307","null","null","","","","fixation","","","","","","","","","","","","","","","","","","","","","","","","","",""
"","","","","","canvas-keyboard-response","128","324650","0.0-12.0-1.23","2d_cat_multi_stim_exp1","2022-4-8","15:6:31","25","75","3","9","10","40","30","120","22","20 years","[""White""]","No","Male","2112307","null","null","","","","clear_screen","","","","","","","","","","","","","","","","","","","","","","","","","",""
"","","","","","canvas-keyboard-response","129","325390","0.0-12.0-2.23","2d_cat_multi_stim_exp1","2022-4-8","15:6:31","25","75","3","9","10","40","30","120","22","20 years","[""White""]","No","Male","2112307","730","i","learn","","","learn_trial","40","40","out","0","1","","","","","","","","","","","","","","","","","","","","",""
"","","","","","canvas-keyboard-response","130","325900","0.0-12.0-3.23","2d_cat_multi_stim_exp1","2022-4-8","15:6:31","25","75","3","9","10","40","30","120","22","20 years","[""White""]","No","Male","2112307","null","null","learn_feedback","","","learn_feedback","40","40","out","","","","","","","","","","","","","","","","","","","","","","",""
"","","","","","canvas-keyboard-response","131","325958","0.0-12.0-4.23","2d_cat_multi_stim_exp1","2022-4-8","15:6:31","25","75","3","9","10","40","30","120","22","20 years","[""White""]","No","Male","2112307","null","null","","","","clear_screen","","","","","","","","","","","","","","","","","","","","","","","","","",""
"","","","","","canvas-keyboard-response","132","326468","0.0-12.0-0.24","2d_cat_multi_stim_exp1","2022-4-8","15:6:31","25","75","3","9","10","40","30","120","22","20 years","[""White""]","No","Male","2112307","null","null","","","","fixation","","","","","","","","","","","","","","","","","","","","","","","","","",""
"","","","","","canvas-keyboard-response","133","326977","0.0-12.0-1.24","2d_cat_multi_stim_exp1","2022-4-8","15:6:31","25","75","3","9","10","40","30","120","22","20 years","[""White""]","No","Male","2112307","null","null","","","","clear_screen","","","","","","","","","","","","","","","","","","","","","","","","","",""
"","","","","","canvas-keyboard-response","134","327885","0.0-12.0-2.24","2d_cat_multi_stim_exp1","2022-4-8","15:6:31","25","75","3","9","10","40","30","120","22","20 years","[""White""]","No","Male","2112307","899","i","learn","","","learn_trial","20","90","out","0","1","","","","","","","","","","","","","","","","","","","","",""
"","","","","","canvas-keyboard-response","135","328394","0.0-12.0-3.24","2d_cat_multi_stim_exp1","2022-4-8","15:6:31","25","75","3","9","10","40","30","120","22","20 years","[""White""]","No","Male","2112307","null","null","learn_feedback","","","learn_feedback","20","90","out","","","","","","","","","","","","","","","","","","","","","","",""
"","","","","","canvas-keyboard-response","136","328454","0.0-12.0-4.24","2d_cat_multi_stim_exp1","2022-4-8","15:6:31","25","75","3","9","10","40","30","120","22","20 years","[""White""]","No","Male","2112307","null","null","","","","clear_screen","","","","","","","","","","","","","","","","","","","","","","","","","",""
"","","","","","canvas-keyboard-response","137","328962","0.0-12.0-0.25","2d_cat_multi_stim_exp1","2022-4-8","15:6:31","25","75","3","9","10","40","30","120","22","20 years","[""White""]","No","Male","2112307","null","null","","","","fixation","","","","","","","","","","","","","","","","","","","","","","","","","",""
"","","","","","canvas-keyboard-response","138","329472","0.0-12.0-1.25","2d_cat_multi_stim_exp1","2022-4-8","15:6:31","25","75","3","9","10","40","30","120","22","20 years","[""White""]","No","Male","2112307","null","null","","","","clear_screen","","","","","","","","","","","","","","","","","","","","","","","","","",""
"","","","","","canvas-keyboard-response","139","330669","0.0-12.0-2.25","2d_cat_multi_stim_exp1","2022-4-8","15:6:31","25","75","3","9","10","40","30","120","22","20 years","[""White""]","No","Male","2112307","1188","u","learn","","","learn_trial","22.5729","80.2901","in","1","1","","","","","","","","","","","","","","","","","","","","",""
"","","","","","canvas-keyboard-response","140","331179","0.0-12.0-3.25","2d_cat_multi_stim_exp1","2022-4-8","15:6:31","25","75","3","9","10","40","30","120","22","20 years","[""White""]","No","Male","2112307","null","null","learn_feedback","","","learn_feedback","22.5729","80.2901","in","","","","","","","","","","","","","","","","","","","","","","",""
"","","","","","canvas-keyboard-response","141","331238","0.0-12.0-4.25","2d_cat_multi_stim_exp1","2022-4-8","15:6:31","25","75","3","9","10","40","30","120","22","20 years","[""White""]","No","Male","2112307","null","null","","","","clear_screen","","","","","","","","","","","","","","","","","","","","","","","","","",""
"","","","","","canvas-keyboard-response","142","331747","0.0-12.0-0.26","2d_cat_multi_stim_exp1","2022-4-8","15:6:31","25","75","3","9","10","40","30","120","22","20 years","[""White""]","No","Male","2112307","null","null","","","","fixation","","","","","","","","","","","","","","","","","","","","","","","","","",""
"","","","","","canvas-keyboard-response","143","332261","0.0-12.0-1.26","2d_cat_multi_stim_exp1","2022-4-8","15:6:31","25","75","3","9","10","40","30","120","22","20 years","[""White""]","No","Male","2112307","null","null","","","","clear_screen","","","","","","","","","","","","","","","","","","","","","","","","","",""
"","","","","","canvas-keyboard-response","144","333454","0.0-12.0-2.26","2d_cat_multi_stim_exp1","2022-4-8","15:6:31","25","75","3","9","10","40","30","120","22","20 years","[""White""]","No","Male","2112307","1184","u","learn","","","learn_trial","27.9518","73.393","in","1","1","","","","","","","","","","","","","","","","","","","","",""
"","","","","","canvas-keyboard-response","145","333963","0.0-12.0-3.26","2d_cat_multi_stim_exp1","2022-4-8","15:6:31","25","75","3","9","10","40","30","120","22","20 years","[""White""]","No","Male","2112307","null","null","learn_feedback","","","learn_feedback","27.9518","73.393","in","","","","","","","","","","","","","","","","","","","","","","",""
"","","","","","canvas-keyboard-response","146","334022","0.0-12.0-4.26","2d_cat_multi_stim_exp1","2022-4-8","15:6:31","25","75","3","9","10","40","30","120","22","20 years","[""White""]","No","Male","2112307","null","null","","","","clear_screen","","","","","","","","","","","","","","","","","","","","","","","","","",""
"","","","","","canvas-keyboard-response","147","334531","0.0-12.0-0.27","2d_cat_multi_stim_exp1","2022-4-8","15:6:31","25","75","3","9","10","40","30","120","22","20 years","[""White""]","No","Male","2112307","null","null","","","","fixation","","","","","","","","","","","","","","","","","","","","","","","","","",""
"","","","","","canvas-keyboard-response","148","335041","0.0-12.0-1.27","2d_cat_multi_stim_exp1","2022-4-8","15:6:31","25","75","3","9","10","40","30","120","22","20 years","[""White""]","No","Male","2112307","null","null","","","","clear_screen","","","","","","","","","","","","","","","","","","","","","","","","","",""
"","","","","","canvas-keyboard-response","149","336670","0.0-12.0-2.27","2d_cat_multi_stim_exp1","2022-4-8","15:6:31","25","75","3","9","10","40","30","120","22","20 years","[""White""]","No","Male","2112307","1620","i","learn","","","learn_trial","36.6667","80","out","0","1","","","","","","","","","","","","","","","","","","","","",""
"","","","","","canvas-keyboard-response","150","337179","0.0-12.0-3.27","2d_cat_multi_stim_exp1","2022-4-8","15:6:31","25","75","3","9","10","40","30","120","22","20 years","[""White""]","No","Male","2112307","null","null","learn_feedback","","","learn_feedback","36.6667","80","out","","","","","","","","","","","","","","","","","","","","","","",""
"","","","","","canvas-keyboard-response","151","337238","0.0-12.0-4.27","2d_cat_multi_stim_exp1","2022-4-8","15:6:31","25","75","3","9","10","40","30","120","22","20 years","[""White""]","No","Male","2112307","null","null","","","","clear_screen","","","","","","","","","","","","","","","","","","","","","","","","","",""
"","","","","","canvas-keyboard-response","152","337747","0.0-12.0-0.28","2d_cat_multi_stim_exp1","2022-4-8","15:6:31","25","75","3","9","10","40","30","120","22","20 years","[""White""]","No","Male","2112307","null","null","","","","fixation","","","","","","","","","","","","","","","","","","","","","","","","","",""
"","","","","","canvas-keyboard-response","153","338256","0.0-12.0-1.28","2d_cat_multi_stim_exp1","2022-4-8","15:6:31","25","75","3","9","10","40","30","120","22","20 years","[""White""]","No","Male","2112307","null","null","","","","clear_screen","","","","","","","","","","","","","","","","","","","","","","","","","",""
"","","","","","canvas-keyboard-response","154","339078","0.0-12.0-2.28","2d_cat_multi_stim_exp1","2022-4-8","15:6:31","25","75","3","9","10","40","30","120","22","20 years","[""White""]","No","Male","2112307","812","i","learn","","","learn_trial","16.6667","90","out","0","1","","","","","","","","","","","","","","","","","","","","",""
"","","","","","canvas-keyboard-response","155","339589","0.0-12.0-3.28","2d_cat_multi_stim_exp1","2022-4-8","15:6:31","25","75","3","9","10","40","30","120","22","20 years","[""White""]","No","Male","2112307","null","null","learn_feedback","","","learn_feedback","16.6667","90","out","","","","","","","","","","","","","","","","","","","","","","",""
"","","","","","canvas-keyboard-response","156","339648","0.0-12.0-4.28","2d_cat_multi_stim_exp1","2022-4-8","15:6:31","25","75","3","9","10","40","30","120","22","20 years","[""White""]","No","Male","2112307","null","null","","","","clear_screen","","","","","","","","","","","","","","","","","","","","","","","","","",""
"","","","","","canvas-keyboard-response","157","340157","0.0-12.0-0.29","2d_cat_multi_stim_exp1","2022-4-8","15:6:31","25","75","3","9","10","40","30","120","22","20 years","[""White""]","No","Male","2112307","null","null","","","","fixation","","","","","","","","","","","","","","","","","","","","","","","","","",""
"","","","","","canvas-keyboard-response","158","340666","0.0-12.0-1.29","2d_cat_multi_stim_exp1","2022-4-8","15:6:31","25","75","3","9","10","40","30","120","22","20 years","[""White""]","No","Male","2112307","null","null","","","","clear_screen","","","","","","","","","","","","","","","","","","","","","","","","","",""
"","","","","","canvas-keyboard-response","159","341519","0.0-12.0-2.29","2d_cat_multi_stim_exp1","2022-4-8","15:6:31","25","75","3","9","10","40","30","120","22","20 years","[""White""]","No","Male","2112307","842","i","learn","","","learn_trial","36.6667","40","out","0","1","","","","","","","","","","","","","","","","","","","","",""
"","","","","","canvas-keyboard-response","160","342030","0.0-12.0-3.29","2d_cat_multi_stim_exp1","2022-4-8","15:6:31","25","75","3","9","10","40","30","120","22","20 years","[""White""]","No","Male","2112307","null","null","learn_feedback","","","learn_feedback","36.6667","40","out","","","","","","","","","","","","","","","","","","","","","","",""
"","","","","","canvas-keyboard-response","161","342091","0.0-12.0-4.29","2d_cat_multi_stim_exp1","2022-4-8","15:6:31","25","75","3","9","10","40","30","120","22","20 years","[""White""]","No","Male","2112307","null","null","","","","clear_screen","","","","","","","","","","","","","","","","","","","","","","","","","",""
"","","","","","canvas-keyboard-response","162","342602","0.0-12.0-0.30","2d_cat_multi_stim_exp1","2022-4-8","15:6:31","25","75","3","9","10","40","30","120","22","20 years","[""White""]","No","Male","2112307","null","null","","","","fixation","","","","","","","","","","","","","","","","","","","","","","","","","",""
"","","","","","canvas-keyboard-response","163","343114","0.0-12.0-1.30","2d_cat_multi_stim_exp1","2022-4-8","15:6:31","25","75","3","9","10","40","30","120","22","20 years","[""White""]","No","Male","2112307","null","null","","","","clear_screen","","","","","","","","","","","","","","","","","","","","","","","","","",""
"","","","","","canvas-keyboard-response","164","344734","0.0-12.0-2.30","2d_cat_multi_stim_exp1","2022-4-8","15:6:31","25","75","3","9","10","40","30","120","22","20 years","[""White""]","No","Male","2112307","1610","u","learn","","","learn_trial","23.3473","67.4888","in","1","1","","","","","","","","","","","","","","","","","","","","",""
"","","","","","canvas-keyboard-response","165","345244","0.0-12.0-3.30","2d_cat_multi_stim_exp1","2022-4-8","15:6:31","25","75","3","9","10","40","30","120","22","20 years","[""White""]","No","Male","2112307","null","null","learn_feedback","","","learn_feedback","23.3473","67.4888","in","","","","","","","","","","","","","","","","","","","","","","",""
"","","","","","canvas-keyboard-response","166","345302","0.0-12.0-4.30","2d_cat_multi_stim_exp1","2022-4-8","15:6:31","25","75","3","9","10","40","30","120","22","20 years","[""White""]","No","Male","2112307","null","null","","","","clear_screen","","","","","","","","","","","","","","","","","","","","","","","","","",""
"","","","","","canvas-keyboard-response","167","345812","0.0-12.0-0.31","2d_cat_multi_stim_exp1","2022-4-8","15:6:31","25","75","3","9","10","40","30","120","22","20 years","[""White""]","No","Male","2112307","null","null","","","","fixation","","","","","","","","","","","","","","","","","","","","","","","","","",""
"","","","","","canvas-keyboard-response","168","346321","0.0-12.0-1.31","2d_cat_multi_stim_exp1","2022-4-8","15:6:31","25","75","3","9","10","40","30","120","22","20 years","[""White""]","No","Male","2112307","null","null","","","","clear_screen","","","","","","","","","","","","","","","","","","","","","","","","","",""
"","","","","","canvas-keyboard-response","169","347414","0.0-12.0-2.31","2d_cat_multi_stim_exp1","2022-4-8","15:6:31","25","75","3","9","10","40","30","120","22","20 years","[""White""]","No","Male","2112307","1083","u","learn","","","learn_trial","22.1081","72.6057","in","1","1","","","","","","","","","","","","","","","","","","","","",""
"","","","","","canvas-keyboard-response","170","347924","0.0-12.0-3.31","2d_cat_multi_stim_exp1","2022-4-8","15:6:31","25","75","3","9","10","40","30","120","22","20 years","[""White""]","No","Male","2112307","null","null","learn_feedback","","","learn_feedback","22.1081","72.6057","in","","","","","","","","","","","","","","","","","","","","","","",""
"","","","","","canvas-keyboard-response","171","347984","0.0-12.0-4.31","2d_cat_multi_stim_exp1","2022-4-8","15:6:31","25","75","3","9","10","40","30","120","22","20 years","[""White""]","No","Male","2112307","null","null","","","","clear_screen","","","","","","","","","","","","","","","","","","","","","","","","","",""
"","","","","","canvas-keyboard-response","172","348493","0.0-12.0-0.32","2d_cat_multi_stim_exp1","2022-4-8","15:6:31","25","75","3","9","10","40","30","120","22","20 years","[""White""]","No","Male","2112307","null","null","","","","fixation","","","","","","","","","","","","","","","","","","","","","","","","","",""
"","","","","","canvas-keyboard-response","173","349003","0.0-12.0-1.32","2d_cat_multi_stim_exp1","2022-4-8","15:6:31","25","75","3","9","10","40","30","120","22","20 years","[""White""]","No","Male","2112307","null","null","","","","clear_screen","","","","","","","","","","","","","","","","","","","","","","","","","",""
"","","","","","canvas-keyboard-response","174","350398","0.0-12.0-2.32","2d_cat_multi_stim_exp1","2022-4-8","15:6:31","25","75","3","9","10","40","30","120","22","20 years","[""White""]","No","Male","2112307","1385","u","learn","","","learn_trial","25.4027","83.9185","in","1","1","","","","","","","","","","","","","","","","","","","","",""
"","","","","","canvas-keyboard-response","175","350908","0.0-12.0-3.32","2d_cat_multi_stim_exp1","2022-4-8","15:6:31","25","75","3","9","10","40","30","120","22","20 years","[""White""]","No","Male","2112307","null","null","learn_feedback","","","learn_feedback","25.4027","83.9185","in","","","","","","","","","","","","","","","","","","","","","","",""
"","","","","","canvas-keyboard-response","176","350967","0.0-12.0-4.32","2d_cat_multi_stim_exp1","2022-4-8","15:6:31","25","75","3","9","10","40","30","120","22","20 years","[""White""]","No","Male","2112307","null","null","","","","clear_screen","","","","","","","","","","","","","","","","","","","","","","","","","",""
"","","","","","canvas-keyboard-response","177","351475","0.0-12.0-0.33","2d_cat_multi_stim_exp1","2022-4-8","15:6:31","25","75","3","9","10","40","30","120","22","20 years","[""White""]","No","Male","2112307","null","null","","","","fixation","","","","","","","","","","","","","","","","","","","","","","","","","",""
"","","","","","canvas-keyboard-response","178","351985","0.0-12.0-1.33","2d_cat_multi_stim_exp1","2022-4-8","15:6:31","25","75","3","9","10","40","30","120","22","20 years","[""White""]","No","Male","2112307","null","null","","","","clear_screen","","","","","","","","","","","","","","","","","","","","","","","","","",""
"","","","","","canvas-keyboard-response","179","352950","0.0-12.0-2.33","2d_cat_multi_stim_exp1","2022-4-8","15:6:31","25","75","3","9","10","40","30","120","22","20 years","[""White""]","No","Male","2112307","955","u","learn","","","learn_trial","25","75","in","1","1","","","","","","","","","","","","","","","","","","","","",""
"","","","","","canvas-keyboard-response","180","353460","0.0-12.0-3.33","2d_cat_multi_stim_exp1","2022-4-8","15:6:31","25","75","3","9","10","40","30","120","22","20 years","[""White""]","No","Male","2112307","null","null","learn_feedback","","","learn_feedback","25","75","in","","","","","","","","","","","","","","","","","","","","","","",""
"","","","","","canvas-keyboard-response","181","353519","0.0-12.0-4.33","2d_cat_multi_stim_exp1","2022-4-8","15:6:31","25","75","3","9","10","40","30","120","22","20 years","[""White""]","No","Male","2112307","null","null","","","","clear_screen","","","","","","","","","","","","","","","","","","","","","","","","","",""
"","","","","","canvas-keyboard-response","182","354027","0.0-12.0-0.34","2d_cat_multi_stim_exp1","2022-4-8","15:6:31","25","75","3","9","10","40","30","120","22","20 years","[""White""]","No","Male","2112307","null","null","","","","fixation","","","","","","","","","","","","","","","","","","","","","","","","","",""
"","","","","","canvas-keyboard-response","183","354537","0.0-12.0-1.34","2d_cat_multi_stim_exp1","2022-4-8","15:6:31","25","75","3","9","10","40","30","120","22","20 years","[""White""]","No","Male","2112307","null","null","","","","clear_screen","","","","","","","","","","","","","","","","","","","","","","","","","",""
"","","","","","canvas-keyboard-response","184","355453","0.0-12.0-2.34","2d_cat_multi_stim_exp1","2022-4-8","15:6:31","25","75","3","9","10","40","30","120","22","20 years","[""White""]","No","Male","2112307","907","i","learn","","","learn_trial","30","120","out","0","1","","","","","","","","","","","","","","","","","","","","",""
"","","","","","canvas-keyboard-response","185","355963","0.0-12.0-3.34","2d_cat_multi_stim_exp1","2022-4-8","15:6:31","25","75","3","9","10","40","30","120","22","20 years","[""White""]","No","Male","2112307","null","null","learn_feedback","","","learn_feedback","30","120","out","","","","","","","","","","","","","","","","","","","","","","",""
"","","","","","canvas-keyboard-response","186","356021","0.0-12.0-4.34","2d_cat_multi_stim_exp1","2022-4-8","15:6:31","25","75","3","9","10","40","30","120","22","20 years","[""White""]","No","Male","2112307","null","null","","","","clear_screen","","","","","","","","","","","","","","","","","","","","","","","","","",""
"","","","","","canvas-keyboard-response","187","356531","0.0-12.0-0.35","2d_cat_multi_stim_exp1","2022-4-8","15:6:31","25","75","3","9","10","40","30","120","22","20 years","[""White""]","No","Male","2112307","null","null","","","","fixation","","","","","","","","","","","","","","","","","","","","","","","","","",""
"","","","","","canvas-keyboard-response","188","357040","0.0-12.0-1.35","2d_cat_multi_stim_exp1","2022-4-8","15:6:31","25","75","3","9","10","40","30","120","22","20 years","[""White""]","No","Male","2112307","null","null","","","","clear_screen","","","","","","","","","","","","","","","","","","","","","","","","","",""
"","","","","","canvas-keyboard-response","189","357862","0.0-12.0-2.35","2d_cat_multi_stim_exp1","2022-4-8","15:6:31","25","75","3","9","10","40","30","120","22","20 years","[""White""]","No","Male","2112307","811","i","learn","","","learn_trial","16.6667","120","out","0","1","","","","","","","","","","","","","","","","","","","","",""
"","","","","","canvas-keyboard-response","190","358372","0.0-12.0-3.35","2d_cat_multi_stim_exp1","2022-4-8","15:6:31","25","75","3","9","10","40","30","120","22","20 years","[""White""]","No","Male","2112307","null","null","learn_feedback","","","learn_feedback","16.6667","120","out","","","","","","","","","","","","","","","","","","","","","","",""
"","","","","","canvas-keyboard-response","191","358431","0.0-12.0-4.35","2d_cat_multi_stim_exp1","2022-4-8","15:6:31","25","75","3","9","10","40","30","120","22","20 years","[""White""]","No","Male","2112307","null","null","","","","clear_screen","","","","","","","","","","","","","","","","","","","","","","","","","",""
"","","","","","canvas-keyboard-response","192","358940","0.0-12.0-0.36","2d_cat_multi_stim_exp1","2022-4-8","15:6:31","25","75","3","9","10","40","30","120","22","20 years","[""White""]","No","Male","2112307","null","null","","","","fixation","","","","","","","","","","","","","","","","","","","","","","","","","",""
"","","","","","canvas-keyboard-response","193","359450","0.0-12.0-1.36","2d_cat_multi_stim_exp1","2022-4-8","15:6:31","25","75","3","9","10","40","30","120","22","20 years","[""White""]","No","Male","2112307","null","null","","","","clear_screen","","","","","","","","","","","","","","","","","","","","","","","","","",""
"","","","","","canvas-keyboard-response","194","360398","0.0-12.0-2.36","2d_cat_multi_stim_exp1","2022-4-8","15:6:31","25","75","3","9","10","40","30","120","22","20 years","[""White""]","No","Male","2112307","938","i","learn","","","learn_trial","36.6667","70","out","0","1","","","","","","","","","","","","","","","","","","","","",""
"","","","","","canvas-keyboard-response","195","360908","0.0-12.0-3.36","2d_cat_multi_stim_exp1","2022-4-8","15:6:31","25","75","3","9","10","40","30","120","22","20 years","[""White""]","No","Male","2112307","null","null","learn_feedback","","","learn_feedback","36.6667","70","out","","","","","","","","","","","","","","","","","","","","","","",""
"","","","","","canvas-keyboard-response","196","360967","0.0-12.0-4.36","2d_cat_multi_stim_exp1","2022-4-8","15:6:31","25","75","3","9","10","40","30","120","22","20 years","[""White""]","No","Male","2112307","null","null","","","","clear_screen","","","","","","","","","","","","","","","","","","","","","","","","","",""
"","","","","","canvas-keyboard-response","197","361476","0.0-12.0-0.37","2d_cat_multi_stim_exp1","2022-4-8","15:6:31","25","75","3","9","10","40","30","120","22","20 years","[""White""]","No","Male","2112307","null","null","","","","fixation","","","","","","","","","","","","","","","","","","","","","","","","","",""
"","","","","","canvas-keyboard-response","198","361985","0.0-12.0-1.37","2d_cat_multi_stim_exp1","2022-4-8","15:6:31","25","75","3","9","10","40","30","120","22","20 years","[""White""]","No","Male","2112307","null","null","","","","clear_screen","","","","","","","","","","","","","","","","","","","","","","","","","",""
"","","","","","canvas-keyboard-response","199","362854","0.0-12.0-2.37","2d_cat_multi_stim_exp1","2022-4-8","15:6:31","25","75","3","9","10","40","30","120","22","20 years","[""White""]","No","Male","2112307","858","i","learn","","","learn_trial","40","120","out","0","1","","","","","","","","","","","","","","","","","","","","",""
"","","","","","canvas-keyboard-response","200","363363","0.0-12.0-3.37","2d_cat_multi_stim_exp1","2022-4-8","15:6:31","25","75","3","9","10","40","30","120","22","20 years","[""White""]","No","Male","2112307","null","null","learn_feedback","","","learn_feedback","40","120","out","","","","","","","","","","","","","","","","","","","","","","",""
"","","","","","canvas-keyboard-response","201","363421","0.0-12.0-4.37","2d_cat_multi_stim_exp1","2022-4-8","15:6:31","25","75","3","9","10","40","30","120","22","20 years","[""White""]","No","Male","2112307","null","null","","","","clear_screen","","","","","","","","","","","","","","","","","","","","","","","","","",""
"","","","","","canvas-keyboard-response","202","363931","0.0-12.0-0.38","2d_cat_multi_stim_exp1","2022-4-8","15:6:31","25","75","3","9","10","40","30","120","22","20 years","[""White""]","No","Male","2112307","null","null","","","","fixation","","","","","","","","","","","","","","","","","","","","","","","","","",""
"","","","","","canvas-keyboard-response","203","364440","0.0-12.0-1.38","2d_cat_multi_stim_exp1","2022-4-8","15:6:31","25","75","3","9","10","40","30","120","22","20 years","[""White""]","No","Male","2112307","null","null","","","","clear_screen","","","","","","","","","","","","","","","","","","","","","","","","","",""
"","","","","","canvas-keyboard-response","204","365365","0.0-12.0-2.38","2d_cat_multi_stim_exp1","2022-4-8","15:6:31","25","75","3","9","10","40","30","120","22","20 years","[""White""]","No","Male","2112307","915","u","learn","","","learn_trial","25","75","in","1","1","","","","","","","","","","","","","","","","","","","","",""
"","","","","","canvas-keyboard-response","205","365875","0.0-12.0-3.38","2d_cat_multi_stim_exp1","2022-4-8","15:6:31","25","75","3","9","10","40","30","120","22","20 years","[""White""]","No","Male","2112307","null","null","learn_feedback","","","learn_feedback","25","75","in","","","","","","","","","","","","","","","","","","","","","","",""
"","","","","","canvas-keyboard-response","206","365935","0.0-12.0-4.38","2d_cat_multi_stim_exp1","2022-4-8","15:6:31","25","75","3","9","10","40","30","120","22","20 years","[""White""]","No","Male","2112307","null","null","","","","clear_screen","","","","","","","","","","","","","","","","","","","","","","","","","",""
"","","","","","canvas-keyboard-response","207","366446","0.0-12.0-0.39","2d_cat_multi_stim_exp1","2022-4-8","15:6:31","25","75","3","9","10","40","30","120","22","20 years","[""White""]","No","Male","2112307","null","null","","","","fixation","","","","","","","","","","","","","","","","","","","","","","","","","",""
"","","","","","canvas-keyboard-response","208","366955","0.0-12.0-1.39","2d_cat_multi_stim_exp1","2022-4-8","15:6:31","25","75","3","9","10","40","30","120","22","20 years","[""White""]","No","Male","2112307","null","null","","","","clear_screen","","","","","","","","","","","","","","","","","","","","","","","","","",""
"","","","","","canvas-keyboard-response","209","367790","0.0-12.0-2.39","2d_cat_multi_stim_exp1","2022-4-8","15:6:31","25","75","3","9","10","40","30","120","22","20 years","[""White""]","No","Male","2112307","824","u","learn","","","learn_trial","23.3333","80","out","1","0","","","","","","","","","","","","","","","","","","","","",""
"","","","","","canvas-keyboard-response","210","368800","0.0-12.0-3.39","2d_cat_multi_stim_exp1","2022-4-8","15:6:31","25","75","3","9","10","40","30","120","22","20 years","[""White""]","No","Male","2112307","null","null","learn_feedback","","","learn_feedback","23.3333","80","out","","","","","","","","","","","","","","","","","","","","","","",""
"","","","","","canvas-keyboard-response","211","368859","0.0-12.0-4.39","2d_cat_multi_stim_exp1","2022-4-8","15:6:31","25","75","3","9","10","40","30","120","22","20 years","[""White""]","No","Male","2112307","null","null","","","","clear_screen","","","","","","","","","","","","","","","","","","","","","","","","","",""
"","","","","","canvas-keyboard-response","212","369367","0.0-12.0-0.40","2d_cat_multi_stim_exp1","2022-4-8","15:6:31","25","75","3","9","10","40","30","120","22","20 years","[""White""]","No","Male","2112307","null","null","","","","fixation","","","","","","","","","","","","","","","","","","","","","","","","","",""
"","","","","","canvas-keyboard-response","213","369877","0.0-12.0-1.40","2d_cat_multi_stim_exp1","2022-4-8","15:6:31","25","75","3","9","10","40","30","120","22","20 years","[""White""]","No","Male","2112307","null","null","","","","clear_screen","","","","","","","","","","","","","","","","","","","","","","","","","",""
"","","","","","canvas-keyboard-response","214","371069","0.0-12.0-2.40","2d_cat_multi_stim_exp1","2022-4-8","15:6:31","25","75","3","9","10","40","30","120","22","20 years","[""White""]","No","Male","2112307","1182","i","learn","","","learn_trial","23.3333","100","out","0","1","","","","","","","","","","","","","","","","","","","","",""
"","","","","","canvas-keyboard-response","215","371579","0.0-12.0-3.40","2d_cat_multi_stim_exp1","2022-4-8","15:6:31","25","75","3","9","10","40","30","120","22","20 years","[""White""]","No","Male","2112307","null","null","learn_feedback","","","learn_feedback","23.3333","100","out","","","","","","","","","","","","","","","","","","","","","","",""
"","","","","","canvas-keyboard-response","216","371638","0.0-12.0-4.40","2d_cat_multi_stim_exp1","2022-4-8","15:6:31","25","75","3","9","10","40","30","120","22","20 years","[""White""]","No","Male","2112307","null","null","","","","clear_screen","","","","","","","","","","","","","","","","","","","","","","","","","",""
"","","","","","canvas-keyboard-response","217","372146","0.0-12.0-0.41","2d_cat_multi_stim_exp1","2022-4-8","15:6:31","25","75","3","9","10","40","30","120","22","20 years","[""White""]","No","Male","2112307","null","null","","","","fixation","","","","","","","","","","","","","","","","","","","","","","","","","",""
"","","","","","canvas-keyboard-response","218","372655","0.0-12.0-1.41","2d_cat_multi_stim_exp1","2022-4-8","15:6:31","25","75","3","9","10","40","30","120","22","20 years","[""White""]","No","Male","2112307","null","null","","","","clear_screen","","","","","","","","","","","","","","","","","","","","","","","","","",""
"","","","","","canvas-keyboard-response","219","373742","0.0-12.0-2.41","2d_cat_multi_stim_exp1","2022-4-8","15:6:31","25","75","3","9","10","40","30","120","22","20 years","[""White""]","No","Male","2112307","1076","i","learn","","","learn_trial","24.8654","66.0091","in","0","0","","","","","","","","","","","","","","","","","","","","",""
"","","","","","canvas-keyboard-response","220","374752","0.0-12.0-3.41","2d_cat_multi_stim_exp1","2022-4-8","15:6:31","25","75","3","9","10","40","30","120","22","20 years","[""White""]","No","Male","2112307","null","null","learn_feedback","","","learn_feedback","24.8654","66.0091","in","","","","","","","","","","","","","","","","","","","","","","",""
"","","","","","canvas-keyboard-response","221","374811","0.0-12.0-4.41","2d_cat_multi_stim_exp1","2022-4-8","15:6:31","25","75","3","9","10","40","30","120","22","20 years","[""White""]","No","Male","2112307","null","null","","","","clear_screen","","","","","","","","","","","","","","","","","","","","","","","","","",""
"","","","","","canvas-keyboard-response","222","375321","0.0-12.0-0.42","2d_cat_multi_stim_exp1","2022-4-8","15:6:31","25","75","3","9","10","40","30","120","22","20 years","[""White""]","No","Male","2112307","null","null","","","","fixation","","","","","","","","","","","","","","","","","","","","","","","","","",""
"","","","","","canvas-keyboard-response","223","375834","0.0-12.0-1.42","2d_cat_multi_stim_exp1","2022-4-8","15:6:31","25","75","3","9","10","40","30","120","22","20 years","[""White""]","No","Male","2112307","null","null","","","","clear_screen","","","","","","","","","","","","","","","","","","","","","","","","","",""
"","","","","","canvas-keyboard-response","224","376733","0.0-12.0-2.42","2d_cat_multi_stim_exp1","2022-4-8","15:6:31","25","75","3","9","10","40","30","120","22","20 years","[""White""]","No","Male","2112307","886","u","learn","","","learn_trial","20.7574","62.2721","in","1","1","","","","","","","","","","","","","","","","","","","","",""
"","","","","","canvas-keyboard-response","225","377245","0.0-12.0-3.42","2d_cat_multi_stim_exp1","2022-4-8","15:6:31","25","75","3","9","10","40","30","120","22","20 years","[""White""]","No","Male","2112307","null","null","learn_feedback","","","learn_feedback","20.7574","62.2721","in","","","","","","","","","","","","","","","","","","","","","","",""
"","","","","","canvas-keyboard-response","226","377305","0.0-12.0-4.42","2d_cat_multi_stim_exp1","2022-4-8","15:6:31","25","75","3","9","10","40","30","120","22","20 years","[""White""]","No","Male","2112307","null","null","","","","clear_screen","","","","","","","","","","","","","","","","","","","","","","","","","",""
"","","","","","canvas-keyboard-response","227","377815","0.0-12.0-0.43","2d_cat_multi_stim_exp1","2022-4-8","15:6:31","25","75","3","9","10","40","30","120","22","20 years","[""White""]","No","Male","2112307","null","null","","","","fixation","","","","","","","","","","","","","","","","","","","","","","","","","",""
"","","","","","canvas-keyboard-response","228","378324","0.0-12.0-1.43","2d_cat_multi_stim_exp1","2022-4-8","15:6:31","25","75","3","9","10","40","30","120","22","20 years","[""White""]","No","Male","2112307","null","null","","","","clear_screen","","","","","","","","","","","","","","","","","","","","","","","","","",""
"","","","","","canvas-keyboard-response","229","379309","0.0-12.0-2.43","2d_cat_multi_stim_exp1","2022-4-8","15:6:31","25","75","3","9","10","40","30","120","22","20 years","[""White""]","No","Male","2112307","975","u","learn","","","learn_trial","25","75","in","1","1","","","","","","","","","","","","","","","","","","","","",""
"","","","","","canvas-keyboard-response","230","379819","0.0-12.0-3.43","2d_cat_multi_stim_exp1","2022-4-8","15:6:31","25","75","3","9","10","40","30","120","22","20 years","[""White""]","No","Male","2112307","null","null","learn_feedback","","","learn_feedback","25","75","in","","","","","","","","","","","","","","","","","","","","","","",""
"","","","","","canvas-keyboard-response","231","379878","0.0-12.0-4.43","2d_cat_multi_stim_exp1","2022-4-8","15:6:31","25","75","3","9","10","40","30","120","22","20 years","[""White""]","No","Male","2112307","null","null","","","","clear_screen","","","","","","","","","","","","","","","","","","","","","","","","","",""
"","","","","","canvas-keyboard-response","232","380388","0.0-12.0-0.44","2d_cat_multi_stim_exp1","2022-4-8","15:6:31","25","75","3","9","10","40","30","120","22","20 years","[""White""]","No","Male","2112307","null","null","","","","fixation","","","","","","","","","","","","","","","","","","","","","","","","","",""
"","","","","","canvas-keyboard-response","233","380899","0.0-12.0-1.44","2d_cat_multi_stim_exp1","2022-4-8","15:6:31","25","75","3","9","10","40","30","120","22","20 years","[""White""]","No","Male","2112307","null","null","","","","clear_screen","","","","","","","","","","","","","","","","","","","","","","","","","",""
"","","","","","canvas-keyboard-response","234","381941","0.0-12.0-2.44","2d_cat_multi_stim_exp1","2022-4-8","15:6:31","25","75","3","9","10","40","30","120","22","20 years","[""White""]","No","Male","2112307","1032","u","learn","","","learn_trial","24.3324","66.2256","in","1","1","","","","","","","","","","","","","","","","","","","","",""
"","","","","","canvas-keyboard-response","235","382451","0.0-12.0-3.44","2d_cat_multi_stim_exp1","2022-4-8","15:6:31","25","75","3","9","10","40","30","120","22","20 years","[""White""]","No","Male","2112307","null","null","learn_feedback","","","learn_feedback","24.3324","66.2256","in","","","","","","","","","","","","","","","","","","","","","","",""
"","","","","","canvas-keyboard-response","236","382511","0.0-12.0-4.44","2d_cat_multi_stim_exp1","2022-4-8","15:6:31","25","75","3","9","10","40","30","120","22","20 years","[""White""]","No","Male","2112307","null","null","","","","clear_screen","","","","","","","","","","","","","","","","","","","","","","","","","",""
"","","","","","canvas-keyboard-response","237","383020","0.0-12.0-0.45","2d_cat_multi_stim_exp1","2022-4-8","15:6:31","25","75","3","9","10","40","30","120","22","20 years","[""White""]","No","Male","2112307","null","null","","","","fixation","","","","","","","","","","","","","","","","","","","","","","","","","",""
"","","","","","canvas-keyboard-response","238","383530","0.0-12.0-1.45","2d_cat_multi_stim_exp1","2022-4-8","15:6:31","25","75","3","9","10","40","30","120","22","20 years","[""White""]","No","Male","2112307","null","null","","","","clear_screen","","","","","","","","","","","","","","","","","","","","","","","","","",""
"","","","","","canvas-keyboard-response","239","384358","0.0-12.0-2.45","2d_cat_multi_stim_exp1","2022-4-8","15:6:31","25","75","3","9","10","40","30","120","22","20 years","[""White""]","No","Male","2112307","818","u","learn","","","learn_trial","25","75","in","1","1","","","","","","","","","","","","","","","","","","","","",""
"","","","","","canvas-keyboard-response","240","384867","0.0-12.0-3.45","2d_cat_multi_stim_exp1","2022-4-8","15:6:31","25","75","3","9","10","40","30","120","22","20 years","[""White""]","No","Male","2112307","null","null","learn_feedback","","","learn_feedback","25","75","in","","","","","","","","","","","","","","","","","","","","","","",""
"","","","","","canvas-keyboard-response","241","384926","0.0-12.0-4.45","2d_cat_multi_stim_exp1","2022-4-8","15:6:31","25","75","3","9","10","40","30","120","22","20 years","[""White""]","No","Male","2112307","null","null","","","","clear_screen","","","","","","","","","","","","","","","","","","","","","","","","","",""
"","","","","","canvas-keyboard-response","242","385436","0.0-12.0-0.46","2d_cat_multi_stim_exp1","2022-4-8","15:6:31","25","75","3","9","10","40","30","120","22","20 years","[""White""]","No","Male","2112307","null","null","","","","fixation","","","","","","","","","","","","","","","","","","","","","","","","","",""
"","","","","","canvas-keyboard-response","243","385946","0.0-12.0-1.46","2d_cat_multi_stim_exp1","2022-4-8","15:6:31","25","75","3","9","10","40","30","120","22","20 years","[""White""]","No","Male","2112307","null","null","","","","clear_screen","","","","","","","","","","","","","","","","","","","","","","","","","",""
"","","","","","canvas-keyboard-response","244","386662","0.0-12.0-2.46","2d_cat_multi_stim_exp1","2022-4-8","15:6:31","25","75","3","9","10","40","30","120","22","20 years","[""White""]","No","Male","2112307","706","u","learn","","","learn_trial","25","75","in","1","1","","","","","","","","","","","","","","","","","","","","",""
"","","","","","canvas-keyboard-response","245","387171","0.0-12.0-3.46","2d_cat_multi_stim_exp1","2022-4-8","15:6:31","25","75","3","9","10","40","30","120","22","20 years","[""White""]","No","Male","2112307","null","null","learn_feedback","","","learn_feedback","25","75","in","","","","","","","","","","","","","","","","","","","","","","",""
"","","","","","canvas-keyboard-response","246","387233","0.0-12.0-4.46","2d_cat_multi_stim_exp1","2022-4-8","15:6:31","25","75","3","9","10","40","30","120","22","20 years","[""White""]","No","Male","2112307","null","null","","","","clear_screen","","","","","","","","","","","","","","","","","","","","","","","","","",""
"","","","","","canvas-keyboard-response","247","387742","0.0-12.0-0.47","2d_cat_multi_stim_exp1","2022-4-8","15:6:31","25","75","3","9","10","40","30","120","22","20 years","[""White""]","No","Male","2112307","null","null","","","","fixation","","","","","","","","","","","","","","","","","","","","","","","","","",""
"","","","","","canvas-keyboard-response","248","388252","0.0-12.0-1.47","2d_cat_multi_stim_exp1","2022-4-8","15:6:31","25","75","3","9","10","40","30","120","22","20 years","[""White""]","No","Male","2112307","null","null","","","","clear_screen","","","","","","","","","","","","","","","","","","","","","","","","","",""
"","","","","","canvas-keyboard-response","249","388909","0.0-12.0-2.47","2d_cat_multi_stim_exp1","2022-4-8","15:6:31","25","75","3","9","10","40","30","120","22","20 years","[""White""]","No","Male","2112307","647","u","learn","","","learn_trial","25","75","in","1","1","","","","","","","","","","","","","","","","","","","","",""
"","","","","","canvas-keyboard-response","250","389420","0.0-12.0-3.47","2d_cat_multi_stim_exp1","2022-4-8","15:6:31","25","75","3","9","10","40","30","120","22","20 years","[""White""]","No","Male","2112307","null","null","learn_feedback","","","learn_feedback","25","75","in","","","","","","","","","","","","","","","","","","","","","","",""
"","","","","","canvas-keyboard-response","251","389478","0.0-12.0-4.47","2d_cat_multi_stim_exp1","2022-4-8","15:6:31","25","75","3","9","10","40","30","120","22","20 years","[""White""]","No","Male","2112307","null","null","","","","clear_screen","","","","","","","","","","","","","","","","","","","","","","","","","",""
"","","","","","canvas-keyboard-response","252","389988","0.0-12.0-0.48","2d_cat_multi_stim_exp1","2022-4-8","15:6:31","25","75","3","9","10","40","30","120","22","20 years","[""White""]","No","Male","2112307","null","null","","","","fixation","","","","","","","","","","","","","","","","","","","","","","","","","",""
"","","","","","canvas-keyboard-response","253","390497","0.0-12.0-1.48","2d_cat_multi_stim_exp1","2022-4-8","15:6:31","25","75","3","9","10","40","30","120","22","20 years","[""White""]","No","Male","2112307","null","null","","","","clear_screen","","","","","","","","","","","","","","","","","","","","","","","","","",""
"","","","","","canvas-keyboard-response","254","391509","0.0-12.0-2.48","2d_cat_multi_stim_exp1","2022-4-8","15:6:31","25","75","3","9","10","40","30","120","22","20 years","[""White""]","No","Male","2112307","1002","i","learn","","","learn_trial","23.3333","60","out","0","1","","","","","","","","","","","","","","","","","","","","",""
"","","","","","canvas-keyboard-response","255","392020","0.0-12.0-3.48","2d_cat_multi_stim_exp1","2022-4-8","15:6:31","25","75","3","9","10","40","30","120","22","20 years","[""White""]","No","Male","2112307","null","null","learn_feedback","","","learn_feedback","23.3333","60","out","","","","","","","","","","","","","","","","","","","","","","",""
"","","","","","canvas-keyboard-response","256","392080","0.0-12.0-4.48","2d_cat_multi_stim_exp1","2022-4-8","15:6:31","25","75","3","9","10","40","30","120","22","20 years","[""White""]","No","Male","2112307","null","null","","","","clear_screen","","","","","","","","","","","","","","","","","","","","","","","","","",""
"","","","","","canvas-keyboard-response","257","392588","0.0-12.0-0.49","2d_cat_multi_stim_exp1","2022-4-8","15:6:31","25","75","3","9","10","40","30","120","22","20 years","[""White""]","No","Male","2112307","null","null","","","","fixation","","","","","","","","","","","","","","","","","","","","","","","","","",""
"","","","","","canvas-keyboard-response","258","393097","0.0-12.0-1.49","2d_cat_multi_stim_exp1","2022-4-8","15:6:31","25","75","3","9","10","40","30","120","22","20 years","[""White""]","No","Male","2112307","null","null","","","","clear_screen","","","","","","","","","","","","","","","","","","","","","","","","","",""
"","","","","","canvas-keyboard-response","259","393941","0.0-12.0-2.49","2d_cat_multi_stim_exp1","2022-4-8","15:6:31","25","75","3","9","10","40","30","120","22","20 years","[""White""]","No","Male","2112307","834","i","learn","","","learn_trial","13.3333","90","out","0","1","","","","","","","","","","","","","","","","","","","","",""
"","","","","","canvas-keyboard-response","260","394451","0.0-12.0-3.49","2d_cat_multi_stim_exp1","2022-4-8","15:6:31","25","75","3","9","10","40","30","120","22","20 years","[""White""]","No","Male","2112307","null","null","learn_feedback","","","learn_feedback","13.3333","90","out","","","","","","","","","","","","","","","","","","","","","","",""
"","","","","","canvas-keyboard-response","261","394511","0.0-12.0-4.49","2d_cat_multi_stim_exp1","2022-4-8","15:6:31","25","75","3","9","10","40","30","120","22","20 years","[""White""]","No","Male","2112307","null","null","","","","clear_screen","","","","","","","","","","","","","","","","","","","","","","","","","",""
"","","","","","canvas-keyboard-response","262","395020","0.0-12.0-0.50","2d_cat_multi_stim_exp1","2022-4-8","15:6:31","25","75","3","9","10","40","30","120","22","20 years","[""White""]","No","Male","2112307","null","null","","","","fixation","","","","","","","","","","","","","","","","","","","","","","","","","",""
"","","","","","canvas-keyboard-response","263","395529","0.0-12.0-1.50","2d_cat_multi_stim_exp1","2022-4-8","15:6:31","25","75","3","9","10","40","30","120","22","20 years","[""White""]","No","Male","2112307","null","null","","","","clear_screen","","","","","","","","","","","","","","","","","","","","","","","","","",""
"","","","","","canvas-keyboard-response","264","396277","0.0-12.0-2.50","2d_cat_multi_stim_exp1","2022-4-8","15:6:31","25","75","3","9","10","40","30","120","22","20 years","[""White""]","No","Male","2112307","736","i","learn","","","learn_trial","10","50","out","0","1","","","","","","","","","","","","","","","","","","","","",""
"","","","","","canvas-keyboard-response","265","396787","0.0-12.0-3.50","2d_cat_multi_stim_exp1","2022-4-8","15:6:31","25","75","3","9","10","40","30","120","22","20 years","[""White""]","No","Male","2112307","null","null","learn_feedback","","","learn_feedback","10","50","out","","","","","","","","","","","","","","","","","","","","","","",""
"","","","","","canvas-keyboard-response","266","396846","0.0-12.0-4.50","2d_cat_multi_stim_exp1","2022-4-8","15:6:31","25","75","3","9","10","40","30","120","22","20 years","[""White""]","No","Male","2112307","null","null","","","","clear_screen","","","","","","","","","","","","","","","","","","","","","","","","","",""
"","","","","","canvas-keyboard-response","267","397355","0.0-12.0-0.51","2d_cat_multi_stim_exp1","2022-4-8","15:6:31","25","75","3","9","10","40","30","120","22","20 years","[""White""]","No","Male","2112307","null","null","","","","fixation","","","","","","","","","","","","","","","","","","","","","","","","","",""
"","","","","","canvas-keyboard-response","268","397867","0.0-12.0-1.51","2d_cat_multi_stim_exp1","2022-4-8","15:6:31","25","75","3","9","10","40","30","120","22","20 years","[""White""]","No","Male","2112307","null","null","","","","clear_screen","","","","","","","","","","","","","","","","","","","","","","","","","",""
"","","","","","canvas-keyboard-response","269","398758","0.0-12.0-2.51","2d_cat_multi_stim_exp1","2022-4-8","15:6:31","25","75","3","9","10","40","30","120","22","20 years","[""White""]","No","Male","2112307","881","u","learn","","","learn_trial","25","75","in","1","1","","","","","","","","","","","","","","","","","","","","",""
"","","","","","canvas-keyboard-response","270","399268","0.0-12.0-3.51","2d_cat_multi_stim_exp1","2022-4-8","15:6:31","25","75","3","9","10","40","30","120","22","20 years","[""White""]","No","Male","2112307","null","null","learn_feedback","","","learn_feedback","25","75","in","","","","","","","","","","","","","","","","","","","","","","",""
"","","","","","canvas-keyboard-response","271","399327","0.0-12.0-4.51","2d_cat_multi_stim_exp1","2022-4-8","15:6:31","25","75","3","9","10","40","30","120","22","20 years","[""White""]","No","Male","2112307","null","null","","","","clear_screen","","","","","","","","","","","","","","","","","","","","","","","","","",""
"","","","","","canvas-keyboard-response","272","399836","0.0-12.0-0.52","2d_cat_multi_stim_exp1","2022-4-8","15:6:31","25","75","3","9","10","40","30","120","22","20 years","[""White""]","No","Male","2112307","null","null","","","","fixation","","","","","","","","","","","","","","","","","","","","","","","","","",""
"","","","","","canvas-keyboard-response","273","400346","0.0-12.0-1.52","2d_cat_multi_stim_exp1","2022-4-8","15:6:31","25","75","3","9","10","40","30","120","22","20 years","[""White""]","No","Male","2112307","null","null","","","","clear_screen","","","","","","","","","","","","","","","","","","","","","","","","","",""
"","","","","","canvas-keyboard-response","274","401349","0.0-12.0-2.52","2d_cat_multi_stim_exp1","2022-4-8","15:6:31","25","75","3","9","10","40","30","120","22","20 years","[""White""]","No","Male","2112307","994","u","learn","","","learn_trial","22.5729","69.7099","in","1","1","","","","","","","","","","","","","","","","","","","","",""
"","","","","","canvas-keyboard-response","275","401859","0.0-12.0-3.52","2d_cat_multi_stim_exp1","2022-4-8","15:6:31","25","75","3","9","10","40","30","120","22","20 years","[""White""]","No","Male","2112307","null","null","learn_feedback","","","learn_feedback","22.5729","69.7099","in","","","","","","","","","","","","","","","","","","","","","","",""
"","","","","","canvas-keyboard-response","276","401917","0.0-12.0-4.52","2d_cat_multi_stim_exp1","2022-4-8","15:6:31","25","75","3","9","10","40","30","120","22","20 years","[""White""]","No","Male","2112307","null","null","","","","clear_screen","","","","","","","","","","","","","","","","","","","","","","","","","",""
"","","","","","canvas-keyboard-response","277","402430","0.0-12.0-0.53","2d_cat_multi_stim_exp1","2022-4-8","15:6:31","25","75","3","9","10","40","30","120","22","20 years","[""White""]","No","Male","2112307","null","null","","","","fixation","","","","","","","","","","","","","","","","","","","","","","","","","",""
"","","","","","canvas-keyboard-response","278","402939","0.0-12.0-1.53","2d_cat_multi_stim_exp1","2022-4-8","15:6:31","25","75","3","9","10","40","30","120","22","20 years","[""White""]","No","Male","2112307","null","null","","","","clear_screen","","","","","","","","","","","","","","","","","","","","","","","","","",""
"","","","","","canvas-keyboard-response","279","403861","0.0-12.0-2.53","2d_cat_multi_stim_exp1","2022-4-8","15:6:31","25","75","3","9","10","40","30","120","22","20 years","[""White""]","No","Male","2112307","913","u","learn","","","learn_trial","28","75","in","1","1","","","","","","","","","","","","","","","","","","","","",""
"","","","","","canvas-keyboard-response","280","404371","0.0-12.0-3.53","2d_cat_multi_stim_exp1","2022-4-8","15:6:31","25","75","3","9","10","40","30","120","22","20 years","[""White""]","No","Male","2112307","null","null","learn_feedback","","","learn_feedback","28","75","in","","","","","","","","","","","","","","","","","","","","","","",""
"","","","","","canvas-keyboard-response","281","404429","0.0-12.0-4.53","2d_cat_multi_stim_exp1","2022-4-8","15:6:31","25","75","3","9","10","40","30","120","22","20 years","[""White""]","No","Male","2112307","null","null","","","","clear_screen","","","","","","","","","","","","","","","","","","","","","","","","","",""
"","","","","","canvas-keyboard-response","282","404938","0.0-12.0-0.54","2d_cat_multi_stim_exp1","2022-4-8","15:6:31","25","75","3","9","10","40","30","120","22","20 years","[""White""]","No","Male","2112307","null","null","","","","fixation","","","","","","","","","","","","","","","","","","","","","","","","","",""
"","","","","","canvas-keyboard-response","283","405447","0.0-12.0-1.54","2d_cat_multi_stim_exp1","2022-4-8","15:6:31","25","75","3","9","10","40","30","120","22","20 years","[""White""]","No","Male","2112307","null","null","","","","clear_screen","","","","","","","","","","","","","","","","","","","","","","","","","",""
"","","","","","canvas-keyboard-response","284","406293","0.0-12.0-2.54","2d_cat_multi_stim_exp1","2022-4-8","15:6:31","25","75","3","9","10","40","30","120","22","20 years","[""White""]","No","Male","2112307","836","u","learn","","","learn_trial","25","75","in","1","1","","","","","","","","","","","","","","","","","","","","",""
"","","","","","canvas-keyboard-response","285","406803","0.0-12.0-3.54","2d_cat_multi_stim_exp1","2022-4-8","15:6:31","25","75","3","9","10","40","30","120","22","20 years","[""White""]","No","Male","2112307","null","null","learn_feedback","","","learn_feedback","25","75","in","","","","","","","","","","","","","","","","","","","","","","",""
"","","","","","canvas-keyboard-response","286","406863","0.0-12.0-4.54","2d_cat_multi_stim_exp1","2022-4-8","15:6:31","25","75","3","9","10","40","30","120","22","20 years","[""White""]","No","Male","2112307","null","null","","","","clear_screen","","","","","","","","","","","","","","","","","","","","","","","","","",""
"","","","","","canvas-keyboard-response","287","407372","0.0-12.0-0.55","2d_cat_multi_stim_exp1","2022-4-8","15:6:31","25","75","3","9","10","40","30","120","22","20 years","[""White""]","No","Male","2112307","null","null","","","","fixation","","","","","","","","","","","","","","","","","","","","","","","","","",""
"","","","","","canvas-keyboard-response","288","407881","0.0-12.0-1.55","2d_cat_multi_stim_exp1","2022-4-8","15:6:31","25","75","3","9","10","40","30","120","22","20 years","[""White""]","No","Male","2112307","null","null","","","","clear_screen","","","","","","","","","","","","","","","","","","","","","","","","","",""
"","","","","","canvas-keyboard-response","289","408677","0.0-12.0-2.55","2d_cat_multi_stim_exp1","2022-4-8","15:6:31","25","75","3","9","10","40","30","120","22","20 years","[""White""]","No","Male","2112307","785","u","learn","","","learn_trial","25","75","in","1","1","","","","","","","","","","","","","","","","","","","","",""
"","","","","","canvas-keyboard-response","290","409186","0.0-12.0-3.55","2d_cat_multi_stim_exp1","2022-4-8","15:6:31","25","75","3","9","10","40","30","120","22","20 years","[""White""]","No","Male","2112307","null","null","learn_feedback","","","learn_feedback","25","75","in","","","","","","","","","","","","","","","","","","","","","","",""
"","","","","","canvas-keyboard-response","291","409246","0.0-12.0-4.55","2d_cat_multi_stim_exp1","2022-4-8","15:6:31","25","75","3","9","10","40","30","120","22","20 years","[""White""]","No","Male","2112307","null","null","","","","clear_screen","","","","","","","","","","","","","","","","","","","","","","","","","",""
"","","","","","canvas-keyboard-response","292","409755","0.0-12.0-0.56","2d_cat_multi_stim_exp1","2022-4-8","15:6:31","25","75","3","9","10","40","30","120","22","20 years","[""White""]","No","Male","2112307","null","null","","","","fixation","","","","","","","","","","","","","","","","","","","","","","","","","",""
"","","","","","canvas-keyboard-response","293","410268","0.0-12.0-1.56","2d_cat_multi_stim_exp1","2022-4-8","15:6:31","25","75","3","9","10","40","30","120","22","20 years","[""White""]","No","Male","2112307","null","null","","","","clear_screen","","","","","","","","","","","","","","","","","","","","","","","","","",""
"","","","","","canvas-keyboard-response","294","410981","0.0-12.0-2.56","2d_cat_multi_stim_exp1","2022-4-8","15:6:31","25","75","3","9","10","40","30","120","22","20 years","[""White""]","No","Male","2112307","704","i","learn","","","learn_trial","20","120","out","0","1","","","","","","","","","","","","","","","","","","","","",""
