"success","timeout","failed_images","failed_audio","failed_video","trial_type","trial_index","time_elapsed","internal_node_id","exp_name","date","time","angle_mean_in","radius_mean_in","angle_sd_in","radius_sd_in","angle_min_out","angle_max_out","radius_min_out","radius_max_out","sub_n","age","race","ethnicity","gender","exp_duration","rt","stimulus","response","exp_trial_type","view_history","screen_id","angle","radius","distribution","choice","correct","order","angle_a","radius_a","angle_b","radius_b","jkl_correct","transfer_trial_type","choice_set","abc_correct","tc_correct","tdc_a","tdc_b","tdc_c","pair","category_a","category_b","category_c","angle_c","radius_c","question_order"
"true","false","[]","[]","[]","preload","0","20","0.0-0.0","2d_cat_multi_stim_exp1","2022-3-31","10:40:58","25","75","3","9","10","40","30","120","5","19","[""White""]","No","Female","2123854","","","","","","","","","","","","","","","","","","","","","","","","","","","","","","",""
"","","","","","html-button-response","1","1498","0.0-1.0","2d_cat_multi_stim_exp1","2022-3-31","10:40:58","25","75","3","9","10","40","30","120","5","19","[""White""]","No","Female","2123854","1475","<p><b>WAIT!</b></p></p><p>Did you mean to start this experiment? Only Walker, Esther, and Sean are running participants on this experiment.</p>","0","","","","","","","","","","","","","","","","","","","","","","","","","","","",""
"","","","","","survey-html-form","2","3461","0.0-2.0","2d_cat_multi_stim_exp1","2022-3-31","10:40:58","25","75","3","9","10","40","30","120","5","19","[""White""]","No","Female","2123854","1957","","{""response"":""5""}","enter-sub-number","","","","","","","","","","","","","","","","","","","","","","","","","","",""
"true","","","","","fullscreen","3","6262","0.0-3.0","2d_cat_multi_stim_exp1","2022-3-31","10:40:58","25","75","3","9","10","40","30","120","5","19","[""White""]","No","Female","2123854","","","","","","","","","","","","","","","","","","","","","","","","","","","","","","",""
"","","","","","image-button-response","4","34392","0.0-4.0","2d_cat_multi_stim_exp1","2022-3-31","10:40:58","25","75","3","9","10","40","30","120","5","19","[""White""]","No","Female","2123854","28120","consent.png","0","","","","","","","","","","","","","","","","","","","","","","","","","","","",""
"","","","","","html-button-response","5","39974","0.0-5.0","2d_cat_multi_stim_exp1","2022-3-31","10:40:58","25","75","3","9","10","40","30","120","5","19","[""White""]","No","Female","2123854","5577","<div style= ""font-size:25px;"" <p> <strong> Welcome to the experiment! </strong><br> <p style=""color:#8B0000; font-size:25px;""><strong> Please do NOT exit full screen until you are done with the experiment. </strong> </p><p style=""font-size:25px;color:#8B0000;""> <strong> The experiment will be canceled and your data will be lost <br> if you try to go back or refresh the page at any point during the experiment.</strong> </p><br><p> <strong> Thanks in advance for your contribution to our research! </strong></p>","0","","","","","","","","","","","","","","","","","","","","","","","","","","","",""
"","","","","","instructions","6","87887","0.0-6.0","2d_cat_multi_stim_exp1","2022-3-31","10:40:58","25","75","3","9","10","40","30","120","5","19","[""White""]","No","Female","2123854","47907","","","","[{""page_index"":0,""viewing_time"":8915},{""page_index"":1,""viewing_time"":9927},{""page_index"":2,""viewing_time"":11121},{""page_index"":3,""viewing_time"":17943}]","instructions_1","","","","","","","","","","","","","","","","","","","","","","","","",""
"","","","","","instructions","7","89647","0.0-7.0","2d_cat_multi_stim_exp1","2022-3-31","10:40:58","25","75","3","9","10","40","30","120","5","19","[""White""]","No","Female","2123854","1753","","","","[{""page_index"":0,""viewing_time"":1753}]","Click to see the kinds of turtles that will appear in the study.","","","","","","","","","","","","","","","","","","","","","","","","",""
"","","","","","canvas-keyboard-response","8","104663","0.0-8.0","2d_cat_multi_stim_exp1","2022-3-31","10:40:58","25","75","3","9","10","40","30","120","5","19","[""White""]","No","Female","2123854","null","","null","","","demo_range","","","","","","","","","","","","","","","","","","","","","","","","",""
"","","","","","instructions","9","107183","0.0-9.0","2d_cat_multi_stim_exp1","2022-3-31","10:40:58","25","75","3","9","10","40","30","120","5","19","[""White""]","No","Female","2123854","2016","","","","[{""page_index"":0,""viewing_time"":2016}]","Click to see some turtles in the subspecies.","","","","","","","","","","","","","","","","","","","","","","","","",""
"","","","","","canvas-keyboard-response","10","122198","0.0-10.0","2d_cat_multi_stim_exp1","2022-3-31","10:40:58","25","75","3","9","10","40","30","120","5","19","[""White""]","No","Female","2123854","null","","null","","","demo_in","","","","","","","","","","","","","","","","","","","","","","","","",""
"","","","","","instructions","11","167807","0.0-11.0","2d_cat_multi_stim_exp1","2022-3-31","10:40:58","25","75","3","9","10","40","30","120","5","19","[""White""]","No","Female","2123854","45105","","","","[{""page_index"":0,""viewing_time"":9960},{""page_index"":1,""viewing_time"":27336},{""page_index"":2,""viewing_time"":7809}]","instructions_2","","","","","","","","","","","","","","","","","","","","","","","","",""
"","","","","","instructions","12","169246","0.0-12.0","2d_cat_multi_stim_exp1","2022-3-31","10:40:58","25","75","3","9","10","40","30","120","5","19","[""White""]","No","Female","2123854","1436","","","","[{""page_index"":0,""viewing_time"":1436}]","Click to begin the first phase of the experiment.","","","","","","","","","","","","","","","","","","","","","","","","",""
"","","","","","canvas-keyboard-response","13","169754","0.0-13.0-0.0","2d_cat_multi_stim_exp1","2022-3-31","10:40:58","25","75","3","9","10","40","30","120","5","19","[""White""]","No","Female","2123854","null","","null","","","fixation","","","","","","","","","","","","","","","","","","","","","","","","",""
"","","","","","canvas-keyboard-response","14","170269","0.0-13.0-1.0","2d_cat_multi_stim_exp1","2022-3-31","10:40:58","25","75","3","9","10","40","30","120","5","19","[""White""]","No","Female","2123854","null","","null","","","clear_screen","","","","","","","","","","","","","","","","","","","","","","","","",""
"","","","","","canvas-keyboard-response","15","176798","0.0-13.0-2.0","2d_cat_multi_stim_exp1","2022-3-31","10:40:58","25","75","3","9","10","40","30","120","5","19","[""White""]","No","Female","2123854","6519","","u","learn","","learn_trial","23.3333","50","out","1","0","","","","","","","","","","","","","","","","","","","",""
"","","","","","canvas-keyboard-response","16","177810","0.0-13.0-3.0","2d_cat_multi_stim_exp1","2022-3-31","10:40:58","25","75","3","9","10","40","30","120","5","19","[""White""]","No","Female","2123854","null","","null","learn_feedback","","learn_feedback","23.3333","50","out","","","","","","","","","","","","","","","","","","","","","",""
"","","","","","canvas-keyboard-response","17","177873","0.0-13.0-4.0","2d_cat_multi_stim_exp1","2022-3-31","10:40:58","25","75","3","9","10","40","30","120","5","19","[""White""]","No","Female","2123854","null","","null","","","clear_screen","","","","","","","","","","","","","","","","","","","","","","","","",""
"","","","","","canvas-keyboard-response","18","178383","0.0-13.0-0.1","2d_cat_multi_stim_exp1","2022-3-31","10:40:58","25","75","3","9","10","40","30","120","5","19","[""White""]","No","Female","2123854","null","","null","","","fixation","","","","","","","","","","","","","","","","","","","","","","","","",""
"","","","","","canvas-keyboard-response","19","178897","0.0-13.0-1.1","2d_cat_multi_stim_exp1","2022-3-31","10:40:58","25","75","3","9","10","40","30","120","5","19","[""White""]","No","Female","2123854","null","","null","","","clear_screen","","","","","","","","","","","","","","","","","","","","","","","","",""
"","","","","","canvas-keyboard-response","20","181038","0.0-13.0-2.1","2d_cat_multi_stim_exp1","2022-3-31","10:40:58","25","75","3","9","10","40","30","120","5","19","[""White""]","No","Female","2123854","2131","","u","learn","","learn_trial","24.8654","83.9909","in","1","1","","","","","","","","","","","","","","","","","","","",""
"","","","","","canvas-keyboard-response","21","181549","0.0-13.0-3.1","2d_cat_multi_stim_exp1","2022-3-31","10:40:58","25","75","3","9","10","40","30","120","5","19","[""White""]","No","Female","2123854","null","","null","learn_feedback","","learn_feedback","24.8654","83.9909","in","","","","","","","","","","","","","","","","","","","","","",""
"","","","","","canvas-keyboard-response","22","181613","0.0-13.0-4.1","2d_cat_multi_stim_exp1","2022-3-31","10:40:58","25","75","3","9","10","40","30","120","5","19","[""White""]","No","Female","2123854","null","","null","","","clear_screen","","","","","","","","","","","","","","","","","","","","","","","","",""
"","","","","","canvas-keyboard-response","23","182123","0.0-13.0-0.2","2d_cat_multi_stim_exp1","2022-3-31","10:40:58","25","75","3","9","10","40","30","120","5","19","[""White""]","No","Female","2123854","null","","null","","","fixation","","","","","","","","","","","","","","","","","","","","","","","","",""
"","","","","","canvas-keyboard-response","24","182635","0.0-13.0-1.2","2d_cat_multi_stim_exp1","2022-3-31","10:40:58","25","75","3","9","10","40","30","120","5","19","[""White""]","No","Female","2123854","null","","null","","","clear_screen","","","","","","","","","","","","","","","","","","","","","","","","",""
"","","","","","canvas-keyboard-response","25","185342","0.0-13.0-2.2","2d_cat_multi_stim_exp1","2022-3-31","10:40:58","25","75","3","9","10","40","30","120","5","19","[""White""]","No","Female","2123854","2699","","u","learn","","learn_trial","25","75","in","1","1","","","","","","","","","","","","","","","","","","","",""
"","","","","","canvas-keyboard-response","26","185853","0.0-13.0-3.2","2d_cat_multi_stim_exp1","2022-3-31","10:40:58","25","75","3","9","10","40","30","120","5","19","[""White""]","No","Female","2123854","null","","null","learn_feedback","","learn_feedback","25","75","in","","","","","","","","","","","","","","","","","","","","","",""
"","","","","","canvas-keyboard-response","27","185911","0.0-13.0-4.2","2d_cat_multi_stim_exp1","2022-3-31","10:40:58","25","75","3","9","10","40","30","120","5","19","[""White""]","No","Female","2123854","null","","null","","","clear_screen","","","","","","","","","","","","","","","","","","","","","","","","",""
"","","","","","canvas-keyboard-response","28","186424","0.0-13.0-0.3","2d_cat_multi_stim_exp1","2022-3-31","10:40:58","25","75","3","9","10","40","30","120","5","19","[""White""]","No","Female","2123854","null","","null","","","fixation","","","","","","","","","","","","","","","","","","","","","","","","",""
"","","","","","canvas-keyboard-response","29","186935","0.0-13.0-1.3","2d_cat_multi_stim_exp1","2022-3-31","10:40:58","25","75","3","9","10","40","30","120","5","19","[""White""]","No","Female","2123854","null","","null","","","clear_screen","","","","","","","","","","","","","","","","","","","","","","","","",""
"","","","","","canvas-keyboard-response","30","187966","0.0-13.0-2.3","2d_cat_multi_stim_exp1","2022-3-31","10:40:58","25","75","3","9","10","40","30","120","5","19","[""White""]","No","Female","2123854","1023","","i","learn","","learn_trial","16.6667","50","out","0","1","","","","","","","","","","","","","","","","","","","",""
"","","","","","canvas-keyboard-response","31","188476","0.0-13.0-3.3","2d_cat_multi_stim_exp1","2022-3-31","10:40:58","25","75","3","9","10","40","30","120","5","19","[""White""]","No","Female","2123854","null","","null","learn_feedback","","learn_feedback","16.6667","50","out","","","","","","","","","","","","","","","","","","","","","",""
"","","","","","canvas-keyboard-response","32","188538","0.0-13.0-4.3","2d_cat_multi_stim_exp1","2022-3-31","10:40:58","25","75","3","9","10","40","30","120","5","19","[""White""]","No","Female","2123854","null","","null","","","clear_screen","","","","","","","","","","","","","","","","","","","","","","","","",""
"","","","","","canvas-keyboard-response","33","189051","0.0-13.0-0.4","2d_cat_multi_stim_exp1","2022-3-31","10:40:58","25","75","3","9","10","40","30","120","5","19","[""White""]","No","Female","2123854","null","","null","","","fixation","","","","","","","","","","","","","","","","","","","","","","","","",""
"","","","","","canvas-keyboard-response","34","189560","0.0-13.0-1.4","2d_cat_multi_stim_exp1","2022-3-31","10:40:58","25","75","3","9","10","40","30","120","5","19","[""White""]","No","Female","2123854","null","","null","","","clear_screen","","","","","","","","","","","","","","","","","","","","","","","","",""
"","","","","","canvas-keyboard-response","35","192278","0.0-13.0-2.4","2d_cat_multi_stim_exp1","2022-3-31","10:40:58","25","75","3","9","10","40","30","120","5","19","[""White""]","No","Female","2123854","2708","","i","learn","","learn_trial","26.6667","30","out","0","1","","","","","","","","","","","","","","","","","","","",""
"","","","","","canvas-keyboard-response","36","192788","0.0-13.0-3.4","2d_cat_multi_stim_exp1","2022-3-31","10:40:58","25","75","3","9","10","40","30","120","5","19","[""White""]","No","Female","2123854","null","","null","learn_feedback","","learn_feedback","26.6667","30","out","","","","","","","","","","","","","","","","","","","","","",""
"","","","","","canvas-keyboard-response","37","192849","0.0-13.0-4.4","2d_cat_multi_stim_exp1","2022-3-31","10:40:58","25","75","3","9","10","40","30","120","5","19","[""White""]","No","Female","2123854","null","","null","","","clear_screen","","","","","","","","","","","","","","","","","","","","","","","","",""
"","","","","","canvas-keyboard-response","38","193359","0.0-13.0-0.5","2d_cat_multi_stim_exp1","2022-3-31","10:40:58","25","75","3","9","10","40","30","120","5","19","[""White""]","No","Female","2123854","null","","null","","","fixation","","","","","","","","","","","","","","","","","","","","","","","","",""
"","","","","","canvas-keyboard-response","39","193873","0.0-13.0-1.5","2d_cat_multi_stim_exp1","2022-3-31","10:40:58","25","75","3","9","10","40","30","120","5","19","[""White""]","No","Female","2123854","null","","null","","","clear_screen","","","","","","","","","","","","","","","","","","","","","","","","",""
"","","","","","canvas-keyboard-response","40","196622","0.0-13.0-2.5","2d_cat_multi_stim_exp1","2022-3-31","10:40:58","25","75","3","9","10","40","30","120","5","19","[""White""]","No","Female","2123854","2741","","u","learn","","learn_trial","23.3333","100","out","1","0","","","","","","","","","","","","","","","","","","","",""
"","","","","","canvas-keyboard-response","41","197632","0.0-13.0-3.5","2d_cat_multi_stim_exp1","2022-3-31","10:40:58","25","75","3","9","10","40","30","120","5","19","[""White""]","No","Female","2123854","null","","null","learn_feedback","","learn_feedback","23.3333","100","out","","","","","","","","","","","","","","","","","","","","","",""
"","","","","","canvas-keyboard-response","42","197690","0.0-13.0-4.5","2d_cat_multi_stim_exp1","2022-3-31","10:40:58","25","75","3","9","10","40","30","120","5","19","[""White""]","No","Female","2123854","null","","null","","","clear_screen","","","","","","","","","","","","","","","","","","","","","","","","",""
"","","","","","canvas-keyboard-response","43","198199","0.0-13.0-0.6","2d_cat_multi_stim_exp1","2022-3-31","10:40:58","25","75","3","9","10","40","30","120","5","19","[""White""]","No","Female","2123854","null","","null","","","fixation","","","","","","","","","","","","","","","","","","","","","","","","",""
"","","","","","canvas-keyboard-response","44","198711","0.0-13.0-1.6","2d_cat_multi_stim_exp1","2022-3-31","10:40:58","25","75","3","9","10","40","30","120","5","19","[""White""]","No","Female","2123854","null","","null","","","clear_screen","","","","","","","","","","","","","","","","","","","","","","","","",""
"","","","","","canvas-keyboard-response","45","200285","0.0-13.0-2.6","2d_cat_multi_stim_exp1","2022-3-31","10:40:58","25","75","3","9","10","40","30","120","5","19","[""White""]","No","Female","2123854","1565","","u","learn","","learn_trial","33.3333","50","out","1","0","","","","","","","","","","","","","","","","","","","",""
"","","","","","canvas-keyboard-response","46","201296","0.0-13.0-3.6","2d_cat_multi_stim_exp1","2022-3-31","10:40:58","25","75","3","9","10","40","30","120","5","19","[""White""]","No","Female","2123854","null","","null","learn_feedback","","learn_feedback","33.3333","50","out","","","","","","","","","","","","","","","","","","","","","",""
"","","","","","canvas-keyboard-response","47","201355","0.0-13.0-4.6","2d_cat_multi_stim_exp1","2022-3-31","10:40:58","25","75","3","9","10","40","30","120","5","19","[""White""]","No","Female","2123854","null","","null","","","clear_screen","","","","","","","","","","","","","","","","","","","","","","","","",""
"","","","","","canvas-keyboard-response","48","201867","0.0-13.0-0.7","2d_cat_multi_stim_exp1","2022-3-31","10:40:58","25","75","3","9","10","40","30","120","5","19","[""White""]","No","Female","2123854","null","","null","","","fixation","","","","","","","","","","","","","","","","","","","","","","","","",""
"","","","","","canvas-keyboard-response","49","202381","0.0-13.0-1.7","2d_cat_multi_stim_exp1","2022-3-31","10:40:58","25","75","3","9","10","40","30","120","5","19","[""White""]","No","Female","2123854","null","","null","","","clear_screen","","","","","","","","","","","","","","","","","","","","","","","","",""
"","","","","","canvas-keyboard-response","50","203725","0.0-13.0-2.7","2d_cat_multi_stim_exp1","2022-3-31","10:40:58","25","75","3","9","10","40","30","120","5","19","[""White""]","No","Female","2123854","1335","","i","learn","","learn_trial","25","93","in","0","0","","","","","","","","","","","","","","","","","","","",""
"","","","","","canvas-keyboard-response","51","204736","0.0-13.0-3.7","2d_cat_multi_stim_exp1","2022-3-31","10:40:58","25","75","3","9","10","40","30","120","5","19","[""White""]","No","Female","2123854","null","","null","learn_feedback","","learn_feedback","25","93","in","","","","","","","","","","","","","","","","","","","","","",""
"","","","","","canvas-keyboard-response","52","204795","0.0-13.0-4.7","2d_cat_multi_stim_exp1","2022-3-31","10:40:58","25","75","3","9","10","40","30","120","5","19","[""White""]","No","Female","2123854","null","","null","","","clear_screen","","","","","","","","","","","","","","","","","","","","","","","","",""
"","","","","","canvas-keyboard-response","53","205303","0.0-13.0-0.8","2d_cat_multi_stim_exp1","2022-3-31","10:40:58","25","75","3","9","10","40","30","120","5","19","[""White""]","No","Female","2123854","null","","null","","","fixation","","","","","","","","","","","","","","","","","","","","","","","","",""
"","","","","","canvas-keyboard-response","54","205814","0.0-13.0-1.8","2d_cat_multi_stim_exp1","2022-3-31","10:40:58","25","75","3","9","10","40","30","120","5","19","[""White""]","No","Female","2123854","null","","null","","","clear_screen","","","","","","","","","","","","","","","","","","","","","","","","",""
"","","","","","canvas-keyboard-response","55","207950","0.0-13.0-2.8","2d_cat_multi_stim_exp1","2022-3-31","10:40:58","25","75","3","9","10","40","30","120","5","19","[""White""]","No","Female","2123854","2123","","i","learn","","learn_trial","25","75","in","0","0","","","","","","","","","","","","","","","","","","","",""
"","","","","","canvas-keyboard-response","56","208960","0.0-13.0-3.8","2d_cat_multi_stim_exp1","2022-3-31","10:40:58","25","75","3","9","10","40","30","120","5","19","[""White""]","No","Female","2123854","null","","null","learn_feedback","","learn_feedback","25","75","in","","","","","","","","","","","","","","","","","","","","","",""
"","","","","","canvas-keyboard-response","57","209018","0.0-13.0-4.8","2d_cat_multi_stim_exp1","2022-3-31","10:40:58","25","75","3","9","10","40","30","120","5","19","[""White""]","No","Female","2123854","null","","null","","","clear_screen","","","","","","","","","","","","","","","","","","","","","","","","",""
"","","","","","canvas-keyboard-response","58","209529","0.0-13.0-0.9","2d_cat_multi_stim_exp1","2022-3-31","10:40:58","25","75","3","9","10","40","30","120","5","19","[""White""]","No","Female","2123854","null","","null","","","fixation","","","","","","","","","","","","","","","","","","","","","","","","",""
"","","","","","canvas-keyboard-response","59","210041","0.0-13.0-1.9","2d_cat_multi_stim_exp1","2022-3-31","10:40:58","25","75","3","9","10","40","30","120","5","19","[""White""]","No","Female","2123854","null","","null","","","clear_screen","","","","","","","","","","","","","","","","","","","","","","","","",""
"","","","","","canvas-keyboard-response","60","211245","0.0-13.0-2.9","2d_cat_multi_stim_exp1","2022-3-31","10:40:58","25","75","3","9","10","40","30","120","5","19","[""White""]","No","Female","2123854","1194","","i","learn","","learn_trial","25.4027","66.0815","in","0","0","","","","","","","","","","","","","","","","","","","",""
"","","","","","canvas-keyboard-response","61","212256","0.0-13.0-3.9","2d_cat_multi_stim_exp1","2022-3-31","10:40:58","25","75","3","9","10","40","30","120","5","19","[""White""]","No","Female","2123854","null","","null","learn_feedback","","learn_feedback","25.4027","66.0815","in","","","","","","","","","","","","","","","","","","","","","",""
"","","","","","canvas-keyboard-response","62","212317","0.0-13.0-4.9","2d_cat_multi_stim_exp1","2022-3-31","10:40:58","25","75","3","9","10","40","30","120","5","19","[""White""]","No","Female","2123854","null","","null","","","clear_screen","","","","","","","","","","","","","","","","","","","","","","","","",""
"","","","","","canvas-keyboard-response","63","212827","0.0-13.0-0.10","2d_cat_multi_stim_exp1","2022-3-31","10:40:58","25","75","3","9","10","40","30","120","5","19","[""White""]","No","Female","2123854","null","","null","","","fixation","","","","","","","","","","","","","","","","","","","","","","","","",""
"","","","","","canvas-keyboard-response","64","213339","0.0-13.0-1.10","2d_cat_multi_stim_exp1","2022-3-31","10:40:58","25","75","3","9","10","40","30","120","5","19","[""White""]","No","Female","2123854","null","","null","","","clear_screen","","","","","","","","","","","","","","","","","","","","","","","","",""
"","","","","","canvas-keyboard-response","65","214310","0.0-13.0-2.10","2d_cat_multi_stim_exp1","2022-3-31","10:40:58","25","75","3","9","10","40","30","120","5","19","[""White""]","No","Female","2123854","959","","i","learn","","learn_trial","13.3333","60","out","0","1","","","","","","","","","","","","","","","","","","","",""
"","","","","","canvas-keyboard-response","66","214820","0.0-13.0-3.10","2d_cat_multi_stim_exp1","2022-3-31","10:40:58","25","75","3","9","10","40","30","120","5","19","[""White""]","No","Female","2123854","null","","null","learn_feedback","","learn_feedback","13.3333","60","out","","","","","","","","","","","","","","","","","","","","","",""
"","","","","","canvas-keyboard-response","67","214882","0.0-13.0-4.10","2d_cat_multi_stim_exp1","2022-3-31","10:40:58","25","75","3","9","10","40","30","120","5","19","[""White""]","No","Female","2123854","null","","null","","","clear_screen","","","","","","","","","","","","","","","","","","","","","","","","",""
"","","","","","canvas-keyboard-response","68","215388","0.0-13.0-0.11","2d_cat_multi_stim_exp1","2022-3-31","10:40:58","25","75","3","9","10","40","30","120","5","19","[""White""]","No","Female","2123854","null","","null","","","fixation","","","","","","","","","","","","","","","","","","","","","","","","",""
"","","","","","canvas-keyboard-response","69","215902","0.0-13.0-1.11","2d_cat_multi_stim_exp1","2022-3-31","10:40:58","25","75","3","9","10","40","30","120","5","19","[""White""]","No","Female","2123854","null","","null","","","clear_screen","","","","","","","","","","","","","","","","","","","","","","","","",""
"","","","","","canvas-keyboard-response","70","217189","0.0-13.0-2.11","2d_cat_multi_stim_exp1","2022-3-31","10:40:58","25","75","3","9","10","40","30","120","5","19","[""White""]","No","Female","2123854","1277","","u","learn","","learn_trial","25","75","in","1","1","","","","","","","","","","","","","","","","","","","",""
"","","","","","canvas-keyboard-response","71","217700","0.0-13.0-3.11","2d_cat_multi_stim_exp1","2022-3-31","10:40:58","25","75","3","9","10","40","30","120","5","19","[""White""]","No","Female","2123854","null","","null","learn_feedback","","learn_feedback","25","75","in","","","","","","","","","","","","","","","","","","","","","",""
"","","","","","canvas-keyboard-response","72","217759","0.0-13.0-4.11","2d_cat_multi_stim_exp1","2022-3-31","10:40:58","25","75","3","9","10","40","30","120","5","19","[""White""]","No","Female","2123854","null","","null","","","clear_screen","","","","","","","","","","","","","","","","","","","","","","","","",""
"","","","","","canvas-keyboard-response","73","218268","0.0-13.0-0.12","2d_cat_multi_stim_exp1","2022-3-31","10:40:58","25","75","3","9","10","40","30","120","5","19","[""White""]","No","Female","2123854","null","","null","","","fixation","","","","","","","","","","","","","","","","","","","","","","","","",""
"","","","","","canvas-keyboard-response","74","218781","0.0-13.0-1.12","2d_cat_multi_stim_exp1","2022-3-31","10:40:58","25","75","3","9","10","40","30","120","5","19","[""White""]","No","Female","2123854","null","","null","","","clear_screen","","","","","","","","","","","","","","","","","","","","","","","","",""
"","","","","","canvas-keyboard-response","75","219926","0.0-13.0-2.12","2d_cat_multi_stim_exp1","2022-3-31","10:40:58","25","75","3","9","10","40","30","120","5","19","[""White""]","No","Female","2123854","1133","","i","learn","","learn_trial","40","40","out","0","1","","","","","","","","","","","","","","","","","","","",""
"","","","","","canvas-keyboard-response","76","220436","0.0-13.0-3.12","2d_cat_multi_stim_exp1","2022-3-31","10:40:58","25","75","3","9","10","40","30","120","5","19","[""White""]","No","Female","2123854","null","","null","learn_feedback","","learn_feedback","40","40","out","","","","","","","","","","","","","","","","","","","","","",""
"","","","","","canvas-keyboard-response","77","220497","0.0-13.0-4.12","2d_cat_multi_stim_exp1","2022-3-31","10:40:58","25","75","3","9","10","40","30","120","5","19","[""White""]","No","Female","2123854","null","","null","","","clear_screen","","","","","","","","","","","","","","","","","","","","","","","","",""
"","","","","","canvas-keyboard-response","78","221006","0.0-13.0-0.13","2d_cat_multi_stim_exp1","2022-3-31","10:40:58","25","75","3","9","10","40","30","120","5","19","[""White""]","No","Female","2123854","null","","null","","","fixation","","","","","","","","","","","","","","","","","","","","","","","","",""
"","","","","","canvas-keyboard-response","79","221520","0.0-13.0-1.13","2d_cat_multi_stim_exp1","2022-3-31","10:40:58","25","75","3","9","10","40","30","120","5","19","[""White""]","No","Female","2123854","null","","null","","","clear_screen","","","","","","","","","","","","","","","","","","","","","","","","",""
"","","","","","canvas-keyboard-response","80","223142","0.0-13.0-2.13","2d_cat_multi_stim_exp1","2022-3-31","10:40:58","25","75","3","9","10","40","30","120","5","19","[""White""]","No","Female","2123854","1612","","i","learn","","learn_trial","23.3333","30","out","0","1","","","","","","","","","","","","","","","","","","","",""
"","","","","","canvas-keyboard-response","81","223652","0.0-13.0-3.13","2d_cat_multi_stim_exp1","2022-3-31","10:40:58","25","75","3","9","10","40","30","120","5","19","[""White""]","No","Female","2123854","null","","null","learn_feedback","","learn_feedback","23.3333","30","out","","","","","","","","","","","","","","","","","","","","","",""
"","","","","","canvas-keyboard-response","82","223715","0.0-13.0-4.13","2d_cat_multi_stim_exp1","2022-3-31","10:40:58","25","75","3","9","10","40","30","120","5","19","[""White""]","No","Female","2123854","null","","null","","","clear_screen","","","","","","","","","","","","","","","","","","","","","","","","",""
"","","","","","canvas-keyboard-response","83","224223","0.0-13.0-0.14","2d_cat_multi_stim_exp1","2022-3-31","10:40:58","25","75","3","9","10","40","30","120","5","19","[""White""]","No","Female","2123854","null","","null","","","fixation","","","","","","","","","","","","","","","","","","","","","","","","",""
"","","","","","canvas-keyboard-response","84","224734","0.0-13.0-1.14","2d_cat_multi_stim_exp1","2022-3-31","10:40:58","25","75","3","9","10","40","30","120","5","19","[""White""]","No","Female","2123854","null","","null","","","clear_screen","","","","","","","","","","","","","","","","","","","","","","","","",""
"","","","","","canvas-keyboard-response","85","225774","0.0-13.0-2.14","2d_cat_multi_stim_exp1","2022-3-31","10:40:58","25","75","3","9","10","40","30","120","5","19","[""White""]","No","Female","2123854","1032","","i","learn","","learn_trial","20","120","out","0","1","","","","","","","","","","","","","","","","","","","",""
"","","","","","canvas-keyboard-response","86","226282","0.0-13.0-3.14","2d_cat_multi_stim_exp1","2022-3-31","10:40:58","25","75","3","9","10","40","30","120","5","19","[""White""]","No","Female","2123854","null","","null","learn_feedback","","learn_feedback","20","120","out","","","","","","","","","","","","","","","","","","","","","",""
"","","","","","canvas-keyboard-response","87","226341","0.0-13.0-4.14","2d_cat_multi_stim_exp1","2022-3-31","10:40:58","25","75","3","9","10","40","30","120","5","19","[""White""]","No","Female","2123854","null","","null","","","clear_screen","","","","","","","","","","","","","","","","","","","","","","","","",""
"","","","","","canvas-keyboard-response","88","226850","0.0-13.0-0.15","2d_cat_multi_stim_exp1","2022-3-31","10:40:58","25","75","3","9","10","40","30","120","5","19","[""White""]","No","Female","2123854","null","","null","","","fixation","","","","","","","","","","","","","","","","","","","","","","","","",""
"","","","","","canvas-keyboard-response","89","227359","0.0-13.0-1.15","2d_cat_multi_stim_exp1","2022-3-31","10:40:58","25","75","3","9","10","40","30","120","5","19","[""White""]","No","Female","2123854","null","","null","","","clear_screen","","","","","","","","","","","","","","","","","","","","","","","","",""
"","","","","","canvas-keyboard-response","90","229245","0.0-13.0-2.15","2d_cat_multi_stim_exp1","2022-3-31","10:40:58","25","75","3","9","10","40","30","120","5","19","[""White""]","No","Female","2123854","1876","","i","learn","","learn_trial","20.7574","62.2721","in","0","0","","","","","","","","","","","","","","","","","","","",""
"","","","","","canvas-keyboard-response","91","230256","0.0-13.0-3.15","2d_cat_multi_stim_exp1","2022-3-31","10:40:58","25","75","3","9","10","40","30","120","5","19","[""White""]","No","Female","2123854","null","","null","learn_feedback","","learn_feedback","20.7574","62.2721","in","","","","","","","","","","","","","","","","","","","","","",""
"","","","","","canvas-keyboard-response","92","230318","0.0-13.0-4.15","2d_cat_multi_stim_exp1","2022-3-31","10:40:58","25","75","3","9","10","40","30","120","5","19","[""White""]","No","Female","2123854","null","","null","","","clear_screen","","","","","","","","","","","","","","","","","","","","","","","","",""
"","","","","","canvas-keyboard-response","93","230828","0.0-13.0-0.16","2d_cat_multi_stim_exp1","2022-3-31","10:40:58","25","75","3","9","10","40","30","120","5","19","[""White""]","No","Female","2123854","null","","null","","","fixation","","","","","","","","","","","","","","","","","","","","","","","","",""
"","","","","","canvas-keyboard-response","94","231341","0.0-13.0-1.16","2d_cat_multi_stim_exp1","2022-3-31","10:40:58","25","75","3","9","10","40","30","120","5","19","[""White""]","No","Female","2123854","null","","null","","","clear_screen","","","","","","","","","","","","","","","","","","","","","","","","",""
"","","","","","canvas-keyboard-response","95","232526","0.0-13.0-2.16","2d_cat_multi_stim_exp1","2022-3-31","10:40:58","25","75","3","9","10","40","30","120","5","19","[""White""]","No","Female","2123854","1176","","i","learn","","learn_trial","26.6667","120","out","0","1","","","","","","","","","","","","","","","","","","","",""
"","","","","","canvas-keyboard-response","96","233034","0.0-13.0-3.16","2d_cat_multi_stim_exp1","2022-3-31","10:40:58","25","75","3","9","10","40","30","120","5","19","[""White""]","No","Female","2123854","null","","null","learn_feedback","","learn_feedback","26.6667","120","out","","","","","","","","","","","","","","","","","","","","","",""
"","","","","","canvas-keyboard-response","97","233093","0.0-13.0-4.16","2d_cat_multi_stim_exp1","2022-3-31","10:40:58","25","75","3","9","10","40","30","120","5","19","[""White""]","No","Female","2123854","null","","null","","","clear_screen","","","","","","","","","","","","","","","","","","","","","","","","",""
"","","","","","canvas-keyboard-response","98","233601","0.0-13.0-0.17","2d_cat_multi_stim_exp1","2022-3-31","10:40:58","25","75","3","9","10","40","30","120","5","19","[""White""]","No","Female","2123854","null","","null","","","fixation","","","","","","","","","","","","","","","","","","","","","","","","",""
"","","","","","canvas-keyboard-response","99","234113","0.0-13.0-1.17","2d_cat_multi_stim_exp1","2022-3-31","10:40:58","25","75","3","9","10","40","30","120","5","19","[""White""]","No","Female","2123854","null","","null","","","clear_screen","","","","","","","","","","","","","","","","","","","","","","","","",""
"","","","","","canvas-keyboard-response","100","234926","0.0-13.0-2.17","2d_cat_multi_stim_exp1","2022-3-31","10:40:58","25","75","3","9","10","40","30","120","5","19","[""White""]","No","Female","2123854","805","","i","learn","","learn_trial","16.6667","110","out","0","1","","","","","","","","","","","","","","","","","","","",""
"","","","","","canvas-keyboard-response","101","235436","0.0-13.0-3.17","2d_cat_multi_stim_exp1","2022-3-31","10:40:58","25","75","3","9","10","40","30","120","5","19","[""White""]","No","Female","2123854","null","","null","learn_feedback","","learn_feedback","16.6667","110","out","","","","","","","","","","","","","","","","","","","","","",""
"","","","","","canvas-keyboard-response","102","235496","0.0-13.0-4.17","2d_cat_multi_stim_exp1","2022-3-31","10:40:58","25","75","3","9","10","40","30","120","5","19","[""White""]","No","Female","2123854","null","","null","","","clear_screen","","","","","","","","","","","","","","","","","","","","","","","","",""
"","","","","","canvas-keyboard-response","103","236004","0.0-13.0-0.18","2d_cat_multi_stim_exp1","2022-3-31","10:40:58","25","75","3","9","10","40","30","120","5","19","[""White""]","No","Female","2123854","null","","null","","","fixation","","","","","","","","","","","","","","","","","","","","","","","","",""
"","","","","","canvas-keyboard-response","104","236514","0.0-13.0-1.18","2d_cat_multi_stim_exp1","2022-3-31","10:40:58","25","75","3","9","10","40","30","120","5","19","[""White""]","No","Female","2123854","null","","null","","","clear_screen","","","","","","","","","","","","","","","","","","","","","","","","",""
"","","","","","canvas-keyboard-response","105","238349","0.0-13.0-2.18","2d_cat_multi_stim_exp1","2022-3-31","10:40:58","25","75","3","9","10","40","30","120","5","19","[""White""]","No","Female","2123854","1827","","i","learn","","learn_trial","13.3333","100","out","0","1","","","","","","","","","","","","","","","","","","","",""
"","","","","","canvas-keyboard-response","106","238860","0.0-13.0-3.18","2d_cat_multi_stim_exp1","2022-3-31","10:40:58","25","75","3","9","10","40","30","120","5","19","[""White""]","No","Female","2123854","null","","null","learn_feedback","","learn_feedback","13.3333","100","out","","","","","","","","","","","","","","","","","","","","","",""
"","","","","","canvas-keyboard-response","107","238919","0.0-13.0-4.18","2d_cat_multi_stim_exp1","2022-3-31","10:40:58","25","75","3","9","10","40","30","120","5","19","[""White""]","No","Female","2123854","null","","null","","","clear_screen","","","","","","","","","","","","","","","","","","","","","","","","",""
"","","","","","canvas-keyboard-response","108","239428","0.0-13.0-0.19","2d_cat_multi_stim_exp1","2022-3-31","10:40:58","25","75","3","9","10","40","30","120","5","19","[""White""]","No","Female","2123854","null","","null","","","fixation","","","","","","","","","","","","","","","","","","","","","","","","",""
"","","","","","canvas-keyboard-response","109","239939","0.0-13.0-1.19","2d_cat_multi_stim_exp1","2022-3-31","10:40:58","25","75","3","9","10","40","30","120","5","19","[""White""]","No","Female","2123854","null","","null","","","clear_screen","","","","","","","","","","","","","","","","","","","","","","","","",""
"","","","","","canvas-keyboard-response","110","240839","0.0-13.0-2.19","2d_cat_multi_stim_exp1","2022-3-31","10:40:58","25","75","3","9","10","40","30","120","5","19","[""White""]","No","Female","2123854","888","","i","learn","","learn_trial","25","75","in","0","0","","","","","","","","","","","","","","","","","","","",""
"","","","","","canvas-keyboard-response","111","241850","0.0-13.0-3.19","2d_cat_multi_stim_exp1","2022-3-31","10:40:58","25","75","3","9","10","40","30","120","5","19","[""White""]","No","Female","2123854","null","","null","learn_feedback","","learn_feedback","25","75","in","","","","","","","","","","","","","","","","","","","","","",""
"","","","","","canvas-keyboard-response","112","241909","0.0-13.0-4.19","2d_cat_multi_stim_exp1","2022-3-31","10:40:58","25","75","3","9","10","40","30","120","5","19","[""White""]","No","Female","2123854","null","","null","","","clear_screen","","","","","","","","","","","","","","","","","","","","","","","","",""
"","","","","","canvas-keyboard-response","113","242418","0.0-13.0-0.20","2d_cat_multi_stim_exp1","2022-3-31","10:40:58","25","75","3","9","10","40","30","120","5","19","[""White""]","No","Female","2123854","null","","null","","","fixation","","","","","","","","","","","","","","","","","","","","","","","","",""
"","","","","","canvas-keyboard-response","114","242928","0.0-13.0-1.20","2d_cat_multi_stim_exp1","2022-3-31","10:40:58","25","75","3","9","10","40","30","120","5","19","[""White""]","No","Female","2123854","null","","null","","","clear_screen","","","","","","","","","","","","","","","","","","","","","","","","",""
"","","","","","canvas-keyboard-response","115","244470","0.0-13.0-2.20","2d_cat_multi_stim_exp1","2022-3-31","10:40:58","25","75","3","9","10","40","30","120","5","19","[""White""]","No","Female","2123854","1534","","u","learn","","learn_trial","22.2971","78.905","in","1","1","","","","","","","","","","","","","","","","","","","",""
"","","","","","canvas-keyboard-response","116","244979","0.0-13.0-3.20","2d_cat_multi_stim_exp1","2022-3-31","10:40:58","25","75","3","9","10","40","30","120","5","19","[""White""]","No","Female","2123854","null","","null","learn_feedback","","learn_feedback","22.2971","78.905","in","","","","","","","","","","","","","","","","","","","","","",""
"","","","","","canvas-keyboard-response","117","245039","0.0-13.0-4.20","2d_cat_multi_stim_exp1","2022-3-31","10:40:58","25","75","3","9","10","40","30","120","5","19","[""White""]","No","Female","2123854","null","","null","","","clear_screen","","","","","","","","","","","","","","","","","","","","","","","","",""
"","","","","","canvas-keyboard-response","118","245548","0.0-13.0-0.21","2d_cat_multi_stim_exp1","2022-3-31","10:40:58","25","75","3","9","10","40","30","120","5","19","[""White""]","No","Female","2123854","null","","null","","","fixation","","","","","","","","","","","","","","","","","","","","","","","","",""
"","","","","","canvas-keyboard-response","119","246065","0.0-13.0-1.21","2d_cat_multi_stim_exp1","2022-3-31","10:40:58","25","75","3","9","10","40","30","120","5","19","[""White""]","No","Female","2123854","null","","null","","","clear_screen","","","","","","","","","","","","","","","","","","","","","","","","",""
"","","","","","canvas-keyboard-response","120","247446","0.0-13.0-2.21","2d_cat_multi_stim_exp1","2022-3-31","10:40:58","25","75","3","9","10","40","30","120","5","19","[""White""]","No","Female","2123854","1367","","i","learn","","learn_trial","25","75","in","0","0","","","","","","","","","","","","","","","","","","","",""
"","","","","","canvas-keyboard-response","121","248458","0.0-13.0-3.21","2d_cat_multi_stim_exp1","2022-3-31","10:40:58","25","75","3","9","10","40","30","120","5","19","[""White""]","No","Female","2123854","null","","null","learn_feedback","","learn_feedback","25","75","in","","","","","","","","","","","","","","","","","","","","","",""
"","","","","","canvas-keyboard-response","122","248518","0.0-13.0-4.21","2d_cat_multi_stim_exp1","2022-3-31","10:40:58","25","75","3","9","10","40","30","120","5","19","[""White""]","No","Female","2123854","null","","null","","","clear_screen","","","","","","","","","","","","","","","","","","","","","","","","",""
"","","","","","canvas-keyboard-response","123","249027","0.0-13.0-0.22","2d_cat_multi_stim_exp1","2022-3-31","10:40:58","25","75","3","9","10","40","30","120","5","19","[""White""]","No","Female","2123854","null","","null","","","fixation","","","","","","","","","","","","","","","","","","","","","","","","",""
"","","","","","canvas-keyboard-response","124","249541","0.0-13.0-1.22","2d_cat_multi_stim_exp1","2022-3-31","10:40:58","25","75","3","9","10","40","30","120","5","19","[""White""]","No","Female","2123854","null","","null","","","clear_screen","","","","","","","","","","","","","","","","","","","","","","","","",""
"","","","","","canvas-keyboard-response","125","250574","0.0-13.0-2.22","2d_cat_multi_stim_exp1","2022-3-31","10:40:58","25","75","3","9","10","40","30","120","5","19","[""White""]","No","Female","2123854","1023","","i","learn","","learn_trial","23.3333","60","out","0","1","","","","","","","","","","","","","","","","","","","",""
"","","","","","canvas-keyboard-response","126","251084","0.0-13.0-3.22","2d_cat_multi_stim_exp1","2022-3-31","10:40:58","25","75","3","9","10","40","30","120","5","19","[""White""]","No","Female","2123854","null","","null","learn_feedback","","learn_feedback","23.3333","60","out","","","","","","","","","","","","","","","","","","","","","",""
"","","","","","canvas-keyboard-response","127","251145","0.0-13.0-4.22","2d_cat_multi_stim_exp1","2022-3-31","10:40:58","25","75","3","9","10","40","30","120","5","19","[""White""]","No","Female","2123854","null","","null","","","clear_screen","","","","","","","","","","","","","","","","","","","","","","","","",""
"","","","","","canvas-keyboard-response","128","251654","0.0-13.0-0.23","2d_cat_multi_stim_exp1","2022-3-31","10:40:58","25","75","3","9","10","40","30","120","5","19","[""White""]","No","Female","2123854","null","","null","","","fixation","","","","","","","","","","","","","","","","","","","","","","","","",""
"","","","","","canvas-keyboard-response","129","252165","0.0-13.0-1.23","2d_cat_multi_stim_exp1","2022-3-31","10:40:58","25","75","3","9","10","40","30","120","5","19","[""White""]","No","Female","2123854","null","","null","","","clear_screen","","","","","","","","","","","","","","","","","","","","","","","","",""
"","","","","","canvas-keyboard-response","130","254462","0.0-13.0-2.23","2d_cat_multi_stim_exp1","2022-3-31","10:40:58","25","75","3","9","10","40","30","120","5","19","[""White""]","No","Female","2123854","2288","","u","learn","","learn_trial","16.6667","80","out","1","0","","","","","","","","","","","","","","","","","","","",""
"","","","","","canvas-keyboard-response","131","255470","0.0-13.0-3.23","2d_cat_multi_stim_exp1","2022-3-31","10:40:58","25","75","3","9","10","40","30","120","5","19","[""White""]","No","Female","2123854","null","","null","learn_feedback","","learn_feedback","16.6667","80","out","","","","","","","","","","","","","","","","","","","","","",""
"","","","","","canvas-keyboard-response","132","255530","0.0-13.0-4.23","2d_cat_multi_stim_exp1","2022-3-31","10:40:58","25","75","3","9","10","40","30","120","5","19","[""White""]","No","Female","2123854","null","","null","","","clear_screen","","","","","","","","","","","","","","","","","","","","","","","","",""
"","","","","","canvas-keyboard-response","133","256039","0.0-13.0-0.24","2d_cat_multi_stim_exp1","2022-3-31","10:40:58","25","75","3","9","10","40","30","120","5","19","[""White""]","No","Female","2123854","null","","null","","","fixation","","","","","","","","","","","","","","","","","","","","","","","","",""
"","","","","","canvas-keyboard-response","134","256550","0.0-13.0-1.24","2d_cat_multi_stim_exp1","2022-3-31","10:40:58","25","75","3","9","10","40","30","120","5","19","[""White""]","No","Female","2123854","null","","null","","","clear_screen","","","","","","","","","","","","","","","","","","","","","","","","",""
"","","","","","canvas-keyboard-response","135","258206","0.0-13.0-2.24","2d_cat_multi_stim_exp1","2022-3-31","10:40:58","25","75","3","9","10","40","30","120","5","19","[""White""]","No","Female","2123854","1646","","i","learn","","learn_trial","16.6667","60","out","0","1","","","","","","","","","","","","","","","","","","","",""
"","","","","","canvas-keyboard-response","136","258716","0.0-13.0-3.24","2d_cat_multi_stim_exp1","2022-3-31","10:40:58","25","75","3","9","10","40","30","120","5","19","[""White""]","No","Female","2123854","null","","null","learn_feedback","","learn_feedback","16.6667","60","out","","","","","","","","","","","","","","","","","","","","","",""
"","","","","","canvas-keyboard-response","137","258778","0.0-13.0-4.24","2d_cat_multi_stim_exp1","2022-3-31","10:40:58","25","75","3","9","10","40","30","120","5","19","[""White""]","No","Female","2123854","null","","null","","","clear_screen","","","","","","","","","","","","","","","","","","","","","","","","",""
"","","","","","canvas-keyboard-response","138","259288","0.0-13.0-0.25","2d_cat_multi_stim_exp1","2022-3-31","10:40:58","25","75","3","9","10","40","30","120","5","19","[""White""]","No","Female","2123854","null","","null","","","fixation","","","","","","","","","","","","","","","","","","","","","","","","",""
"","","","","","canvas-keyboard-response","139","259799","0.0-13.0-1.25","2d_cat_multi_stim_exp1","2022-3-31","10:40:58","25","75","3","9","10","40","30","120","5","19","[""White""]","No","Female","2123854","null","","null","","","clear_screen","","","","","","","","","","","","","","","","","","","","","","","","",""
"","","","","","canvas-keyboard-response","140","261158","0.0-13.0-2.25","2d_cat_multi_stim_exp1","2022-3-31","10:40:58","25","75","3","9","10","40","30","120","5","19","[""White""]","No","Female","2123854","1350","","u","learn","","learn_trial","20.7574","87.7279","in","1","1","","","","","","","","","","","","","","","","","","","",""
"","","","","","canvas-keyboard-response","141","261668","0.0-13.0-3.25","2d_cat_multi_stim_exp1","2022-3-31","10:40:58","25","75","3","9","10","40","30","120","5","19","[""White""]","No","Female","2123854","null","","null","learn_feedback","","learn_feedback","20.7574","87.7279","in","","","","","","","","","","","","","","","","","","","","","",""
"","","","","","canvas-keyboard-response","142","261730","0.0-13.0-4.25","2d_cat_multi_stim_exp1","2022-3-31","10:40:58","25","75","3","9","10","40","30","120","5","19","[""White""]","No","Female","2123854","null","","null","","","clear_screen","","","","","","","","","","","","","","","","","","","","","","","","",""
"","","","","","canvas-keyboard-response","143","262240","0.0-13.0-0.26","2d_cat_multi_stim_exp1","2022-3-31","10:40:58","25","75","3","9","10","40","30","120","5","19","[""White""]","No","Female","2123854","null","","null","","","fixation","","","","","","","","","","","","","","","","","","","","","","","","",""
"","","","","","canvas-keyboard-response","144","262751","0.0-13.0-1.26","2d_cat_multi_stim_exp1","2022-3-31","10:40:58","25","75","3","9","10","40","30","120","5","19","[""White""]","No","Female","2123854","null","","null","","","clear_screen","","","","","","","","","","","","","","","","","","","","","","","","",""
"","","","","","canvas-keyboard-response","145","264172","0.0-13.0-2.26","2d_cat_multi_stim_exp1","2022-3-31","10:40:58","25","75","3","9","10","40","30","120","5","19","[""White""]","No","Female","2123854","1411","","u","learn","","learn_trial","22.1081","72.6057","in","1","1","","","","","","","","","","","","","","","","","","","",""
"","","","","","canvas-keyboard-response","146","264679","0.0-13.0-3.26","2d_cat_multi_stim_exp1","2022-3-31","10:40:58","25","75","3","9","10","40","30","120","5","19","[""White""]","No","Female","2123854","null","","null","learn_feedback","","learn_feedback","22.1081","72.6057","in","","","","","","","","","","","","","","","","","","","","","",""
"","","","","","canvas-keyboard-response","147","264738","0.0-13.0-4.26","2d_cat_multi_stim_exp1","2022-3-31","10:40:58","25","75","3","9","10","40","30","120","5","19","[""White""]","No","Female","2123854","null","","null","","","clear_screen","","","","","","","","","","","","","","","","","","","","","","","","",""
"","","","","","canvas-keyboard-response","148","265250","0.0-13.0-0.27","2d_cat_multi_stim_exp1","2022-3-31","10:40:58","25","75","3","9","10","40","30","120","5","19","[""White""]","No","Female","2123854","null","","null","","","fixation","","","","","","","","","","","","","","","","","","","","","","","","",""
"","","","","","canvas-keyboard-response","149","265761","0.0-13.0-1.27","2d_cat_multi_stim_exp1","2022-3-31","10:40:58","25","75","3","9","10","40","30","120","5","19","[""White""]","No","Female","2123854","null","","null","","","clear_screen","","","","","","","","","","","","","","","","","","","","","","","","",""
"","","","","","canvas-keyboard-response","150","266605","0.0-13.0-2.27","2d_cat_multi_stim_exp1","2022-3-31","10:40:58","25","75","3","9","10","40","30","120","5","19","[""White""]","No","Female","2123854","833","","u","learn","","learn_trial","22.9268","68.4948","in","1","1","","","","","","","","","","","","","","","","","","","",""
"","","","","","canvas-keyboard-response","151","267114","0.0-13.0-3.27","2d_cat_multi_stim_exp1","2022-3-31","10:40:58","25","75","3","9","10","40","30","120","5","19","[""White""]","No","Female","2123854","null","","null","learn_feedback","","learn_feedback","22.9268","68.4948","in","","","","","","","","","","","","","","","","","","","","","",""
"","","","","","canvas-keyboard-response","152","267177","0.0-13.0-4.27","2d_cat_multi_stim_exp1","2022-3-31","10:40:58","25","75","3","9","10","40","30","120","5","19","[""White""]","No","Female","2123854","null","","null","","","clear_screen","","","","","","","","","","","","","","","","","","","","","","","","",""
"","","","","","canvas-keyboard-response","153","267685","0.0-13.0-0.28","2d_cat_multi_stim_exp1","2022-3-31","10:40:58","25","75","3","9","10","40","30","120","5","19","[""White""]","No","Female","2123854","null","","null","","","fixation","","","","","","","","","","","","","","","","","","","","","","","","",""
"","","","","","canvas-keyboard-response","154","268198","0.0-13.0-1.28","2d_cat_multi_stim_exp1","2022-3-31","10:40:58","25","75","3","9","10","40","30","120","5","19","[""White""]","No","Female","2123854","null","","null","","","clear_screen","","","","","","","","","","","","","","","","","","","","","","","","",""
"","","","","","canvas-keyboard-response","155","269085","0.0-13.0-2.28","2d_cat_multi_stim_exp1","2022-3-31","10:40:58","25","75","3","9","10","40","30","120","5","19","[""White""]","No","Female","2123854","881","","i","learn","","learn_trial","29.2426","87.7279","in","0","0","","","","","","","","","","","","","","","","","","","",""
"","","","","","canvas-keyboard-response","156","270097","0.0-13.0-3.28","2d_cat_multi_stim_exp1","2022-3-31","10:40:58","25","75","3","9","10","40","30","120","5","19","[""White""]","No","Female","2123854","null","","null","learn_feedback","","learn_feedback","29.2426","87.7279","in","","","","","","","","","","","","","","","","","","","","","",""
"","","","","","canvas-keyboard-response","157","270160","0.0-13.0-4.28","2d_cat_multi_stim_exp1","2022-3-31","10:40:58","25","75","3","9","10","40","30","120","5","19","[""White""]","No","Female","2123854","null","","null","","","clear_screen","","","","","","","","","","","","","","","","","","","","","","","","",""
"","","","","","canvas-keyboard-response","158","270670","0.0-13.0-0.29","2d_cat_multi_stim_exp1","2022-3-31","10:40:58","25","75","3","9","10","40","30","120","5","19","[""White""]","No","Female","2123854","null","","null","","","fixation","","","","","","","","","","","","","","","","","","","","","","","","",""
"","","","","","canvas-keyboard-response","159","271181","0.0-13.0-1.29","2d_cat_multi_stim_exp1","2022-3-31","10:40:58","25","75","3","9","10","40","30","120","5","19","[""White""]","No","Female","2123854","null","","null","","","clear_screen","","","","","","","","","","","","","","","","","","","","","","","","",""
"","","","","","canvas-keyboard-response","160","273022","0.0-13.0-2.29","2d_cat_multi_stim_exp1","2022-3-31","10:40:58","25","75","3","9","10","40","30","120","5","19","[""White""]","No","Female","2123854","1832","","i","learn","","learn_trial","25","75","in","0","0","","","","","","","","","","","","","","","","","","","",""
"","","","","","canvas-keyboard-response","161","274030","0.0-13.0-3.29","2d_cat_multi_stim_exp1","2022-3-31","10:40:58","25","75","3","9","10","40","30","120","5","19","[""White""]","No","Female","2123854","null","","null","learn_feedback","","learn_feedback","25","75","in","","","","","","","","","","","","","","","","","","","","","",""
"","","","","","canvas-keyboard-response","162","274089","0.0-13.0-4.29","2d_cat_multi_stim_exp1","2022-3-31","10:40:58","25","75","3","9","10","40","30","120","5","19","[""White""]","No","Female","2123854","null","","null","","","clear_screen","","","","","","","","","","","","","","","","","","","","","","","","",""
"","","","","","canvas-keyboard-response","163","274598","0.0-13.0-0.30","2d_cat_multi_stim_exp1","2022-3-31","10:40:58","25","75","3","9","10","40","30","120","5","19","[""White""]","No","Female","2123854","null","","null","","","fixation","","","","","","","","","","","","","","","","","","","","","","","","",""
"","","","","","canvas-keyboard-response","164","275104","0.0-13.0-1.30","2d_cat_multi_stim_exp1","2022-3-31","10:40:58","25","75","3","9","10","40","30","120","5","19","[""White""]","No","Female","2123854","null","","null","","","clear_screen","","","","","","","","","","","","","","","","","","","","","","","","",""
"","","","","","canvas-keyboard-response","165","276190","0.0-13.0-2.30","2d_cat_multi_stim_exp1","2022-3-31","10:40:58","25","75","3","9","10","40","30","120","5","19","[""White""]","No","Female","2123854","1077","","i","learn","","learn_trial","26.4216","67.0746","in","0","0","","","","","","","","","","","","","","","","","","","",""
"","","","","","canvas-keyboard-response","166","277200","0.0-13.0-3.30","2d_cat_multi_stim_exp1","2022-3-31","10:40:58","25","75","3","9","10","40","30","120","5","19","[""White""]","No","Female","2123854","null","","null","learn_feedback","","learn_feedback","26.4216","67.0746","in","","","","","","","","","","","","","","","","","","","","","",""
"","","","","","canvas-keyboard-response","167","277266","0.0-13.0-4.30","2d_cat_multi_stim_exp1","2022-3-31","10:40:58","25","75","3","9","10","40","30","120","5","19","[""White""]","No","Female","2123854","null","","null","","","clear_screen","","","","","","","","","","","","","","","","","","","","","","","","",""
"","","","","","canvas-keyboard-response","168","277779","0.0-13.0-0.31","2d_cat_multi_stim_exp1","2022-3-31","10:40:58","25","75","3","9","10","40","30","120","5","19","[""White""]","No","Female","2123854","null","","null","","","fixation","","","","","","","","","","","","","","","","","","","","","","","","",""
"","","","","","canvas-keyboard-response","169","278293","0.0-13.0-1.31","2d_cat_multi_stim_exp1","2022-3-31","10:40:58","25","75","3","9","10","40","30","120","5","19","[""White""]","No","Female","2123854","null","","null","","","clear_screen","","","","","","","","","","","","","","","","","","","","","","","","",""
"","","","","","canvas-keyboard-response","170","280014","0.0-13.0-2.31","2d_cat_multi_stim_exp1","2022-3-31","10:40:58","25","75","3","9","10","40","30","120","5","19","[""White""]","No","Female","2123854","1710","","u","learn","","learn_trial","22.5729","80.2901","in","1","1","","","","","","","","","","","","","","","","","","","",""
"","","","","","canvas-keyboard-response","171","280523","0.0-13.0-3.31","2d_cat_multi_stim_exp1","2022-3-31","10:40:58","25","75","3","9","10","40","30","120","5","19","[""White""]","No","Female","2123854","null","","null","learn_feedback","","learn_feedback","22.5729","80.2901","in","","","","","","","","","","","","","","","","","","","","","",""
"","","","","","canvas-keyboard-response","172","280587","0.0-13.0-4.31","2d_cat_multi_stim_exp1","2022-3-31","10:40:58","25","75","3","9","10","40","30","120","5","19","[""White""]","No","Female","2123854","null","","null","","","clear_screen","","","","","","","","","","","","","","","","","","","","","","","","",""
"","","","","","canvas-keyboard-response","173","281096","0.0-13.0-0.32","2d_cat_multi_stim_exp1","2022-3-31","10:40:58","25","75","3","9","10","40","30","120","5","19","[""White""]","No","Female","2123854","null","","null","","","fixation","","","","","","","","","","","","","","","","","","","","","","","","",""
"","","","","","canvas-keyboard-response","174","281606","0.0-13.0-1.32","2d_cat_multi_stim_exp1","2022-3-31","10:40:58","25","75","3","9","10","40","30","120","5","19","[""White""]","No","Female","2123854","null","","null","","","clear_screen","","","","","","","","","","","","","","","","","","","","","","","","",""
"","","","","","canvas-keyboard-response","175","282918","0.0-13.0-2.32","2d_cat_multi_stim_exp1","2022-3-31","10:40:58","25","75","3","9","10","40","30","120","5","19","[""White""]","No","Female","2123854","1302","","u","learn","","learn_trial","25","75","in","1","1","","","","","","","","","","","","","","","","","","","",""
"","","","","","canvas-keyboard-response","176","283429","0.0-13.0-3.32","2d_cat_multi_stim_exp1","2022-3-31","10:40:58","25","75","3","9","10","40","30","120","5","19","[""White""]","No","Female","2123854","null","","null","learn_feedback","","learn_feedback","25","75","in","","","","","","","","","","","","","","","","","","","","","",""
"","","","","","canvas-keyboard-response","177","283489","0.0-13.0-4.32","2d_cat_multi_stim_exp1","2022-3-31","10:40:58","25","75","3","9","10","40","30","120","5","19","[""White""]","No","Female","2123854","null","","null","","","clear_screen","","","","","","","","","","","","","","","","","","","","","","","","",""
"","","","","","canvas-keyboard-response","178","284000","0.0-13.0-0.33","2d_cat_multi_stim_exp1","2022-3-31","10:40:58","25","75","3","9","10","40","30","120","5","19","[""White""]","No","Female","2123854","null","","null","","","fixation","","","","","","","","","","","","","","","","","","","","","","","","",""
"","","","","","canvas-keyboard-response","179","284516","0.0-13.0-1.33","2d_cat_multi_stim_exp1","2022-3-31","10:40:58","25","75","3","9","10","40","30","120","5","19","[""White""]","No","Female","2123854","null","","null","","","clear_screen","","","","","","","","","","","","","","","","","","","","","","","","",""
"","","","","","canvas-keyboard-response","180","285359","0.0-13.0-2.33","2d_cat_multi_stim_exp1","2022-3-31","10:40:58","25","75","3","9","10","40","30","120","5","19","[""White""]","No","Female","2123854","832","","u","learn","","learn_trial","25","75","in","1","1","","","","","","","","","","","","","","","","","","","",""
"","","","","","canvas-keyboard-response","181","285868","0.0-13.0-3.33","2d_cat_multi_stim_exp1","2022-3-31","10:40:58","25","75","3","9","10","40","30","120","5","19","[""White""]","No","Female","2123854","null","","null","learn_feedback","","learn_feedback","25","75","in","","","","","","","","","","","","","","","","","","","","","",""
"","","","","","canvas-keyboard-response","182","285930","0.0-13.0-4.33","2d_cat_multi_stim_exp1","2022-3-31","10:40:58","25","75","3","9","10","40","30","120","5","19","[""White""]","No","Female","2123854","null","","null","","","clear_screen","","","","","","","","","","","","","","","","","","","","","","","","",""
"","","","","","canvas-keyboard-response","183","286441","0.0-13.0-0.34","2d_cat_multi_stim_exp1","2022-3-31","10:40:58","25","75","3","9","10","40","30","120","5","19","[""White""]","No","Female","2123854","null","","null","","","fixation","","","","","","","","","","","","","","","","","","","","","","","","",""
"","","","","","canvas-keyboard-response","184","286951","0.0-13.0-1.34","2d_cat_multi_stim_exp1","2022-3-31","10:40:58","25","75","3","9","10","40","30","120","5","19","[""White""]","No","Female","2123854","null","","null","","","clear_screen","","","","","","","","","","","","","","","","","","","","","","","","",""
"","","","","","canvas-keyboard-response","185","288198","0.0-13.0-2.34","2d_cat_multi_stim_exp1","2022-3-31","10:40:58","25","75","3","9","10","40","30","120","5","19","[""White""]","No","Female","2123854","1236","","i","learn","","learn_trial","30","80","out","0","1","","","","","","","","","","","","","","","","","","","",""
"","","","","","canvas-keyboard-response","186","288708","0.0-13.0-3.34","2d_cat_multi_stim_exp1","2022-3-31","10:40:58","25","75","3","9","10","40","30","120","5","19","[""White""]","No","Female","2123854","null","","null","learn_feedback","","learn_feedback","30","80","out","","","","","","","","","","","","","","","","","","","","","",""
"","","","","","canvas-keyboard-response","187","288768","0.0-13.0-4.34","2d_cat_multi_stim_exp1","2022-3-31","10:40:58","25","75","3","9","10","40","30","120","5","19","[""White""]","No","Female","2123854","null","","null","","","clear_screen","","","","","","","","","","","","","","","","","","","","","","","","",""
"","","","","","canvas-keyboard-response","188","289279","0.0-13.0-0.35","2d_cat_multi_stim_exp1","2022-3-31","10:40:58","25","75","3","9","10","40","30","120","5","19","[""White""]","No","Female","2123854","null","","null","","","fixation","","","","","","","","","","","","","","","","","","","","","","","","",""
"","","","","","canvas-keyboard-response","189","289790","0.0-13.0-1.35","2d_cat_multi_stim_exp1","2022-3-31","10:40:58","25","75","3","9","10","40","30","120","5","19","[""White""]","No","Female","2123854","null","","null","","","clear_screen","","","","","","","","","","","","","","","","","","","","","","","","",""
"","","","","","canvas-keyboard-response","190","290910","0.0-13.0-2.35","2d_cat_multi_stim_exp1","2022-3-31","10:40:58","25","75","3","9","10","40","30","120","5","19","[""White""]","No","Female","2123854","1111","","u","learn","","learn_trial","25","75","in","1","1","","","","","","","","","","","","","","","","","","","",""
"","","","","","canvas-keyboard-response","191","291418","0.0-13.0-3.35","2d_cat_multi_stim_exp1","2022-3-31","10:40:58","25","75","3","9","10","40","30","120","5","19","[""White""]","No","Female","2123854","null","","null","learn_feedback","","learn_feedback","25","75","in","","","","","","","","","","","","","","","","","","","","","",""
"","","","","","canvas-keyboard-response","192","291481","0.0-13.0-4.35","2d_cat_multi_stim_exp1","2022-3-31","10:40:58","25","75","3","9","10","40","30","120","5","19","[""White""]","No","Female","2123854","null","","null","","","clear_screen","","","","","","","","","","","","","","","","","","","","","","","","",""
"","","","","","canvas-keyboard-response","193","291990","0.0-13.0-0.36","2d_cat_multi_stim_exp1","2022-3-31","10:40:58","25","75","3","9","10","40","30","120","5","19","[""White""]","No","Female","2123854","null","","null","","","fixation","","","","","","","","","","","","","","","","","","","","","","","","",""
"","","","","","canvas-keyboard-response","194","292501","0.0-13.0-1.36","2d_cat_multi_stim_exp1","2022-3-31","10:40:58","25","75","3","9","10","40","30","120","5","19","[""White""]","No","Female","2123854","null","","null","","","clear_screen","","","","","","","","","","","","","","","","","","","","","","","","",""
"","","","","","canvas-keyboard-response","195","294318","0.0-13.0-2.36","2d_cat_multi_stim_exp1","2022-3-31","10:40:58","25","75","3","9","10","40","30","120","5","19","[""White""]","No","Female","2123854","1804","","u","learn","","learn_trial","27.9518","73.393","in","1","1","","","","","","","","","","","","","","","","","","","",""
"","","","","","canvas-keyboard-response","196","294828","0.0-13.0-3.36","2d_cat_multi_stim_exp1","2022-3-31","10:40:58","25","75","3","9","10","40","30","120","5","19","[""White""]","No","Female","2123854","null","","null","learn_feedback","","learn_feedback","27.9518","73.393","in","","","","","","","","","","","","","","","","","","","","","",""
"","","","","","canvas-keyboard-response","197","294887","0.0-13.0-4.36","2d_cat_multi_stim_exp1","2022-3-31","10:40:58","25","75","3","9","10","40","30","120","5","19","[""White""]","No","Female","2123854","null","","null","","","clear_screen","","","","","","","","","","","","","","","","","","","","","","","","",""
"","","","","","canvas-keyboard-response","198","295397","0.0-13.0-0.37","2d_cat_multi_stim_exp1","2022-3-31","10:40:58","25","75","3","9","10","40","30","120","5","19","[""White""]","No","Female","2123854","null","","null","","","fixation","","","","","","","","","","","","","","","","","","","","","","","","",""
"","","","","","canvas-keyboard-response","199","295907","0.0-13.0-1.37","2d_cat_multi_stim_exp1","2022-3-31","10:40:58","25","75","3","9","10","40","30","120","5","19","[""White""]","No","Female","2123854","null","","null","","","clear_screen","","","","","","","","","","","","","","","","","","","","","","","","",""
"","","","","","canvas-keyboard-response","200","296550","0.0-13.0-2.37","2d_cat_multi_stim_exp1","2022-3-31","10:40:58","25","75","3","9","10","40","30","120","5","19","[""White""]","No","Female","2123854","630","","u","learn","","learn_trial","25","75","in","1","1","","","","","","","","","","","","","","","","","","","",""
"","","","","","canvas-keyboard-response","201","297058","0.0-13.0-3.37","2d_cat_multi_stim_exp1","2022-3-31","10:40:58","25","75","3","9","10","40","30","120","5","19","[""White""]","No","Female","2123854","null","","null","learn_feedback","","learn_feedback","25","75","in","","","","","","","","","","","","","","","","","","","","","",""
"","","","","","canvas-keyboard-response","202","297117","0.0-13.0-4.37","2d_cat_multi_stim_exp1","2022-3-31","10:40:58","25","75","3","9","10","40","30","120","5","19","[""White""]","No","Female","2123854","null","","null","","","clear_screen","","","","","","","","","","","","","","","","","","","","","","","","",""
"","","","","","canvas-keyboard-response","203","297625","0.0-13.0-0.38","2d_cat_multi_stim_exp1","2022-3-31","10:40:58","25","75","3","9","10","40","30","120","5","19","[""White""]","No","Female","2123854","null","","null","","","fixation","","","","","","","","","","","","","","","","","","","","","","","","",""
"","","","","","canvas-keyboard-response","204","298139","0.0-13.0-1.38","2d_cat_multi_stim_exp1","2022-3-31","10:40:58","25","75","3","9","10","40","30","120","5","19","[""White""]","No","Female","2123854","null","","null","","","clear_screen","","","","","","","","","","","","","","","","","","","","","","","","",""
"","","","","","canvas-keyboard-response","205","298941","0.0-13.0-2.38","2d_cat_multi_stim_exp1","2022-3-31","10:40:58","25","75","3","9","10","40","30","120","5","19","[""White""]","No","Female","2123854","792","","i","learn","","learn_trial","36.6667","90","out","0","1","","","","","","","","","","","","","","","","","","","",""
"","","","","","canvas-keyboard-response","206","299452","0.0-13.0-3.38","2d_cat_multi_stim_exp1","2022-3-31","10:40:58","25","75","3","9","10","40","30","120","5","19","[""White""]","No","Female","2123854","null","","null","learn_feedback","","learn_feedback","36.6667","90","out","","","","","","","","","","","","","","","","","","","","","",""
"","","","","","canvas-keyboard-response","207","299513","0.0-13.0-4.38","2d_cat_multi_stim_exp1","2022-3-31","10:40:58","25","75","3","9","10","40","30","120","5","19","[""White""]","No","Female","2123854","null","","null","","","clear_screen","","","","","","","","","","","","","","","","","","","","","","","","",""
"","","","","","canvas-keyboard-response","208","300023","0.0-13.0-0.39","2d_cat_multi_stim_exp1","2022-3-31","10:40:58","25","75","3","9","10","40","30","120","5","19","[""White""]","No","Female","2123854","null","","null","","","fixation","","","","","","","","","","","","","","","","","","","","","","","","",""
"","","","","","canvas-keyboard-response","209","300533","0.0-13.0-1.39","2d_cat_multi_stim_exp1","2022-3-31","10:40:58","25","75","3","9","10","40","30","120","5","19","[""White""]","No","Female","2123854","null","","null","","","clear_screen","","","","","","","","","","","","","","","","","","","","","","","","",""
"","","","","","canvas-keyboard-response","210","301462","0.0-13.0-2.39","2d_cat_multi_stim_exp1","2022-3-31","10:40:58","25","75","3","9","10","40","30","120","5","19","[""White""]","No","Female","2123854","919","","u","learn","","learn_trial","20","110","out","1","0","","","","","","","","","","","","","","","","","","","",""
"","","","","","canvas-keyboard-response","211","302472","0.0-13.0-3.39","2d_cat_multi_stim_exp1","2022-3-31","10:40:58","25","75","3","9","10","40","30","120","5","19","[""White""]","No","Female","2123854","null","","null","learn_feedback","","learn_feedback","20","110","out","","","","","","","","","","","","","","","","","","","","","",""
"","","","","","canvas-keyboard-response","212","302534","0.0-13.0-4.39","2d_cat_multi_stim_exp1","2022-3-31","10:40:58","25","75","3","9","10","40","30","120","5","19","[""White""]","No","Female","2123854","null","","null","","","clear_screen","","","","","","","","","","","","","","","","","","","","","","","","",""
"","","","","","canvas-keyboard-response","213","303042","0.0-13.0-0.40","2d_cat_multi_stim_exp1","2022-3-31","10:40:58","25","75","3","9","10","40","30","120","5","19","[""White""]","No","Female","2123854","null","","null","","","fixation","","","","","","","","","","","","","","","","","","","","","","","","",""
"","","","","","canvas-keyboard-response","214","303556","0.0-13.0-1.40","2d_cat_multi_stim_exp1","2022-3-31","10:40:58","25","75","3","9","10","40","30","120","5","19","[""White""]","No","Female","2123854","null","","null","","","clear_screen","","","","","","","","","","","","","","","","","","","","","","","","",""
"","","","","","canvas-keyboard-response","215","304397","0.0-13.0-2.40","2d_cat_multi_stim_exp1","2022-3-31","10:40:58","25","75","3","9","10","40","30","120","5","19","[""White""]","No","Female","2123854","833","","i","learn","","learn_trial","30","60","out","0","1","","","","","","","","","","","","","","","","","","","",""
"","","","","","canvas-keyboard-response","216","304910","0.0-13.0-3.40","2d_cat_multi_stim_exp1","2022-3-31","10:40:58","25","75","3","9","10","40","30","120","5","19","[""White""]","No","Female","2123854","null","","null","learn_feedback","","learn_feedback","30","60","out","","","","","","","","","","","","","","","","","","","","","",""
"","","","","","canvas-keyboard-response","217","304970","0.0-13.0-4.40","2d_cat_multi_stim_exp1","2022-3-31","10:40:58","25","75","3","9","10","40","30","120","5","19","[""White""]","No","Female","2123854","null","","null","","","clear_screen","","","","","","","","","","","","","","","","","","","","","","","","",""
"","","","","","canvas-keyboard-response","218","305482","0.0-13.0-0.41","2d_cat_multi_stim_exp1","2022-3-31","10:40:58","25","75","3","9","10","40","30","120","5","19","[""White""]","No","Female","2123854","null","","null","","","fixation","","","","","","","","","","","","","","","","","","","","","","","","",""
"","","","","","canvas-keyboard-response","219","305996","0.0-13.0-1.41","2d_cat_multi_stim_exp1","2022-3-31","10:40:58","25","75","3","9","10","40","30","120","5","19","[""White""]","No","Female","2123854","null","","null","","","clear_screen","","","","","","","","","","","","","","","","","","","","","","","","",""
"","","","","","canvas-keyboard-response","220","306845","0.0-13.0-2.41","2d_cat_multi_stim_exp1","2022-3-31","10:40:58","25","75","3","9","10","40","30","120","5","19","[""White""]","No","Female","2123854","840","","u","learn","","learn_trial","36.6667","110","out","1","0","","","","","","","","","","","","","","","","","","","",""
"","","","","","canvas-keyboard-response","221","307858","0.0-13.0-3.41","2d_cat_multi_stim_exp1","2022-3-31","10:40:58","25","75","3","9","10","40","30","120","5","19","[""White""]","No","Female","2123854","null","","null","learn_feedback","","learn_feedback","36.6667","110","out","","","","","","","","","","","","","","","","","","","","","",""
"","","","","","canvas-keyboard-response","222","307922","0.0-13.0-4.41","2d_cat_multi_stim_exp1","2022-3-31","10:40:58","25","75","3","9","10","40","30","120","5","19","[""White""]","No","Female","2123854","null","","null","","","clear_screen","","","","","","","","","","","","","","","","","","","","","","","","",""
"","","","","","canvas-keyboard-response","223","308437","0.0-13.0-0.42","2d_cat_multi_stim_exp1","2022-3-31","10:40:58","25","75","3","9","10","40","30","120","5","19","[""White""]","No","Female","2123854","null","","null","","","fixation","","","","","","","","","","","","","","","","","","","","","","","","",""
"","","","","","canvas-keyboard-response","224","308949","0.0-13.0-1.42","2d_cat_multi_stim_exp1","2022-3-31","10:40:58","25","75","3","9","10","40","30","120","5","19","[""White""]","No","Female","2123854","null","","null","","","clear_screen","","","","","","","","","","","","","","","","","","","","","","","","",""
"","","","","","canvas-keyboard-response","225","309789","0.0-13.0-2.42","2d_cat_multi_stim_exp1","2022-3-31","10:40:58","25","75","3","9","10","40","30","120","5","19","[""White""]","No","Female","2123854","832","","u","learn","","learn_trial","23.8209","83.2757","in","1","1","","","","","","","","","","","","","","","","","","","",""
"","","","","","canvas-keyboard-response","226","310300","0.0-13.0-3.42","2d_cat_multi_stim_exp1","2022-3-31","10:40:58","25","75","3","9","10","40","30","120","5","19","[""White""]","No","Female","2123854","null","","null","learn_feedback","","learn_feedback","23.8209","83.2757","in","","","","","","","","","","","","","","","","","","","","","",""
"","","","","","canvas-keyboard-response","227","310362","0.0-13.0-4.42","2d_cat_multi_stim_exp1","2022-3-31","10:40:58","25","75","3","9","10","40","30","120","5","19","[""White""]","No","Female","2123854","null","","null","","","clear_screen","","","","","","","","","","","","","","","","","","","","","","","","",""
"","","","","","canvas-keyboard-response","228","310872","0.0-13.0-0.43","2d_cat_multi_stim_exp1","2022-3-31","10:40:58","25","75","3","9","10","40","30","120","5","19","[""White""]","No","Female","2123854","null","","null","","","fixation","","","","","","","","","","","","","","","","","","","","","","","","",""
"","","","","","canvas-keyboard-response","229","311383","0.0-13.0-1.43","2d_cat_multi_stim_exp1","2022-3-31","10:40:58","25","75","3","9","10","40","30","120","5","19","[""White""]","No","Female","2123854","null","","null","","","clear_screen","","","","","","","","","","","","","","","","","","","","","","","","",""
"","","","","","canvas-keyboard-response","230","312317","0.0-13.0-2.43","2d_cat_multi_stim_exp1","2022-3-31","10:40:58","25","75","3","9","10","40","30","120","5","19","[""White""]","No","Female","2123854","925","","u","learn","","learn_trial","23.3333","80","out","1","0","","","","","","","","","","","","","","","","","","","",""
"","","","","","canvas-keyboard-response","231","313326","0.0-13.0-3.43","2d_cat_multi_stim_exp1","2022-3-31","10:40:58","25","75","3","9","10","40","30","120","5","19","[""White""]","No","Female","2123854","null","","null","learn_feedback","","learn_feedback","23.3333","80","out","","","","","","","","","","","","","","","","","","","","","",""
"","","","","","canvas-keyboard-response","232","313386","0.0-13.0-4.43","2d_cat_multi_stim_exp1","2022-3-31","10:40:58","25","75","3","9","10","40","30","120","5","19","[""White""]","No","Female","2123854","null","","null","","","clear_screen","","","","","","","","","","","","","","","","","","","","","","","","",""
"","","","","","canvas-keyboard-response","233","313894","0.0-13.0-0.44","2d_cat_multi_stim_exp1","2022-3-31","10:40:58","25","75","3","9","10","40","30","120","5","19","[""White""]","No","Female","2123854","null","","null","","","fixation","","","","","","","","","","","","","","","","","","","","","","","","",""
"","","","","","canvas-keyboard-response","234","314405","0.0-13.0-1.44","2d_cat_multi_stim_exp1","2022-3-31","10:40:58","25","75","3","9","10","40","30","120","5","19","[""White""]","No","Female","2123854","null","","null","","","clear_screen","","","","","","","","","","","","","","","","","","","","","","","","",""
"","","","","","canvas-keyboard-response","235","315781","0.0-13.0-2.44","2d_cat_multi_stim_exp1","2022-3-31","10:40:58","25","75","3","9","10","40","30","120","5","19","[""White""]","No","Female","2123854","1362","","i","learn","","learn_trial","24.8654","66.0091","in","0","0","","","","","","","","","","","","","","","","","","","",""
"","","","","","canvas-keyboard-response","236","316792","0.0-13.0-3.44","2d_cat_multi_stim_exp1","2022-3-31","10:40:58","25","75","3","9","10","40","30","120","5","19","[""White""]","No","Female","2123854","null","","null","learn_feedback","","learn_feedback","24.8654","66.0091","in","","","","","","","","","","","","","","","","","","","","","",""
"","","","","","canvas-keyboard-response","237","316853","0.0-13.0-4.44","2d_cat_multi_stim_exp1","2022-3-31","10:40:58","25","75","3","9","10","40","30","120","5","19","[""White""]","No","Female","2123854","null","","null","","","clear_screen","","","","","","","","","","","","","","","","","","","","","","","","",""
"","","","","","canvas-keyboard-response","238","317364","0.0-13.0-0.45","2d_cat_multi_stim_exp1","2022-3-31","10:40:58","25","75","3","9","10","40","30","120","5","19","[""White""]","No","Female","2123854","null","","null","","","fixation","","","","","","","","","","","","","","","","","","","","","","","","",""
"","","","","","canvas-keyboard-response","239","317874","0.0-13.0-1.45","2d_cat_multi_stim_exp1","2022-3-31","10:40:58","25","75","3","9","10","40","30","120","5","19","[""White""]","No","Female","2123854","null","","null","","","clear_screen","","","","","","","","","","","","","","","","","","","","","","","","",""
"","","","","","canvas-keyboard-response","240","318758","0.0-13.0-2.45","2d_cat_multi_stim_exp1","2022-3-31","10:40:58","25","75","3","9","10","40","30","120","5","19","[""White""]","No","Female","2123854","876","","u","learn","","learn_trial","25","75","in","1","1","","","","","","","","","","","","","","","","","","","",""
"","","","","","canvas-keyboard-response","241","319269","0.0-13.0-3.45","2d_cat_multi_stim_exp1","2022-3-31","10:40:58","25","75","3","9","10","40","30","120","5","19","[""White""]","No","Female","2123854","null","","null","learn_feedback","","learn_feedback","25","75","in","","","","","","","","","","","","","","","","","","","","","",""
"","","","","","canvas-keyboard-response","242","319329","0.0-13.0-4.45","2d_cat_multi_stim_exp1","2022-3-31","10:40:58","25","75","3","9","10","40","30","120","5","19","[""White""]","No","Female","2123854","null","","null","","","clear_screen","","","","","","","","","","","","","","","","","","","","","","","","",""
"","","","","","canvas-keyboard-response","243","319839","0.0-13.0-0.46","2d_cat_multi_stim_exp1","2022-3-31","10:40:58","25","75","3","9","10","40","30","120","5","19","[""White""]","No","Female","2123854","null","","null","","","fixation","","","","","","","","","","","","","","","","","","","","","","","","",""
"","","","","","canvas-keyboard-response","244","320349","0.0-13.0-1.46","2d_cat_multi_stim_exp1","2022-3-31","10:40:58","25","75","3","9","10","40","30","120","5","19","[""White""]","No","Female","2123854","null","","null","","","clear_screen","","","","","","","","","","","","","","","","","","","","","","","","",""
"","","","","","canvas-keyboard-response","245","322029","0.0-13.0-2.46","2d_cat_multi_stim_exp1","2022-3-31","10:40:58","25","75","3","9","10","40","30","120","5","19","[""White""]","No","Female","2123854","1671","","u","learn","","learn_trial","25","75","in","1","1","","","","","","","","","","","","","","","","","","","",""
"","","","","","canvas-keyboard-response","246","322540","0.0-13.0-3.46","2d_cat_multi_stim_exp1","2022-3-31","10:40:58","25","75","3","9","10","40","30","120","5","19","[""White""]","No","Female","2123854","null","","null","learn_feedback","","learn_feedback","25","75","in","","","","","","","","","","","","","","","","","","","","","",""
"","","","","","canvas-keyboard-response","247","322599","0.0-13.0-4.46","2d_cat_multi_stim_exp1","2022-3-31","10:40:58","25","75","3","9","10","40","30","120","5","19","[""White""]","No","Female","2123854","null","","null","","","clear_screen","","","","","","","","","","","","","","","","","","","","","","","","",""
"","","","","","canvas-keyboard-response","248","323108","0.0-13.0-0.47","2d_cat_multi_stim_exp1","2022-3-31","10:40:58","25","75","3","9","10","40","30","120","5","19","[""White""]","No","Female","2123854","null","","null","","","fixation","","","","","","","","","","","","","","","","","","","","","","","","",""
"","","","","","canvas-keyboard-response","249","323619","0.0-13.0-1.47","2d_cat_multi_stim_exp1","2022-3-31","10:40:58","25","75","3","9","10","40","30","120","5","19","[""White""]","No","Female","2123854","null","","null","","","clear_screen","","","","","","","","","","","","","","","","","","","","","","","","",""
"","","","","","canvas-keyboard-response","250","325015","0.0-13.0-2.47","2d_cat_multi_stim_exp1","2022-3-31","10:40:58","25","75","3","9","10","40","30","120","5","19","[""White""]","No","Female","2123854","1384","","u","learn","","learn_trial","25","75","in","1","1","","","","","","","","","","","","","","","","","","","",""
"","","","","","canvas-keyboard-response","251","325529","0.0-13.0-3.47","2d_cat_multi_stim_exp1","2022-3-31","10:40:58","25","75","3","9","10","40","30","120","5","19","[""White""]","No","Female","2123854","null","","null","learn_feedback","","learn_feedback","25","75","in","","","","","","","","","","","","","","","","","","","","","",""
"","","","","","canvas-keyboard-response","252","325593","0.0-13.0-4.47","2d_cat_multi_stim_exp1","2022-3-31","10:40:58","25","75","3","9","10","40","30","120","5","19","[""White""]","No","Female","2123854","null","","null","","","clear_screen","","","","","","","","","","","","","","","","","","","","","","","","",""
"","","","","","canvas-keyboard-response","253","326105","0.0-13.0-0.48","2d_cat_multi_stim_exp1","2022-3-31","10:40:58","25","75","3","9","10","40","30","120","5","19","[""White""]","No","Female","2123854","null","","null","","","fixation","","","","","","","","","","","","","","","","","","","","","","","","",""
"","","","","","canvas-keyboard-response","254","326620","0.0-13.0-1.48","2d_cat_multi_stim_exp1","2022-3-31","10:40:58","25","75","3","9","10","40","30","120","5","19","[""White""]","No","Female","2123854","null","","null","","","clear_screen","","","","","","","","","","","","","","","","","","","","","","","","",""
"","","","","","canvas-keyboard-response","255","328238","0.0-13.0-2.48","2d_cat_multi_stim_exp1","2022-3-31","10:40:58","25","75","3","9","10","40","30","120","5","19","[""White""]","No","Female","2123854","1606","","u","learn","","learn_trial","23.8209","66.7243","in","1","1","","","","","","","","","","","","","","","","","","","",""
"","","","","","canvas-keyboard-response","256","328746","0.0-13.0-3.48","2d_cat_multi_stim_exp1","2022-3-31","10:40:58","25","75","3","9","10","40","30","120","5","19","[""White""]","No","Female","2123854","null","","null","learn_feedback","","learn_feedback","23.8209","66.7243","in","","","","","","","","","","","","","","","","","","","","","",""
"","","","","","canvas-keyboard-response","257","328805","0.0-13.0-4.48","2d_cat_multi_stim_exp1","2022-3-31","10:40:58","25","75","3","9","10","40","30","120","5","19","[""White""]","No","Female","2123854","null","","null","","","clear_screen","","","","","","","","","","","","","","","","","","","","","","","","",""
"","","","","","canvas-keyboard-response","258","329314","0.0-13.0-0.49","2d_cat_multi_stim_exp1","2022-3-31","10:40:58","25","75","3","9","10","40","30","120","5","19","[""White""]","No","Female","2123854","null","","null","","","fixation","","","","","","","","","","","","","","","","","","","","","","","","",""
"","","","","","canvas-keyboard-response","259","329828","0.0-13.0-1.49","2d_cat_multi_stim_exp1","2022-3-31","10:40:58","25","75","3","9","10","40","30","120","5","19","[""White""]","No","Female","2123854","null","","null","","","clear_screen","","","","","","","","","","","","","","","","","","","","","","","","",""
"","","","","","canvas-keyboard-response","260","330807","0.0-13.0-2.49","2d_cat_multi_stim_exp1","2022-3-31","10:40:58","25","75","3","9","10","40","30","120","5","19","[""White""]","No","Female","2123854","967","","u","learn","","learn_trial","22.1081","77.3943","in","1","1","","","","","","","","","","","","","","","","","","","",""
"","","","","","canvas-keyboard-response","261","331320","0.0-13.0-3.49","2d_cat_multi_stim_exp1","2022-3-31","10:40:58","25","75","3","9","10","40","30","120","5","19","[""White""]","No","Female","2123854","null","","null","learn_feedback","","learn_feedback","22.1081","77.3943","in","","","","","","","","","","","","","","","","","","","","","",""
"","","","","","canvas-keyboard-response","262","331381","0.0-13.0-4.49","2d_cat_multi_stim_exp1","2022-3-31","10:40:58","25","75","3","9","10","40","30","120","5","19","[""White""]","No","Female","2123854","null","","null","","","clear_screen","","","","","","","","","","","","","","","","","","","","","","","","",""
"","","","","","canvas-keyboard-response","263","331891","0.0-13.0-0.50","2d_cat_multi_stim_exp1","2022-3-31","10:40:58","25","75","3","9","10","40","30","120","5","19","[""White""]","No","Female","2123854","null","","null","","","fixation","","","","","","","","","","","","","","","","","","","","","","","","",""
"","","","","","canvas-keyboard-response","264","332405","0.0-13.0-1.50","2d_cat_multi_stim_exp1","2022-3-31","10:40:58","25","75","3","9","10","40","30","120","5","19","[""White""]","No","Female","2123854","null","","null","","","clear_screen","","","","","","","","","","","","","","","","","","","","","","","","",""
"","","","","","canvas-keyboard-response","265","334190","0.0-13.0-2.50","2d_cat_multi_stim_exp1","2022-3-31","10:40:58","25","75","3","9","10","40","30","120","5","19","[""White""]","No","Female","2123854","1778","","u","learn","","learn_trial","26.6667","50","out","1","0","","","","","","","","","","","","","","","","","","","",""
"","","","","","canvas-keyboard-response","266","335200","0.0-13.0-3.50","2d_cat_multi_stim_exp1","2022-3-31","10:40:58","25","75","3","9","10","40","30","120","5","19","[""White""]","No","Female","2123854","null","","null","learn_feedback","","learn_feedback","26.6667","50","out","","","","","","","","","","","","","","","","","","","","","",""
"","","","","","canvas-keyboard-response","267","335263","0.0-13.0-4.50","2d_cat_multi_stim_exp1","2022-3-31","10:40:58","25","75","3","9","10","40","30","120","5","19","[""White""]","No","Female","2123854","null","","null","","","clear_screen","","","","","","","","","","","","","","","","","","","","","","","","",""
"","","","","","canvas-keyboard-response","268","335775","0.0-13.0-0.51","2d_cat_multi_stim_exp1","2022-3-31","10:40:58","25","75","3","9","10","40","30","120","5","19","[""White""]","No","Female","2123854","null","","null","","","fixation","","","","","","","","","","","","","","","","","","","","","","","","",""
"","","","","","canvas-keyboard-response","269","336285","0.0-13.0-1.51","2d_cat_multi_stim_exp1","2022-3-31","10:40:58","25","75","3","9","10","40","30","120","5","19","[""White""]","No","Female","2123854","null","","null","","","clear_screen","","","","","","","","","","","","","","","","","","","","","","","","",""
"","","","","","canvas-keyboard-response","270","337950","0.0-13.0-2.51","2d_cat_multi_stim_exp1","2022-3-31","10:40:58","25","75","3","9","10","40","30","120","5","19","[""White""]","No","Female","2123854","1657","","i","learn","","learn_trial","33.3333","30","out","0","1","","","","","","","","","","","","","","","","","","","",""
"","","","","","canvas-keyboard-response","271","338460","0.0-13.0-3.51","2d_cat_multi_stim_exp1","2022-3-31","10:40:58","25","75","3","9","10","40","30","120","5","19","[""White""]","No","Female","2123854","null","","null","learn_feedback","","learn_feedback","33.3333","30","out","","","","","","","","","","","","","","","","","","","","","",""
"","","","","","canvas-keyboard-response","272","338521","0.0-13.0-4.51","2d_cat_multi_stim_exp1","2022-3-31","10:40:58","25","75","3","9","10","40","30","120","5","19","[""White""]","No","Female","2123854","null","","null","","","clear_screen","","","","","","","","","","","","","","","","","","","","","","","","",""
"","","","","","canvas-keyboard-response","273","339031","0.0-13.0-0.52","2d_cat_multi_stim_exp1","2022-3-31","10:40:58","25","75","3","9","10","40","30","120","5","19","[""White""]","No","Female","2123854","null","","null","","","fixation","","","","","","","","","","","","","","","","","","","","","","","","",""
"","","","","","canvas-keyboard-response","274","339545","0.0-13.0-1.52","2d_cat_multi_stim_exp1","2022-3-31","10:40:58","25","75","3","9","10","40","30","120","5","19","[""White""]","No","Female","2123854","null","","null","","","clear_screen","","","","","","","","","","","","","","","","","","","","","","","","",""
"","","","","","canvas-keyboard-response","275","341582","0.0-13.0-2.52","2d_cat_multi_stim_exp1","2022-3-31","10:40:58","25","75","3","9","10","40","30","120","5","19","[""White""]","No","Female","2123854","2028","","u","learn","","learn_trial","20","60","out","1","0","","","","","","","","","","","","","","","","","","","",""
"","","","","","canvas-keyboard-response","276","342592","0.0-13.0-3.52","2d_cat_multi_stim_exp1","2022-3-31","10:40:58","25","75","3","9","10","40","30","120","5","19","[""White""]","No","Female","2123854","null","","null","learn_feedback","","learn_feedback","20","60","out","","","","","","","","","","","","","","","","","","","","","",""
"","","","","","canvas-keyboard-response","277","342653","0.0-13.0-4.52","2d_cat_multi_stim_exp1","2022-3-31","10:40:58","25","75","3","9","10","40","30","120","5","19","[""White""]","No","Female","2123854","null","","null","","","clear_screen","","","","","","","","","","","","","","","","","","","","","","","","",""
"","","","","","canvas-keyboard-response","278","343164","0.0-13.0-0.53","2d_cat_multi_stim_exp1","2022-3-31","10:40:58","25","75","3","9","10","40","30","120","5","19","[""White""]","No","Female","2123854","null","","null","","","fixation","","","","","","","","","","","","","","","","","","","","","","","","",""
"","","","","","canvas-keyboard-response","279","343675","0.0-13.0-1.53","2d_cat_multi_stim_exp1","2022-3-31","10:40:58","25","75","3","9","10","40","30","120","5","19","[""White""]","No","Female","2123854","null","","null","","","clear_screen","","","","","","","","","","","","","","","","","","","","","","","","",""
"","","","","","canvas-keyboard-response","280","345286","0.0-13.0-2.53","2d_cat_multi_stim_exp1","2022-3-31","10:40:58","25","75","3","9","10","40","30","120","5","19","[""White""]","No","Female","2123854","1602","","u","learn","","learn_trial","13.3333","120","out","1","0","","","","","","","","","","","","","","","","","","","",""
"","","","","","canvas-keyboard-response","281","346300","0.0-13.0-3.53","2d_cat_multi_stim_exp1","2022-3-31","10:40:58","25","75","3","9","10","40","30","120","5","19","[""White""]","No","Female","2123854","null","","null","learn_feedback","","learn_feedback","13.3333","120","out","","","","","","","","","","","","","","","","","","","","","",""
"","","","","","canvas-keyboard-response","282","346361","0.0-13.0-4.53","2d_cat_multi_stim_exp1","2022-3-31","10:40:58","25","75","3","9","10","40","30","120","5","19","[""White""]","No","Female","2123854","null","","null","","","clear_screen","","","","","","","","","","","","","","","","","","","","","","","","",""
"","","","","","canvas-keyboard-response","283","346870","0.0-13.0-0.54","2d_cat_multi_stim_exp1","2022-3-31","10:40:58","25","75","3","9","10","40","30","120","5","19","[""White""]","No","Female","2123854","null","","null","","","fixation","","","","","","","","","","","","","","","","","","","","","","","","",""
"","","","","","canvas-keyboard-response","284","347381","0.0-13.0-1.54","2d_cat_multi_stim_exp1","2022-3-31","10:40:58","25","75","3","9","10","40","30","120","5","19","[""White""]","No","Female","2123854","null","","null","","","clear_screen","","","","","","","","","","","","","","","","","","","","","","","","",""
"","","","","","canvas-keyboard-response","285","348869","0.0-13.0-2.54","2d_cat_multi_stim_exp1","2022-3-31","10:40:58","25","75","3","9","10","40","30","120","5","19","[""White""]","No","Female","2123854","1479","","u","learn","","learn_trial","27.5753","70.3839","in","1","1","","","","","","","","","","","","","","","","","","","",""
"","","","","","canvas-keyboard-response","286","349380","0.0-13.0-3.54","2d_cat_multi_stim_exp1","2022-3-31","10:40:58","25","75","3","9","10","40","30","120","5","19","[""White""]","No","Female","2123854","null","","null","learn_feedback","","learn_feedback","27.5753","70.3839","in","","","","","","","","","","","","","","","","","","","","","",""
"","","","","","canvas-keyboard-response","287","349441","0.0-13.0-4.54","2d_cat_multi_stim_exp1","2022-3-31","10:40:58","25","75","3","9","10","40","30","120","5","19","[""White""]","No","Female","2123854","null","","null","","","clear_screen","","","","","","","","","","","","","","","","","","","","","","","","",""
"","","","","","canvas-keyboard-response","288","349952","0.0-13.0-0.55","2d_cat_multi_stim_exp1","2022-3-31","10:40:58","25","75","3","9","10","40","30","120","5","19","[""White""]","No","Female","2123854","null","","null","","","fixation","","","","","","","","","","","","","","","","","","","","","","","","",""
"","","","","","canvas-keyboard-response","289","350465","0.0-13.0-1.55","2d_cat_multi_stim_exp1","2022-3-31","10:40:58","25","75","3","9","10","40","30","120","5","19","[""White""]","No","Female","2123854","null","","null","","","clear_screen","","","","","","","","","","","","","","","","","","","","","","","","",""
"","","","","","canvas-keyboard-response","290","351446","0.0-13.0-2.55","2d_cat_multi_stim_exp1","2022-3-31","10:40:58","25","75","3","9","10","40","30","120","5","19","[""White""]","No","Female","2123854","973","","i","learn","","learn_trial","33.3333","80","out","0","1","","","","","","","","","","","","","","","","","","","",""
"","","","","","canvas-keyboard-response","291","351954","0.0-13.0-3.55","2d_cat_multi_stim_exp1","2022-3-31","10:40:58","25","75","3","9","10","40","30","120","5","19","[""White""]","No","Female","2123854","null","","null","learn_feedback","","learn_feedback","33.3333","80","out","","","","","","","","","","","","","","","","","","","","","",""
"","","","","","canvas-keyboard-response","292","352015","0.0-13.0-4.55","2d_cat_multi_stim_exp1","2022-3-31","10:40:58","25","75","3","9","10","40","30","120","5","19","[""White""]","No","Female","2123854","null","","null","","","clear_screen","","","","","","","","","","","","","","","","","","","","","","","","",""
"","","","","","canvas-keyboard-response","293","352526","0.0-13.0-0.56","2d_cat_multi_stim_exp1","2022-3-31","10:40:58","25","75","3","9","10","40","30","120","5","19","[""White""]","No","Female","2123854","null","","null","","","fixation","","","","","","","","","","","","","","","","","","","","","","","","",""
"","","","","","canvas-keyboard-response","294","353035","0.0-13.0-1.56","2d_cat_multi_stim_exp1","2022-3-31","10:40:58","25","75","3","9","10","40","30","120","5","19","[""White""]","No","Female","2123854","null","","null","","","clear_screen","","","","","","","","","","","","","","","","","","","","","","","","",""
"","","","","","canvas-keyboard-response","295","354757","0.0-13.0-2.56","2d_cat_multi_stim_exp1","2022-3-31","10:40:58","25","75","3","9","10","40","30","120","5","19","[""White""]","No","Female","2123854","1711","","u","learn","","learn_trial","31","75","in","1","1","","","","","","","","","","","","","","","","","","","",""
"","","","","","canvas-keyboard-response","296","355267","0.0-13.0-3.56","2d_cat_multi_stim_exp1","2022-3-31","10:40:58","25","75","3","9","10","40","30","120","5","19","[""White""]","No","Female","2123854","null","","null","learn_feedback","","learn_feedback","31","75","in","","","","","","","","","","","","","","","","","","","","","",""
"","","","","","canvas-keyboard-response","297","355326","0.0-13.0-4.56","2d_cat_multi_stim_exp1","2022-3-31","10:40:58","25","75","3","9","10","40","30","120","5","19","[""White""]","No","Female","2123854","null","","null","","","clear_screen","","","","","","","","","","","","","","","","","","","","","","","","",""
"","","","","","canvas-keyboard-response","298","355836","0.0-13.0-0.57","2d_cat_multi_stim_exp1","2022-3-31","10:40:58","25","75","3","9","10","40","30","120","5","19","[""White""]","No","Female","2123854","null","","null","","","fixation","","","","","","","","","","","","","","","","","","","","","","","","",""
"","","","","","canvas-keyboard-response","299","356353","0.0-13.0-1.57","2d_cat_multi_stim_exp1","2022-3-31","10:40:58","25","75","3","9","10","40","30","120","5","19","[""White""]","No","Female","2123854","null","","null","","","clear_screen","","","","","","","","","","","","","","","","","","","","","","","","",""
