"success","timeout","failed_images","failed_audio","failed_video","trial_type","trial_index","time_elapsed","internal_node_id","exp_name","date","time","angle_mean_in","radius_mean_in","angle_sd_in","radius_sd_in","angle_min_out","angle_max_out","radius_min_out","radius_max_out","sub_n","age","race","ethnicity","gender","exp_duration","rt","response","exp_trial_type","stimulus","view_history","screen_id","angle","radius","distribution","choice","correct","order","angle_a","radius_a","angle_b","radius_b","jkl_correct","transfer_trial_type","choice_set","abc_correct","tc_correct","tc_angle","tdc_a","tdc_b","tdc_c","pair","category_a","category_b","category_c","angle_c","radius_c","question_order"
"true","false","[]","[]","[]","preload","0","14","0.0-0.0","2d_cat_multi_stim_exp1","2022-5-4","13:18:45","25","75","3","9","10","40","30","120","88","22","[""Black or African-American"",""White""]","No","Female","2048068","","","","","","","","","","","","","","","","","","","","","","","","","","","","","","","",""
"","","","","","survey-html-form","1","3775","0.0-1.0","2d_cat_multi_stim_exp1","2022-5-4","13:18:45","25","75","3","9","10","40","30","120","88","22","[""Black or African-American"",""White""]","No","Female","2048068","3747","{""response"":""88""}","enter-sub-number","","","","","","","","","","","","","","","","","","","","","","","","","","","","",""
"true","","","","","fullscreen","2","6633","0.0-2.0","2d_cat_multi_stim_exp1","2022-5-4","13:18:45","25","75","3","9","10","40","30","120","88","22","[""Black or African-American"",""White""]","No","Female","2048068","","","","","","","","","","","","","","","","","","","","","","","","","","","","","","","",""
"","","","","","image-button-response","3","124210","0.0-3.0","2d_cat_multi_stim_exp1","2022-5-4","13:18:45","25","75","3","9","10","40","30","120","88","22","[""Black or African-American"",""White""]","No","Female","2048068","117568","0","","consent.png","","","","","","","","","","","","","","","","","","","","","","","","","","","",""
"","","","","","html-button-response","4","131913","0.0-4.0","2d_cat_multi_stim_exp1","2022-5-4","13:18:45","25","75","3","9","10","40","30","120","88","22","[""Black or African-American"",""White""]","No","Female","2048068","7698","0","","<div style= ""font-size:25px;"" <p> <strong> Welcome to the experiment! </strong><br> <p style=""color:#8B0000; font-size:25px;""><strong> Please do NOT exit full screen until you are done with the experiment. </strong> </p><p style=""font-size:25px;color:#8B0000;""> <strong> The experiment will be canceled and your data will be lost <br> if you try to go back or refresh the page at any point during the experiment.</strong> </p><br><p> <strong> Thanks in advance for your contribution to our research! </strong></p>","","","","","","","","","","","","","","","","","","","","","","","","","","","",""
"","","","","","instructions","5","164306","0.0-5.0","2d_cat_multi_stim_exp1","2022-5-4","13:18:45","25","75","3","9","10","40","30","120","88","22","[""Black or African-American"",""White""]","No","Female","2048068","32386","","","","[{""page_index"":0,""viewing_time"":4865},{""page_index"":1,""viewing_time"":2729},{""page_index"":2,""viewing_time"":10233},{""page_index"":3,""viewing_time"":14559}]","instructions_1","","","","","","","","","","","","","","","","","","","","","","","","","",""
"","","","","","instructions","6","166593","0.0-6.0","2d_cat_multi_stim_exp1","2022-5-4","13:18:45","25","75","3","9","10","40","30","120","88","22","[""Black or African-American"",""White""]","No","Female","2048068","2285","","","","[{""page_index"":0,""viewing_time"":2284}]","Click to see the kinds of turtles that will appear in the study.","","","","","","","","","","","","","","","","","","","","","","","","","",""
"","","","","","canvas-keyboard-response","7","181611","0.0-7.0","2d_cat_multi_stim_exp1","2022-5-4","13:18:45","25","75","3","9","10","40","30","120","88","22","[""Black or African-American"",""White""]","No","Female","2048068","null","null","","","","demo_range","","","","","","","","","","","","","","","","","","","","","","","","","",""
"","","","","","instructions","8","184842","0.0-8.0","2d_cat_multi_stim_exp1","2022-5-4","13:18:45","25","75","3","9","10","40","30","120","88","22","[""Black or African-American"",""White""]","No","Female","2048068","2729","","","","[{""page_index"":0,""viewing_time"":2729}]","Click to see some turtles in the subspecies.","","","","","","","","","","","","","","","","","","","","","","","","","",""
"","","","","","canvas-keyboard-response","9","199857","0.0-9.0","2d_cat_multi_stim_exp1","2022-5-4","13:18:45","25","75","3","9","10","40","30","120","88","22","[""Black or African-American"",""White""]","No","Female","2048068","null","null","","","","demo_in","","","","","","","","","","","","","","","","","","","","","","","","","",""
"","","","","","instructions","10","228049","0.0-10.0","2d_cat_multi_stim_exp1","2022-5-4","13:18:45","25","75","3","9","10","40","30","120","88","22","[""Black or African-American"",""White""]","No","Female","2048068","27689","","","","[{""page_index"":0,""viewing_time"":6378},{""page_index"":1,""viewing_time"":15974},{""page_index"":2,""viewing_time"":5337}]","instructions_2","","","","","","","","","","","","","","","","","","","","","","","","","",""
"","","","","","instructions","11","229354","0.0-11.0","2d_cat_multi_stim_exp1","2022-5-4","13:18:45","25","75","3","9","10","40","30","120","88","22","[""Black or African-American"",""White""]","No","Female","2048068","1301","","","","[{""page_index"":0,""viewing_time"":1300}]","Click to begin the first phase of the experiment.","","","","","","","","","","","","","","","","","","","","","","","","","",""
"","","","","","canvas-keyboard-response","12","229862","0.0-12.0-0.0","2d_cat_multi_stim_exp1","2022-5-4","13:18:45","25","75","3","9","10","40","30","120","88","22","[""Black or African-American"",""White""]","No","Female","2048068","null","null","","","","fixation","","","","","","","","","","","","","","","","","","","","","","","","","",""
"","","","","","canvas-keyboard-response","13","230375","0.0-12.0-1.0","2d_cat_multi_stim_exp1","2022-5-4","13:18:45","25","75","3","9","10","40","30","120","88","22","[""Black or African-American"",""White""]","No","Female","2048068","null","null","","","","clear_screen","","","","","","","","","","","","","","","","","","","","","","","","","",""
"","","","","","canvas-keyboard-response","14","233744","0.0-12.0-2.0","2d_cat_multi_stim_exp1","2022-5-4","13:18:45","25","75","3","9","10","40","30","120","88","22","[""Black or African-American"",""White""]","No","Female","2048068","3355","u","learn","","","learn_trial","22.9268","68.4948","in","1","1","","","","","","","","","","","","","","","","","","","","",""
"","","","","","canvas-keyboard-response","15","234255","0.0-12.0-3.0","2d_cat_multi_stim_exp1","2022-5-4","13:18:45","25","75","3","9","10","40","30","120","88","22","[""Black or African-American"",""White""]","No","Female","2048068","null","null","learn_feedback","","","learn_feedback","22.9268","68.4948","in","","","","","","","","","","","","","","","","","","","","","","",""
"","","","","","canvas-keyboard-response","16","234316","0.0-12.0-4.0","2d_cat_multi_stim_exp1","2022-5-4","13:18:45","25","75","3","9","10","40","30","120","88","22","[""Black or African-American"",""White""]","No","Female","2048068","null","null","","","","clear_screen","","","","","","","","","","","","","","","","","","","","","","","","","",""
"","","","","","canvas-keyboard-response","17","234828","0.0-12.0-0.1","2d_cat_multi_stim_exp1","2022-5-4","13:18:45","25","75","3","9","10","40","30","120","88","22","[""Black or African-American"",""White""]","No","Female","2048068","null","null","","","","fixation","","","","","","","","","","","","","","","","","","","","","","","","","",""
"","","","","","canvas-keyboard-response","18","235341","0.0-12.0-1.1","2d_cat_multi_stim_exp1","2022-5-4","13:18:45","25","75","3","9","10","40","30","120","88","22","[""Black or African-American"",""White""]","No","Female","2048068","null","null","","","","clear_screen","","","","","","","","","","","","","","","","","","","","","","","","","",""
"","","","","","canvas-keyboard-response","19","237425","0.0-12.0-2.1","2d_cat_multi_stim_exp1","2022-5-4","13:18:45","25","75","3","9","10","40","30","120","88","22","[""Black or African-American"",""White""]","No","Female","2048068","2077","i","learn","","","learn_trial","40","70","out","0","1","","","","","","","","","","","","","","","","","","","","",""
"","","","","","canvas-keyboard-response","20","237934","0.0-12.0-3.1","2d_cat_multi_stim_exp1","2022-5-4","13:18:45","25","75","3","9","10","40","30","120","88","22","[""Black or African-American"",""White""]","No","Female","2048068","null","null","learn_feedback","","","learn_feedback","40","70","out","","","","","","","","","","","","","","","","","","","","","","",""
"","","","","","canvas-keyboard-response","21","237997","0.0-12.0-4.1","2d_cat_multi_stim_exp1","2022-5-4","13:18:45","25","75","3","9","10","40","30","120","88","22","[""Black or African-American"",""White""]","No","Female","2048068","null","null","","","","clear_screen","","","","","","","","","","","","","","","","","","","","","","","","","",""
"","","","","","canvas-keyboard-response","22","238505","0.0-12.0-0.2","2d_cat_multi_stim_exp1","2022-5-4","13:18:45","25","75","3","9","10","40","30","120","88","22","[""Black or African-American"",""White""]","No","Female","2048068","null","null","","","","fixation","","","","","","","","","","","","","","","","","","","","","","","","","",""
"","","","","","canvas-keyboard-response","23","239019","0.0-12.0-1.2","2d_cat_multi_stim_exp1","2022-5-4","13:18:45","25","75","3","9","10","40","30","120","88","22","[""Black or African-American"",""White""]","No","Female","2048068","null","null","","","","clear_screen","","","","","","","","","","","","","","","","","","","","","","","","","",""
"","","","","","canvas-keyboard-response","24","241352","0.0-12.0-2.2","2d_cat_multi_stim_exp1","2022-5-4","13:18:45","25","75","3","9","10","40","30","120","88","22","[""Black or African-American"",""White""]","No","Female","2048068","2328","u","learn","","","learn_trial","25","75","in","1","1","","","","","","","","","","","","","","","","","","","","",""
"","","","","","canvas-keyboard-response","25","241862","0.0-12.0-3.2","2d_cat_multi_stim_exp1","2022-5-4","13:18:45","25","75","3","9","10","40","30","120","88","22","[""Black or African-American"",""White""]","No","Female","2048068","null","null","learn_feedback","","","learn_feedback","25","75","in","","","","","","","","","","","","","","","","","","","","","","",""
"","","","","","canvas-keyboard-response","26","241920","0.0-12.0-4.2","2d_cat_multi_stim_exp1","2022-5-4","13:18:45","25","75","3","9","10","40","30","120","88","22","[""Black or African-American"",""White""]","No","Female","2048068","null","null","","","","clear_screen","","","","","","","","","","","","","","","","","","","","","","","","","",""
"","","","","","canvas-keyboard-response","27","242431","0.0-12.0-0.3","2d_cat_multi_stim_exp1","2022-5-4","13:18:45","25","75","3","9","10","40","30","120","88","22","[""Black or African-American"",""White""]","No","Female","2048068","null","null","","","","fixation","","","","","","","","","","","","","","","","","","","","","","","","","",""
"","","","","","canvas-keyboard-response","28","242943","0.0-12.0-1.3","2d_cat_multi_stim_exp1","2022-5-4","13:18:45","25","75","3","9","10","40","30","120","88","22","[""Black or African-American"",""White""]","No","Female","2048068","null","null","","","","clear_screen","","","","","","","","","","","","","","","","","","","","","","","","","",""
"","","","","","canvas-keyboard-response","29","245433","0.0-12.0-2.3","2d_cat_multi_stim_exp1","2022-5-4","13:18:45","25","75","3","9","10","40","30","120","88","22","[""Black or African-American"",""White""]","No","Female","2048068","2481","i","learn","","","learn_trial","25","75","in","0","0","","","","","","","","","","","","","","","","","","","","",""
"","","","","","canvas-keyboard-response","30","246444","0.0-12.0-3.3","2d_cat_multi_stim_exp1","2022-5-4","13:18:45","25","75","3","9","10","40","30","120","88","22","[""Black or African-American"",""White""]","No","Female","2048068","null","null","learn_feedback","","","learn_feedback","25","75","in","","","","","","","","","","","","","","","","","","","","","","",""
"","","","","","canvas-keyboard-response","31","246503","0.0-12.0-4.3","2d_cat_multi_stim_exp1","2022-5-4","13:18:45","25","75","3","9","10","40","30","120","88","22","[""Black or African-American"",""White""]","No","Female","2048068","null","null","","","","clear_screen","","","","","","","","","","","","","","","","","","","","","","","","","",""
"","","","","","canvas-keyboard-response","32","247012","0.0-12.0-0.4","2d_cat_multi_stim_exp1","2022-5-4","13:18:45","25","75","3","9","10","40","30","120","88","22","[""Black or African-American"",""White""]","No","Female","2048068","null","null","","","","fixation","","","","","","","","","","","","","","","","","","","","","","","","","",""
"","","","","","canvas-keyboard-response","33","247525","0.0-12.0-1.4","2d_cat_multi_stim_exp1","2022-5-4","13:18:45","25","75","3","9","10","40","30","120","88","22","[""Black or African-American"",""White""]","No","Female","2048068","null","null","","","","clear_screen","","","","","","","","","","","","","","","","","","","","","","","","","",""
"","","","","","canvas-keyboard-response","34","249673","0.0-12.0-2.4","2d_cat_multi_stim_exp1","2022-5-4","13:18:45","25","75","3","9","10","40","30","120","88","22","[""Black or African-American"",""White""]","No","Female","2048068","2140","i","learn","","","learn_trial","20","60","out","0","1","","","","","","","","","","","","","","","","","","","","",""
"","","","","","canvas-keyboard-response","35","250185","0.0-12.0-3.4","2d_cat_multi_stim_exp1","2022-5-4","13:18:45","25","75","3","9","10","40","30","120","88","22","[""Black or African-American"",""White""]","No","Female","2048068","null","null","learn_feedback","","","learn_feedback","20","60","out","","","","","","","","","","","","","","","","","","","","","","",""
"","","","","","canvas-keyboard-response","36","250247","0.0-12.0-4.4","2d_cat_multi_stim_exp1","2022-5-4","13:18:45","25","75","3","9","10","40","30","120","88","22","[""Black or African-American"",""White""]","No","Female","2048068","null","null","","","","clear_screen","","","","","","","","","","","","","","","","","","","","","","","","","",""
"","","","","","canvas-keyboard-response","37","250755","0.0-12.0-0.5","2d_cat_multi_stim_exp1","2022-5-4","13:18:45","25","75","3","9","10","40","30","120","88","22","[""Black or African-American"",""White""]","No","Female","2048068","null","null","","","","fixation","","","","","","","","","","","","","","","","","","","","","","","","","",""
"","","","","","canvas-keyboard-response","38","251267","0.0-12.0-1.5","2d_cat_multi_stim_exp1","2022-5-4","13:18:45","25","75","3","9","10","40","30","120","88","22","[""Black or African-American"",""White""]","No","Female","2048068","null","null","","","","clear_screen","","","","","","","","","","","","","","","","","","","","","","","","","",""
"","","","","","canvas-keyboard-response","39","253168","0.0-12.0-2.5","2d_cat_multi_stim_exp1","2022-5-4","13:18:45","25","75","3","9","10","40","30","120","88","22","[""Black or African-American"",""White""]","No","Female","2048068","1893","u","learn","","","learn_trial","26.6667","90","out","1","0","","","","","","","","","","","","","","","","","","","","",""
"","","","","","canvas-keyboard-response","40","254178","0.0-12.0-3.5","2d_cat_multi_stim_exp1","2022-5-4","13:18:45","25","75","3","9","10","40","30","120","88","22","[""Black or African-American"",""White""]","No","Female","2048068","null","null","learn_feedback","","","learn_feedback","26.6667","90","out","","","","","","","","","","","","","","","","","","","","","","",""
"","","","","","canvas-keyboard-response","41","254241","0.0-12.0-4.5","2d_cat_multi_stim_exp1","2022-5-4","13:18:45","25","75","3","9","10","40","30","120","88","22","[""Black or African-American"",""White""]","No","Female","2048068","null","null","","","","clear_screen","","","","","","","","","","","","","","","","","","","","","","","","","",""
"","","","","","canvas-keyboard-response","42","254750","0.0-12.0-0.6","2d_cat_multi_stim_exp1","2022-5-4","13:18:45","25","75","3","9","10","40","30","120","88","22","[""Black or African-American"",""White""]","No","Female","2048068","null","null","","","","fixation","","","","","","","","","","","","","","","","","","","","","","","","","",""
"","","","","","canvas-keyboard-response","43","255263","0.0-12.0-1.6","2d_cat_multi_stim_exp1","2022-5-4","13:18:45","25","75","3","9","10","40","30","120","88","22","[""Black or African-American"",""White""]","No","Female","2048068","null","null","","","","clear_screen","","","","","","","","","","","","","","","","","","","","","","","","","",""
"","","","","","canvas-keyboard-response","44","256545","0.0-12.0-2.6","2d_cat_multi_stim_exp1","2022-5-4","13:18:45","25","75","3","9","10","40","30","120","88","22","[""Black or African-American"",""White""]","No","Female","2048068","1271","i","learn","","","learn_trial","10","60","out","0","1","","","","","","","","","","","","","","","","","","","","",""
"","","","","","canvas-keyboard-response","45","257057","0.0-12.0-3.6","2d_cat_multi_stim_exp1","2022-5-4","13:18:45","25","75","3","9","10","40","30","120","88","22","[""Black or African-American"",""White""]","No","Female","2048068","null","null","learn_feedback","","","learn_feedback","10","60","out","","","","","","","","","","","","","","","","","","","","","","",""
"","","","","","canvas-keyboard-response","46","257116","0.0-12.0-4.6","2d_cat_multi_stim_exp1","2022-5-4","13:18:45","25","75","3","9","10","40","30","120","88","22","[""Black or African-American"",""White""]","No","Female","2048068","null","null","","","","clear_screen","","","","","","","","","","","","","","","","","","","","","","","","","",""
"","","","","","canvas-keyboard-response","47","257630","0.0-12.0-0.7","2d_cat_multi_stim_exp1","2022-5-4","13:18:45","25","75","3","9","10","40","30","120","88","22","[""Black or African-American"",""White""]","No","Female","2048068","null","null","","","","fixation","","","","","","","","","","","","","","","","","","","","","","","","","",""
"","","","","","canvas-keyboard-response","48","258140","0.0-12.0-1.7","2d_cat_multi_stim_exp1","2022-5-4","13:18:45","25","75","3","9","10","40","30","120","88","22","[""Black or African-American"",""White""]","No","Female","2048068","null","null","","","","clear_screen","","","","","","","","","","","","","","","","","","","","","","","","","",""
"","","","","","canvas-keyboard-response","49","259888","0.0-12.0-2.7","2d_cat_multi_stim_exp1","2022-5-4","13:18:45","25","75","3","9","10","40","30","120","88","22","[""Black or African-American"",""White""]","No","Female","2048068","1739","i","learn","","","learn_trial","36.6667","120","out","0","1","","","","","","","","","","","","","","","","","","","","",""
"","","","","","canvas-keyboard-response","50","260398","0.0-12.0-3.7","2d_cat_multi_stim_exp1","2022-5-4","13:18:45","25","75","3","9","10","40","30","120","88","22","[""Black or African-American"",""White""]","No","Female","2048068","null","null","learn_feedback","","","learn_feedback","36.6667","120","out","","","","","","","","","","","","","","","","","","","","","","",""
"","","","","","canvas-keyboard-response","51","260456","0.0-12.0-4.7","2d_cat_multi_stim_exp1","2022-5-4","13:18:45","25","75","3","9","10","40","30","120","88","22","[""Black or African-American"",""White""]","No","Female","2048068","null","null","","","","clear_screen","","","","","","","","","","","","","","","","","","","","","","","","","",""
"","","","","","canvas-keyboard-response","52","260966","0.0-12.0-0.8","2d_cat_multi_stim_exp1","2022-5-4","13:18:45","25","75","3","9","10","40","30","120","88","22","[""Black or African-American"",""White""]","No","Female","2048068","null","null","","","","fixation","","","","","","","","","","","","","","","","","","","","","","","","","",""
"","","","","","canvas-keyboard-response","53","261479","0.0-12.0-1.8","2d_cat_multi_stim_exp1","2022-5-4","13:18:45","25","75","3","9","10","40","30","120","88","22","[""Black or African-American"",""White""]","No","Female","2048068","null","null","","","","clear_screen","","","","","","","","","","","","","","","","","","","","","","","","","",""
"","","","","","canvas-keyboard-response","54","263809","0.0-12.0-2.8","2d_cat_multi_stim_exp1","2022-5-4","13:18:45","25","75","3","9","10","40","30","120","88","22","[""Black or African-American"",""White""]","No","Female","2048068","2320","u","learn","","","learn_trial","25","75","in","1","1","","","","","","","","","","","","","","","","","","","","",""
"","","","","","canvas-keyboard-response","55","264318","0.0-12.0-3.8","2d_cat_multi_stim_exp1","2022-5-4","13:18:45","25","75","3","9","10","40","30","120","88","22","[""Black or African-American"",""White""]","No","Female","2048068","null","null","learn_feedback","","","learn_feedback","25","75","in","","","","","","","","","","","","","","","","","","","","","","",""
"","","","","","canvas-keyboard-response","56","264376","0.0-12.0-4.8","2d_cat_multi_stim_exp1","2022-5-4","13:18:45","25","75","3","9","10","40","30","120","88","22","[""Black or African-American"",""White""]","No","Female","2048068","null","null","","","","clear_screen","","","","","","","","","","","","","","","","","","","","","","","","","",""
"","","","","","canvas-keyboard-response","57","264885","0.0-12.0-0.9","2d_cat_multi_stim_exp1","2022-5-4","13:18:45","25","75","3","9","10","40","30","120","88","22","[""Black or African-American"",""White""]","No","Female","2048068","null","null","","","","fixation","","","","","","","","","","","","","","","","","","","","","","","","","",""
"","","","","","canvas-keyboard-response","58","265396","0.0-12.0-1.9","2d_cat_multi_stim_exp1","2022-5-4","13:18:45","25","75","3","9","10","40","30","120","88","22","[""Black or African-American"",""White""]","No","Female","2048068","null","null","","","","clear_screen","","","","","","","","","","","","","","","","","","","","","","","","","",""
"","","","","","canvas-keyboard-response","59","266585","0.0-12.0-2.9","2d_cat_multi_stim_exp1","2022-5-4","13:18:45","25","75","3","9","10","40","30","120","88","22","[""Black or African-American"",""White""]","No","Female","2048068","1179","u","learn","","","learn_trial","26.6667","60","out","1","0","","","","","","","","","","","","","","","","","","","","",""
"","","","","","canvas-keyboard-response","60","267594","0.0-12.0-3.9","2d_cat_multi_stim_exp1","2022-5-4","13:18:45","25","75","3","9","10","40","30","120","88","22","[""Black or African-American"",""White""]","No","Female","2048068","null","null","learn_feedback","","","learn_feedback","26.6667","60","out","","","","","","","","","","","","","","","","","","","","","","",""
"","","","","","canvas-keyboard-response","61","267657","0.0-12.0-4.9","2d_cat_multi_stim_exp1","2022-5-4","13:18:45","25","75","3","9","10","40","30","120","88","22","[""Black or African-American"",""White""]","No","Female","2048068","null","null","","","","clear_screen","","","","","","","","","","","","","","","","","","","","","","","","","",""
"","","","","","canvas-keyboard-response","62","268168","0.0-12.0-0.10","2d_cat_multi_stim_exp1","2022-5-4","13:18:45","25","75","3","9","10","40","30","120","88","22","[""Black or African-American"",""White""]","No","Female","2048068","null","null","","","","fixation","","","","","","","","","","","","","","","","","","","","","","","","","",""
"","","","","","canvas-keyboard-response","63","268682","0.0-12.0-1.10","2d_cat_multi_stim_exp1","2022-5-4","13:18:45","25","75","3","9","10","40","30","120","88","22","[""Black or African-American"",""White""]","No","Female","2048068","null","null","","","","clear_screen","","","","","","","","","","","","","","","","","","","","","","","","","",""
"","","","","","canvas-keyboard-response","64","270378","0.0-12.0-2.10","2d_cat_multi_stim_exp1","2022-5-4","13:18:45","25","75","3","9","10","40","30","120","88","22","[""Black or African-American"",""White""]","No","Female","2048068","1687","i","learn","","","learn_trial","16.6667","110","out","0","1","","","","","","","","","","","","","","","","","","","","",""
"","","","","","canvas-keyboard-response","65","270889","0.0-12.0-3.10","2d_cat_multi_stim_exp1","2022-5-4","13:18:45","25","75","3","9","10","40","30","120","88","22","[""Black or African-American"",""White""]","No","Female","2048068","null","null","learn_feedback","","","learn_feedback","16.6667","110","out","","","","","","","","","","","","","","","","","","","","","","",""
"","","","","","canvas-keyboard-response","66","270946","0.0-12.0-4.10","2d_cat_multi_stim_exp1","2022-5-4","13:18:45","25","75","3","9","10","40","30","120","88","22","[""Black or African-American"",""White""]","No","Female","2048068","null","null","","","","clear_screen","","","","","","","","","","","","","","","","","","","","","","","","","",""
"","","","","","canvas-keyboard-response","67","271456","0.0-12.0-0.11","2d_cat_multi_stim_exp1","2022-5-4","13:18:45","25","75","3","9","10","40","30","120","88","22","[""Black or African-American"",""White""]","No","Female","2048068","null","null","","","","fixation","","","","","","","","","","","","","","","","","","","","","","","","","",""
"","","","","","canvas-keyboard-response","68","271966","0.0-12.0-1.11","2d_cat_multi_stim_exp1","2022-5-4","13:18:45","25","75","3","9","10","40","30","120","88","22","[""Black or African-American"",""White""]","No","Female","2048068","null","null","","","","clear_screen","","","","","","","","","","","","","","","","","","","","","","","","","",""
"","","","","","canvas-keyboard-response","69","273537","0.0-12.0-2.11","2d_cat_multi_stim_exp1","2022-5-4","13:18:45","25","75","3","9","10","40","30","120","88","22","[""Black or African-American"",""White""]","No","Female","2048068","1559","i","learn","","","learn_trial","40","100","out","0","1","","","","","","","","","","","","","","","","","","","","",""
"","","","","","canvas-keyboard-response","70","274047","0.0-12.0-3.11","2d_cat_multi_stim_exp1","2022-5-4","13:18:45","25","75","3","9","10","40","30","120","88","22","[""Black or African-American"",""White""]","No","Female","2048068","null","null","learn_feedback","","","learn_feedback","40","100","out","","","","","","","","","","","","","","","","","","","","","","",""
"","","","","","canvas-keyboard-response","71","274107","0.0-12.0-4.11","2d_cat_multi_stim_exp1","2022-5-4","13:18:45","25","75","3","9","10","40","30","120","88","22","[""Black or African-American"",""White""]","No","Female","2048068","null","null","","","","clear_screen","","","","","","","","","","","","","","","","","","","","","","","","","",""
"","","","","","canvas-keyboard-response","72","274617","0.0-12.0-0.12","2d_cat_multi_stim_exp1","2022-5-4","13:18:45","25","75","3","9","10","40","30","120","88","22","[""Black or African-American"",""White""]","No","Female","2048068","null","null","","","","fixation","","","","","","","","","","","","","","","","","","","","","","","","","",""
"","","","","","canvas-keyboard-response","73","275132","0.0-12.0-1.12","2d_cat_multi_stim_exp1","2022-5-4","13:18:45","25","75","3","9","10","40","30","120","88","22","[""Black or African-American"",""White""]","No","Female","2048068","null","null","","","","clear_screen","","","","","","","","","","","","","","","","","","","","","","","","","",""
"","","","","","canvas-keyboard-response","74","277703","0.0-12.0-2.12","2d_cat_multi_stim_exp1","2022-5-4","13:18:45","25","75","3","9","10","40","30","120","88","22","[""Black or African-American"",""White""]","No","Female","2048068","2564","i","learn","","","learn_trial","10","120","out","0","1","","","","","","","","","","","","","","","","","","","","",""
"","","","","","canvas-keyboard-response","75","278213","0.0-12.0-3.12","2d_cat_multi_stim_exp1","2022-5-4","13:18:45","25","75","3","9","10","40","30","120","88","22","[""Black or African-American"",""White""]","No","Female","2048068","null","null","learn_feedback","","","learn_feedback","10","120","out","","","","","","","","","","","","","","","","","","","","","","",""
"","","","","","canvas-keyboard-response","76","278272","0.0-12.0-4.12","2d_cat_multi_stim_exp1","2022-5-4","13:18:45","25","75","3","9","10","40","30","120","88","22","[""Black or African-American"",""White""]","No","Female","2048068","null","null","","","","clear_screen","","","","","","","","","","","","","","","","","","","","","","","","","",""
"","","","","","canvas-keyboard-response","77","278781","0.0-12.0-0.13","2d_cat_multi_stim_exp1","2022-5-4","13:18:45","25","75","3","9","10","40","30","120","88","22","[""Black or African-American"",""White""]","No","Female","2048068","null","null","","","","fixation","","","","","","","","","","","","","","","","","","","","","","","","","",""
"","","","","","canvas-keyboard-response","78","279292","0.0-12.0-1.13","2d_cat_multi_stim_exp1","2022-5-4","13:18:45","25","75","3","9","10","40","30","120","88","22","[""Black or African-American"",""White""]","No","Female","2048068","null","null","","","","clear_screen","","","","","","","","","","","","","","","","","","","","","","","","","",""
"","","","","","canvas-keyboard-response","79","280609","0.0-12.0-2.13","2d_cat_multi_stim_exp1","2022-5-4","13:18:45","25","75","3","9","10","40","30","120","88","22","[""Black or African-American"",""White""]","No","Female","2048068","1312","u","learn","","","learn_trial","25","75","in","1","1","","","","","","","","","","","","","","","","","","","","",""
"","","","","","canvas-keyboard-response","80","281118","0.0-12.0-3.13","2d_cat_multi_stim_exp1","2022-5-4","13:18:45","25","75","3","9","10","40","30","120","88","22","[""Black or African-American"",""White""]","No","Female","2048068","null","null","learn_feedback","","","learn_feedback","25","75","in","","","","","","","","","","","","","","","","","","","","","","",""
"","","","","","canvas-keyboard-response","81","281177","0.0-12.0-4.13","2d_cat_multi_stim_exp1","2022-5-4","13:18:45","25","75","3","9","10","40","30","120","88","22","[""Black or African-American"",""White""]","No","Female","2048068","null","null","","","","clear_screen","","","","","","","","","","","","","","","","","","","","","","","","","",""
"","","","","","canvas-keyboard-response","82","281688","0.0-12.0-0.14","2d_cat_multi_stim_exp1","2022-5-4","13:18:45","25","75","3","9","10","40","30","120","88","22","[""Black or African-American"",""White""]","No","Female","2048068","null","null","","","","fixation","","","","","","","","","","","","","","","","","","","","","","","","","",""
"","","","","","canvas-keyboard-response","83","282202","0.0-12.0-1.14","2d_cat_multi_stim_exp1","2022-5-4","13:18:45","25","75","3","9","10","40","30","120","88","22","[""Black or African-American"",""White""]","No","Female","2048068","null","null","","","","clear_screen","","","","","","","","","","","","","","","","","","","","","","","","","",""
"","","","","","canvas-keyboard-response","84","283561","0.0-12.0-2.14","2d_cat_multi_stim_exp1","2022-5-4","13:18:45","25","75","3","9","10","40","30","120","88","22","[""Black or African-American"",""White""]","No","Female","2048068","1349","i","learn","","","learn_trial","33.3333","60","out","0","1","","","","","","","","","","","","","","","","","","","","",""
"","","","","","canvas-keyboard-response","85","284073","0.0-12.0-3.14","2d_cat_multi_stim_exp1","2022-5-4","13:18:45","25","75","3","9","10","40","30","120","88","22","[""Black or African-American"",""White""]","No","Female","2048068","null","null","learn_feedback","","","learn_feedback","33.3333","60","out","","","","","","","","","","","","","","","","","","","","","","",""
"","","","","","canvas-keyboard-response","86","284132","0.0-12.0-4.14","2d_cat_multi_stim_exp1","2022-5-4","13:18:45","25","75","3","9","10","40","30","120","88","22","[""Black or African-American"",""White""]","No","Female","2048068","null","null","","","","clear_screen","","","","","","","","","","","","","","","","","","","","","","","","","",""
"","","","","","canvas-keyboard-response","87","284640","0.0-12.0-0.15","2d_cat_multi_stim_exp1","2022-5-4","13:18:45","25","75","3","9","10","40","30","120","88","22","[""Black or African-American"",""White""]","No","Female","2048068","null","null","","","","fixation","","","","","","","","","","","","","","","","","","","","","","","","","",""
"","","","","","canvas-keyboard-response","88","285152","0.0-12.0-1.15","2d_cat_multi_stim_exp1","2022-5-4","13:18:45","25","75","3","9","10","40","30","120","88","22","[""Black or African-American"",""White""]","No","Female","2048068","null","null","","","","clear_screen","","","","","","","","","","","","","","","","","","","","","","","","","",""
"","","","","","canvas-keyboard-response","89","286016","0.0-12.0-2.15","2d_cat_multi_stim_exp1","2022-5-4","13:18:45","25","75","3","9","10","40","30","120","88","22","[""Black or African-American"",""White""]","No","Female","2048068","854","u","learn","","","learn_trial","25","75","in","1","1","","","","","","","","","","","","","","","","","","","","",""
"","","","","","canvas-keyboard-response","90","286526","0.0-12.0-3.15","2d_cat_multi_stim_exp1","2022-5-4","13:18:45","25","75","3","9","10","40","30","120","88","22","[""Black or African-American"",""White""]","No","Female","2048068","null","null","learn_feedback","","","learn_feedback","25","75","in","","","","","","","","","","","","","","","","","","","","","","",""
"","","","","","canvas-keyboard-response","91","286582","0.0-12.0-4.15","2d_cat_multi_stim_exp1","2022-5-4","13:18:45","25","75","3","9","10","40","30","120","88","22","[""Black or African-American"",""White""]","No","Female","2048068","null","null","","","","clear_screen","","","","","","","","","","","","","","","","","","","","","","","","","",""
"","","","","","canvas-keyboard-response","92","287090","0.0-12.0-0.16","2d_cat_multi_stim_exp1","2022-5-4","13:18:45","25","75","3","9","10","40","30","120","88","22","[""Black or African-American"",""White""]","No","Female","2048068","null","null","","","","fixation","","","","","","","","","","","","","","","","","","","","","","","","","",""
"","","","","","canvas-keyboard-response","93","287603","0.0-12.0-1.16","2d_cat_multi_stim_exp1","2022-5-4","13:18:45","25","75","3","9","10","40","30","120","88","22","[""Black or African-American"",""White""]","No","Female","2048068","null","null","","","","clear_screen","","","","","","","","","","","","","","","","","","","","","","","","","",""
"","","","","","canvas-keyboard-response","94","288808","0.0-12.0-2.16","2d_cat_multi_stim_exp1","2022-5-4","13:18:45","25","75","3","9","10","40","30","120","88","22","[""Black or African-American"",""White""]","No","Female","2048068","1194","u","learn","","","learn_trial","23.8209","83.2757","in","1","1","","","","","","","","","","","","","","","","","","","","",""
"","","","","","canvas-keyboard-response","95","289322","0.0-12.0-3.16","2d_cat_multi_stim_exp1","2022-5-4","13:18:45","25","75","3","9","10","40","30","120","88","22","[""Black or African-American"",""White""]","No","Female","2048068","null","null","learn_feedback","","","learn_feedback","23.8209","83.2757","in","","","","","","","","","","","","","","","","","","","","","","",""
"","","","","","canvas-keyboard-response","96","289382","0.0-12.0-4.16","2d_cat_multi_stim_exp1","2022-5-4","13:18:45","25","75","3","9","10","40","30","120","88","22","[""Black or African-American"",""White""]","No","Female","2048068","null","null","","","","clear_screen","","","","","","","","","","","","","","","","","","","","","","","","","",""
"","","","","","canvas-keyboard-response","97","289887","0.0-12.0-0.17","2d_cat_multi_stim_exp1","2022-5-4","13:18:45","25","75","3","9","10","40","30","120","88","22","[""Black or African-American"",""White""]","No","Female","2048068","null","null","","","","fixation","","","","","","","","","","","","","","","","","","","","","","","","","",""
"","","","","","canvas-keyboard-response","98","290398","0.0-12.0-1.17","2d_cat_multi_stim_exp1","2022-5-4","13:18:45","25","75","3","9","10","40","30","120","88","22","[""Black or African-American"",""White""]","No","Female","2048068","null","null","","","","clear_screen","","","","","","","","","","","","","","","","","","","","","","","","","",""
"","","","","","canvas-keyboard-response","99","292224","0.0-12.0-2.17","2d_cat_multi_stim_exp1","2022-5-4","13:18:45","25","75","3","9","10","40","30","120","88","22","[""Black or African-American"",""White""]","No","Female","2048068","1818","i","learn","","","learn_trial","36.6667","90","out","0","1","","","","","","","","","","","","","","","","","","","","",""
"","","","","","canvas-keyboard-response","100","292734","0.0-12.0-3.17","2d_cat_multi_stim_exp1","2022-5-4","13:18:45","25","75","3","9","10","40","30","120","88","22","[""Black or African-American"",""White""]","No","Female","2048068","null","null","learn_feedback","","","learn_feedback","36.6667","90","out","","","","","","","","","","","","","","","","","","","","","","",""
"","","","","","canvas-keyboard-response","101","292797","0.0-12.0-4.17","2d_cat_multi_stim_exp1","2022-5-4","13:18:45","25","75","3","9","10","40","30","120","88","22","[""Black or African-American"",""White""]","No","Female","2048068","null","null","","","","clear_screen","","","","","","","","","","","","","","","","","","","","","","","","","",""
"","","","","","canvas-keyboard-response","102","293306","0.0-12.0-0.18","2d_cat_multi_stim_exp1","2022-5-4","13:18:45","25","75","3","9","10","40","30","120","88","22","[""Black or African-American"",""White""]","No","Female","2048068","null","null","","","","fixation","","","","","","","","","","","","","","","","","","","","","","","","","",""
"","","","","","canvas-keyboard-response","103","293815","0.0-12.0-1.18","2d_cat_multi_stim_exp1","2022-5-4","13:18:45","25","75","3","9","10","40","30","120","88","22","[""Black or African-American"",""White""]","No","Female","2048068","null","null","","","","clear_screen","","","","","","","","","","","","","","","","","","","","","","","","","",""
"","","","","","canvas-keyboard-response","104","294721","0.0-12.0-2.18","2d_cat_multi_stim_exp1","2022-5-4","13:18:45","25","75","3","9","10","40","30","120","88","22","[""Black or African-American"",""White""]","No","Female","2048068","894","u","learn","","","learn_trial","25","75","in","1","1","","","","","","","","","","","","","","","","","","","","",""
"","","","","","canvas-keyboard-response","105","295230","0.0-12.0-3.18","2d_cat_multi_stim_exp1","2022-5-4","13:18:45","25","75","3","9","10","40","30","120","88","22","[""Black or African-American"",""White""]","No","Female","2048068","null","null","learn_feedback","","","learn_feedback","25","75","in","","","","","","","","","","","","","","","","","","","","","","",""
"","","","","","canvas-keyboard-response","106","295292","0.0-12.0-4.18","2d_cat_multi_stim_exp1","2022-5-4","13:18:45","25","75","3","9","10","40","30","120","88","22","[""Black or African-American"",""White""]","No","Female","2048068","null","null","","","","clear_screen","","","","","","","","","","","","","","","","","","","","","","","","","",""
"","","","","","canvas-keyboard-response","107","295799","0.0-12.0-0.19","2d_cat_multi_stim_exp1","2022-5-4","13:18:45","25","75","3","9","10","40","30","120","88","22","[""Black or African-American"",""White""]","No","Female","2048068","null","null","","","","fixation","","","","","","","","","","","","","","","","","","","","","","","","","",""
"","","","","","canvas-keyboard-response","108","296311","0.0-12.0-1.19","2d_cat_multi_stim_exp1","2022-5-4","13:18:45","25","75","3","9","10","40","30","120","88","22","[""Black or African-American"",""White""]","No","Female","2048068","null","null","","","","clear_screen","","","","","","","","","","","","","","","","","","","","","","","","","",""
"","","","","","canvas-keyboard-response","109","297489","0.0-12.0-2.19","2d_cat_multi_stim_exp1","2022-5-4","13:18:45","25","75","3","9","10","40","30","120","88","22","[""Black or African-American"",""White""]","No","Female","2048068","1167","u","learn","","","learn_trial","26.6667","110","out","1","0","","","","","","","","","","","","","","","","","","","","",""
"","","","","","canvas-keyboard-response","110","298502","0.0-12.0-3.19","2d_cat_multi_stim_exp1","2022-5-4","13:18:45","25","75","3","9","10","40","30","120","88","22","[""Black or African-American"",""White""]","No","Female","2048068","null","null","learn_feedback","","","learn_feedback","26.6667","110","out","","","","","","","","","","","","","","","","","","","","","","",""
"","","","","","canvas-keyboard-response","111","298565","0.0-12.0-4.19","2d_cat_multi_stim_exp1","2022-5-4","13:18:45","25","75","3","9","10","40","30","120","88","22","[""Black or African-American"",""White""]","No","Female","2048068","null","null","","","","clear_screen","","","","","","","","","","","","","","","","","","","","","","","","","",""
"","","","","","canvas-keyboard-response","112","299077","0.0-12.0-0.20","2d_cat_multi_stim_exp1","2022-5-4","13:18:45","25","75","3","9","10","40","30","120","88","22","[""Black or African-American"",""White""]","No","Female","2048068","null","null","","","","fixation","","","","","","","","","","","","","","","","","","","","","","","","","",""
"","","","","","canvas-keyboard-response","113","299589","0.0-12.0-1.20","2d_cat_multi_stim_exp1","2022-5-4","13:18:45","25","75","3","9","10","40","30","120","88","22","[""Black or African-American"",""White""]","No","Female","2048068","null","null","","","","clear_screen","","","","","","","","","","","","","","","","","","","","","","","","","",""
"","","","","","canvas-keyboard-response","114","300600","0.0-12.0-2.20","2d_cat_multi_stim_exp1","2022-5-4","13:18:45","25","75","3","9","10","40","30","120","88","22","[""Black or African-American"",""White""]","No","Female","2048068","1001","u","learn","","","learn_trial","25","75","in","1","1","","","","","","","","","","","","","","","","","","","","",""
"","","","","","canvas-keyboard-response","115","301110","0.0-12.0-3.20","2d_cat_multi_stim_exp1","2022-5-4","13:18:45","25","75","3","9","10","40","30","120","88","22","[""Black or African-American"",""White""]","No","Female","2048068","null","null","learn_feedback","","","learn_feedback","25","75","in","","","","","","","","","","","","","","","","","","","","","","",""
"","","","","","canvas-keyboard-response","116","301175","0.0-12.0-4.20","2d_cat_multi_stim_exp1","2022-5-4","13:18:45","25","75","3","9","10","40","30","120","88","22","[""Black or African-American"",""White""]","No","Female","2048068","null","null","","","","clear_screen","","","","","","","","","","","","","","","","","","","","","","","","","",""
"","","","","","canvas-keyboard-response","117","301684","0.0-12.0-0.21","2d_cat_multi_stim_exp1","2022-5-4","13:18:45","25","75","3","9","10","40","30","120","88","22","[""Black or African-American"",""White""]","No","Female","2048068","null","null","","","","fixation","","","","","","","","","","","","","","","","","","","","","","","","","",""
"","","","","","canvas-keyboard-response","118","302196","0.0-12.0-1.21","2d_cat_multi_stim_exp1","2022-5-4","13:18:45","25","75","3","9","10","40","30","120","88","22","[""Black or African-American"",""White""]","No","Female","2048068","null","null","","","","clear_screen","","","","","","","","","","","","","","","","","","","","","","","","","",""
"","","","","","canvas-keyboard-response","119","303393","0.0-12.0-2.21","2d_cat_multi_stim_exp1","2022-5-4","13:18:45","25","75","3","9","10","40","30","120","88","22","[""Black or African-American"",""White""]","No","Female","2048068","1190","u","learn","","","learn_trial","23.3333","30","out","1","0","","","","","","","","","","","","","","","","","","","","",""
"","","","","","canvas-keyboard-response","120","304405","0.0-12.0-3.21","2d_cat_multi_stim_exp1","2022-5-4","13:18:45","25","75","3","9","10","40","30","120","88","22","[""Black or African-American"",""White""]","No","Female","2048068","null","null","learn_feedback","","","learn_feedback","23.3333","30","out","","","","","","","","","","","","","","","","","","","","","","",""
"","","","","","canvas-keyboard-response","121","304465","0.0-12.0-4.21","2d_cat_multi_stim_exp1","2022-5-4","13:18:45","25","75","3","9","10","40","30","120","88","22","[""Black or African-American"",""White""]","No","Female","2048068","null","null","","","","clear_screen","","","","","","","","","","","","","","","","","","","","","","","","","",""
"","","","","","canvas-keyboard-response","122","304974","0.0-12.0-0.22","2d_cat_multi_stim_exp1","2022-5-4","13:18:45","25","75","3","9","10","40","30","120","88","22","[""Black or African-American"",""White""]","No","Female","2048068","null","null","","","","fixation","","","","","","","","","","","","","","","","","","","","","","","","","",""
"","","","","","canvas-keyboard-response","123","305482","0.0-12.0-1.22","2d_cat_multi_stim_exp1","2022-5-4","13:18:45","25","75","3","9","10","40","30","120","88","22","[""Black or African-American"",""White""]","No","Female","2048068","null","null","","","","clear_screen","","","","","","","","","","","","","","","","","","","","","","","","","",""
"","","","","","canvas-keyboard-response","124","306521","0.0-12.0-2.22","2d_cat_multi_stim_exp1","2022-5-4","13:18:45","25","75","3","9","10","40","30","120","88","22","[""Black or African-American"",""White""]","No","Female","2048068","1035","i","learn","","","learn_trial","25","75","in","0","0","","","","","","","","","","","","","","","","","","","","",""
"","","","","","canvas-keyboard-response","125","307529","0.0-12.0-3.22","2d_cat_multi_stim_exp1","2022-5-4","13:18:45","25","75","3","9","10","40","30","120","88","22","[""Black or African-American"",""White""]","No","Female","2048068","null","null","learn_feedback","","","learn_feedback","25","75","in","","","","","","","","","","","","","","","","","","","","","","",""
"","","","","","canvas-keyboard-response","126","307591","0.0-12.0-4.22","2d_cat_multi_stim_exp1","2022-5-4","13:18:45","25","75","3","9","10","40","30","120","88","22","[""Black or African-American"",""White""]","No","Female","2048068","null","null","","","","clear_screen","","","","","","","","","","","","","","","","","","","","","","","","","",""
"","","","","","canvas-keyboard-response","127","308099","0.0-12.0-0.23","2d_cat_multi_stim_exp1","2022-5-4","13:18:45","25","75","3","9","10","40","30","120","88","22","[""Black or African-American"",""White""]","No","Female","2048068","null","null","","","","fixation","","","","","","","","","","","","","","","","","","","","","","","","","",""
"","","","","","canvas-keyboard-response","128","308611","0.0-12.0-1.23","2d_cat_multi_stim_exp1","2022-5-4","13:18:45","25","75","3","9","10","40","30","120","88","22","[""Black or African-American"",""White""]","No","Female","2048068","null","null","","","","clear_screen","","","","","","","","","","","","","","","","","","","","","","","","","",""
"","","","","","canvas-keyboard-response","129","309609","0.0-12.0-2.23","2d_cat_multi_stim_exp1","2022-5-4","13:18:45","25","75","3","9","10","40","30","120","88","22","[""Black or African-American"",""White""]","No","Female","2048068","988","i","learn","","","learn_trial","40","40","out","0","1","","","","","","","","","","","","","","","","","","","","",""
"","","","","","canvas-keyboard-response","130","310117","0.0-12.0-3.23","2d_cat_multi_stim_exp1","2022-5-4","13:18:45","25","75","3","9","10","40","30","120","88","22","[""Black or African-American"",""White""]","No","Female","2048068","null","null","learn_feedback","","","learn_feedback","40","40","out","","","","","","","","","","","","","","","","","","","","","","",""
"","","","","","canvas-keyboard-response","131","310177","0.0-12.0-4.23","2d_cat_multi_stim_exp1","2022-5-4","13:18:45","25","75","3","9","10","40","30","120","88","22","[""Black or African-American"",""White""]","No","Female","2048068","null","null","","","","clear_screen","","","","","","","","","","","","","","","","","","","","","","","","","",""
"","","","","","canvas-keyboard-response","132","310685","0.0-12.0-0.24","2d_cat_multi_stim_exp1","2022-5-4","13:18:45","25","75","3","9","10","40","30","120","88","22","[""Black or African-American"",""White""]","No","Female","2048068","null","null","","","","fixation","","","","","","","","","","","","","","","","","","","","","","","","","",""
"","","","","","canvas-keyboard-response","133","311196","0.0-12.0-1.24","2d_cat_multi_stim_exp1","2022-5-4","13:18:45","25","75","3","9","10","40","30","120","88","22","[""Black or African-American"",""White""]","No","Female","2048068","null","null","","","","clear_screen","","","","","","","","","","","","","","","","","","","","","","","","","",""
"","","","","","canvas-keyboard-response","134","312193","0.0-12.0-2.24","2d_cat_multi_stim_exp1","2022-5-4","13:18:45","25","75","3","9","10","40","30","120","88","22","[""Black or African-American"",""White""]","No","Female","2048068","984","i","learn","","","learn_trial","40","80","out","0","1","","","","","","","","","","","","","","","","","","","","",""
"","","","","","canvas-keyboard-response","135","312705","0.0-12.0-3.24","2d_cat_multi_stim_exp1","2022-5-4","13:18:45","25","75","3","9","10","40","30","120","88","22","[""Black or African-American"",""White""]","No","Female","2048068","null","null","learn_feedback","","","learn_feedback","40","80","out","","","","","","","","","","","","","","","","","","","","","","",""
"","","","","","canvas-keyboard-response","136","312765","0.0-12.0-4.24","2d_cat_multi_stim_exp1","2022-5-4","13:18:45","25","75","3","9","10","40","30","120","88","22","[""Black or African-American"",""White""]","No","Female","2048068","null","null","","","","clear_screen","","","","","","","","","","","","","","","","","","","","","","","","","",""
"","","","","","canvas-keyboard-response","137","313276","0.0-12.0-0.25","2d_cat_multi_stim_exp1","2022-5-4","13:18:45","25","75","3","9","10","40","30","120","88","22","[""Black or African-American"",""White""]","No","Female","2048068","null","null","","","","fixation","","","","","","","","","","","","","","","","","","","","","","","","","",""
"","","","","","canvas-keyboard-response","138","313790","0.0-12.0-1.25","2d_cat_multi_stim_exp1","2022-5-4","13:18:45","25","75","3","9","10","40","30","120","88","22","[""Black or African-American"",""White""]","No","Female","2048068","null","null","","","","clear_screen","","","","","","","","","","","","","","","","","","","","","","","","","",""
"","","","","","canvas-keyboard-response","139","315561","0.0-12.0-2.25","2d_cat_multi_stim_exp1","2022-5-4","13:18:45","25","75","3","9","10","40","30","120","88","22","[""Black or African-American"",""White""]","No","Female","2048068","1763","u","learn","","","learn_trial","28","75","in","1","1","","","","","","","","","","","","","","","","","","","","",""
"","","","","","canvas-keyboard-response","140","316073","0.0-12.0-3.25","2d_cat_multi_stim_exp1","2022-5-4","13:18:45","25","75","3","9","10","40","30","120","88","22","[""Black or African-American"",""White""]","No","Female","2048068","null","null","learn_feedback","","","learn_feedback","28","75","in","","","","","","","","","","","","","","","","","","","","","","",""
"","","","","","canvas-keyboard-response","141","316131","0.0-12.0-4.25","2d_cat_multi_stim_exp1","2022-5-4","13:18:45","25","75","3","9","10","40","30","120","88","22","[""Black or African-American"",""White""]","No","Female","2048068","null","null","","","","clear_screen","","","","","","","","","","","","","","","","","","","","","","","","","",""
"","","","","","canvas-keyboard-response","142","316639","0.0-12.0-0.26","2d_cat_multi_stim_exp1","2022-5-4","13:18:45","25","75","3","9","10","40","30","120","88","22","[""Black or African-American"",""White""]","No","Female","2048068","null","null","","","","fixation","","","","","","","","","","","","","","","","","","","","","","","","","",""
"","","","","","canvas-keyboard-response","143","317147","0.0-12.0-1.26","2d_cat_multi_stim_exp1","2022-5-4","13:18:45","25","75","3","9","10","40","30","120","88","22","[""Black or African-American"",""White""]","No","Female","2048068","null","null","","","","clear_screen","","","","","","","","","","","","","","","","","","","","","","","","","",""
"","","","","","canvas-keyboard-response","144","317936","0.0-12.0-2.26","2d_cat_multi_stim_exp1","2022-5-4","13:18:45","25","75","3","9","10","40","30","120","88","22","[""Black or African-American"",""White""]","No","Female","2048068","776","u","learn","","","learn_trial","25","75","in","1","1","","","","","","","","","","","","","","","","","","","","",""
"","","","","","canvas-keyboard-response","145","318450","0.0-12.0-3.26","2d_cat_multi_stim_exp1","2022-5-4","13:18:45","25","75","3","9","10","40","30","120","88","22","[""Black or African-American"",""White""]","No","Female","2048068","null","null","learn_feedback","","","learn_feedback","25","75","in","","","","","","","","","","","","","","","","","","","","","","",""
"","","","","","canvas-keyboard-response","146","318508","0.0-12.0-4.26","2d_cat_multi_stim_exp1","2022-5-4","13:18:45","25","75","3","9","10","40","30","120","88","22","[""Black or African-American"",""White""]","No","Female","2048068","null","null","","","","clear_screen","","","","","","","","","","","","","","","","","","","","","","","","","",""
"","","","","","canvas-keyboard-response","147","319015","0.0-12.0-0.27","2d_cat_multi_stim_exp1","2022-5-4","13:18:45","25","75","3","9","10","40","30","120","88","22","[""Black or African-American"",""White""]","No","Female","2048068","null","null","","","","fixation","","","","","","","","","","","","","","","","","","","","","","","","","",""
"","","","","","canvas-keyboard-response","148","319527","0.0-12.0-1.27","2d_cat_multi_stim_exp1","2022-5-4","13:18:45","25","75","3","9","10","40","30","120","88","22","[""Black or African-American"",""White""]","No","Female","2048068","null","null","","","","clear_screen","","","","","","","","","","","","","","","","","","","","","","","","","",""
"","","","","","canvas-keyboard-response","149","320433","0.0-12.0-2.27","2d_cat_multi_stim_exp1","2022-5-4","13:18:45","25","75","3","9","10","40","30","120","88","22","[""Black or African-American"",""White""]","No","Female","2048068","896","u","learn","","","learn_trial","25","57","in","1","1","","","","","","","","","","","","","","","","","","","","",""
"","","","","","canvas-keyboard-response","150","320942","0.0-12.0-3.27","2d_cat_multi_stim_exp1","2022-5-4","13:18:45","25","75","3","9","10","40","30","120","88","22","[""Black or African-American"",""White""]","No","Female","2048068","null","null","learn_feedback","","","learn_feedback","25","57","in","","","","","","","","","","","","","","","","","","","","","","",""
"","","","","","canvas-keyboard-response","151","321002","0.0-12.0-4.27","2d_cat_multi_stim_exp1","2022-5-4","13:18:45","25","75","3","9","10","40","30","120","88","22","[""Black or African-American"",""White""]","No","Female","2048068","null","null","","","","clear_screen","","","","","","","","","","","","","","","","","","","","","","","","","",""
"","","","","","canvas-keyboard-response","152","321513","0.0-12.0-0.28","2d_cat_multi_stim_exp1","2022-5-4","13:18:45","25","75","3","9","10","40","30","120","88","22","[""Black or African-American"",""White""]","No","Female","2048068","null","null","","","","fixation","","","","","","","","","","","","","","","","","","","","","","","","","",""
"","","","","","canvas-keyboard-response","153","322027","0.0-12.0-1.28","2d_cat_multi_stim_exp1","2022-5-4","13:18:45","25","75","3","9","10","40","30","120","88","22","[""Black or African-American"",""White""]","No","Female","2048068","null","null","","","","clear_screen","","","","","","","","","","","","","","","","","","","","","","","","","",""
"","","","","","canvas-keyboard-response","154","323119","0.0-12.0-2.28","2d_cat_multi_stim_exp1","2022-5-4","13:18:45","25","75","3","9","10","40","30","120","88","22","[""Black or African-American"",""White""]","No","Female","2048068","1081","i","learn","","","learn_trial","20","70","out","0","1","","","","","","","","","","","","","","","","","","","","",""
"","","","","","canvas-keyboard-response","155","323625","0.0-12.0-3.28","2d_cat_multi_stim_exp1","2022-5-4","13:18:45","25","75","3","9","10","40","30","120","88","22","[""Black or African-American"",""White""]","No","Female","2048068","null","null","learn_feedback","","","learn_feedback","20","70","out","","","","","","","","","","","","","","","","","","","","","","",""
"","","","","","canvas-keyboard-response","156","323686","0.0-12.0-4.28","2d_cat_multi_stim_exp1","2022-5-4","13:18:45","25","75","3","9","10","40","30","120","88","22","[""Black or African-American"",""White""]","No","Female","2048068","null","null","","","","clear_screen","","","","","","","","","","","","","","","","","","","","","","","","","",""
"","","","","","canvas-keyboard-response","157","324198","0.0-12.0-0.29","2d_cat_multi_stim_exp1","2022-5-4","13:18:45","25","75","3","9","10","40","30","120","88","22","[""Black or African-American"",""White""]","No","Female","2048068","null","null","","","","fixation","","","","","","","","","","","","","","","","","","","","","","","","","",""
"","","","","","canvas-keyboard-response","158","324712","0.0-12.0-1.29","2d_cat_multi_stim_exp1","2022-5-4","13:18:45","25","75","3","9","10","40","30","120","88","22","[""Black or African-American"",""White""]","No","Female","2048068","null","null","","","","clear_screen","","","","","","","","","","","","","","","","","","","","","","","","","",""
"","","","","","canvas-keyboard-response","159","325793","0.0-12.0-2.29","2d_cat_multi_stim_exp1","2022-5-4","13:18:45","25","75","3","9","10","40","30","120","88","22","[""Black or African-American"",""White""]","No","Female","2048068","1072","u","learn","","","learn_trial","25","75","in","1","1","","","","","","","","","","","","","","","","","","","","",""
"","","","","","canvas-keyboard-response","160","326304","0.0-12.0-3.29","2d_cat_multi_stim_exp1","2022-5-4","13:18:45","25","75","3","9","10","40","30","120","88","22","[""Black or African-American"",""White""]","No","Female","2048068","null","null","learn_feedback","","","learn_feedback","25","75","in","","","","","","","","","","","","","","","","","","","","","","",""
"","","","","","canvas-keyboard-response","161","326363","0.0-12.0-4.29","2d_cat_multi_stim_exp1","2022-5-4","13:18:45","25","75","3","9","10","40","30","120","88","22","[""Black or African-American"",""White""]","No","Female","2048068","null","null","","","","clear_screen","","","","","","","","","","","","","","","","","","","","","","","","","",""
"","","","","","canvas-keyboard-response","162","326873","0.0-12.0-0.30","2d_cat_multi_stim_exp1","2022-5-4","13:18:45","25","75","3","9","10","40","30","120","88","22","[""Black or African-American"",""White""]","No","Female","2048068","null","null","","","","fixation","","","","","","","","","","","","","","","","","","","","","","","","","",""
"","","","","","canvas-keyboard-response","163","327386","0.0-12.0-1.30","2d_cat_multi_stim_exp1","2022-5-4","13:18:45","25","75","3","9","10","40","30","120","88","22","[""Black or African-American"",""White""]","No","Female","2048068","null","null","","","","clear_screen","","","","","","","","","","","","","","","","","","","","","","","","","",""
"","","","","","canvas-keyboard-response","164","328306","0.0-12.0-2.30","2d_cat_multi_stim_exp1","2022-5-4","13:18:45","25","75","3","9","10","40","30","120","88","22","[""Black or African-American"",""White""]","No","Female","2048068","911","i","learn","","","learn_trial","10","40","out","0","1","","","","","","","","","","","","","","","","","","","","",""
"","","","","","canvas-keyboard-response","165","328817","0.0-12.0-3.30","2d_cat_multi_stim_exp1","2022-5-4","13:18:45","25","75","3","9","10","40","30","120","88","22","[""Black or African-American"",""White""]","No","Female","2048068","null","null","learn_feedback","","","learn_feedback","10","40","out","","","","","","","","","","","","","","","","","","","","","","",""
"","","","","","canvas-keyboard-response","166","328877","0.0-12.0-4.30","2d_cat_multi_stim_exp1","2022-5-4","13:18:45","25","75","3","9","10","40","30","120","88","22","[""Black or African-American"",""White""]","No","Female","2048068","null","null","","","","clear_screen","","","","","","","","","","","","","","","","","","","","","","","","","",""
"","","","","","canvas-keyboard-response","167","329390","0.0-12.0-0.31","2d_cat_multi_stim_exp1","2022-5-4","13:18:45","25","75","3","9","10","40","30","120","88","22","[""Black or African-American"",""White""]","No","Female","2048068","null","null","","","","fixation","","","","","","","","","","","","","","","","","","","","","","","","","",""
"","","","","","canvas-keyboard-response","168","329901","0.0-12.0-1.31","2d_cat_multi_stim_exp1","2022-5-4","13:18:45","25","75","3","9","10","40","30","120","88","22","[""Black or African-American"",""White""]","No","Female","2048068","null","null","","","","clear_screen","","","","","","","","","","","","","","","","","","","","","","","","","",""
"","","","","","canvas-keyboard-response","169","331970","0.0-12.0-2.31","2d_cat_multi_stim_exp1","2022-5-4","13:18:45","25","75","3","9","10","40","30","120","88","22","[""Black or African-American"",""White""]","No","Female","2048068","2059","u","learn","","","learn_trial","30","90","out","1","0","","","","","","","","","","","","","","","","","","","","",""
"","","","","","canvas-keyboard-response","170","332980","0.0-12.0-3.31","2d_cat_multi_stim_exp1","2022-5-4","13:18:45","25","75","3","9","10","40","30","120","88","22","[""Black or African-American"",""White""]","No","Female","2048068","null","null","learn_feedback","","","learn_feedback","30","90","out","","","","","","","","","","","","","","","","","","","","","","",""
"","","","","","canvas-keyboard-response","171","333038","0.0-12.0-4.31","2d_cat_multi_stim_exp1","2022-5-4","13:18:45","25","75","3","9","10","40","30","120","88","22","[""Black or African-American"",""White""]","No","Female","2048068","null","null","","","","clear_screen","","","","","","","","","","","","","","","","","","","","","","","","","",""
"","","","","","canvas-keyboard-response","172","333549","0.0-12.0-0.32","2d_cat_multi_stim_exp1","2022-5-4","13:18:45","25","75","3","9","10","40","30","120","88","22","[""Black or African-American"",""White""]","No","Female","2048068","null","null","","","","fixation","","","","","","","","","","","","","","","","","","","","","","","","","",""
"","","","","","canvas-keyboard-response","173","334063","0.0-12.0-1.32","2d_cat_multi_stim_exp1","2022-5-4","13:18:45","25","75","3","9","10","40","30","120","88","22","[""Black or African-American"",""White""]","No","Female","2048068","null","null","","","","clear_screen","","","","","","","","","","","","","","","","","","","","","","","","","",""
"","","","","","canvas-keyboard-response","174","335096","0.0-12.0-2.32","2d_cat_multi_stim_exp1","2022-5-4","13:18:45","25","75","3","9","10","40","30","120","88","22","[""Black or African-American"",""White""]","No","Female","2048068","1025","u","learn","","","learn_trial","25","75","in","1","1","","","","","","","","","","","","","","","","","","","","",""
"","","","","","canvas-keyboard-response","175","335607","0.0-12.0-3.32","2d_cat_multi_stim_exp1","2022-5-4","13:18:45","25","75","3","9","10","40","30","120","88","22","[""Black or African-American"",""White""]","No","Female","2048068","null","null","learn_feedback","","","learn_feedback","25","75","in","","","","","","","","","","","","","","","","","","","","","","",""
"","","","","","canvas-keyboard-response","176","335669","0.0-12.0-4.32","2d_cat_multi_stim_exp1","2022-5-4","13:18:45","25","75","3","9","10","40","30","120","88","22","[""Black or African-American"",""White""]","No","Female","2048068","null","null","","","","clear_screen","","","","","","","","","","","","","","","","","","","","","","","","","",""
"","","","","","canvas-keyboard-response","177","336178","0.0-12.0-0.33","2d_cat_multi_stim_exp1","2022-5-4","13:18:45","25","75","3","9","10","40","30","120","88","22","[""Black or African-American"",""White""]","No","Female","2048068","null","null","","","","fixation","","","","","","","","","","","","","","","","","","","","","","","","","",""
"","","","","","canvas-keyboard-response","178","336687","0.0-12.0-1.33","2d_cat_multi_stim_exp1","2022-5-4","13:18:45","25","75","3","9","10","40","30","120","88","22","[""Black or African-American"",""White""]","No","Female","2048068","null","null","","","","clear_screen","","","","","","","","","","","","","","","","","","","","","","","","","",""
"","","","","","canvas-keyboard-response","179","337553","0.0-12.0-2.33","2d_cat_multi_stim_exp1","2022-5-4","13:18:45","25","75","3","9","10","40","30","120","88","22","[""Black or African-American"",""White""]","No","Female","2048068","856","i","learn","","","learn_trial","33.3333","30","out","0","1","","","","","","","","","","","","","","","","","","","","",""
"","","","","","canvas-keyboard-response","180","338062","0.0-12.0-3.33","2d_cat_multi_stim_exp1","2022-5-4","13:18:45","25","75","3","9","10","40","30","120","88","22","[""Black or African-American"",""White""]","No","Female","2048068","null","null","learn_feedback","","","learn_feedback","33.3333","30","out","","","","","","","","","","","","","","","","","","","","","","",""
"","","","","","canvas-keyboard-response","181","338121","0.0-12.0-4.33","2d_cat_multi_stim_exp1","2022-5-4","13:18:45","25","75","3","9","10","40","30","120","88","22","[""Black or African-American"",""White""]","No","Female","2048068","null","null","","","","clear_screen","","","","","","","","","","","","","","","","","","","","","","","","","",""
"","","","","","canvas-keyboard-response","182","338632","0.0-12.0-0.34","2d_cat_multi_stim_exp1","2022-5-4","13:18:45","25","75","3","9","10","40","30","120","88","22","[""Black or African-American"",""White""]","No","Female","2048068","null","null","","","","fixation","","","","","","","","","","","","","","","","","","","","","","","","","",""
"","","","","","canvas-keyboard-response","183","339142","0.0-12.0-1.34","2d_cat_multi_stim_exp1","2022-5-4","13:18:45","25","75","3","9","10","40","30","120","88","22","[""Black or African-American"",""White""]","No","Female","2048068","null","null","","","","clear_screen","","","","","","","","","","","","","","","","","","","","","","","","","",""
"","","","","","canvas-keyboard-response","184","340129","0.0-12.0-2.34","2d_cat_multi_stim_exp1","2022-5-4","13:18:45","25","75","3","9","10","40","30","120","88","22","[""Black or African-American"",""White""]","No","Female","2048068","975","u","learn","","","learn_trial","22.1081","77.3943","in","1","1","","","","","","","","","","","","","","","","","","","","",""
"","","","","","canvas-keyboard-response","185","340638","0.0-12.0-3.34","2d_cat_multi_stim_exp1","2022-5-4","13:18:45","25","75","3","9","10","40","30","120","88","22","[""Black or African-American"",""White""]","No","Female","2048068","null","null","learn_feedback","","","learn_feedback","22.1081","77.3943","in","","","","","","","","","","","","","","","","","","","","","","",""
"","","","","","canvas-keyboard-response","186","340698","0.0-12.0-4.34","2d_cat_multi_stim_exp1","2022-5-4","13:18:45","25","75","3","9","10","40","30","120","88","22","[""Black or African-American"",""White""]","No","Female","2048068","null","null","","","","clear_screen","","","","","","","","","","","","","","","","","","","","","","","","","",""
"","","","","","canvas-keyboard-response","187","341209","0.0-12.0-0.35","2d_cat_multi_stim_exp1","2022-5-4","13:18:45","25","75","3","9","10","40","30","120","88","22","[""Black or African-American"",""White""]","No","Female","2048068","null","null","","","","fixation","","","","","","","","","","","","","","","","","","","","","","","","","",""
"","","","","","canvas-keyboard-response","188","341720","0.0-12.0-1.35","2d_cat_multi_stim_exp1","2022-5-4","13:18:45","25","75","3","9","10","40","30","120","88","22","[""Black or African-American"",""White""]","No","Female","2048068","null","null","","","","clear_screen","","","","","","","","","","","","","","","","","","","","","","","","","",""
"","","","","","canvas-keyboard-response","189","343800","0.0-12.0-2.35","2d_cat_multi_stim_exp1","2022-5-4","13:18:45","25","75","3","9","10","40","30","120","88","22","[""Black or African-American"",""White""]","No","Female","2048068","2073","u","learn","","","learn_trial","25","75","in","1","1","","","","","","","","","","","","","","","","","","","","",""
"","","","","","canvas-keyboard-response","190","344310","0.0-12.0-3.35","2d_cat_multi_stim_exp1","2022-5-4","13:18:45","25","75","3","9","10","40","30","120","88","22","[""Black or African-American"",""White""]","No","Female","2048068","null","null","learn_feedback","","","learn_feedback","25","75","in","","","","","","","","","","","","","","","","","","","","","","",""
"","","","","","canvas-keyboard-response","191","344371","0.0-12.0-4.35","2d_cat_multi_stim_exp1","2022-5-4","13:18:45","25","75","3","9","10","40","30","120","88","22","[""Black or African-American"",""White""]","No","Female","2048068","null","null","","","","clear_screen","","","","","","","","","","","","","","","","","","","","","","","","","",""
"","","","","","canvas-keyboard-response","192","344879","0.0-12.0-0.36","2d_cat_multi_stim_exp1","2022-5-4","13:18:45","25","75","3","9","10","40","30","120","88","22","[""Black or African-American"",""White""]","No","Female","2048068","null","null","","","","fixation","","","","","","","","","","","","","","","","","","","","","","","","","",""
"","","","","","canvas-keyboard-response","193","345391","0.0-12.0-1.36","2d_cat_multi_stim_exp1","2022-5-4","13:18:45","25","75","3","9","10","40","30","120","88","22","[""Black or African-American"",""White""]","No","Female","2048068","null","null","","","","clear_screen","","","","","","","","","","","","","","","","","","","","","","","","","",""
"","","","","","canvas-keyboard-response","194","346401","0.0-12.0-2.36","2d_cat_multi_stim_exp1","2022-5-4","13:18:45","25","75","3","9","10","40","30","120","88","22","[""Black or African-American"",""White""]","No","Female","2048068","1001","u","learn","","","learn_trial","22.2971","78.905","in","1","1","","","","","","","","","","","","","","","","","","","","",""
"","","","","","canvas-keyboard-response","195","346910","0.0-12.0-3.36","2d_cat_multi_stim_exp1","2022-5-4","13:18:45","25","75","3","9","10","40","30","120","88","22","[""Black or African-American"",""White""]","No","Female","2048068","null","null","learn_feedback","","","learn_feedback","22.2971","78.905","in","","","","","","","","","","","","","","","","","","","","","","",""
"","","","","","canvas-keyboard-response","196","346972","0.0-12.0-4.36","2d_cat_multi_stim_exp1","2022-5-4","13:18:45","25","75","3","9","10","40","30","120","88","22","[""Black or African-American"",""White""]","No","Female","2048068","null","null","","","","clear_screen","","","","","","","","","","","","","","","","","","","","","","","","","",""
"","","","","","canvas-keyboard-response","197","347480","0.0-12.0-0.37","2d_cat_multi_stim_exp1","2022-5-4","13:18:45","25","75","3","9","10","40","30","120","88","22","[""Black or African-American"",""White""]","No","Female","2048068","null","null","","","","fixation","","","","","","","","","","","","","","","","","","","","","","","","","",""
"","","","","","canvas-keyboard-response","198","347994","0.0-12.0-1.37","2d_cat_multi_stim_exp1","2022-5-4","13:18:45","25","75","3","9","10","40","30","120","88","22","[""Black or African-American"",""White""]","No","Female","2048068","null","null","","","","clear_screen","","","","","","","","","","","","","","","","","","","","","","","","","",""
"","","","","","canvas-keyboard-response","199","349920","0.0-12.0-2.37","2d_cat_multi_stim_exp1","2022-5-4","13:18:45","25","75","3","9","10","40","30","120","88","22","[""Black or African-American"",""White""]","No","Female","2048068","1917","u","learn","","","learn_trial","25","75","in","1","1","","","","","","","","","","","","","","","","","","","","",""
"","","","","","canvas-keyboard-response","200","350432","0.0-12.0-3.37","2d_cat_multi_stim_exp1","2022-5-4","13:18:45","25","75","3","9","10","40","30","120","88","22","[""Black or African-American"",""White""]","No","Female","2048068","null","null","learn_feedback","","","learn_feedback","25","75","in","","","","","","","","","","","","","","","","","","","","","","",""
"","","","","","canvas-keyboard-response","201","350495","0.0-12.0-4.37","2d_cat_multi_stim_exp1","2022-5-4","13:18:45","25","75","3","9","10","40","30","120","88","22","[""Black or African-American"",""White""]","No","Female","2048068","null","null","","","","clear_screen","","","","","","","","","","","","","","","","","","","","","","","","","",""
"","","","","","canvas-keyboard-response","202","351005","0.0-12.0-0.38","2d_cat_multi_stim_exp1","2022-5-4","13:18:45","25","75","3","9","10","40","30","120","88","22","[""Black or African-American"",""White""]","No","Female","2048068","null","null","","","","fixation","","","","","","","","","","","","","","","","","","","","","","","","","",""
"","","","","","canvas-keyboard-response","203","351515","0.0-12.0-1.38","2d_cat_multi_stim_exp1","2022-5-4","13:18:45","25","75","3","9","10","40","30","120","88","22","[""Black or African-American"",""White""]","No","Female","2048068","null","null","","","","clear_screen","","","","","","","","","","","","","","","","","","","","","","","","","",""
"","","","","","canvas-keyboard-response","204","352384","0.0-12.0-2.38","2d_cat_multi_stim_exp1","2022-5-4","13:18:45","25","75","3","9","10","40","30","120","88","22","[""Black or African-American"",""White""]","No","Female","2048068","857","i","learn","","","learn_trial","16.6667","100","out","0","1","","","","","","","","","","","","","","","","","","","","",""
"","","","","","canvas-keyboard-response","205","352894","0.0-12.0-3.38","2d_cat_multi_stim_exp1","2022-5-4","13:18:45","25","75","3","9","10","40","30","120","88","22","[""Black or African-American"",""White""]","No","Female","2048068","null","null","learn_feedback","","","learn_feedback","16.6667","100","out","","","","","","","","","","","","","","","","","","","","","","",""
"","","","","","canvas-keyboard-response","206","352953","0.0-12.0-4.38","2d_cat_multi_stim_exp1","2022-5-4","13:18:45","25","75","3","9","10","40","30","120","88","22","[""Black or African-American"",""White""]","No","Female","2048068","null","null","","","","clear_screen","","","","","","","","","","","","","","","","","","","","","","","","","",""
"","","","","","canvas-keyboard-response","207","353462","0.0-12.0-0.39","2d_cat_multi_stim_exp1","2022-5-4","13:18:45","25","75","3","9","10","40","30","120","88","22","[""Black or African-American"",""White""]","No","Female","2048068","null","null","","","","fixation","","","","","","","","","","","","","","","","","","","","","","","","","",""
"","","","","","canvas-keyboard-response","208","353972","0.0-12.0-1.39","2d_cat_multi_stim_exp1","2022-5-4","13:18:45","25","75","3","9","10","40","30","120","88","22","[""Black or African-American"",""White""]","No","Female","2048068","null","null","","","","clear_screen","","","","","","","","","","","","","","","","","","","","","","","","","",""
"","","","","","canvas-keyboard-response","209","354600","0.0-12.0-2.39","2d_cat_multi_stim_exp1","2022-5-4","13:18:45","25","75","3","9","10","40","30","120","88","22","[""Black or African-American"",""White""]","No","Female","2048068","619","u","learn","","","learn_trial","25","75","in","1","1","","","","","","","","","","","","","","","","","","","","",""
"","","","","","canvas-keyboard-response","210","355109","0.0-12.0-3.39","2d_cat_multi_stim_exp1","2022-5-4","13:18:45","25","75","3","9","10","40","30","120","88","22","[""Black or African-American"",""White""]","No","Female","2048068","null","null","learn_feedback","","","learn_feedback","25","75","in","","","","","","","","","","","","","","","","","","","","","","",""
"","","","","","canvas-keyboard-response","211","355171","0.0-12.0-4.39","2d_cat_multi_stim_exp1","2022-5-4","13:18:45","25","75","3","9","10","40","30","120","88","22","[""Black or African-American"",""White""]","No","Female","2048068","null","null","","","","clear_screen","","","","","","","","","","","","","","","","","","","","","","","","","",""
"","","","","","canvas-keyboard-response","212","355679","0.0-12.0-0.40","2d_cat_multi_stim_exp1","2022-5-4","13:18:45","25","75","3","9","10","40","30","120","88","22","[""Black or African-American"",""White""]","No","Female","2048068","null","null","","","","fixation","","","","","","","","","","","","","","","","","","","","","","","","","",""
"","","","","","canvas-keyboard-response","213","356191","0.0-12.0-1.40","2d_cat_multi_stim_exp1","2022-5-4","13:18:45","25","75","3","9","10","40","30","120","88","22","[""Black or African-American"",""White""]","No","Female","2048068","null","null","","","","clear_screen","","","","","","","","","","","","","","","","","","","","","","","","","",""
"","","","","","canvas-keyboard-response","214","357679","0.0-12.0-2.40","2d_cat_multi_stim_exp1","2022-5-4","13:18:45","25","75","3","9","10","40","30","120","88","22","[""Black or African-American"",""White""]","No","Female","2048068","1479","u","learn","","","learn_trial","23.3473","82.5112","in","1","1","","","","","","","","","","","","","","","","","","","","",""
"","","","","","canvas-keyboard-response","215","358191","0.0-12.0-3.40","2d_cat_multi_stim_exp1","2022-5-4","13:18:45","25","75","3","9","10","40","30","120","88","22","[""Black or African-American"",""White""]","No","Female","2048068","null","null","learn_feedback","","","learn_feedback","23.3473","82.5112","in","","","","","","","","","","","","","","","","","","","","","","",""
"","","","","","canvas-keyboard-response","216","358253","0.0-12.0-4.40","2d_cat_multi_stim_exp1","2022-5-4","13:18:45","25","75","3","9","10","40","30","120","88","22","[""Black or African-American"",""White""]","No","Female","2048068","null","null","","","","clear_screen","","","","","","","","","","","","","","","","","","","","","","","","","",""
"","","","","","canvas-keyboard-response","217","358760","0.0-12.0-0.41","2d_cat_multi_stim_exp1","2022-5-4","13:18:45","25","75","3","9","10","40","30","120","88","22","[""Black or African-American"",""White""]","No","Female","2048068","null","null","","","","fixation","","","","","","","","","","","","","","","","","","","","","","","","","",""
"","","","","","canvas-keyboard-response","218","359271","0.0-12.0-1.41","2d_cat_multi_stim_exp1","2022-5-4","13:18:45","25","75","3","9","10","40","30","120","88","22","[""Black or African-American"",""White""]","No","Female","2048068","null","null","","","","clear_screen","","","","","","","","","","","","","","","","","","","","","","","","","",""
"","","","","","canvas-keyboard-response","219","360048","0.0-12.0-2.41","2d_cat_multi_stim_exp1","2022-5-4","13:18:45","25","75","3","9","10","40","30","120","88","22","[""Black or African-American"",""White""]","No","Female","2048068","769","i","learn","","","learn_trial","40","110","out","0","1","","","","","","","","","","","","","","","","","","","","",""
"","","","","","canvas-keyboard-response","220","360559","0.0-12.0-3.41","2d_cat_multi_stim_exp1","2022-5-4","13:18:45","25","75","3","9","10","40","30","120","88","22","[""Black or African-American"",""White""]","No","Female","2048068","null","null","learn_feedback","","","learn_feedback","40","110","out","","","","","","","","","","","","","","","","","","","","","","",""
"","","","","","canvas-keyboard-response","221","360619","0.0-12.0-4.41","2d_cat_multi_stim_exp1","2022-5-4","13:18:45","25","75","3","9","10","40","30","120","88","22","[""Black or African-American"",""White""]","No","Female","2048068","null","null","","","","clear_screen","","","","","","","","","","","","","","","","","","","","","","","","","",""
"","","","","","canvas-keyboard-response","222","361129","0.0-12.0-0.42","2d_cat_multi_stim_exp1","2022-5-4","13:18:45","25","75","3","9","10","40","30","120","88","22","[""Black or African-American"",""White""]","No","Female","2048068","null","null","","","","fixation","","","","","","","","","","","","","","","","","","","","","","","","","",""
"","","","","","canvas-keyboard-response","223","361642","0.0-12.0-1.42","2d_cat_multi_stim_exp1","2022-5-4","13:18:45","25","75","3","9","10","40","30","120","88","22","[""Black or African-American"",""White""]","No","Female","2048068","null","null","","","","clear_screen","","","","","","","","","","","","","","","","","","","","","","","","","",""
"","","","","","canvas-keyboard-response","224","362632","0.0-12.0-2.42","2d_cat_multi_stim_exp1","2022-5-4","13:18:45","25","75","3","9","10","40","30","120","88","22","[""Black or African-American"",""White""]","No","Female","2048068","979","i","learn","","","learn_trial","16.6667","90","out","0","1","","","","","","","","","","","","","","","","","","","","",""
"","","","","","canvas-keyboard-response","225","363142","0.0-12.0-3.42","2d_cat_multi_stim_exp1","2022-5-4","13:18:45","25","75","3","9","10","40","30","120","88","22","[""Black or African-American"",""White""]","No","Female","2048068","null","null","learn_feedback","","","learn_feedback","16.6667","90","out","","","","","","","","","","","","","","","","","","","","","","",""
"","","","","","canvas-keyboard-response","226","363203","0.0-12.0-4.42","2d_cat_multi_stim_exp1","2022-5-4","13:18:45","25","75","3","9","10","40","30","120","88","22","[""Black or African-American"",""White""]","No","Female","2048068","null","null","","","","clear_screen","","","","","","","","","","","","","","","","","","","","","","","","","",""
"","","","","","canvas-keyboard-response","227","363712","0.0-12.0-0.43","2d_cat_multi_stim_exp1","2022-5-4","13:18:45","25","75","3","9","10","40","30","120","88","22","[""Black or African-American"",""White""]","No","Female","2048068","null","null","","","","fixation","","","","","","","","","","","","","","","","","","","","","","","","","",""
"","","","","","canvas-keyboard-response","228","364220","0.0-12.0-1.43","2d_cat_multi_stim_exp1","2022-5-4","13:18:45","25","75","3","9","10","40","30","120","88","22","[""Black or African-American"",""White""]","No","Female","2048068","null","null","","","","clear_screen","","","","","","","","","","","","","","","","","","","","","","","","","",""
"","","","","","canvas-keyboard-response","229","365464","0.0-12.0-2.43","2d_cat_multi_stim_exp1","2022-5-4","13:18:45","25","75","3","9","10","40","30","120","88","22","[""Black or African-American"",""White""]","No","Female","2048068","1234","u","learn","","","learn_trial","26.6667","100","out","1","0","","","","","","","","","","","","","","","","","","","","",""
"","","","","","canvas-keyboard-response","230","366474","0.0-12.0-3.43","2d_cat_multi_stim_exp1","2022-5-4","13:18:45","25","75","3","9","10","40","30","120","88","22","[""Black or African-American"",""White""]","No","Female","2048068","null","null","learn_feedback","","","learn_feedback","26.6667","100","out","","","","","","","","","","","","","","","","","","","","","","",""
"","","","","","canvas-keyboard-response","231","366533","0.0-12.0-4.43","2d_cat_multi_stim_exp1","2022-5-4","13:18:45","25","75","3","9","10","40","30","120","88","22","[""Black or African-American"",""White""]","No","Female","2048068","null","null","","","","clear_screen","","","","","","","","","","","","","","","","","","","","","","","","","",""
"","","","","","canvas-keyboard-response","232","367044","0.0-12.0-0.44","2d_cat_multi_stim_exp1","2022-5-4","13:18:45","25","75","3","9","10","40","30","120","88","22","[""Black or African-American"",""White""]","No","Female","2048068","null","null","","","","fixation","","","","","","","","","","","","","","","","","","","","","","","","","",""
"","","","","","canvas-keyboard-response","233","367559","0.0-12.0-1.44","2d_cat_multi_stim_exp1","2022-5-4","13:18:45","25","75","3","9","10","40","30","120","88","22","[""Black or African-American"",""White""]","No","Female","2048068","null","null","","","","clear_screen","","","","","","","","","","","","","","","","","","","","","","","","","",""
"","","","","","canvas-keyboard-response","234","368417","0.0-12.0-2.44","2d_cat_multi_stim_exp1","2022-5-4","13:18:45","25","75","3","9","10","40","30","120","88","22","[""Black or African-American"",""White""]","No","Female","2048068","847","u","learn","","","learn_trial","23.3333","50","out","1","0","","","","","","","","","","","","","","","","","","","","",""
"","","","","","canvas-keyboard-response","235","369424","0.0-12.0-3.44","2d_cat_multi_stim_exp1","2022-5-4","13:18:45","25","75","3","9","10","40","30","120","88","22","[""Black or African-American"",""White""]","No","Female","2048068","null","null","learn_feedback","","","learn_feedback","23.3333","50","out","","","","","","","","","","","","","","","","","","","","","","",""
"","","","","","canvas-keyboard-response","236","369487","0.0-12.0-4.44","2d_cat_multi_stim_exp1","2022-5-4","13:18:45","25","75","3","9","10","40","30","120","88","22","[""Black or African-American"",""White""]","No","Female","2048068","null","null","","","","clear_screen","","","","","","","","","","","","","","","","","","","","","","","","","",""
"","","","","","canvas-keyboard-response","237","369995","0.0-12.0-0.45","2d_cat_multi_stim_exp1","2022-5-4","13:18:45","25","75","3","9","10","40","30","120","88","22","[""Black or African-American"",""White""]","No","Female","2048068","null","null","","","","fixation","","","","","","","","","","","","","","","","","","","","","","","","","",""
"","","","","","canvas-keyboard-response","238","370507","0.0-12.0-1.45","2d_cat_multi_stim_exp1","2022-5-4","13:18:45","25","75","3","9","10","40","30","120","88","22","[""Black or African-American"",""White""]","No","Female","2048068","null","null","","","","clear_screen","","","","","","","","","","","","","","","","","","","","","","","","","",""
"","","","","","canvas-keyboard-response","239","371504","0.0-12.0-2.45","2d_cat_multi_stim_exp1","2022-5-4","13:18:45","25","75","3","9","10","40","30","120","88","22","[""Black or African-American"",""White""]","No","Female","2048068","987","i","learn","","","learn_trial","16.6667","30","out","0","1","","","","","","","","","","","","","","","","","","","","",""
"","","","","","canvas-keyboard-response","240","372015","0.0-12.0-3.45","2d_cat_multi_stim_exp1","2022-5-4","13:18:45","25","75","3","9","10","40","30","120","88","22","[""Black or African-American"",""White""]","No","Female","2048068","null","null","learn_feedback","","","learn_feedback","16.6667","30","out","","","","","","","","","","","","","","","","","","","","","","",""
"","","","","","canvas-keyboard-response","241","372072","0.0-12.0-4.45","2d_cat_multi_stim_exp1","2022-5-4","13:18:45","25","75","3","9","10","40","30","120","88","22","[""Black or African-American"",""White""]","No","Female","2048068","null","null","","","","clear_screen","","","","","","","","","","","","","","","","","","","","","","","","","",""
"","","","","","canvas-keyboard-response","242","372581","0.0-12.0-0.46","2d_cat_multi_stim_exp1","2022-5-4","13:18:45","25","75","3","9","10","40","30","120","88","22","[""Black or African-American"",""White""]","No","Female","2048068","null","null","","","","fixation","","","","","","","","","","","","","","","","","","","","","","","","","",""
"","","","","","canvas-keyboard-response","243","373090","0.0-12.0-1.46","2d_cat_multi_stim_exp1","2022-5-4","13:18:45","25","75","3","9","10","40","30","120","88","22","[""Black or African-American"",""White""]","No","Female","2048068","null","null","","","","clear_screen","","","","","","","","","","","","","","","","","","","","","","","","","",""
"","","","","","canvas-keyboard-response","244","376352","0.0-12.0-2.46","2d_cat_multi_stim_exp1","2022-5-4","13:18:45","25","75","3","9","10","40","30","120","88","22","[""Black or African-American"",""White""]","No","Female","2048068","3251","i","learn","","","learn_trial","10","70","out","0","1","","","","","","","","","","","","","","","","","","","","",""
"","","","","","canvas-keyboard-response","245","376862","0.0-12.0-3.46","2d_cat_multi_stim_exp1","2022-5-4","13:18:45","25","75","3","9","10","40","30","120","88","22","[""Black or African-American"",""White""]","No","Female","2048068","null","null","learn_feedback","","","learn_feedback","10","70","out","","","","","","","","","","","","","","","","","","","","","","",""
"","","","","","canvas-keyboard-response","246","376923","0.0-12.0-4.46","2d_cat_multi_stim_exp1","2022-5-4","13:18:45","25","75","3","9","10","40","30","120","88","22","[""Black or African-American"",""White""]","No","Female","2048068","null","null","","","","clear_screen","","","","","","","","","","","","","","","","","","","","","","","","","",""
"","","","","","canvas-keyboard-response","247","377433","0.0-12.0-0.47","2d_cat_multi_stim_exp1","2022-5-4","13:18:45","25","75","3","9","10","40","30","120","88","22","[""Black or African-American"",""White""]","No","Female","2048068","null","null","","","","fixation","","","","","","","","","","","","","","","","","","","","","","","","","",""
"","","","","","canvas-keyboard-response","248","377944","0.0-12.0-1.47","2d_cat_multi_stim_exp1","2022-5-4","13:18:45","25","75","3","9","10","40","30","120","88","22","[""Black or African-American"",""White""]","No","Female","2048068","null","null","","","","clear_screen","","","","","","","","","","","","","","","","","","","","","","","","","",""
"","","","","","canvas-keyboard-response","249","379745","0.0-12.0-2.47","2d_cat_multi_stim_exp1","2022-5-4","13:18:45","25","75","3","9","10","40","30","120","88","22","[""Black or African-American"",""White""]","No","Female","2048068","1791","i","learn","","","learn_trial","29.2426","87.7279","in","0","0","","","","","","","","","","","","","","","","","","","","",""
"","","","","","canvas-keyboard-response","250","380757","0.0-12.0-3.47","2d_cat_multi_stim_exp1","2022-5-4","13:18:45","25","75","3","9","10","40","30","120","88","22","[""Black or African-American"",""White""]","No","Female","2048068","null","null","learn_feedback","","","learn_feedback","29.2426","87.7279","in","","","","","","","","","","","","","","","","","","","","","","",""
"","","","","","canvas-keyboard-response","251","380820","0.0-12.0-4.47","2d_cat_multi_stim_exp1","2022-5-4","13:18:45","25","75","3","9","10","40","30","120","88","22","[""Black or African-American"",""White""]","No","Female","2048068","null","null","","","","clear_screen","","","","","","","","","","","","","","","","","","","","","","","","","",""
"","","","","","canvas-keyboard-response","252","381325","0.0-12.0-0.48","2d_cat_multi_stim_exp1","2022-5-4","13:18:45","25","75","3","9","10","40","30","120","88","22","[""Black or African-American"",""White""]","No","Female","2048068","null","null","","","","fixation","","","","","","","","","","","","","","","","","","","","","","","","","",""
"","","","","","canvas-keyboard-response","253","381832","0.0-12.0-1.48","2d_cat_multi_stim_exp1","2022-5-4","13:18:45","25","75","3","9","10","40","30","120","88","22","[""Black or African-American"",""White""]","No","Female","2048068","null","null","","","","clear_screen","","","","","","","","","","","","","","","","","","","","","","","","","",""
"","","","","","canvas-keyboard-response","254","382849","0.0-12.0-2.48","2d_cat_multi_stim_exp1","2022-5-4","13:18:45","25","75","3","9","10","40","30","120","88","22","[""Black or African-American"",""White""]","No","Female","2048068","1006","u","learn","","","learn_trial","25","75","in","1","1","","","","","","","","","","","","","","","","","","","","",""
"","","","","","canvas-keyboard-response","255","383360","0.0-12.0-3.48","2d_cat_multi_stim_exp1","2022-5-4","13:18:45","25","75","3","9","10","40","30","120","88","22","[""Black or African-American"",""White""]","No","Female","2048068","null","null","learn_feedback","","","learn_feedback","25","75","in","","","","","","","","","","","","","","","","","","","","","","",""
"","","","","","canvas-keyboard-response","256","383417","0.0-12.0-4.48","2d_cat_multi_stim_exp1","2022-5-4","13:18:45","25","75","3","9","10","40","30","120","88","22","[""Black or African-American"",""White""]","No","Female","2048068","null","null","","","","clear_screen","","","","","","","","","","","","","","","","","","","","","","","","","",""
"","","","","","canvas-keyboard-response","257","383926","0.0-12.0-0.49","2d_cat_multi_stim_exp1","2022-5-4","13:18:45","25","75","3","9","10","40","30","120","88","22","[""Black or African-American"",""White""]","No","Female","2048068","null","null","","","","fixation","","","","","","","","","","","","","","","","","","","","","","","","","",""
"","","","","","canvas-keyboard-response","258","384435","0.0-12.0-1.49","2d_cat_multi_stim_exp1","2022-5-4","13:18:45","25","75","3","9","10","40","30","120","88","22","[""Black or African-American"",""White""]","No","Female","2048068","null","null","","","","clear_screen","","","","","","","","","","","","","","","","","","","","","","","","","",""
"","","","","","canvas-keyboard-response","259","385265","0.0-12.0-2.49","2d_cat_multi_stim_exp1","2022-5-4","13:18:45","25","75","3","9","10","40","30","120","88","22","[""Black or African-American"",""White""]","No","Female","2048068","822","i","learn","","","learn_trial","33.3333","50","out","0","1","","","","","","","","","","","","","","","","","","","","",""
"","","","","","canvas-keyboard-response","260","385774","0.0-12.0-3.49","2d_cat_multi_stim_exp1","2022-5-4","13:18:45","25","75","3","9","10","40","30","120","88","22","[""Black or African-American"",""White""]","No","Female","2048068","null","null","learn_feedback","","","learn_feedback","33.3333","50","out","","","","","","","","","","","","","","","","","","","","","","",""
"","","","","","canvas-keyboard-response","261","385834","0.0-12.0-4.49","2d_cat_multi_stim_exp1","2022-5-4","13:18:45","25","75","3","9","10","40","30","120","88","22","[""Black or African-American"",""White""]","No","Female","2048068","null","null","","","","clear_screen","","","","","","","","","","","","","","","","","","","","","","","","","",""
"","","","","","canvas-keyboard-response","262","386342","0.0-12.0-0.50","2d_cat_multi_stim_exp1","2022-5-4","13:18:45","25","75","3","9","10","40","30","120","88","22","[""Black or African-American"",""White""]","No","Female","2048068","null","null","","","","fixation","","","","","","","","","","","","","","","","","","","","","","","","","",""
"","","","","","canvas-keyboard-response","263","386848","0.0-12.0-1.50","2d_cat_multi_stim_exp1","2022-5-4","13:18:45","25","75","3","9","10","40","30","120","88","22","[""Black or African-American"",""White""]","No","Female","2048068","null","null","","","","clear_screen","","","","","","","","","","","","","","","","","","","","","","","","","",""
"","","","","","canvas-keyboard-response","264","387489","0.0-12.0-2.50","2d_cat_multi_stim_exp1","2022-5-4","13:18:45","25","75","3","9","10","40","30","120","88","22","[""Black or African-American"",""White""]","No","Female","2048068","631","u","learn","","","learn_trial","22.2971","71.095","in","1","1","","","","","","","","","","","","","","","","","","","","",""
"","","","","","canvas-keyboard-response","265","387998","0.0-12.0-3.50","2d_cat_multi_stim_exp1","2022-5-4","13:18:45","25","75","3","9","10","40","30","120","88","22","[""Black or African-American"",""White""]","No","Female","2048068","null","null","learn_feedback","","","learn_feedback","22.2971","71.095","in","","","","","","","","","","","","","","","","","","","","","","",""
"","","","","","canvas-keyboard-response","266","388059","0.0-12.0-4.50","2d_cat_multi_stim_exp1","2022-5-4","13:18:45","25","75","3","9","10","40","30","120","88","22","[""Black or African-American"",""White""]","No","Female","2048068","null","null","","","","clear_screen","","","","","","","","","","","","","","","","","","","","","","","","","",""
"","","","","","canvas-keyboard-response","267","388569","0.0-12.0-0.51","2d_cat_multi_stim_exp1","2022-5-4","13:18:45","25","75","3","9","10","40","30","120","88","22","[""Black or African-American"",""White""]","No","Female","2048068","null","null","","","","fixation","","","","","","","","","","","","","","","","","","","","","","","","","",""
"","","","","","canvas-keyboard-response","268","389078","0.0-12.0-1.51","2d_cat_multi_stim_exp1","2022-5-4","13:18:45","25","75","3","9","10","40","30","120","88","22","[""Black or African-American"",""White""]","No","Female","2048068","null","null","","","","clear_screen","","","","","","","","","","","","","","","","","","","","","","","","","",""
"","","","","","canvas-keyboard-response","269","389720","0.0-12.0-2.51","2d_cat_multi_stim_exp1","2022-5-4","13:18:45","25","75","3","9","10","40","30","120","88","22","[""Black or African-American"",""White""]","No","Female","2048068","633","i","learn","","","learn_trial","10","100","out","0","1","","","","","","","","","","","","","","","","","","","","",""
"","","","","","canvas-keyboard-response","270","390230","0.0-12.0-3.51","2d_cat_multi_stim_exp1","2022-5-4","13:18:45","25","75","3","9","10","40","30","120","88","22","[""Black or African-American"",""White""]","No","Female","2048068","null","null","learn_feedback","","","learn_feedback","10","100","out","","","","","","","","","","","","","","","","","","","","","","",""
"","","","","","canvas-keyboard-response","271","390291","0.0-12.0-4.51","2d_cat_multi_stim_exp1","2022-5-4","13:18:45","25","75","3","9","10","40","30","120","88","22","[""Black or African-American"",""White""]","No","Female","2048068","null","null","","","","clear_screen","","","","","","","","","","","","","","","","","","","","","","","","","",""
"","","","","","canvas-keyboard-response","272","390803","0.0-12.0-0.52","2d_cat_multi_stim_exp1","2022-5-4","13:18:45","25","75","3","9","10","40","30","120","88","22","[""Black or African-American"",""White""]","No","Female","2048068","null","null","","","","fixation","","","","","","","","","","","","","","","","","","","","","","","","","",""
