"success","timeout","failed_images","failed_audio","failed_video","trial_type","trial_index","time_elapsed","internal_node_id","exp_name","date","time","angle_mean_in","radius_mean_in","angle_sd_in","radius_sd_in","angle_min_out","angle_max_out","radius_min_out","radius_max_out","sub_n","age","race","ethnicity","gender","exp_duration","rt","stimulus","response","exp_trial_type","view_history","screen_id","angle","radius","distribution","choice","correct","order","angle_a","radius_a","angle_b","radius_b","angle_c","radius_c","jkl_correct","transfer_trial_type","choice_set","abc_correct","tc_correct","tc_angle","tdc_a","tdc_b","tdc_c","pair","category_a","category_b","category_c","question_order"
"true","false","[]","[]","[]","preload","0","39","0.0-0.0","2d_cat_multi_stim_exp1","2022-4-4","12:5:54","25","75","3","9","10","40","30","120","10","19","[""Black or African-American""]","No","Female","2111142","","","","","","","","","","","","","","","","","","","","","","","","","","","","","","","",""
"","","","","","html-button-response","1","1486","0.0-1.0","2d_cat_multi_stim_exp1","2022-4-4","12:5:54","25","75","3","9","10","40","30","120","10","19","[""Black or African-American""]","No","Female","2111142","1447","<p><b>WAIT!</b></p></p><p>Did you mean to start this experiment? Only Walker, Esther, and Sean are running participants on this experiment.</p>","0","","","","","","","","","","","","","","","","","","","","","","","","","","","","",""
"","","","","","survey-html-form","2","5322","0.0-2.0","2d_cat_multi_stim_exp1","2022-4-4","12:5:54","25","75","3","9","10","40","30","120","10","19","[""Black or African-American""]","No","Female","2111142","3820","","{""response"":""10""}","enter-sub-number","","","","","","","","","","","","","","","","","","","","","","","","","","","",""
"true","","","","","fullscreen","3","13366","0.0-3.0","2d_cat_multi_stim_exp1","2022-4-4","12:5:54","25","75","3","9","10","40","30","120","10","19","[""Black or African-American""]","No","Female","2111142","","","","","","","","","","","","","","","","","","","","","","","","","","","","","","","",""
"","","","","","image-button-response","4","73822","0.0-4.0","2d_cat_multi_stim_exp1","2022-4-4","12:5:54","25","75","3","9","10","40","30","120","10","19","[""Black or African-American""]","No","Female","2111142","60447","consent.png","0","","","","","","","","","","","","","","","","","","","","","","","","","","","","",""
"","","","","","html-button-response","5","80805","0.0-5.0","2d_cat_multi_stim_exp1","2022-4-4","12:5:54","25","75","3","9","10","40","30","120","10","19","[""Black or African-American""]","No","Female","2111142","6977","<div style= ""font-size:25px;"" <p> <strong> Welcome to the experiment! </strong><br> <p style=""color:#8B0000; font-size:25px;""><strong> Please do NOT exit full screen until you are done with the experiment. </strong> </p><p style=""font-size:25px;color:#8B0000;""> <strong> The experiment will be canceled and your data will be lost <br> if you try to go back or refresh the page at any point during the experiment.</strong> </p><br><p> <strong> Thanks in advance for your contribution to our research! </strong></p>","0","","","","","","","","","","","","","","","","","","","","","","","","","","","","",""
"","","","","","instructions","6","120509","0.0-6.0","2d_cat_multi_stim_exp1","2022-4-4","12:5:54","25","75","3","9","10","40","30","120","10","19","[""Black or African-American""]","No","Female","2111142","39699","","","","[{""page_index"":0,""viewing_time"":5476},{""page_index"":1,""viewing_time"":2887},{""page_index"":2,""viewing_time"":12976},{""page_index"":3,""viewing_time"":18360}]","instructions_1","","","","","","","","","","","","","","","","","","","","","","","","","",""
"","","","","","instructions","7","122389","0.0-7.0","2d_cat_multi_stim_exp1","2022-4-4","12:5:54","25","75","3","9","10","40","30","120","10","19","[""Black or African-American""]","No","Female","2111142","1878","","","","[{""page_index"":0,""viewing_time"":1878}]","Click to see the kinds of turtles that will appear in the study.","","","","","","","","","","","","","","","","","","","","","","","","","",""
"","","","","","canvas-keyboard-response","8","137410","0.0-8.0","2d_cat_multi_stim_exp1","2022-4-4","12:5:54","25","75","3","9","10","40","30","120","10","19","[""Black or African-American""]","No","Female","2111142","null","","null","","","demo_range","","","","","","","","","","","","","","","","","","","","","","","","","",""
"","","","","","instructions","9","140765","0.0-9.0","2d_cat_multi_stim_exp1","2022-4-4","12:5:54","25","75","3","9","10","40","30","120","10","19","[""Black or African-American""]","No","Female","2111142","2854","","","","[{""page_index"":0,""viewing_time"":2854}]","Click to see some turtles in the subspecies.","","","","","","","","","","","","","","","","","","","","","","","","","",""
"","","","","","canvas-keyboard-response","10","155784","0.0-10.0","2d_cat_multi_stim_exp1","2022-4-4","12:5:54","25","75","3","9","10","40","30","120","10","19","[""Black or African-American""]","No","Female","2111142","null","","null","","","demo_in","","","","","","","","","","","","","","","","","","","","","","","","","",""
"","","","","","instructions","11","191676","0.0-11.0","2d_cat_multi_stim_exp1","2022-4-4","12:5:54","25","75","3","9","10","40","30","120","10","19","[""Black or African-American""]","No","Female","2111142","35392","","","","[{""page_index"":0,""viewing_time"":7904},{""page_index"":1,""viewing_time"":19656},{""page_index"":2,""viewing_time"":7832}]","instructions_2","","","","","","","","","","","","","","","","","","","","","","","","","",""
"","","","","","instructions","12","193453","0.0-12.0","2d_cat_multi_stim_exp1","2022-4-4","12:5:54","25","75","3","9","10","40","30","120","10","19","[""Black or African-American""]","No","Female","2111142","1775","","","","[{""page_index"":0,""viewing_time"":1775}]","Click to begin the first phase of the experiment.","","","","","","","","","","","","","","","","","","","","","","","","","",""
"","","","","","canvas-keyboard-response","13","193964","0.0-13.0-0.0","2d_cat_multi_stim_exp1","2022-4-4","12:5:54","25","75","3","9","10","40","30","120","10","19","[""Black or African-American""]","No","Female","2111142","null","","null","","","fixation","","","","","","","","","","","","","","","","","","","","","","","","","",""
"","","","","","canvas-keyboard-response","14","194473","0.0-13.0-1.0","2d_cat_multi_stim_exp1","2022-4-4","12:5:54","25","75","3","9","10","40","30","120","10","19","[""Black or African-American""]","No","Female","2111142","null","","null","","","clear_screen","","","","","","","","","","","","","","","","","","","","","","","","","",""
"","","","","","canvas-keyboard-response","15","206181","0.0-13.0-2.0","2d_cat_multi_stim_exp1","2022-4-4","12:5:54","25","75","3","9","10","40","30","120","10","19","[""Black or African-American""]","No","Female","2111142","11698","","u","learn","","learn_trial","23.3333","50","out","1","0","","","","","","","","","","","","","","","","","","","","",""
"","","","","","canvas-keyboard-response","16","207193","0.0-13.0-3.0","2d_cat_multi_stim_exp1","2022-4-4","12:5:54","25","75","3","9","10","40","30","120","10","19","[""Black or African-American""]","No","Female","2111142","null","","null","learn_feedback","","learn_feedback","23.3333","50","out","","","","","","","","","","","","","","","","","","","","","","",""
"","","","","","canvas-keyboard-response","17","207251","0.0-13.0-4.0","2d_cat_multi_stim_exp1","2022-4-4","12:5:54","25","75","3","9","10","40","30","120","10","19","[""Black or African-American""]","No","Female","2111142","null","","null","","","clear_screen","","","","","","","","","","","","","","","","","","","","","","","","","",""
"","","","","","canvas-keyboard-response","18","207759","0.0-13.0-0.1","2d_cat_multi_stim_exp1","2022-4-4","12:5:54","25","75","3","9","10","40","30","120","10","19","[""Black or African-American""]","No","Female","2111142","null","","null","","","fixation","","","","","","","","","","","","","","","","","","","","","","","","","",""
"","","","","","canvas-keyboard-response","19","208268","0.0-13.0-1.1","2d_cat_multi_stim_exp1","2022-4-4","12:5:54","25","75","3","9","10","40","30","120","10","19","[""Black or African-American""]","No","Female","2111142","null","","null","","","clear_screen","","","","","","","","","","","","","","","","","","","","","","","","","",""
"","","","","","canvas-keyboard-response","20","209885","0.0-13.0-2.1","2d_cat_multi_stim_exp1","2022-4-4","12:5:54","25","75","3","9","10","40","30","120","10","19","[""Black or African-American""]","No","Female","2111142","1609","","u","learn","","learn_trial","23.8209","66.7243","in","1","1","","","","","","","","","","","","","","","","","","","","",""
"","","","","","canvas-keyboard-response","21","210395","0.0-13.0-3.1","2d_cat_multi_stim_exp1","2022-4-4","12:5:54","25","75","3","9","10","40","30","120","10","19","[""Black or African-American""]","No","Female","2111142","null","","null","learn_feedback","","learn_feedback","23.8209","66.7243","in","","","","","","","","","","","","","","","","","","","","","","",""
"","","","","","canvas-keyboard-response","22","210454","0.0-13.0-4.1","2d_cat_multi_stim_exp1","2022-4-4","12:5:54","25","75","3","9","10","40","30","120","10","19","[""Black or African-American""]","No","Female","2111142","null","","null","","","clear_screen","","","","","","","","","","","","","","","","","","","","","","","","","",""
"","","","","","canvas-keyboard-response","23","210962","0.0-13.0-0.2","2d_cat_multi_stim_exp1","2022-4-4","12:5:54","25","75","3","9","10","40","30","120","10","19","[""Black or African-American""]","No","Female","2111142","null","","null","","","fixation","","","","","","","","","","","","","","","","","","","","","","","","","",""
"","","","","","canvas-keyboard-response","24","211471","0.0-13.0-1.2","2d_cat_multi_stim_exp1","2022-4-4","12:5:54","25","75","3","9","10","40","30","120","10","19","[""Black or African-American""]","No","Female","2111142","null","","null","","","clear_screen","","","","","","","","","","","","","","","","","","","","","","","","","",""
"","","","","","canvas-keyboard-response","25","213596","0.0-13.0-2.2","2d_cat_multi_stim_exp1","2022-4-4","12:5:54","25","75","3","9","10","40","30","120","10","19","[""Black or African-American""]","No","Female","2111142","2117","","i","learn","","learn_trial","20","40","out","0","1","","","","","","","","","","","","","","","","","","","","",""
"","","","","","canvas-keyboard-response","26","214106","0.0-13.0-3.2","2d_cat_multi_stim_exp1","2022-4-4","12:5:54","25","75","3","9","10","40","30","120","10","19","[""Black or African-American""]","No","Female","2111142","null","","null","learn_feedback","","learn_feedback","20","40","out","","","","","","","","","","","","","","","","","","","","","","",""
"","","","","","canvas-keyboard-response","27","214165","0.0-13.0-4.2","2d_cat_multi_stim_exp1","2022-4-4","12:5:54","25","75","3","9","10","40","30","120","10","19","[""Black or African-American""]","No","Female","2111142","null","","null","","","clear_screen","","","","","","","","","","","","","","","","","","","","","","","","","",""
"","","","","","canvas-keyboard-response","28","214674","0.0-13.0-0.3","2d_cat_multi_stim_exp1","2022-4-4","12:5:54","25","75","3","9","10","40","30","120","10","19","[""Black or African-American""]","No","Female","2111142","null","","null","","","fixation","","","","","","","","","","","","","","","","","","","","","","","","","",""
"","","","","","canvas-keyboard-response","29","215182","0.0-13.0-1.3","2d_cat_multi_stim_exp1","2022-4-4","12:5:54","25","75","3","9","10","40","30","120","10","19","[""Black or African-American""]","No","Female","2111142","null","","null","","","clear_screen","","","","","","","","","","","","","","","","","","","","","","","","","",""
"","","","","","canvas-keyboard-response","30","218253","0.0-13.0-2.3","2d_cat_multi_stim_exp1","2022-4-4","12:5:54","25","75","3","9","10","40","30","120","10","19","[""Black or African-American""]","No","Female","2111142","3059","","u","learn","","learn_trial","22.5729","69.7099","in","1","1","","","","","","","","","","","","","","","","","","","","",""
"","","","","","canvas-keyboard-response","31","218763","0.0-13.0-3.3","2d_cat_multi_stim_exp1","2022-4-4","12:5:54","25","75","3","9","10","40","30","120","10","19","[""Black or African-American""]","No","Female","2111142","null","","null","learn_feedback","","learn_feedback","22.5729","69.7099","in","","","","","","","","","","","","","","","","","","","","","","",""
"","","","","","canvas-keyboard-response","32","218821","0.0-13.0-4.3","2d_cat_multi_stim_exp1","2022-4-4","12:5:54","25","75","3","9","10","40","30","120","10","19","[""Black or African-American""]","No","Female","2111142","null","","null","","","clear_screen","","","","","","","","","","","","","","","","","","","","","","","","","",""
"","","","","","canvas-keyboard-response","33","219329","0.0-13.0-0.4","2d_cat_multi_stim_exp1","2022-4-4","12:5:54","25","75","3","9","10","40","30","120","10","19","[""Black or African-American""]","No","Female","2111142","null","","null","","","fixation","","","","","","","","","","","","","","","","","","","","","","","","","",""
"","","","","","canvas-keyboard-response","34","219838","0.0-13.0-1.4","2d_cat_multi_stim_exp1","2022-4-4","12:5:54","25","75","3","9","10","40","30","120","10","19","[""Black or African-American""]","No","Female","2111142","null","","null","","","clear_screen","","","","","","","","","","","","","","","","","","","","","","","","","",""
"","","","","","canvas-keyboard-response","35","221805","0.0-13.0-2.4","2d_cat_multi_stim_exp1","2022-4-4","12:5:54","25","75","3","9","10","40","30","120","10","19","[""Black or African-American""]","No","Female","2111142","1959","","i","learn","","learn_trial","16.6667","110","out","0","1","","","","","","","","","","","","","","","","","","","","",""
"","","","","","canvas-keyboard-response","36","222314","0.0-13.0-3.4","2d_cat_multi_stim_exp1","2022-4-4","12:5:54","25","75","3","9","10","40","30","120","10","19","[""Black or African-American""]","No","Female","2111142","null","","null","learn_feedback","","learn_feedback","16.6667","110","out","","","","","","","","","","","","","","","","","","","","","","",""
"","","","","","canvas-keyboard-response","37","222372","0.0-13.0-4.4","2d_cat_multi_stim_exp1","2022-4-4","12:5:54","25","75","3","9","10","40","30","120","10","19","[""Black or African-American""]","No","Female","2111142","null","","null","","","clear_screen","","","","","","","","","","","","","","","","","","","","","","","","","",""
"","","","","","canvas-keyboard-response","38","222881","0.0-13.0-0.5","2d_cat_multi_stim_exp1","2022-4-4","12:5:54","25","75","3","9","10","40","30","120","10","19","[""Black or African-American""]","No","Female","2111142","null","","null","","","fixation","","","","","","","","","","","","","","","","","","","","","","","","","",""
"","","","","","canvas-keyboard-response","39","223389","0.0-13.0-1.5","2d_cat_multi_stim_exp1","2022-4-4","12:5:54","25","75","3","9","10","40","30","120","10","19","[""Black or African-American""]","No","Female","2111142","null","","null","","","clear_screen","","","","","","","","","","","","","","","","","","","","","","","","","",""
"","","","","","canvas-keyboard-response","40","225293","0.0-13.0-2.5","2d_cat_multi_stim_exp1","2022-4-4","12:5:54","25","75","3","9","10","40","30","120","10","19","[""Black or African-American""]","No","Female","2111142","1895","","u","learn","","learn_trial","25","75","in","1","1","","","","","","","","","","","","","","","","","","","","",""
"","","","","","canvas-keyboard-response","41","225802","0.0-13.0-3.5","2d_cat_multi_stim_exp1","2022-4-4","12:5:54","25","75","3","9","10","40","30","120","10","19","[""Black or African-American""]","No","Female","2111142","null","","null","learn_feedback","","learn_feedback","25","75","in","","","","","","","","","","","","","","","","","","","","","","",""
"","","","","","canvas-keyboard-response","42","225860","0.0-13.0-4.5","2d_cat_multi_stim_exp1","2022-4-4","12:5:54","25","75","3","9","10","40","30","120","10","19","[""Black or African-American""]","No","Female","2111142","null","","null","","","clear_screen","","","","","","","","","","","","","","","","","","","","","","","","","",""
"","","","","","canvas-keyboard-response","43","226368","0.0-13.0-0.6","2d_cat_multi_stim_exp1","2022-4-4","12:5:54","25","75","3","9","10","40","30","120","10","19","[""Black or African-American""]","No","Female","2111142","null","","null","","","fixation","","","","","","","","","","","","","","","","","","","","","","","","","",""
"","","","","","canvas-keyboard-response","44","226877","0.0-13.0-1.6","2d_cat_multi_stim_exp1","2022-4-4","12:5:54","25","75","3","9","10","40","30","120","10","19","[""Black or African-American""]","No","Female","2111142","null","","null","","","clear_screen","","","","","","","","","","","","","","","","","","","","","","","","","",""
"","","","","","canvas-keyboard-response","45","228014","0.0-13.0-2.6","2d_cat_multi_stim_exp1","2022-4-4","12:5:54","25","75","3","9","10","40","30","120","10","19","[""Black or African-American""]","No","Female","2111142","1128","","u","learn","","learn_trial","25","75","in","1","1","","","","","","","","","","","","","","","","","","","","",""
"","","","","","canvas-keyboard-response","46","228526","0.0-13.0-3.6","2d_cat_multi_stim_exp1","2022-4-4","12:5:54","25","75","3","9","10","40","30","120","10","19","[""Black or African-American""]","No","Female","2111142","null","","null","learn_feedback","","learn_feedback","25","75","in","","","","","","","","","","","","","","","","","","","","","","",""
"","","","","","canvas-keyboard-response","47","228585","0.0-13.0-4.6","2d_cat_multi_stim_exp1","2022-4-4","12:5:54","25","75","3","9","10","40","30","120","10","19","[""Black or African-American""]","No","Female","2111142","null","","null","","","clear_screen","","","","","","","","","","","","","","","","","","","","","","","","","",""
"","","","","","canvas-keyboard-response","48","229095","0.0-13.0-0.7","2d_cat_multi_stim_exp1","2022-4-4","12:5:54","25","75","3","9","10","40","30","120","10","19","[""Black or African-American""]","No","Female","2111142","null","","null","","","fixation","","","","","","","","","","","","","","","","","","","","","","","","","",""
"","","","","","canvas-keyboard-response","49","229604","0.0-13.0-1.7","2d_cat_multi_stim_exp1","2022-4-4","12:5:54","25","75","3","9","10","40","30","120","10","19","[""Black or African-American""]","No","Female","2111142","null","","null","","","clear_screen","","","","","","","","","","","","","","","","","","","","","","","","","",""
"","","","","","canvas-keyboard-response","50","230389","0.0-13.0-2.7","2d_cat_multi_stim_exp1","2022-4-4","12:5:54","25","75","3","9","10","40","30","120","10","19","[""Black or African-American""]","No","Female","2111142","776","","u","learn","","learn_trial","23.3333","90","out","1","0","","","","","","","","","","","","","","","","","","","","",""
"","","","","","canvas-keyboard-response","51","231398","0.0-13.0-3.7","2d_cat_multi_stim_exp1","2022-4-4","12:5:54","25","75","3","9","10","40","30","120","10","19","[""Black or African-American""]","No","Female","2111142","null","","null","learn_feedback","","learn_feedback","23.3333","90","out","","","","","","","","","","","","","","","","","","","","","","",""
"","","","","","canvas-keyboard-response","52","231457","0.0-13.0-4.7","2d_cat_multi_stim_exp1","2022-4-4","12:5:54","25","75","3","9","10","40","30","120","10","19","[""Black or African-American""]","No","Female","2111142","null","","null","","","clear_screen","","","","","","","","","","","","","","","","","","","","","","","","","",""
"","","","","","canvas-keyboard-response","53","231967","0.0-13.0-0.8","2d_cat_multi_stim_exp1","2022-4-4","12:5:54","25","75","3","9","10","40","30","120","10","19","[""Black or African-American""]","No","Female","2111142","null","","null","","","fixation","","","","","","","","","","","","","","","","","","","","","","","","","",""
"","","","","","canvas-keyboard-response","54","232477","0.0-13.0-1.8","2d_cat_multi_stim_exp1","2022-4-4","12:5:54","25","75","3","9","10","40","30","120","10","19","[""Black or African-American""]","No","Female","2111142","null","","null","","","clear_screen","","","","","","","","","","","","","","","","","","","","","","","","","",""
"","","","","","canvas-keyboard-response","55","234629","0.0-13.0-2.8","2d_cat_multi_stim_exp1","2022-4-4","12:5:54","25","75","3","9","10","40","30","120","10","19","[""Black or African-American""]","No","Female","2111142","2144","","i","learn","","learn_trial","10","90","out","0","1","","","","","","","","","","","","","","","","","","","","",""
"","","","","","canvas-keyboard-response","56","235139","0.0-13.0-3.8","2d_cat_multi_stim_exp1","2022-4-4","12:5:54","25","75","3","9","10","40","30","120","10","19","[""Black or African-American""]","No","Female","2111142","null","","null","learn_feedback","","learn_feedback","10","90","out","","","","","","","","","","","","","","","","","","","","","","",""
"","","","","","canvas-keyboard-response","57","235197","0.0-13.0-4.8","2d_cat_multi_stim_exp1","2022-4-4","12:5:54","25","75","3","9","10","40","30","120","10","19","[""Black or African-American""]","No","Female","2111142","null","","null","","","clear_screen","","","","","","","","","","","","","","","","","","","","","","","","","",""
"","","","","","canvas-keyboard-response","58","235706","0.0-13.0-0.9","2d_cat_multi_stim_exp1","2022-4-4","12:5:54","25","75","3","9","10","40","30","120","10","19","[""Black or African-American""]","No","Female","2111142","null","","null","","","fixation","","","","","","","","","","","","","","","","","","","","","","","","","",""
"","","","","","canvas-keyboard-response","59","236215","0.0-13.0-1.9","2d_cat_multi_stim_exp1","2022-4-4","12:5:54","25","75","3","9","10","40","30","120","10","19","[""Black or African-American""]","No","Female","2111142","null","","null","","","clear_screen","","","","","","","","","","","","","","","","","","","","","","","","","",""
"","","","","","canvas-keyboard-response","60","238093","0.0-13.0-2.9","2d_cat_multi_stim_exp1","2022-4-4","12:5:54","25","75","3","9","10","40","30","120","10","19","[""Black or African-American""]","No","Female","2111142","1871","","i","learn","","learn_trial","23.3333","120","out","0","1","","","","","","","","","","","","","","","","","","","","",""
"","","","","","canvas-keyboard-response","61","238605","0.0-13.0-3.9","2d_cat_multi_stim_exp1","2022-4-4","12:5:54","25","75","3","9","10","40","30","120","10","19","[""Black or African-American""]","No","Female","2111142","null","","null","learn_feedback","","learn_feedback","23.3333","120","out","","","","","","","","","","","","","","","","","","","","","","",""
"","","","","","canvas-keyboard-response","62","238663","0.0-13.0-4.9","2d_cat_multi_stim_exp1","2022-4-4","12:5:54","25","75","3","9","10","40","30","120","10","19","[""Black or African-American""]","No","Female","2111142","null","","null","","","clear_screen","","","","","","","","","","","","","","","","","","","","","","","","","",""
"","","","","","canvas-keyboard-response","63","239171","0.0-13.0-0.10","2d_cat_multi_stim_exp1","2022-4-4","12:5:54","25","75","3","9","10","40","30","120","10","19","[""Black or African-American""]","No","Female","2111142","null","","null","","","fixation","","","","","","","","","","","","","","","","","","","","","","","","","",""
"","","","","","canvas-keyboard-response","64","239680","0.0-13.0-1.10","2d_cat_multi_stim_exp1","2022-4-4","12:5:54","25","75","3","9","10","40","30","120","10","19","[""Black or African-American""]","No","Female","2111142","null","","null","","","clear_screen","","","","","","","","","","","","","","","","","","","","","","","","","",""
"","","","","","canvas-keyboard-response","65","241925","0.0-13.0-2.10","2d_cat_multi_stim_exp1","2022-4-4","12:5:54","25","75","3","9","10","40","30","120","10","19","[""Black or African-American""]","No","Female","2111142","2236","","i","learn","","learn_trial","20","120","out","0","1","","","","","","","","","","","","","","","","","","","","",""
"","","","","","canvas-keyboard-response","66","242435","0.0-13.0-3.10","2d_cat_multi_stim_exp1","2022-4-4","12:5:54","25","75","3","9","10","40","30","120","10","19","[""Black or African-American""]","No","Female","2111142","null","","null","learn_feedback","","learn_feedback","20","120","out","","","","","","","","","","","","","","","","","","","","","","",""
"","","","","","canvas-keyboard-response","67","242493","0.0-13.0-4.10","2d_cat_multi_stim_exp1","2022-4-4","12:5:54","25","75","3","9","10","40","30","120","10","19","[""Black or African-American""]","No","Female","2111142","null","","null","","","clear_screen","","","","","","","","","","","","","","","","","","","","","","","","","",""
"","","","","","canvas-keyboard-response","68","243001","0.0-13.0-0.11","2d_cat_multi_stim_exp1","2022-4-4","12:5:54","25","75","3","9","10","40","30","120","10","19","[""Black or African-American""]","No","Female","2111142","null","","null","","","fixation","","","","","","","","","","","","","","","","","","","","","","","","","",""
"","","","","","canvas-keyboard-response","69","243509","0.0-13.0-1.11","2d_cat_multi_stim_exp1","2022-4-4","12:5:54","25","75","3","9","10","40","30","120","10","19","[""Black or African-American""]","No","Female","2111142","null","","null","","","clear_screen","","","","","","","","","","","","","","","","","","","","","","","","","",""
"","","","","","canvas-keyboard-response","70","246284","0.0-13.0-2.11","2d_cat_multi_stim_exp1","2022-4-4","12:5:54","25","75","3","9","10","40","30","120","10","19","[""Black or African-American""]","No","Female","2111142","2768","","u","learn","","learn_trial","13.3333","40","out","1","0","","","","","","","","","","","","","","","","","","","","",""
"","","","","","canvas-keyboard-response","71","247294","0.0-13.0-3.11","2d_cat_multi_stim_exp1","2022-4-4","12:5:54","25","75","3","9","10","40","30","120","10","19","[""Black or African-American""]","No","Female","2111142","null","","null","learn_feedback","","learn_feedback","13.3333","40","out","","","","","","","","","","","","","","","","","","","","","","",""
"","","","","","canvas-keyboard-response","72","247352","0.0-13.0-4.11","2d_cat_multi_stim_exp1","2022-4-4","12:5:54","25","75","3","9","10","40","30","120","10","19","[""Black or African-American""]","No","Female","2111142","null","","null","","","clear_screen","","","","","","","","","","","","","","","","","","","","","","","","","",""
"","","","","","canvas-keyboard-response","73","247859","0.0-13.0-0.12","2d_cat_multi_stim_exp1","2022-4-4","12:5:54","25","75","3","9","10","40","30","120","10","19","[""Black or African-American""]","No","Female","2111142","null","","null","","","fixation","","","","","","","","","","","","","","","","","","","","","","","","","",""
"","","","","","canvas-keyboard-response","74","248368","0.0-13.0-1.12","2d_cat_multi_stim_exp1","2022-4-4","12:5:54","25","75","3","9","10","40","30","120","10","19","[""Black or African-American""]","No","Female","2111142","null","","null","","","clear_screen","","","","","","","","","","","","","","","","","","","","","","","","","",""
"","","","","","canvas-keyboard-response","75","250861","0.0-13.0-2.12","2d_cat_multi_stim_exp1","2022-4-4","12:5:54","25","75","3","9","10","40","30","120","10","19","[""Black or African-American""]","No","Female","2111142","2484","","u","learn","","learn_trial","20","90","out","1","0","","","","","","","","","","","","","","","","","","","","",""
"","","","","","canvas-keyboard-response","76","251869","0.0-13.0-3.12","2d_cat_multi_stim_exp1","2022-4-4","12:5:54","25","75","3","9","10","40","30","120","10","19","[""Black or African-American""]","No","Female","2111142","null","","null","learn_feedback","","learn_feedback","20","90","out","","","","","","","","","","","","","","","","","","","","","","",""
"","","","","","canvas-keyboard-response","77","251928","0.0-13.0-4.12","2d_cat_multi_stim_exp1","2022-4-4","12:5:54","25","75","3","9","10","40","30","120","10","19","[""Black or African-American""]","No","Female","2111142","null","","null","","","clear_screen","","","","","","","","","","","","","","","","","","","","","","","","","",""
"","","","","","canvas-keyboard-response","78","252435","0.0-13.0-0.13","2d_cat_multi_stim_exp1","2022-4-4","12:5:54","25","75","3","9","10","40","30","120","10","19","[""Black or African-American""]","No","Female","2111142","null","","null","","","fixation","","","","","","","","","","","","","","","","","","","","","","","","","",""
"","","","","","canvas-keyboard-response","79","252944","0.0-13.0-1.13","2d_cat_multi_stim_exp1","2022-4-4","12:5:54","25","75","3","9","10","40","30","120","10","19","[""Black or African-American""]","No","Female","2111142","null","","null","","","clear_screen","","","","","","","","","","","","","","","","","","","","","","","","","",""
"","","","","","canvas-keyboard-response","80","254460","0.0-13.0-2.13","2d_cat_multi_stim_exp1","2022-4-4","12:5:54","25","75","3","9","10","40","30","120","10","19","[""Black or African-American""]","No","Female","2111142","1507","","u","learn","","learn_trial","22.0121","75.8068","in","1","1","","","","","","","","","","","","","","","","","","","","",""
"","","","","","canvas-keyboard-response","81","254969","0.0-13.0-3.13","2d_cat_multi_stim_exp1","2022-4-4","12:5:54","25","75","3","9","10","40","30","120","10","19","[""Black or African-American""]","No","Female","2111142","null","","null","learn_feedback","","learn_feedback","22.0121","75.8068","in","","","","","","","","","","","","","","","","","","","","","","",""
"","","","","","canvas-keyboard-response","82","255028","0.0-13.0-4.13","2d_cat_multi_stim_exp1","2022-4-4","12:5:54","25","75","3","9","10","40","30","120","10","19","[""Black or African-American""]","No","Female","2111142","null","","null","","","clear_screen","","","","","","","","","","","","","","","","","","","","","","","","","",""
"","","","","","canvas-keyboard-response","83","255536","0.0-13.0-0.14","2d_cat_multi_stim_exp1","2022-4-4","12:5:54","25","75","3","9","10","40","30","120","10","19","[""Black or African-American""]","No","Female","2111142","null","","null","","","fixation","","","","","","","","","","","","","","","","","","","","","","","","","",""
"","","","","","canvas-keyboard-response","84","256045","0.0-13.0-1.14","2d_cat_multi_stim_exp1","2022-4-4","12:5:54","25","75","3","9","10","40","30","120","10","19","[""Black or African-American""]","No","Female","2111142","null","","null","","","clear_screen","","","","","","","","","","","","","","","","","","","","","","","","","",""
"","","","","","canvas-keyboard-response","85","257820","0.0-13.0-2.14","2d_cat_multi_stim_exp1","2022-4-4","12:5:54","25","75","3","9","10","40","30","120","10","19","[""Black or African-American""]","No","Female","2111142","1768","","i","learn","","learn_trial","26.6667","50","out","0","1","","","","","","","","","","","","","","","","","","","","",""
"","","","","","canvas-keyboard-response","86","258329","0.0-13.0-3.14","2d_cat_multi_stim_exp1","2022-4-4","12:5:54","25","75","3","9","10","40","30","120","10","19","[""Black or African-American""]","No","Female","2111142","null","","null","learn_feedback","","learn_feedback","26.6667","50","out","","","","","","","","","","","","","","","","","","","","","","",""
"","","","","","canvas-keyboard-response","87","258387","0.0-13.0-4.14","2d_cat_multi_stim_exp1","2022-4-4","12:5:54","25","75","3","9","10","40","30","120","10","19","[""Black or African-American""]","No","Female","2111142","null","","null","","","clear_screen","","","","","","","","","","","","","","","","","","","","","","","","","",""
"","","","","","canvas-keyboard-response","88","258895","0.0-13.0-0.15","2d_cat_multi_stim_exp1","2022-4-4","12:5:54","25","75","3","9","10","40","30","120","10","19","[""Black or African-American""]","No","Female","2111142","null","","null","","","fixation","","","","","","","","","","","","","","","","","","","","","","","","","",""
"","","","","","canvas-keyboard-response","89","259404","0.0-13.0-1.15","2d_cat_multi_stim_exp1","2022-4-4","12:5:54","25","75","3","9","10","40","30","120","10","19","[""Black or African-American""]","No","Female","2111142","null","","null","","","clear_screen","","","","","","","","","","","","","","","","","","","","","","","","","",""
"","","","","","canvas-keyboard-response","90","260596","0.0-13.0-2.15","2d_cat_multi_stim_exp1","2022-4-4","12:5:54","25","75","3","9","10","40","30","120","10","19","[""Black or African-American""]","No","Female","2111142","1185","","u","learn","","learn_trial","25","75","in","1","1","","","","","","","","","","","","","","","","","","","","",""
"","","","","","canvas-keyboard-response","91","261105","0.0-13.0-3.15","2d_cat_multi_stim_exp1","2022-4-4","12:5:54","25","75","3","9","10","40","30","120","10","19","[""Black or African-American""]","No","Female","2111142","null","","null","learn_feedback","","learn_feedback","25","75","in","","","","","","","","","","","","","","","","","","","","","","",""
"","","","","","canvas-keyboard-response","92","261164","0.0-13.0-4.15","2d_cat_multi_stim_exp1","2022-4-4","12:5:54","25","75","3","9","10","40","30","120","10","19","[""Black or African-American""]","No","Female","2111142","null","","null","","","clear_screen","","","","","","","","","","","","","","","","","","","","","","","","","",""
"","","","","","canvas-keyboard-response","93","261674","0.0-13.0-0.16","2d_cat_multi_stim_exp1","2022-4-4","12:5:54","25","75","3","9","10","40","30","120","10","19","[""Black or African-American""]","No","Female","2111142","null","","null","","","fixation","","","","","","","","","","","","","","","","","","","","","","","","","",""
"","","","","","canvas-keyboard-response","94","262184","0.0-13.0-1.16","2d_cat_multi_stim_exp1","2022-4-4","12:5:54","25","75","3","9","10","40","30","120","10","19","[""Black or African-American""]","No","Female","2111142","null","","null","","","clear_screen","","","","","","","","","","","","","","","","","","","","","","","","","",""
"","","","","","canvas-keyboard-response","95","262797","0.0-13.0-2.16","2d_cat_multi_stim_exp1","2022-4-4","12:5:54","25","75","3","9","10","40","30","120","10","19","[""Black or African-American""]","No","Female","2111142","605","","u","learn","","learn_trial","25","75","in","1","1","","","","","","","","","","","","","","","","","","","","",""
"","","","","","canvas-keyboard-response","96","263305","0.0-13.0-3.16","2d_cat_multi_stim_exp1","2022-4-4","12:5:54","25","75","3","9","10","40","30","120","10","19","[""Black or African-American""]","No","Female","2111142","null","","null","learn_feedback","","learn_feedback","25","75","in","","","","","","","","","","","","","","","","","","","","","","",""
"","","","","","canvas-keyboard-response","97","263363","0.0-13.0-4.16","2d_cat_multi_stim_exp1","2022-4-4","12:5:54","25","75","3","9","10","40","30","120","10","19","[""Black or African-American""]","No","Female","2111142","null","","null","","","clear_screen","","","","","","","","","","","","","","","","","","","","","","","","","",""
"","","","","","canvas-keyboard-response","98","263871","0.0-13.0-0.17","2d_cat_multi_stim_exp1","2022-4-4","12:5:54","25","75","3","9","10","40","30","120","10","19","[""Black or African-American""]","No","Female","2111142","null","","null","","","fixation","","","","","","","","","","","","","","","","","","","","","","","","","",""
"","","","","","canvas-keyboard-response","99","264379","0.0-13.0-1.17","2d_cat_multi_stim_exp1","2022-4-4","12:5:54","25","75","3","9","10","40","30","120","10","19","[""Black or African-American""]","No","Female","2111142","null","","null","","","clear_screen","","","","","","","","","","","","","","","","","","","","","","","","","",""
"","","","","","canvas-keyboard-response","100","265029","0.0-13.0-2.17","2d_cat_multi_stim_exp1","2022-4-4","12:5:54","25","75","3","9","10","40","30","120","10","19","[""Black or African-American""]","No","Female","2111142","640","","u","learn","","learn_trial","26.4216","82.9254","in","1","1","","","","","","","","","","","","","","","","","","","","",""
"","","","","","canvas-keyboard-response","101","265537","0.0-13.0-3.17","2d_cat_multi_stim_exp1","2022-4-4","12:5:54","25","75","3","9","10","40","30","120","10","19","[""Black or African-American""]","No","Female","2111142","null","","null","learn_feedback","","learn_feedback","26.4216","82.9254","in","","","","","","","","","","","","","","","","","","","","","","",""
"","","","","","canvas-keyboard-response","102","265595","0.0-13.0-4.17","2d_cat_multi_stim_exp1","2022-4-4","12:5:54","25","75","3","9","10","40","30","120","10","19","[""Black or African-American""]","No","Female","2111142","null","","null","","","clear_screen","","","","","","","","","","","","","","","","","","","","","","","","","",""
"","","","","","canvas-keyboard-response","103","266103","0.0-13.0-0.18","2d_cat_multi_stim_exp1","2022-4-4","12:5:54","25","75","3","9","10","40","30","120","10","19","[""Black or African-American""]","No","Female","2111142","null","","null","","","fixation","","","","","","","","","","","","","","","","","","","","","","","","","",""
"","","","","","canvas-keyboard-response","104","266614","0.0-13.0-1.18","2d_cat_multi_stim_exp1","2022-4-4","12:5:54","25","75","3","9","10","40","30","120","10","19","[""Black or African-American""]","No","Female","2111142","null","","null","","","clear_screen","","","","","","","","","","","","","","","","","","","","","","","","","",""
"","","","","","canvas-keyboard-response","105","267405","0.0-13.0-2.18","2d_cat_multi_stim_exp1","2022-4-4","12:5:54","25","75","3","9","10","40","30","120","10","19","[""Black or African-American""]","No","Female","2111142","778","","u","learn","","learn_trial","40","90","out","1","0","","","","","","","","","","","","","","","","","","","","",""
"","","","","","canvas-keyboard-response","106","268416","0.0-13.0-3.18","2d_cat_multi_stim_exp1","2022-4-4","12:5:54","25","75","3","9","10","40","30","120","10","19","[""Black or African-American""]","No","Female","2111142","null","","null","learn_feedback","","learn_feedback","40","90","out","","","","","","","","","","","","","","","","","","","","","","",""
"","","","","","canvas-keyboard-response","107","268474","0.0-13.0-4.18","2d_cat_multi_stim_exp1","2022-4-4","12:5:54","25","75","3","9","10","40","30","120","10","19","[""Black or African-American""]","No","Female","2111142","null","","null","","","clear_screen","","","","","","","","","","","","","","","","","","","","","","","","","",""
"","","","","","canvas-keyboard-response","108","268984","0.0-13.0-0.19","2d_cat_multi_stim_exp1","2022-4-4","12:5:54","25","75","3","9","10","40","30","120","10","19","[""Black or African-American""]","No","Female","2111142","null","","null","","","fixation","","","","","","","","","","","","","","","","","","","","","","","","","",""
"","","","","","canvas-keyboard-response","109","269493","0.0-13.0-1.19","2d_cat_multi_stim_exp1","2022-4-4","12:5:54","25","75","3","9","10","40","30","120","10","19","[""Black or African-American""]","No","Female","2111142","null","","null","","","clear_screen","","","","","","","","","","","","","","","","","","","","","","","","","",""
"","","","","","canvas-keyboard-response","110","270412","0.0-13.0-2.19","2d_cat_multi_stim_exp1","2022-4-4","12:5:54","25","75","3","9","10","40","30","120","10","19","[""Black or African-American""]","No","Female","2111142","910","","u","learn","","learn_trial","20","70","out","1","0","","","","","","","","","","","","","","","","","","","","",""
"","","","","","canvas-keyboard-response","111","271427","0.0-13.0-3.19","2d_cat_multi_stim_exp1","2022-4-4","12:5:54","25","75","3","9","10","40","30","120","10","19","[""Black or African-American""]","No","Female","2111142","null","","null","learn_feedback","","learn_feedback","20","70","out","","","","","","","","","","","","","","","","","","","","","","",""
"","","","","","canvas-keyboard-response","112","271486","0.0-13.0-4.19","2d_cat_multi_stim_exp1","2022-4-4","12:5:54","25","75","3","9","10","40","30","120","10","19","[""Black or African-American""]","No","Female","2111142","null","","null","","","clear_screen","","","","","","","","","","","","","","","","","","","","","","","","","",""
"","","","","","canvas-keyboard-response","113","271994","0.0-13.0-0.20","2d_cat_multi_stim_exp1","2022-4-4","12:5:54","25","75","3","9","10","40","30","120","10","19","[""Black or African-American""]","No","Female","2111142","null","","null","","","fixation","","","","","","","","","","","","","","","","","","","","","","","","","",""
"","","","","","canvas-keyboard-response","114","272504","0.0-13.0-1.20","2d_cat_multi_stim_exp1","2022-4-4","12:5:54","25","75","3","9","10","40","30","120","10","19","[""Black or African-American""]","No","Female","2111142","null","","null","","","clear_screen","","","","","","","","","","","","","","","","","","","","","","","","","",""
"","","","","","canvas-keyboard-response","115","273405","0.0-13.0-2.20","2d_cat_multi_stim_exp1","2022-4-4","12:5:54","25","75","3","9","10","40","30","120","10","19","[""Black or African-American""]","No","Female","2111142","892","","u","learn","","learn_trial","25","75","in","1","1","","","","","","","","","","","","","","","","","","","","",""
"","","","","","canvas-keyboard-response","116","273914","0.0-13.0-3.20","2d_cat_multi_stim_exp1","2022-4-4","12:5:54","25","75","3","9","10","40","30","120","10","19","[""Black or African-American""]","No","Female","2111142","null","","null","learn_feedback","","learn_feedback","25","75","in","","","","","","","","","","","","","","","","","","","","","","",""
"","","","","","canvas-keyboard-response","117","273973","0.0-13.0-4.20","2d_cat_multi_stim_exp1","2022-4-4","12:5:54","25","75","3","9","10","40","30","120","10","19","[""Black or African-American""]","No","Female","2111142","null","","null","","","clear_screen","","","","","","","","","","","","","","","","","","","","","","","","","",""
"","","","","","canvas-keyboard-response","118","274481","0.0-13.0-0.21","2d_cat_multi_stim_exp1","2022-4-4","12:5:54","25","75","3","9","10","40","30","120","10","19","[""Black or African-American""]","No","Female","2111142","null","","null","","","fixation","","","","","","","","","","","","","","","","","","","","","","","","","",""
"","","","","","canvas-keyboard-response","119","274989","0.0-13.0-1.21","2d_cat_multi_stim_exp1","2022-4-4","12:5:54","25","75","3","9","10","40","30","120","10","19","[""Black or African-American""]","No","Female","2111142","null","","null","","","clear_screen","","","","","","","","","","","","","","","","","","","","","","","","","",""
"","","","","","canvas-keyboard-response","120","275926","0.0-13.0-2.21","2d_cat_multi_stim_exp1","2022-4-4","12:5:54","25","75","3","9","10","40","30","120","10","19","[""Black or African-American""]","No","Female","2111142","927","","i","learn","","learn_trial","27.2592","69.0786","in","0","0","","","","","","","","","","","","","","","","","","","","",""
"","","","","","canvas-keyboard-response","121","276934","0.0-13.0-3.21","2d_cat_multi_stim_exp1","2022-4-4","12:5:54","25","75","3","9","10","40","30","120","10","19","[""Black or African-American""]","No","Female","2111142","null","","null","learn_feedback","","learn_feedback","27.2592","69.0786","in","","","","","","","","","","","","","","","","","","","","","","",""
"","","","","","canvas-keyboard-response","122","276993","0.0-13.0-4.21","2d_cat_multi_stim_exp1","2022-4-4","12:5:54","25","75","3","9","10","40","30","120","10","19","[""Black or African-American""]","No","Female","2111142","null","","null","","","clear_screen","","","","","","","","","","","","","","","","","","","","","","","","","",""
"","","","","","canvas-keyboard-response","123","277501","0.0-13.0-0.22","2d_cat_multi_stim_exp1","2022-4-4","12:5:54","25","75","3","9","10","40","30","120","10","19","[""Black or African-American""]","No","Female","2111142","null","","null","","","fixation","","","","","","","","","","","","","","","","","","","","","","","","","",""
"","","","","","canvas-keyboard-response","124","278009","0.0-13.0-1.22","2d_cat_multi_stim_exp1","2022-4-4","12:5:54","25","75","3","9","10","40","30","120","10","19","[""Black or African-American""]","No","Female","2111142","null","","null","","","clear_screen","","","","","","","","","","","","","","","","","","","","","","","","","",""
"","","","","","canvas-keyboard-response","125","279045","0.0-13.0-2.22","2d_cat_multi_stim_exp1","2022-4-4","12:5:54","25","75","3","9","10","40","30","120","10","19","[""Black or African-American""]","No","Female","2111142","1028","","i","learn","","learn_trial","36.6667","110","out","0","1","","","","","","","","","","","","","","","","","","","","",""
"","","","","","canvas-keyboard-response","126","279554","0.0-13.0-3.22","2d_cat_multi_stim_exp1","2022-4-4","12:5:54","25","75","3","9","10","40","30","120","10","19","[""Black or African-American""]","No","Female","2111142","null","","null","learn_feedback","","learn_feedback","36.6667","110","out","","","","","","","","","","","","","","","","","","","","","","",""
"","","","","","canvas-keyboard-response","127","279612","0.0-13.0-4.22","2d_cat_multi_stim_exp1","2022-4-4","12:5:54","25","75","3","9","10","40","30","120","10","19","[""Black or African-American""]","No","Female","2111142","null","","null","","","clear_screen","","","","","","","","","","","","","","","","","","","","","","","","","",""
"","","","","","canvas-keyboard-response","128","280121","0.0-13.0-0.23","2d_cat_multi_stim_exp1","2022-4-4","12:5:54","25","75","3","9","10","40","30","120","10","19","[""Black or African-American""]","No","Female","2111142","null","","null","","","fixation","","","","","","","","","","","","","","","","","","","","","","","","","",""
"","","","","","canvas-keyboard-response","129","280630","0.0-13.0-1.23","2d_cat_multi_stim_exp1","2022-4-4","12:5:54","25","75","3","9","10","40","30","120","10","19","[""Black or African-American""]","No","Female","2111142","null","","null","","","clear_screen","","","","","","","","","","","","","","","","","","","","","","","","","",""
"","","","","","canvas-keyboard-response","130","281461","0.0-13.0-2.23","2d_cat_multi_stim_exp1","2022-4-4","12:5:54","25","75","3","9","10","40","30","120","10","19","[""Black or African-American""]","No","Female","2111142","823","","u","learn","","learn_trial","25","75","in","1","1","","","","","","","","","","","","","","","","","","","","",""
"","","","","","canvas-keyboard-response","131","281970","0.0-13.0-3.23","2d_cat_multi_stim_exp1","2022-4-4","12:5:54","25","75","3","9","10","40","30","120","10","19","[""Black or African-American""]","No","Female","2111142","null","","null","learn_feedback","","learn_feedback","25","75","in","","","","","","","","","","","","","","","","","","","","","","",""
"","","","","","canvas-keyboard-response","132","282028","0.0-13.0-4.23","2d_cat_multi_stim_exp1","2022-4-4","12:5:54","25","75","3","9","10","40","30","120","10","19","[""Black or African-American""]","No","Female","2111142","null","","null","","","clear_screen","","","","","","","","","","","","","","","","","","","","","","","","","",""
"","","","","","canvas-keyboard-response","133","282536","0.0-13.0-0.24","2d_cat_multi_stim_exp1","2022-4-4","12:5:54","25","75","3","9","10","40","30","120","10","19","[""Black or African-American""]","No","Female","2111142","null","","null","","","fixation","","","","","","","","","","","","","","","","","","","","","","","","","",""
"","","","","","canvas-keyboard-response","134","283045","0.0-13.0-1.24","2d_cat_multi_stim_exp1","2022-4-4","12:5:54","25","75","3","9","10","40","30","120","10","19","[""Black or African-American""]","No","Female","2111142","null","","null","","","clear_screen","","","","","","","","","","","","","","","","","","","","","","","","","",""
"","","","","","canvas-keyboard-response","135","284197","0.0-13.0-2.24","2d_cat_multi_stim_exp1","2022-4-4","12:5:54","25","75","3","9","10","40","30","120","10","19","[""Black or African-American""]","No","Female","2111142","1143","","i","learn","","learn_trial","25.9271","66.4405","in","0","0","","","","","","","","","","","","","","","","","","","","",""
"","","","","","canvas-keyboard-response","136","285206","0.0-13.0-3.24","2d_cat_multi_stim_exp1","2022-4-4","12:5:54","25","75","3","9","10","40","30","120","10","19","[""Black or African-American""]","No","Female","2111142","null","","null","learn_feedback","","learn_feedback","25.9271","66.4405","in","","","","","","","","","","","","","","","","","","","","","","",""
"","","","","","canvas-keyboard-response","137","285264","0.0-13.0-4.24","2d_cat_multi_stim_exp1","2022-4-4","12:5:54","25","75","3","9","10","40","30","120","10","19","[""Black or African-American""]","No","Female","2111142","null","","null","","","clear_screen","","","","","","","","","","","","","","","","","","","","","","","","","",""
"","","","","","canvas-keyboard-response","138","285773","0.0-13.0-0.25","2d_cat_multi_stim_exp1","2022-4-4","12:5:54","25","75","3","9","10","40","30","120","10","19","[""Black or African-American""]","No","Female","2111142","null","","null","","","fixation","","","","","","","","","","","","","","","","","","","","","","","","","",""
"","","","","","canvas-keyboard-response","139","286281","0.0-13.0-1.25","2d_cat_multi_stim_exp1","2022-4-4","12:5:54","25","75","3","9","10","40","30","120","10","19","[""Black or African-American""]","No","Female","2111142","null","","null","","","clear_screen","","","","","","","","","","","","","","","","","","","","","","","","","",""
"","","","","","canvas-keyboard-response","140","287828","0.0-13.0-2.25","2d_cat_multi_stim_exp1","2022-4-4","12:5:54","25","75","3","9","10","40","30","120","10","19","[""Black or African-American""]","No","Female","2111142","1539","","u","learn","","learn_trial","25","75","in","1","1","","","","","","","","","","","","","","","","","","","","",""
"","","","","","canvas-keyboard-response","141","288338","0.0-13.0-3.25","2d_cat_multi_stim_exp1","2022-4-4","12:5:54","25","75","3","9","10","40","30","120","10","19","[""Black or African-American""]","No","Female","2111142","null","","null","learn_feedback","","learn_feedback","25","75","in","","","","","","","","","","","","","","","","","","","","","","",""
"","","","","","canvas-keyboard-response","142","288395","0.0-13.0-4.25","2d_cat_multi_stim_exp1","2022-4-4","12:5:54","25","75","3","9","10","40","30","120","10","19","[""Black or African-American""]","No","Female","2111142","null","","null","","","clear_screen","","","","","","","","","","","","","","","","","","","","","","","","","",""
"","","","","","canvas-keyboard-response","143","288907","0.0-13.0-0.26","2d_cat_multi_stim_exp1","2022-4-4","12:5:54","25","75","3","9","10","40","30","120","10","19","[""Black or African-American""]","No","Female","2111142","null","","null","","","fixation","","","","","","","","","","","","","","","","","","","","","","","","","",""
"","","","","","canvas-keyboard-response","144","289415","0.0-13.0-1.26","2d_cat_multi_stim_exp1","2022-4-4","12:5:54","25","75","3","9","10","40","30","120","10","19","[""Black or African-American""]","No","Female","2111142","null","","null","","","clear_screen","","","","","","","","","","","","","","","","","","","","","","","","","",""
"","","","","","canvas-keyboard-response","145","290492","0.0-13.0-2.26","2d_cat_multi_stim_exp1","2022-4-4","12:5:54","25","75","3","9","10","40","30","120","10","19","[""Black or African-American""]","No","Female","2111142","1069","","u","learn","","learn_trial","25","75","in","1","1","","","","","","","","","","","","","","","","","","","","",""
"","","","","","canvas-keyboard-response","146","291002","0.0-13.0-3.26","2d_cat_multi_stim_exp1","2022-4-4","12:5:54","25","75","3","9","10","40","30","120","10","19","[""Black or African-American""]","No","Female","2111142","null","","null","learn_feedback","","learn_feedback","25","75","in","","","","","","","","","","","","","","","","","","","","","","",""
"","","","","","canvas-keyboard-response","147","291060","0.0-13.0-4.26","2d_cat_multi_stim_exp1","2022-4-4","12:5:54","25","75","3","9","10","40","30","120","10","19","[""Black or African-American""]","No","Female","2111142","null","","null","","","clear_screen","","","","","","","","","","","","","","","","","","","","","","","","","",""
"","","","","","canvas-keyboard-response","148","291568","0.0-13.0-0.27","2d_cat_multi_stim_exp1","2022-4-4","12:5:54","25","75","3","9","10","40","30","120","10","19","[""Black or African-American""]","No","Female","2111142","null","","null","","","fixation","","","","","","","","","","","","","","","","","","","","","","","","","",""
"","","","","","canvas-keyboard-response","149","292076","0.0-13.0-1.27","2d_cat_multi_stim_exp1","2022-4-4","12:5:54","25","75","3","9","10","40","30","120","10","19","[""Black or African-American""]","No","Female","2111142","null","","null","","","clear_screen","","","","","","","","","","","","","","","","","","","","","","","","","",""
"","","","","","canvas-keyboard-response","150","293100","0.0-13.0-2.27","2d_cat_multi_stim_exp1","2022-4-4","12:5:54","25","75","3","9","10","40","30","120","10","19","[""Black or African-American""]","No","Female","2111142","1016","","i","learn","","learn_trial","13.3333","70","out","0","1","","","","","","","","","","","","","","","","","","","","",""
"","","","","","canvas-keyboard-response","151","293609","0.0-13.0-3.27","2d_cat_multi_stim_exp1","2022-4-4","12:5:54","25","75","3","9","10","40","30","120","10","19","[""Black or African-American""]","No","Female","2111142","null","","null","learn_feedback","","learn_feedback","13.3333","70","out","","","","","","","","","","","","","","","","","","","","","","",""
"","","","","","canvas-keyboard-response","152","293667","0.0-13.0-4.27","2d_cat_multi_stim_exp1","2022-4-4","12:5:54","25","75","3","9","10","40","30","120","10","19","[""Black or African-American""]","No","Female","2111142","null","","null","","","clear_screen","","","","","","","","","","","","","","","","","","","","","","","","","",""
"","","","","","canvas-keyboard-response","153","294174","0.0-13.0-0.28","2d_cat_multi_stim_exp1","2022-4-4","12:5:54","25","75","3","9","10","40","30","120","10","19","[""Black or African-American""]","No","Female","2111142","null","","null","","","fixation","","","","","","","","","","","","","","","","","","","","","","","","","",""
"","","","","","canvas-keyboard-response","154","294683","0.0-13.0-1.28","2d_cat_multi_stim_exp1","2022-4-4","12:5:54","25","75","3","9","10","40","30","120","10","19","[""Black or African-American""]","No","Female","2111142","null","","null","","","clear_screen","","","","","","","","","","","","","","","","","","","","","","","","","",""
"","","","","","canvas-keyboard-response","155","295468","0.0-13.0-2.28","2d_cat_multi_stim_exp1","2022-4-4","12:5:54","25","75","3","9","10","40","30","120","10","19","[""Black or African-American""]","No","Female","2111142","776","","i","learn","","learn_trial","10","110","out","0","1","","","","","","","","","","","","","","","","","","","","",""
"","","","","","canvas-keyboard-response","156","295978","0.0-13.0-3.28","2d_cat_multi_stim_exp1","2022-4-4","12:5:54","25","75","3","9","10","40","30","120","10","19","[""Black or African-American""]","No","Female","2111142","null","","null","learn_feedback","","learn_feedback","10","110","out","","","","","","","","","","","","","","","","","","","","","","",""
"","","","","","canvas-keyboard-response","157","296036","0.0-13.0-4.28","2d_cat_multi_stim_exp1","2022-4-4","12:5:54","25","75","3","9","10","40","30","120","10","19","[""Black or African-American""]","No","Female","2111142","null","","null","","","clear_screen","","","","","","","","","","","","","","","","","","","","","","","","","",""
"","","","","","canvas-keyboard-response","158","296546","0.0-13.0-0.29","2d_cat_multi_stim_exp1","2022-4-4","12:5:54","25","75","3","9","10","40","30","120","10","19","[""Black or African-American""]","No","Female","2111142","null","","null","","","fixation","","","","","","","","","","","","","","","","","","","","","","","","","",""
"","","","","","canvas-keyboard-response","159","297055","0.0-13.0-1.29","2d_cat_multi_stim_exp1","2022-4-4","12:5:54","25","75","3","9","10","40","30","120","10","19","[""Black or African-American""]","No","Female","2111142","null","","null","","","clear_screen","","","","","","","","","","","","","","","","","","","","","","","","","",""
"","","","","","canvas-keyboard-response","160","297949","0.0-13.0-2.29","2d_cat_multi_stim_exp1","2022-4-4","12:5:54","25","75","3","9","10","40","30","120","10","19","[""Black or African-American""]","No","Female","2111142","884","","i","learn","","learn_trial","20.7574","62.2721","in","0","0","","","","","","","","","","","","","","","","","","","","",""
"","","","","","canvas-keyboard-response","161","298957","0.0-13.0-3.29","2d_cat_multi_stim_exp1","2022-4-4","12:5:54","25","75","3","9","10","40","30","120","10","19","[""Black or African-American""]","No","Female","2111142","null","","null","learn_feedback","","learn_feedback","20.7574","62.2721","in","","","","","","","","","","","","","","","","","","","","","","",""
"","","","","","canvas-keyboard-response","162","299015","0.0-13.0-4.29","2d_cat_multi_stim_exp1","2022-4-4","12:5:54","25","75","3","9","10","40","30","120","10","19","[""Black or African-American""]","No","Female","2111142","null","","null","","","clear_screen","","","","","","","","","","","","","","","","","","","","","","","","","",""
"","","","","","canvas-keyboard-response","163","299523","0.0-13.0-0.30","2d_cat_multi_stim_exp1","2022-4-4","12:5:54","25","75","3","9","10","40","30","120","10","19","[""Black or African-American""]","No","Female","2111142","null","","null","","","fixation","","","","","","","","","","","","","","","","","","","","","","","","","",""
"","","","","","canvas-keyboard-response","164","300032","0.0-13.0-1.30","2d_cat_multi_stim_exp1","2022-4-4","12:5:54","25","75","3","9","10","40","30","120","10","19","[""Black or African-American""]","No","Female","2111142","null","","null","","","clear_screen","","","","","","","","","","","","","","","","","","","","","","","","","",""
"","","","","","canvas-keyboard-response","165","300781","0.0-13.0-2.30","2d_cat_multi_stim_exp1","2022-4-4","12:5:54","25","75","3","9","10","40","30","120","10","19","[""Black or African-American""]","No","Female","2111142","739","","u","learn","","learn_trial","19","75","in","1","1","","","","","","","","","","","","","","","","","","","","",""
"","","","","","canvas-keyboard-response","166","301290","0.0-13.0-3.30","2d_cat_multi_stim_exp1","2022-4-4","12:5:54","25","75","3","9","10","40","30","120","10","19","[""Black or African-American""]","No","Female","2111142","null","","null","learn_feedback","","learn_feedback","19","75","in","","","","","","","","","","","","","","","","","","","","","","",""
"","","","","","canvas-keyboard-response","167","301348","0.0-13.0-4.30","2d_cat_multi_stim_exp1","2022-4-4","12:5:54","25","75","3","9","10","40","30","120","10","19","[""Black or African-American""]","No","Female","2111142","null","","null","","","clear_screen","","","","","","","","","","","","","","","","","","","","","","","","","",""
"","","","","","canvas-keyboard-response","168","301856","0.0-13.0-0.31","2d_cat_multi_stim_exp1","2022-4-4","12:5:54","25","75","3","9","10","40","30","120","10","19","[""Black or African-American""]","No","Female","2111142","null","","null","","","fixation","","","","","","","","","","","","","","","","","","","","","","","","","",""
"","","","","","canvas-keyboard-response","169","302365","0.0-13.0-1.31","2d_cat_multi_stim_exp1","2022-4-4","12:5:54","25","75","3","9","10","40","30","120","10","19","[""Black or African-American""]","No","Female","2111142","null","","null","","","clear_screen","","","","","","","","","","","","","","","","","","","","","","","","","",""
"","","","","","canvas-keyboard-response","170","303237","0.0-13.0-2.31","2d_cat_multi_stim_exp1","2022-4-4","12:5:54","25","75","3","9","10","40","30","120","10","19","[""Black or African-American""]","No","Female","2111142","864","","i","learn","","learn_trial","40","120","out","0","1","","","","","","","","","","","","","","","","","","","","",""
"","","","","","canvas-keyboard-response","171","303746","0.0-13.0-3.31","2d_cat_multi_stim_exp1","2022-4-4","12:5:54","25","75","3","9","10","40","30","120","10","19","[""Black or African-American""]","No","Female","2111142","null","","null","learn_feedback","","learn_feedback","40","120","out","","","","","","","","","","","","","","","","","","","","","","",""
"","","","","","canvas-keyboard-response","172","303805","0.0-13.0-4.31","2d_cat_multi_stim_exp1","2022-4-4","12:5:54","25","75","3","9","10","40","30","120","10","19","[""Black or African-American""]","No","Female","2111142","null","","null","","","clear_screen","","","","","","","","","","","","","","","","","","","","","","","","","",""
"","","","","","canvas-keyboard-response","173","304313","0.0-13.0-0.32","2d_cat_multi_stim_exp1","2022-4-4","12:5:54","25","75","3","9","10","40","30","120","10","19","[""Black or African-American""]","No","Female","2111142","null","","null","","","fixation","","","","","","","","","","","","","","","","","","","","","","","","","",""
"","","","","","canvas-keyboard-response","174","304823","0.0-13.0-1.32","2d_cat_multi_stim_exp1","2022-4-4","12:5:54","25","75","3","9","10","40","30","120","10","19","[""Black or African-American""]","No","Female","2111142","null","","null","","","clear_screen","","","","","","","","","","","","","","","","","","","","","","","","","",""
"","","","","","canvas-keyboard-response","175","305693","0.0-13.0-2.32","2d_cat_multi_stim_exp1","2022-4-4","12:5:54","25","75","3","9","10","40","30","120","10","19","[""Black or African-American""]","No","Female","2111142","859","","u","learn","","learn_trial","24.3324","83.7744","in","1","1","","","","","","","","","","","","","","","","","","","","",""
"","","","","","canvas-keyboard-response","176","306204","0.0-13.0-3.32","2d_cat_multi_stim_exp1","2022-4-4","12:5:54","25","75","3","9","10","40","30","120","10","19","[""Black or African-American""]","No","Female","2111142","null","","null","learn_feedback","","learn_feedback","24.3324","83.7744","in","","","","","","","","","","","","","","","","","","","","","","",""
"","","","","","canvas-keyboard-response","177","306263","0.0-13.0-4.32","2d_cat_multi_stim_exp1","2022-4-4","12:5:54","25","75","3","9","10","40","30","120","10","19","[""Black or African-American""]","No","Female","2111142","null","","null","","","clear_screen","","","","","","","","","","","","","","","","","","","","","","","","","",""
"","","","","","canvas-keyboard-response","178","306772","0.0-13.0-0.33","2d_cat_multi_stim_exp1","2022-4-4","12:5:54","25","75","3","9","10","40","30","120","10","19","[""Black or African-American""]","No","Female","2111142","null","","null","","","fixation","","","","","","","","","","","","","","","","","","","","","","","","","",""
"","","","","","canvas-keyboard-response","179","307282","0.0-13.0-1.33","2d_cat_multi_stim_exp1","2022-4-4","12:5:54","25","75","3","9","10","40","30","120","10","19","[""Black or African-American""]","No","Female","2111142","null","","null","","","clear_screen","","","","","","","","","","","","","","","","","","","","","","","","","",""
"","","","","","canvas-keyboard-response","180","308101","0.0-13.0-2.33","2d_cat_multi_stim_exp1","2022-4-4","12:5:54","25","75","3","9","10","40","30","120","10","19","[""Black or African-American""]","No","Female","2111142","808","","u","learn","","learn_trial","26.6667","90","out","1","0","","","","","","","","","","","","","","","","","","","","",""
"","","","","","canvas-keyboard-response","181","309111","0.0-13.0-3.33","2d_cat_multi_stim_exp1","2022-4-4","12:5:54","25","75","3","9","10","40","30","120","10","19","[""Black or African-American""]","No","Female","2111142","null","","null","learn_feedback","","learn_feedback","26.6667","90","out","","","","","","","","","","","","","","","","","","","","","","",""
"","","","","","canvas-keyboard-response","182","309169","0.0-13.0-4.33","2d_cat_multi_stim_exp1","2022-4-4","12:5:54","25","75","3","9","10","40","30","120","10","19","[""Black or African-American""]","No","Female","2111142","null","","null","","","clear_screen","","","","","","","","","","","","","","","","","","","","","","","","","",""
"","","","","","canvas-keyboard-response","183","309678","0.0-13.0-0.34","2d_cat_multi_stim_exp1","2022-4-4","12:5:54","25","75","3","9","10","40","30","120","10","19","[""Black or African-American""]","No","Female","2111142","null","","null","","","fixation","","","","","","","","","","","","","","","","","","","","","","","","","",""
"","","","","","canvas-keyboard-response","184","310187","0.0-13.0-1.34","2d_cat_multi_stim_exp1","2022-4-4","12:5:54","25","75","3","9","10","40","30","120","10","19","[""Black or African-American""]","No","Female","2111142","null","","null","","","clear_screen","","","","","","","","","","","","","","","","","","","","","","","","","",""
"","","","","","canvas-keyboard-response","185","311364","0.0-13.0-2.34","2d_cat_multi_stim_exp1","2022-4-4","12:5:54","25","75","3","9","10","40","30","120","10","19","[""Black or African-American""]","No","Female","2111142","1168","","i","learn","","learn_trial","10","50","out","0","1","","","","","","","","","","","","","","","","","","","","",""
"","","","","","canvas-keyboard-response","186","311874","0.0-13.0-3.34","2d_cat_multi_stim_exp1","2022-4-4","12:5:54","25","75","3","9","10","40","30","120","10","19","[""Black or African-American""]","No","Female","2111142","null","","null","learn_feedback","","learn_feedback","10","50","out","","","","","","","","","","","","","","","","","","","","","","",""
"","","","","","canvas-keyboard-response","187","311933","0.0-13.0-4.34","2d_cat_multi_stim_exp1","2022-4-4","12:5:54","25","75","3","9","10","40","30","120","10","19","[""Black or African-American""]","No","Female","2111142","null","","null","","","clear_screen","","","","","","","","","","","","","","","","","","","","","","","","","",""
"","","","","","canvas-keyboard-response","188","312440","0.0-13.0-0.35","2d_cat_multi_stim_exp1","2022-4-4","12:5:54","25","75","3","9","10","40","30","120","10","19","[""Black or African-American""]","No","Female","2111142","null","","null","","","fixation","","","","","","","","","","","","","","","","","","","","","","","","","",""
"","","","","","canvas-keyboard-response","189","312949","0.0-13.0-1.35","2d_cat_multi_stim_exp1","2022-4-4","12:5:54","25","75","3","9","10","40","30","120","10","19","[""Black or African-American""]","No","Female","2111142","null","","null","","","clear_screen","","","","","","","","","","","","","","","","","","","","","","","","","",""
"","","","","","canvas-keyboard-response","190","314028","0.0-13.0-2.35","2d_cat_multi_stim_exp1","2022-4-4","12:5:54","25","75","3","9","10","40","30","120","10","19","[""Black or African-American""]","No","Female","2111142","1070","","u","learn","","learn_trial","24.3324","66.2256","in","1","1","","","","","","","","","","","","","","","","","","","","",""
"","","","","","canvas-keyboard-response","191","314538","0.0-13.0-3.35","2d_cat_multi_stim_exp1","2022-4-4","12:5:54","25","75","3","9","10","40","30","120","10","19","[""Black or African-American""]","No","Female","2111142","null","","null","learn_feedback","","learn_feedback","24.3324","66.2256","in","","","","","","","","","","","","","","","","","","","","","","",""
"","","","","","canvas-keyboard-response","192","314596","0.0-13.0-4.35","2d_cat_multi_stim_exp1","2022-4-4","12:5:54","25","75","3","9","10","40","30","120","10","19","[""Black or African-American""]","No","Female","2111142","null","","null","","","clear_screen","","","","","","","","","","","","","","","","","","","","","","","","","",""
"","","","","","canvas-keyboard-response","193","315105","0.0-13.0-0.36","2d_cat_multi_stim_exp1","2022-4-4","12:5:54","25","75","3","9","10","40","30","120","10","19","[""Black or African-American""]","No","Female","2111142","null","","null","","","fixation","","","","","","","","","","","","","","","","","","","","","","","","","",""
"","","","","","canvas-keyboard-response","194","315614","0.0-13.0-1.36","2d_cat_multi_stim_exp1","2022-4-4","12:5:54","25","75","3","9","10","40","30","120","10","19","[""Black or African-American""]","No","Female","2111142","null","","null","","","clear_screen","","","","","","","","","","","","","","","","","","","","","","","","","",""
"","","","","","canvas-keyboard-response","195","317420","0.0-13.0-2.36","2d_cat_multi_stim_exp1","2022-4-4","12:5:54","25","75","3","9","10","40","30","120","10","19","[""Black or African-American""]","No","Female","2111142","1798","","i","learn","","learn_trial","20","80","out","0","1","","","","","","","","","","","","","","","","","","","","",""
"","","","","","canvas-keyboard-response","196","317930","0.0-13.0-3.36","2d_cat_multi_stim_exp1","2022-4-4","12:5:54","25","75","3","9","10","40","30","120","10","19","[""Black or African-American""]","No","Female","2111142","null","","null","learn_feedback","","learn_feedback","20","80","out","","","","","","","","","","","","","","","","","","","","","","",""
"","","","","","canvas-keyboard-response","197","317987","0.0-13.0-4.36","2d_cat_multi_stim_exp1","2022-4-4","12:5:54","25","75","3","9","10","40","30","120","10","19","[""Black or African-American""]","No","Female","2111142","null","","null","","","clear_screen","","","","","","","","","","","","","","","","","","","","","","","","","",""
"","","","","","canvas-keyboard-response","198","318496","0.0-13.0-0.37","2d_cat_multi_stim_exp1","2022-4-4","12:5:54","25","75","3","9","10","40","30","120","10","19","[""Black or African-American""]","No","Female","2111142","null","","null","","","fixation","","","","","","","","","","","","","","","","","","","","","","","","","",""
"","","","","","canvas-keyboard-response","199","319004","0.0-13.0-1.37","2d_cat_multi_stim_exp1","2022-4-4","12:5:54","25","75","3","9","10","40","30","120","10","19","[""Black or African-American""]","No","Female","2111142","null","","null","","","clear_screen","","","","","","","","","","","","","","","","","","","","","","","","","",""
"","","","","","canvas-keyboard-response","200","320317","0.0-13.0-2.37","2d_cat_multi_stim_exp1","2022-4-4","12:5:54","25","75","3","9","10","40","30","120","10","19","[""Black or African-American""]","No","Female","2111142","1303","","u","learn","","learn_trial","27.5753","70.3839","in","1","1","","","","","","","","","","","","","","","","","","","","",""
"","","","","","canvas-keyboard-response","201","320826","0.0-13.0-3.37","2d_cat_multi_stim_exp1","2022-4-4","12:5:54","25","75","3","9","10","40","30","120","10","19","[""Black or African-American""]","No","Female","2111142","null","","null","learn_feedback","","learn_feedback","27.5753","70.3839","in","","","","","","","","","","","","","","","","","","","","","","",""
"","","","","","canvas-keyboard-response","202","320884","0.0-13.0-4.37","2d_cat_multi_stim_exp1","2022-4-4","12:5:54","25","75","3","9","10","40","30","120","10","19","[""Black or African-American""]","No","Female","2111142","null","","null","","","clear_screen","","","","","","","","","","","","","","","","","","","","","","","","","",""
"","","","","","canvas-keyboard-response","203","321392","0.0-13.0-0.38","2d_cat_multi_stim_exp1","2022-4-4","12:5:54","25","75","3","9","10","40","30","120","10","19","[""Black or African-American""]","No","Female","2111142","null","","null","","","fixation","","","","","","","","","","","","","","","","","","","","","","","","","",""
"","","","","","canvas-keyboard-response","204","321901","0.0-13.0-1.38","2d_cat_multi_stim_exp1","2022-4-4","12:5:54","25","75","3","9","10","40","30","120","10","19","[""Black or African-American""]","No","Female","2111142","null","","null","","","clear_screen","","","","","","","","","","","","","","","","","","","","","","","","","",""
"","","","","","canvas-keyboard-response","205","322741","0.0-13.0-2.38","2d_cat_multi_stim_exp1","2022-4-4","12:5:54","25","75","3","9","10","40","30","120","10","19","[""Black or African-American""]","No","Female","2111142","830","","i","learn","","learn_trial","13.3333","120","out","0","1","","","","","","","","","","","","","","","","","","","","",""
"","","","","","canvas-keyboard-response","206","323252","0.0-13.0-3.38","2d_cat_multi_stim_exp1","2022-4-4","12:5:54","25","75","3","9","10","40","30","120","10","19","[""Black or African-American""]","No","Female","2111142","null","","null","learn_feedback","","learn_feedback","13.3333","120","out","","","","","","","","","","","","","","","","","","","","","","",""
"","","","","","canvas-keyboard-response","207","323310","0.0-13.0-4.38","2d_cat_multi_stim_exp1","2022-4-4","12:5:54","25","75","3","9","10","40","30","120","10","19","[""Black or African-American""]","No","Female","2111142","null","","null","","","clear_screen","","","","","","","","","","","","","","","","","","","","","","","","","",""
"","","","","","canvas-keyboard-response","208","323818","0.0-13.0-0.39","2d_cat_multi_stim_exp1","2022-4-4","12:5:54","25","75","3","9","10","40","30","120","10","19","[""Black or African-American""]","No","Female","2111142","null","","null","","","fixation","","","","","","","","","","","","","","","","","","","","","","","","","",""
"","","","","","canvas-keyboard-response","209","324327","0.0-13.0-1.39","2d_cat_multi_stim_exp1","2022-4-4","12:5:54","25","75","3","9","10","40","30","120","10","19","[""Black or African-American""]","No","Female","2111142","null","","null","","","clear_screen","","","","","","","","","","","","","","","","","","","","","","","","","",""
"","","","","","canvas-keyboard-response","210","326021","0.0-13.0-2.39","2d_cat_multi_stim_exp1","2022-4-4","12:5:54","25","75","3","9","10","40","30","120","10","19","[""Black or African-American""]","No","Female","2111142","1684","","u","learn","","learn_trial","25","75","in","1","1","","","","","","","","","","","","","","","","","","","","",""
"","","","","","canvas-keyboard-response","211","326529","0.0-13.0-3.39","2d_cat_multi_stim_exp1","2022-4-4","12:5:54","25","75","3","9","10","40","30","120","10","19","[""Black or African-American""]","No","Female","2111142","null","","null","learn_feedback","","learn_feedback","25","75","in","","","","","","","","","","","","","","","","","","","","","","",""
"","","","","","canvas-keyboard-response","212","326588","0.0-13.0-4.39","2d_cat_multi_stim_exp1","2022-4-4","12:5:54","25","75","3","9","10","40","30","120","10","19","[""Black or African-American""]","No","Female","2111142","null","","null","","","clear_screen","","","","","","","","","","","","","","","","","","","","","","","","","",""
"","","","","","canvas-keyboard-response","213","327095","0.0-13.0-0.40","2d_cat_multi_stim_exp1","2022-4-4","12:5:54","25","75","3","9","10","40","30","120","10","19","[""Black or African-American""]","No","Female","2111142","null","","null","","","fixation","","","","","","","","","","","","","","","","","","","","","","","","","",""
"","","","","","canvas-keyboard-response","214","327604","0.0-13.0-1.40","2d_cat_multi_stim_exp1","2022-4-4","12:5:54","25","75","3","9","10","40","30","120","10","19","[""Black or African-American""]","No","Female","2111142","null","","null","","","clear_screen","","","","","","","","","","","","","","","","","","","","","","","","","",""
"","","","","","canvas-keyboard-response","215","328245","0.0-13.0-2.40","2d_cat_multi_stim_exp1","2022-4-4","12:5:54","25","75","3","9","10","40","30","120","10","19","[""Black or African-American""]","No","Female","2111142","632","","i","learn","","learn_trial","10","80","out","0","1","","","","","","","","","","","","","","","","","","","","",""
"","","","","","canvas-keyboard-response","216","328752","0.0-13.0-3.40","2d_cat_multi_stim_exp1","2022-4-4","12:5:54","25","75","3","9","10","40","30","120","10","19","[""Black or African-American""]","No","Female","2111142","null","","null","learn_feedback","","learn_feedback","10","80","out","","","","","","","","","","","","","","","","","","","","","","",""
"","","","","","canvas-keyboard-response","217","328811","0.0-13.0-4.40","2d_cat_multi_stim_exp1","2022-4-4","12:5:54","25","75","3","9","10","40","30","120","10","19","[""Black or African-American""]","No","Female","2111142","null","","null","","","clear_screen","","","","","","","","","","","","","","","","","","","","","","","","","",""
"","","","","","canvas-keyboard-response","218","329319","0.0-13.0-0.41","2d_cat_multi_stim_exp1","2022-4-4","12:5:54","25","75","3","9","10","40","30","120","10","19","[""Black or African-American""]","No","Female","2111142","null","","null","","","fixation","","","","","","","","","","","","","","","","","","","","","","","","","",""
"","","","","","canvas-keyboard-response","219","329828","0.0-13.0-1.41","2d_cat_multi_stim_exp1","2022-4-4","12:5:54","25","75","3","9","10","40","30","120","10","19","[""Black or African-American""]","No","Female","2111142","null","","null","","","clear_screen","","","","","","","","","","","","","","","","","","","","","","","","","",""
"","","","","","canvas-keyboard-response","220","332013","0.0-13.0-2.41","2d_cat_multi_stim_exp1","2022-4-4","12:5:54","25","75","3","9","10","40","30","120","10","19","[""Black or African-American""]","No","Female","2111142","2176","","i","learn","","learn_trial","22.1081","72.6057","in","0","0","","","","","","","","","","","","","","","","","","","","",""
"","","","","","canvas-keyboard-response","221","333022","0.0-13.0-3.41","2d_cat_multi_stim_exp1","2022-4-4","12:5:54","25","75","3","9","10","40","30","120","10","19","[""Black or African-American""]","No","Female","2111142","null","","null","learn_feedback","","learn_feedback","22.1081","72.6057","in","","","","","","","","","","","","","","","","","","","","","","",""
"","","","","","canvas-keyboard-response","222","333080","0.0-13.0-4.41","2d_cat_multi_stim_exp1","2022-4-4","12:5:54","25","75","3","9","10","40","30","120","10","19","[""Black or African-American""]","No","Female","2111142","null","","null","","","clear_screen","","","","","","","","","","","","","","","","","","","","","","","","","",""
"","","","","","canvas-keyboard-response","223","333589","0.0-13.0-0.42","2d_cat_multi_stim_exp1","2022-4-4","12:5:54","25","75","3","9","10","40","30","120","10","19","[""Black or African-American""]","No","Female","2111142","null","","null","","","fixation","","","","","","","","","","","","","","","","","","","","","","","","","",""
"","","","","","canvas-keyboard-response","224","334097","0.0-13.0-1.42","2d_cat_multi_stim_exp1","2022-4-4","12:5:54","25","75","3","9","10","40","30","120","10","19","[""Black or African-American""]","No","Female","2111142","null","","null","","","clear_screen","","","","","","","","","","","","","","","","","","","","","","","","","",""
"","","","","","canvas-keyboard-response","225","335061","0.0-13.0-2.42","2d_cat_multi_stim_exp1","2022-4-4","12:5:54","25","75","3","9","10","40","30","120","10","19","[""Black or African-American""]","No","Female","2111142","954","","u","learn","","learn_trial","23.3473","67.4888","in","1","1","","","","","","","","","","","","","","","","","","","","",""
"","","","","","canvas-keyboard-response","226","335571","0.0-13.0-3.42","2d_cat_multi_stim_exp1","2022-4-4","12:5:54","25","75","3","9","10","40","30","120","10","19","[""Black or African-American""]","No","Female","2111142","null","","null","learn_feedback","","learn_feedback","23.3473","67.4888","in","","","","","","","","","","","","","","","","","","","","","","",""
"","","","","","canvas-keyboard-response","227","335628","0.0-13.0-4.42","2d_cat_multi_stim_exp1","2022-4-4","12:5:54","25","75","3","9","10","40","30","120","10","19","[""Black or African-American""]","No","Female","2111142","null","","null","","","clear_screen","","","","","","","","","","","","","","","","","","","","","","","","","",""
"","","","","","canvas-keyboard-response","228","336137","0.0-13.0-0.43","2d_cat_multi_stim_exp1","2022-4-4","12:5:54","25","75","3","9","10","40","30","120","10","19","[""Black or African-American""]","No","Female","2111142","null","","null","","","fixation","","","","","","","","","","","","","","","","","","","","","","","","","",""
"","","","","","canvas-keyboard-response","229","336645","0.0-13.0-1.43","2d_cat_multi_stim_exp1","2022-4-4","12:5:54","25","75","3","9","10","40","30","120","10","19","[""Black or African-American""]","No","Female","2111142","null","","null","","","clear_screen","","","","","","","","","","","","","","","","","","","","","","","","","",""
"","","","","","canvas-keyboard-response","230","337717","0.0-13.0-2.43","2d_cat_multi_stim_exp1","2022-4-4","12:5:54","25","75","3","9","10","40","30","120","10","19","[""Black or African-American""]","No","Female","2111142","1062","","i","learn","","learn_trial","40","40","out","0","1","","","","","","","","","","","","","","","","","","","","",""
"","","","","","canvas-keyboard-response","231","338225","0.0-13.0-3.43","2d_cat_multi_stim_exp1","2022-4-4","12:5:54","25","75","3","9","10","40","30","120","10","19","[""Black or African-American""]","No","Female","2111142","null","","null","learn_feedback","","learn_feedback","40","40","out","","","","","","","","","","","","","","","","","","","","","","",""
"","","","","","canvas-keyboard-response","232","338289","0.0-13.0-4.43","2d_cat_multi_stim_exp1","2022-4-4","12:5:54","25","75","3","9","10","40","30","120","10","19","[""Black or African-American""]","No","Female","2111142","null","","null","","","clear_screen","","","","","","","","","","","","","","","","","","","","","","","","","",""
"","","","","","canvas-keyboard-response","233","338796","0.0-13.0-0.44","2d_cat_multi_stim_exp1","2022-4-4","12:5:54","25","75","3","9","10","40","30","120","10","19","[""Black or African-American""]","No","Female","2111142","null","","null","","","fixation","","","","","","","","","","","","","","","","","","","","","","","","","",""
"","","","","","canvas-keyboard-response","234","339305","0.0-13.0-1.44","2d_cat_multi_stim_exp1","2022-4-4","12:5:54","25","75","3","9","10","40","30","120","10","19","[""Black or African-American""]","No","Female","2111142","null","","null","","","clear_screen","","","","","","","","","","","","","","","","","","","","","","","","","",""
"","","","","","canvas-keyboard-response","235","339989","0.0-13.0-2.44","2d_cat_multi_stim_exp1","2022-4-4","12:5:54","25","75","3","9","10","40","30","120","10","19","[""Black or African-American""]","No","Female","2111142","674","","u","learn","","learn_trial","25","75","in","1","1","","","","","","","","","","","","","","","","","","","","",""
"","","","","","canvas-keyboard-response","236","340497","0.0-13.0-3.44","2d_cat_multi_stim_exp1","2022-4-4","12:5:54","25","75","3","9","10","40","30","120","10","19","[""Black or African-American""]","No","Female","2111142","null","","null","learn_feedback","","learn_feedback","25","75","in","","","","","","","","","","","","","","","","","","","","","","",""
"","","","","","canvas-keyboard-response","237","340556","0.0-13.0-4.44","2d_cat_multi_stim_exp1","2022-4-4","12:5:54","25","75","3","9","10","40","30","120","10","19","[""Black or African-American""]","No","Female","2111142","null","","null","","","clear_screen","","","","","","","","","","","","","","","","","","","","","","","","","",""
"","","","","","canvas-keyboard-response","238","341064","0.0-13.0-0.45","2d_cat_multi_stim_exp1","2022-4-4","12:5:54","25","75","3","9","10","40","30","120","10","19","[""Black or African-American""]","No","Female","2111142","null","","null","","","fixation","","","","","","","","","","","","","","","","","","","","","","","","","",""
"","","","","","canvas-keyboard-response","239","341573","0.0-13.0-1.45","2d_cat_multi_stim_exp1","2022-4-4","12:5:54","25","75","3","9","10","40","30","120","10","19","[""Black or African-American""]","No","Female","2111142","null","","null","","","clear_screen","","","","","","","","","","","","","","","","","","","","","","","","","",""
"","","","","","canvas-keyboard-response","240","342533","0.0-13.0-2.45","2d_cat_multi_stim_exp1","2022-4-4","12:5:54","25","75","3","9","10","40","30","120","10","19","[""Black or African-American""]","No","Female","2111142","950","","u","learn","","learn_trial","25","75","in","1","1","","","","","","","","","","","","","","","","","","","","",""
"","","","","","canvas-keyboard-response","241","343042","0.0-13.0-3.45","2d_cat_multi_stim_exp1","2022-4-4","12:5:54","25","75","3","9","10","40","30","120","10","19","[""Black or African-American""]","No","Female","2111142","null","","null","learn_feedback","","learn_feedback","25","75","in","","","","","","","","","","","","","","","","","","","","","","",""
"","","","","","canvas-keyboard-response","242","343100","0.0-13.0-4.45","2d_cat_multi_stim_exp1","2022-4-4","12:5:54","25","75","3","9","10","40","30","120","10","19","[""Black or African-American""]","No","Female","2111142","null","","null","","","clear_screen","","","","","","","","","","","","","","","","","","","","","","","","","",""
"","","","","","canvas-keyboard-response","243","343608","0.0-13.0-0.46","2d_cat_multi_stim_exp1","2022-4-4","12:5:54","25","75","3","9","10","40","30","120","10","19","[""Black or African-American""]","No","Female","2111142","null","","null","","","fixation","","","","","","","","","","","","","","","","","","","","","","","","","",""
"","","","","","canvas-keyboard-response","244","344116","0.0-13.0-1.46","2d_cat_multi_stim_exp1","2022-4-4","12:5:54","25","75","3","9","10","40","30","120","10","19","[""Black or African-American""]","No","Female","2111142","null","","null","","","clear_screen","","","","","","","","","","","","","","","","","","","","","","","","","",""
"","","","","","canvas-keyboard-response","245","344948","0.0-13.0-2.46","2d_cat_multi_stim_exp1","2022-4-4","12:5:54","25","75","3","9","10","40","30","120","10","19","[""Black or African-American""]","No","Female","2111142","824","","u","learn","","learn_trial","25.9271","83.5595","in","1","1","","","","","","","","","","","","","","","","","","","","",""
"","","","","","canvas-keyboard-response","246","345457","0.0-13.0-3.46","2d_cat_multi_stim_exp1","2022-4-4","12:5:54","25","75","3","9","10","40","30","120","10","19","[""Black or African-American""]","No","Female","2111142","null","","null","learn_feedback","","learn_feedback","25.9271","83.5595","in","","","","","","","","","","","","","","","","","","","","","","",""
"","","","","","canvas-keyboard-response","247","345516","0.0-13.0-4.46","2d_cat_multi_stim_exp1","2022-4-4","12:5:54","25","75","3","9","10","40","30","120","10","19","[""Black or African-American""]","No","Female","2111142","null","","null","","","clear_screen","","","","","","","","","","","","","","","","","","","","","","","","","",""
"","","","","","canvas-keyboard-response","248","346027","0.0-13.0-0.47","2d_cat_multi_stim_exp1","2022-4-4","12:5:54","25","75","3","9","10","40","30","120","10","19","[""Black or African-American""]","No","Female","2111142","null","","null","","","fixation","","","","","","","","","","","","","","","","","","","","","","","","","",""
"","","","","","canvas-keyboard-response","249","346535","0.0-13.0-1.47","2d_cat_multi_stim_exp1","2022-4-4","12:5:54","25","75","3","9","10","40","30","120","10","19","[""Black or African-American""]","No","Female","2111142","null","","null","","","clear_screen","","","","","","","","","","","","","","","","","","","","","","","","","",""
"","","","","","canvas-keyboard-response","250","347476","0.0-13.0-2.47","2d_cat_multi_stim_exp1","2022-4-4","12:5:54","25","75","3","9","10","40","30","120","10","19","[""Black or African-American""]","No","Female","2111142","932","","i","learn","","learn_trial","36.6667","100","out","0","1","","","","","","","","","","","","","","","","","","","","",""
"","","","","","canvas-keyboard-response","251","347986","0.0-13.0-3.47","2d_cat_multi_stim_exp1","2022-4-4","12:5:54","25","75","3","9","10","40","30","120","10","19","[""Black or African-American""]","No","Female","2111142","null","","null","learn_feedback","","learn_feedback","36.6667","100","out","","","","","","","","","","","","","","","","","","","","","","",""
"","","","","","canvas-keyboard-response","252","348043","0.0-13.0-4.47","2d_cat_multi_stim_exp1","2022-4-4","12:5:54","25","75","3","9","10","40","30","120","10","19","[""Black or African-American""]","No","Female","2111142","null","","null","","","clear_screen","","","","","","","","","","","","","","","","","","","","","","","","","",""
"","","","","","canvas-keyboard-response","253","348551","0.0-13.0-0.48","2d_cat_multi_stim_exp1","2022-4-4","12:5:54","25","75","3","9","10","40","30","120","10","19","[""Black or African-American""]","No","Female","2111142","null","","null","","","fixation","","","","","","","","","","","","","","","","","","","","","","","","","",""
"","","","","","canvas-keyboard-response","254","349060","0.0-13.0-1.48","2d_cat_multi_stim_exp1","2022-4-4","12:5:54","25","75","3","9","10","40","30","120","10","19","[""Black or African-American""]","No","Female","2111142","null","","null","","","clear_screen","","","","","","","","","","","","","","","","","","","","","","","","","",""
"","","","","","canvas-keyboard-response","255","350412","0.0-13.0-2.48","2d_cat_multi_stim_exp1","2022-4-4","12:5:54","25","75","3","9","10","40","30","120","10","19","[""Black or African-American""]","No","Female","2111142","1342","","i","learn","","learn_trial","22.2971","71.095","in","0","0","","","","","","","","","","","","","","","","","","","","",""
"","","","","","canvas-keyboard-response","256","351421","0.0-13.0-3.48","2d_cat_multi_stim_exp1","2022-4-4","12:5:54","25","75","3","9","10","40","30","120","10","19","[""Black or African-American""]","No","Female","2111142","null","","null","learn_feedback","","learn_feedback","22.2971","71.095","in","","","","","","","","","","","","","","","","","","","","","","",""
"","","","","","canvas-keyboard-response","257","351480","0.0-13.0-4.48","2d_cat_multi_stim_exp1","2022-4-4","12:5:54","25","75","3","9","10","40","30","120","10","19","[""Black or African-American""]","No","Female","2111142","null","","null","","","clear_screen","","","","","","","","","","","","","","","","","","","","","","","","","",""
"","","","","","canvas-keyboard-response","258","351988","0.0-13.0-0.49","2d_cat_multi_stim_exp1","2022-4-4","12:5:54","25","75","3","9","10","40","30","120","10","19","[""Black or African-American""]","No","Female","2111142","null","","null","","","fixation","","","","","","","","","","","","","","","","","","","","","","","","","",""
"","","","","","canvas-keyboard-response","259","352497","0.0-13.0-1.49","2d_cat_multi_stim_exp1","2022-4-4","12:5:54","25","75","3","9","10","40","30","120","10","19","[""Black or African-American""]","No","Female","2111142","null","","null","","","clear_screen","","","","","","","","","","","","","","","","","","","","","","","","","",""
"","","","","","canvas-keyboard-response","260","353348","0.0-13.0-2.49","2d_cat_multi_stim_exp1","2022-4-4","12:5:54","25","75","3","9","10","40","30","120","10","19","[""Black or African-American""]","No","Female","2111142","842","","i","learn","","learn_trial","10","100","out","0","1","","","","","","","","","","","","","","","","","","","","",""
"","","","","","canvas-keyboard-response","261","353857","0.0-13.0-3.49","2d_cat_multi_stim_exp1","2022-4-4","12:5:54","25","75","3","9","10","40","30","120","10","19","[""Black or African-American""]","No","Female","2111142","null","","null","learn_feedback","","learn_feedback","10","100","out","","","","","","","","","","","","","","","","","","","","","","",""
"","","","","","canvas-keyboard-response","262","353915","0.0-13.0-4.49","2d_cat_multi_stim_exp1","2022-4-4","12:5:54","25","75","3","9","10","40","30","120","10","19","[""Black or African-American""]","No","Female","2111142","null","","null","","","clear_screen","","","","","","","","","","","","","","","","","","","","","","","","","",""
"","","","","","canvas-keyboard-response","263","354426","0.0-13.0-0.50","2d_cat_multi_stim_exp1","2022-4-4","12:5:54","25","75","3","9","10","40","30","120","10","19","[""Black or African-American""]","No","Female","2111142","null","","null","","","fixation","","","","","","","","","","","","","","","","","","","","","","","","","",""
"","","","","","canvas-keyboard-response","264","354937","0.0-13.0-1.50","2d_cat_multi_stim_exp1","2022-4-4","12:5:54","25","75","3","9","10","40","30","120","10","19","[""Black or African-American""]","No","Female","2111142","null","","null","","","clear_screen","","","","","","","","","","","","","","","","","","","","","","","","","",""
"","","","","","canvas-keyboard-response","265","355876","0.0-13.0-2.50","2d_cat_multi_stim_exp1","2022-4-4","12:5:54","25","75","3","9","10","40","30","120","10","19","[""Black or African-American""]","No","Female","2111142","928","","u","learn","","learn_trial","36.6667","80","out","1","0","","","","","","","","","","","","","","","","","","","","",""
"","","","","","canvas-keyboard-response","266","356888","0.0-13.0-3.50","2d_cat_multi_stim_exp1","2022-4-4","12:5:54","25","75","3","9","10","40","30","120","10","19","[""Black or African-American""]","No","Female","2111142","null","","null","learn_feedback","","learn_feedback","36.6667","80","out","","","","","","","","","","","","","","","","","","","","","","",""
"","","","","","canvas-keyboard-response","267","356948","0.0-13.0-4.50","2d_cat_multi_stim_exp1","2022-4-4","12:5:54","25","75","3","9","10","40","30","120","10","19","[""Black or African-American""]","No","Female","2111142","null","","null","","","clear_screen","","","","","","","","","","","","","","","","","","","","","","","","","",""
"","","","","","canvas-keyboard-response","268","357457","0.0-13.0-0.51","2d_cat_multi_stim_exp1","2022-4-4","12:5:54","25","75","3","9","10","40","30","120","10","19","[""Black or African-American""]","No","Female","2111142","null","","null","","","fixation","","","","","","","","","","","","","","","","","","","","","","","","","",""
"","","","","","canvas-keyboard-response","269","357967","0.0-13.0-1.51","2d_cat_multi_stim_exp1","2022-4-4","12:5:54","25","75","3","9","10","40","30","120","10","19","[""Black or African-American""]","No","Female","2111142","null","","null","","","clear_screen","","","","","","","","","","","","","","","","","","","","","","","","","",""
"","","","","","canvas-keyboard-response","270","359940","0.0-13.0-2.51","2d_cat_multi_stim_exp1","2022-4-4","12:5:54","25","75","3","9","10","40","30","120","10","19","[""Black or African-American""]","No","Female","2111142","1963","","u","learn","","learn_trial","25","75","in","1","1","","","","","","","","","","","","","","","","","","","","",""
"","","","","","canvas-keyboard-response","271","360449","0.0-13.0-3.51","2d_cat_multi_stim_exp1","2022-4-4","12:5:54","25","75","3","9","10","40","30","120","10","19","[""Black or African-American""]","No","Female","2111142","null","","null","learn_feedback","","learn_feedback","25","75","in","","","","","","","","","","","","","","","","","","","","","","",""
"","","","","","canvas-keyboard-response","272","360508","0.0-13.0-4.51","2d_cat_multi_stim_exp1","2022-4-4","12:5:54","25","75","3","9","10","40","30","120","10","19","[""Black or African-American""]","No","Female","2111142","null","","null","","","clear_screen","","","","","","","","","","","","","","","","","","","","","","","","","",""
"","","","","","canvas-keyboard-response","273","361017","0.0-13.0-0.52","2d_cat_multi_stim_exp1","2022-4-4","12:5:54","25","75","3","9","10","40","30","120","10","19","[""Black or African-American""]","No","Female","2111142","null","","null","","","fixation","","","","","","","","","","","","","","","","","","","","","","","","","",""
"","","","","","canvas-keyboard-response","274","361527","0.0-13.0-1.52","2d_cat_multi_stim_exp1","2022-4-4","12:5:54","25","75","3","9","10","40","30","120","10","19","[""Black or African-American""]","No","Female","2111142","null","","null","","","clear_screen","","","","","","","","","","","","","","","","","","","","","","","","","",""
"","","","","","canvas-keyboard-response","275","362788","0.0-13.0-2.52","2d_cat_multi_stim_exp1","2022-4-4","12:5:54","25","75","3","9","10","40","30","120","10","19","[""Black or African-American""]","No","Female","2111142","1252","","u","learn","","learn_trial","30","70","out","1","0","","","","","","","","","","","","","","","","","","","","",""
"","","","","","canvas-keyboard-response","276","363798","0.0-13.0-3.52","2d_cat_multi_stim_exp1","2022-4-4","12:5:54","25","75","3","9","10","40","30","120","10","19","[""Black or African-American""]","No","Female","2111142","null","","null","learn_feedback","","learn_feedback","30","70","out","","","","","","","","","","","","","","","","","","","","","","",""
"","","","","","canvas-keyboard-response","277","363856","0.0-13.0-4.52","2d_cat_multi_stim_exp1","2022-4-4","12:5:54","25","75","3","9","10","40","30","120","10","19","[""Black or African-American""]","No","Female","2111142","null","","null","","","clear_screen","","","","","","","","","","","","","","","","","","","","","","","","","",""
"","","","","","canvas-keyboard-response","278","364365","0.0-13.0-0.53","2d_cat_multi_stim_exp1","2022-4-4","12:5:54","25","75","3","9","10","40","30","120","10","19","[""Black or African-American""]","No","Female","2111142","null","","null","","","fixation","","","","","","","","","","","","","","","","","","","","","","","","","",""
"","","","","","canvas-keyboard-response","279","364873","0.0-13.0-1.53","2d_cat_multi_stim_exp1","2022-4-4","12:5:54","25","75","3","9","10","40","30","120","10","19","[""Black or African-American""]","No","Female","2111142","null","","null","","","clear_screen","","","","","","","","","","","","","","","","","","","","","","","","","",""
"","","","","","canvas-keyboard-response","280","365813","0.0-13.0-2.53","2d_cat_multi_stim_exp1","2022-4-4","12:5:54","25","75","3","9","10","40","30","120","10","19","[""Black or African-American""]","No","Female","2111142","927","","i","learn","","learn_trial","16.6667","100","out","0","1","","","","","","","","","","","","","","","","","","","","",""
