"success","timeout","failed_images","failed_audio","failed_video","trial_type","trial_index","time_elapsed","internal_node_id","exp_name","date","time","angle_mean_in","radius_mean_in","angle_sd_in","radius_sd_in","angle_min_out","angle_max_out","radius_min_out","radius_max_out","sub_n","age","race","ethnicity","gender","exp_duration","rt","response","exp_trial_type","stimulus","view_history","screen_id","angle","radius","distribution","choice","correct","order","angle_a","radius_a","angle_b","radius_b","angle_c","radius_c","jkl_correct","transfer_trial_type","choice_set","abc_correct","tc_correct","tc_angle","tdc_a","tdc_b","tdc_c","pair","category_a","category_b","category_c","question_order"
"true","false","[]","[]","[]","preload","0","22","0.0-0.0","2d_cat_multi_stim_exp1","2022-5-4","10:13:55","25","75","3","9","10","40","30","120","86","21","[""Asian"",""White""]","No","Male","1910103","","","","","","","","","","","","","","","","","","","","","","","","","","","","","","","",""
"","","","","","survey-html-form","1","10389","0.0-1.0","2d_cat_multi_stim_exp1","2022-5-4","10:13:55","25","75","3","9","10","40","30","120","86","21","[""Asian"",""White""]","No","Male","1910103","10355","{""response"":""86""}","enter-sub-number","","","","","","","","","","","","","","","","","","","","","","","","","","","","",""
"true","","","","","fullscreen","2","13281","0.0-2.0","2d_cat_multi_stim_exp1","2022-5-4","10:13:55","25","75","3","9","10","40","30","120","86","21","[""Asian"",""White""]","No","Male","1910103","","","","","","","","","","","","","","","","","","","","","","","","","","","","","","","",""
"","","","","","image-button-response","3","29537","0.0-3.0","2d_cat_multi_stim_exp1","2022-5-4","10:13:55","25","75","3","9","10","40","30","120","86","21","[""Asian"",""White""]","No","Male","1910103","16243","0","","consent.png","","","","","","","","","","","","","","","","","","","","","","","","","","","",""
"","","","","","html-button-response","4","34913","0.0-4.0","2d_cat_multi_stim_exp1","2022-5-4","10:13:55","25","75","3","9","10","40","30","120","86","21","[""Asian"",""White""]","No","Male","1910103","5371","0","","<div style= ""font-size:25px;"" <p> <strong> Welcome to the experiment! </strong><br> <p style=""color:#8B0000; font-size:25px;""><strong> Please do NOT exit full screen until you are done with the experiment. </strong> </p><p style=""font-size:25px;color:#8B0000;""> <strong> The experiment will be canceled and your data will be lost <br> if you try to go back or refresh the page at any point during the experiment.</strong> </p><br><p> <strong> Thanks in advance for your contribution to our research! </strong></p>","","","","","","","","","","","","","","","","","","","","","","","","","","","",""
"","","","","","instructions","5","71364","0.0-5.0","2d_cat_multi_stim_exp1","2022-5-4","10:13:55","25","75","3","9","10","40","30","120","86","21","[""Asian"",""White""]","No","Male","1910103","36446","","","","[{""page_index"":0,""viewing_time"":6468},{""page_index"":1,""viewing_time"":3175},{""page_index"":2,""viewing_time"":9424},{""page_index"":3,""viewing_time"":17378}]","instructions_1","","","","","","","","","","","","","","","","","","","","","","","","","",""
"","","","","","instructions","6","76289","0.0-6.0","2d_cat_multi_stim_exp1","2022-5-4","10:13:55","25","75","3","9","10","40","30","120","86","21","[""Asian"",""White""]","No","Male","1910103","4923","","","","[{""page_index"":0,""viewing_time"":4922}]","Click to see the kinds of turtles that will appear in the study.","","","","","","","","","","","","","","","","","","","","","","","","","",""
"","","","","","canvas-keyboard-response","7","91309","0.0-7.0","2d_cat_multi_stim_exp1","2022-5-4","10:13:55","25","75","3","9","10","40","30","120","86","21","[""Asian"",""White""]","No","Male","1910103","null","null","","","","demo_range","","","","","","","","","","","","","","","","","","","","","","","","","",""
"","","","","","instructions","8","94793","0.0-8.0","2d_cat_multi_stim_exp1","2022-5-4","10:13:55","25","75","3","9","10","40","30","120","86","21","[""Asian"",""White""]","No","Male","1910103","2981","","","","[{""page_index"":0,""viewing_time"":2980}]","Click to see some turtles in the subspecies.","","","","","","","","","","","","","","","","","","","","","","","","","",""
"","","","","","canvas-keyboard-response","9","109811","0.0-9.0","2d_cat_multi_stim_exp1","2022-5-4","10:13:55","25","75","3","9","10","40","30","120","86","21","[""Asian"",""White""]","No","Male","1910103","null","null","","","","demo_in","","","","","","","","","","","","","","","","","","","","","","","","","",""
"","","","","","instructions","10","157178","0.0-10.0","2d_cat_multi_stim_exp1","2022-5-4","10:13:55","25","75","3","9","10","40","30","120","86","21","[""Asian"",""White""]","No","Male","1910103","46864","","","","[{""page_index"":0,""viewing_time"":7207},{""page_index"":1,""viewing_time"":21016},{""page_index"":2,""viewing_time"":18640}]","instructions_2","","","","","","","","","","","","","","","","","","","","","","","","","",""
"","","","","","instructions","11","158761","0.0-11.0","2d_cat_multi_stim_exp1","2022-5-4","10:13:55","25","75","3","9","10","40","30","120","86","21","[""Asian"",""White""]","No","Male","1910103","1579","","","","[{""page_index"":0,""viewing_time"":1579}]","Click to begin the first phase of the experiment.","","","","","","","","","","","","","","","","","","","","","","","","","",""
"","","","","","canvas-keyboard-response","12","159273","0.0-12.0-0.0","2d_cat_multi_stim_exp1","2022-5-4","10:13:55","25","75","3","9","10","40","30","120","86","21","[""Asian"",""White""]","No","Male","1910103","null","null","","","","fixation","","","","","","","","","","","","","","","","","","","","","","","","","",""
"","","","","","canvas-keyboard-response","13","159783","0.0-12.0-1.0","2d_cat_multi_stim_exp1","2022-5-4","10:13:55","25","75","3","9","10","40","30","120","86","21","[""Asian"",""White""]","No","Male","1910103","null","null","","","","clear_screen","","","","","","","","","","","","","","","","","","","","","","","","","",""
"","","","","","canvas-keyboard-response","14","166539","0.0-12.0-2.0","2d_cat_multi_stim_exp1","2022-5-4","10:13:55","25","75","3","9","10","40","30","120","86","21","[""Asian"",""White""]","No","Male","1910103","6743","u","learn","","","learn_trial","25.4027","83.9185","in","1","1","","","","","","","","","","","","","","","","","","","","",""
"","","","","","canvas-keyboard-response","15","167050","0.0-12.0-3.0","2d_cat_multi_stim_exp1","2022-5-4","10:13:55","25","75","3","9","10","40","30","120","86","21","[""Asian"",""White""]","No","Male","1910103","null","null","learn_feedback","","","learn_feedback","25.4027","83.9185","in","","","","","","","","","","","","","","","","","","","","","","",""
"","","","","","canvas-keyboard-response","16","167114","0.0-12.0-4.0","2d_cat_multi_stim_exp1","2022-5-4","10:13:55","25","75","3","9","10","40","30","120","86","21","[""Asian"",""White""]","No","Male","1910103","null","null","","","","clear_screen","","","","","","","","","","","","","","","","","","","","","","","","","",""
"","","","","","canvas-keyboard-response","17","167624","0.0-12.0-0.1","2d_cat_multi_stim_exp1","2022-5-4","10:13:55","25","75","3","9","10","40","30","120","86","21","[""Asian"",""White""]","No","Male","1910103","null","null","","","","fixation","","","","","","","","","","","","","","","","","","","","","","","","","",""
"","","","","","canvas-keyboard-response","18","168136","0.0-12.0-1.1","2d_cat_multi_stim_exp1","2022-5-4","10:13:55","25","75","3","9","10","40","30","120","86","21","[""Asian"",""White""]","No","Male","1910103","null","null","","","","clear_screen","","","","","","","","","","","","","","","","","","","","","","","","","",""
"","","","","","canvas-keyboard-response","19","173433","0.0-12.0-2.1","2d_cat_multi_stim_exp1","2022-5-4","10:13:55","25","75","3","9","10","40","30","120","86","21","[""Asian"",""White""]","No","Male","1910103","5289","u","learn","","","learn_trial","25","75","in","1","1","","","","","","","","","","","","","","","","","","","","",""
"","","","","","canvas-keyboard-response","20","173944","0.0-12.0-3.1","2d_cat_multi_stim_exp1","2022-5-4","10:13:55","25","75","3","9","10","40","30","120","86","21","[""Asian"",""White""]","No","Male","1910103","null","null","learn_feedback","","","learn_feedback","25","75","in","","","","","","","","","","","","","","","","","","","","","","",""
"","","","","","canvas-keyboard-response","21","174009","0.0-12.0-4.1","2d_cat_multi_stim_exp1","2022-5-4","10:13:55","25","75","3","9","10","40","30","120","86","21","[""Asian"",""White""]","No","Male","1910103","null","null","","","","clear_screen","","","","","","","","","","","","","","","","","","","","","","","","","",""
"","","","","","canvas-keyboard-response","22","174519","0.0-12.0-0.2","2d_cat_multi_stim_exp1","2022-5-4","10:13:55","25","75","3","9","10","40","30","120","86","21","[""Asian"",""White""]","No","Male","1910103","null","null","","","","fixation","","","","","","","","","","","","","","","","","","","","","","","","","",""
"","","","","","canvas-keyboard-response","23","175032","0.0-12.0-1.2","2d_cat_multi_stim_exp1","2022-5-4","10:13:55","25","75","3","9","10","40","30","120","86","21","[""Asian"",""White""]","No","Male","1910103","null","null","","","","clear_screen","","","","","","","","","","","","","","","","","","","","","","","","","",""
"","","","","","canvas-keyboard-response","24","179553","0.0-12.0-2.2","2d_cat_multi_stim_exp1","2022-5-4","10:13:55","25","75","3","9","10","40","30","120","86","21","[""Asian"",""White""]","No","Male","1910103","4510","u","learn","","","learn_trial","22.0121","75.8068","in","1","1","","","","","","","","","","","","","","","","","","","","",""
"","","","","","canvas-keyboard-response","25","180065","0.0-12.0-3.2","2d_cat_multi_stim_exp1","2022-5-4","10:13:55","25","75","3","9","10","40","30","120","86","21","[""Asian"",""White""]","No","Male","1910103","null","null","learn_feedback","","","learn_feedback","22.0121","75.8068","in","","","","","","","","","","","","","","","","","","","","","","",""
"","","","","","canvas-keyboard-response","26","180129","0.0-12.0-4.2","2d_cat_multi_stim_exp1","2022-5-4","10:13:55","25","75","3","9","10","40","30","120","86","21","[""Asian"",""White""]","No","Male","1910103","null","null","","","","clear_screen","","","","","","","","","","","","","","","","","","","","","","","","","",""
"","","","","","canvas-keyboard-response","27","180638","0.0-12.0-0.3","2d_cat_multi_stim_exp1","2022-5-4","10:13:55","25","75","3","9","10","40","30","120","86","21","[""Asian"",""White""]","No","Male","1910103","null","null","","","","fixation","","","","","","","","","","","","","","","","","","","","","","","","","",""
"","","","","","canvas-keyboard-response","28","181153","0.0-12.0-1.3","2d_cat_multi_stim_exp1","2022-5-4","10:13:55","25","75","3","9","10","40","30","120","86","21","[""Asian"",""White""]","No","Male","1910103","null","null","","","","clear_screen","","","","","","","","","","","","","","","","","","","","","","","","","",""
"","","","","","canvas-keyboard-response","29","183801","0.0-12.0-2.3","2d_cat_multi_stim_exp1","2022-5-4","10:13:55","25","75","3","9","10","40","30","120","86","21","[""Asian"",""White""]","No","Male","1910103","2637","u","learn","","","learn_trial","25","75","in","1","1","","","","","","","","","","","","","","","","","","","","",""
"","","","","","canvas-keyboard-response","30","184311","0.0-12.0-3.3","2d_cat_multi_stim_exp1","2022-5-4","10:13:55","25","75","3","9","10","40","30","120","86","21","[""Asian"",""White""]","No","Male","1910103","null","null","learn_feedback","","","learn_feedback","25","75","in","","","","","","","","","","","","","","","","","","","","","","",""
"","","","","","canvas-keyboard-response","31","184374","0.0-12.0-4.3","2d_cat_multi_stim_exp1","2022-5-4","10:13:55","25","75","3","9","10","40","30","120","86","21","[""Asian"",""White""]","No","Male","1910103","null","null","","","","clear_screen","","","","","","","","","","","","","","","","","","","","","","","","","",""
"","","","","","canvas-keyboard-response","32","184884","0.0-12.0-0.4","2d_cat_multi_stim_exp1","2022-5-4","10:13:55","25","75","3","9","10","40","30","120","86","21","[""Asian"",""White""]","No","Male","1910103","null","null","","","","fixation","","","","","","","","","","","","","","","","","","","","","","","","","",""
"","","","","","canvas-keyboard-response","33","185395","0.0-12.0-1.4","2d_cat_multi_stim_exp1","2022-5-4","10:13:55","25","75","3","9","10","40","30","120","86","21","[""Asian"",""White""]","No","Male","1910103","null","null","","","","clear_screen","","","","","","","","","","","","","","","","","","","","","","","","","",""
"","","","","","canvas-keyboard-response","34","189848","0.0-12.0-2.4","2d_cat_multi_stim_exp1","2022-5-4","10:13:55","25","75","3","9","10","40","30","120","86","21","[""Asian"",""White""]","No","Male","1910103","4444","u","learn","","","learn_trial","27.2592","69.0786","in","1","1","","","","","","","","","","","","","","","","","","","","",""
"","","","","","canvas-keyboard-response","35","190357","0.0-12.0-3.4","2d_cat_multi_stim_exp1","2022-5-4","10:13:55","25","75","3","9","10","40","30","120","86","21","[""Asian"",""White""]","No","Male","1910103","null","null","learn_feedback","","","learn_feedback","27.2592","69.0786","in","","","","","","","","","","","","","","","","","","","","","","",""
"","","","","","canvas-keyboard-response","36","190417","0.0-12.0-4.4","2d_cat_multi_stim_exp1","2022-5-4","10:13:55","25","75","3","9","10","40","30","120","86","21","[""Asian"",""White""]","No","Male","1910103","null","null","","","","clear_screen","","","","","","","","","","","","","","","","","","","","","","","","","",""
"","","","","","canvas-keyboard-response","37","190929","0.0-12.0-0.5","2d_cat_multi_stim_exp1","2022-5-4","10:13:55","25","75","3","9","10","40","30","120","86","21","[""Asian"",""White""]","No","Male","1910103","null","null","","","","fixation","","","","","","","","","","","","","","","","","","","","","","","","","",""
"","","","","","canvas-keyboard-response","38","191442","0.0-12.0-1.5","2d_cat_multi_stim_exp1","2022-5-4","10:13:55","25","75","3","9","10","40","30","120","86","21","[""Asian"",""White""]","No","Male","1910103","null","null","","","","clear_screen","","","","","","","","","","","","","","","","","","","","","","","","","",""
"","","","","","canvas-keyboard-response","39","194081","0.0-12.0-2.5","2d_cat_multi_stim_exp1","2022-5-4","10:13:55","25","75","3","9","10","40","30","120","86","21","[""Asian"",""White""]","No","Male","1910103","2626","u","learn","","","learn_trial","20","80","out","1","0","","","","","","","","","","","","","","","","","","","","",""
"","","","","","canvas-keyboard-response","40","195096","0.0-12.0-3.5","2d_cat_multi_stim_exp1","2022-5-4","10:13:55","25","75","3","9","10","40","30","120","86","21","[""Asian"",""White""]","No","Male","1910103","null","null","learn_feedback","","","learn_feedback","20","80","out","","","","","","","","","","","","","","","","","","","","","","",""
"","","","","","canvas-keyboard-response","41","195160","0.0-12.0-4.5","2d_cat_multi_stim_exp1","2022-5-4","10:13:55","25","75","3","9","10","40","30","120","86","21","[""Asian"",""White""]","No","Male","1910103","null","null","","","","clear_screen","","","","","","","","","","","","","","","","","","","","","","","","","",""
"","","","","","canvas-keyboard-response","42","195672","0.0-12.0-0.6","2d_cat_multi_stim_exp1","2022-5-4","10:13:55","25","75","3","9","10","40","30","120","86","21","[""Asian"",""White""]","No","Male","1910103","null","null","","","","fixation","","","","","","","","","","","","","","","","","","","","","","","","","",""
"","","","","","canvas-keyboard-response","43","196183","0.0-12.0-1.6","2d_cat_multi_stim_exp1","2022-5-4","10:13:55","25","75","3","9","10","40","30","120","86","21","[""Asian"",""White""]","No","Male","1910103","null","null","","","","clear_screen","","","","","","","","","","","","","","","","","","","","","","","","","",""
"","","","","","canvas-keyboard-response","44","198416","0.0-12.0-2.6","2d_cat_multi_stim_exp1","2022-5-4","10:13:55","25","75","3","9","10","40","30","120","86","21","[""Asian"",""White""]","No","Male","1910103","2221","u","learn","","","learn_trial","29.2426","62.2721","in","1","1","","","","","","","","","","","","","","","","","","","","",""
"","","","","","canvas-keyboard-response","45","198927","0.0-12.0-3.6","2d_cat_multi_stim_exp1","2022-5-4","10:13:55","25","75","3","9","10","40","30","120","86","21","[""Asian"",""White""]","No","Male","1910103","null","null","learn_feedback","","","learn_feedback","29.2426","62.2721","in","","","","","","","","","","","","","","","","","","","","","","",""
"","","","","","canvas-keyboard-response","46","198991","0.0-12.0-4.6","2d_cat_multi_stim_exp1","2022-5-4","10:13:55","25","75","3","9","10","40","30","120","86","21","[""Asian"",""White""]","No","Male","1910103","null","null","","","","clear_screen","","","","","","","","","","","","","","","","","","","","","","","","","",""
"","","","","","canvas-keyboard-response","47","199500","0.0-12.0-0.7","2d_cat_multi_stim_exp1","2022-5-4","10:13:55","25","75","3","9","10","40","30","120","86","21","[""Asian"",""White""]","No","Male","1910103","null","null","","","","fixation","","","","","","","","","","","","","","","","","","","","","","","","","",""
"","","","","","canvas-keyboard-response","48","200014","0.0-12.0-1.7","2d_cat_multi_stim_exp1","2022-5-4","10:13:55","25","75","3","9","10","40","30","120","86","21","[""Asian"",""White""]","No","Male","1910103","null","null","","","","clear_screen","","","","","","","","","","","","","","","","","","","","","","","","","",""
"","","","","","canvas-keyboard-response","49","201280","0.0-12.0-2.7","2d_cat_multi_stim_exp1","2022-5-4","10:13:55","25","75","3","9","10","40","30","120","86","21","[""Asian"",""White""]","No","Male","1910103","1256","i","learn","","","learn_trial","13.3333","120","out","0","1","","","","","","","","","","","","","","","","","","","","",""
"","","","","","canvas-keyboard-response","50","201791","0.0-12.0-3.7","2d_cat_multi_stim_exp1","2022-5-4","10:13:55","25","75","3","9","10","40","30","120","86","21","[""Asian"",""White""]","No","Male","1910103","null","null","learn_feedback","","","learn_feedback","13.3333","120","out","","","","","","","","","","","","","","","","","","","","","","",""
"","","","","","canvas-keyboard-response","51","201853","0.0-12.0-4.7","2d_cat_multi_stim_exp1","2022-5-4","10:13:55","25","75","3","9","10","40","30","120","86","21","[""Asian"",""White""]","No","Male","1910103","null","null","","","","clear_screen","","","","","","","","","","","","","","","","","","","","","","","","","",""
"","","","","","canvas-keyboard-response","52","202362","0.0-12.0-0.8","2d_cat_multi_stim_exp1","2022-5-4","10:13:55","25","75","3","9","10","40","30","120","86","21","[""Asian"",""White""]","No","Male","1910103","null","null","","","","fixation","","","","","","","","","","","","","","","","","","","","","","","","","",""
"","","","","","canvas-keyboard-response","53","202876","0.0-12.0-1.8","2d_cat_multi_stim_exp1","2022-5-4","10:13:55","25","75","3","9","10","40","30","120","86","21","[""Asian"",""White""]","No","Male","1910103","null","null","","","","clear_screen","","","","","","","","","","","","","","","","","","","","","","","","","",""
"","","","","","canvas-keyboard-response","54","204968","0.0-12.0-2.8","2d_cat_multi_stim_exp1","2022-5-4","10:13:55","25","75","3","9","10","40","30","120","86","21","[""Asian"",""White""]","No","Male","1910103","2079","u","learn","","","learn_trial","25","75","in","1","1","","","","","","","","","","","","","","","","","","","","",""
"","","","","","canvas-keyboard-response","55","205480","0.0-12.0-3.8","2d_cat_multi_stim_exp1","2022-5-4","10:13:55","25","75","3","9","10","40","30","120","86","21","[""Asian"",""White""]","No","Male","1910103","null","null","learn_feedback","","","learn_feedback","25","75","in","","","","","","","","","","","","","","","","","","","","","","",""
"","","","","","canvas-keyboard-response","56","205545","0.0-12.0-4.8","2d_cat_multi_stim_exp1","2022-5-4","10:13:55","25","75","3","9","10","40","30","120","86","21","[""Asian"",""White""]","No","Male","1910103","null","null","","","","clear_screen","","","","","","","","","","","","","","","","","","","","","","","","","",""
"","","","","","canvas-keyboard-response","57","206054","0.0-12.0-0.9","2d_cat_multi_stim_exp1","2022-5-4","10:13:55","25","75","3","9","10","40","30","120","86","21","[""Asian"",""White""]","No","Male","1910103","null","null","","","","fixation","","","","","","","","","","","","","","","","","","","","","","","","","",""
"","","","","","canvas-keyboard-response","58","206564","0.0-12.0-1.9","2d_cat_multi_stim_exp1","2022-5-4","10:13:55","25","75","3","9","10","40","30","120","86","21","[""Asian"",""White""]","No","Male","1910103","null","null","","","","clear_screen","","","","","","","","","","","","","","","","","","","","","","","","","",""
"","","","","","canvas-keyboard-response","59","207496","0.0-12.0-2.9","2d_cat_multi_stim_exp1","2022-5-4","10:13:55","25","75","3","9","10","40","30","120","86","21","[""Asian"",""White""]","No","Male","1910103","922","u","learn","","","learn_trial","25","75","in","1","1","","","","","","","","","","","","","","","","","","","","",""
"","","","","","canvas-keyboard-response","60","208006","0.0-12.0-3.9","2d_cat_multi_stim_exp1","2022-5-4","10:13:55","25","75","3","9","10","40","30","120","86","21","[""Asian"",""White""]","No","Male","1910103","null","null","learn_feedback","","","learn_feedback","25","75","in","","","","","","","","","","","","","","","","","","","","","","",""
"","","","","","canvas-keyboard-response","61","208066","0.0-12.0-4.9","2d_cat_multi_stim_exp1","2022-5-4","10:13:55","25","75","3","9","10","40","30","120","86","21","[""Asian"",""White""]","No","Male","1910103","null","null","","","","clear_screen","","","","","","","","","","","","","","","","","","","","","","","","","",""
"","","","","","canvas-keyboard-response","62","208576","0.0-12.0-0.10","2d_cat_multi_stim_exp1","2022-5-4","10:13:55","25","75","3","9","10","40","30","120","86","21","[""Asian"",""White""]","No","Male","1910103","null","null","","","","fixation","","","","","","","","","","","","","","","","","","","","","","","","","",""
"","","","","","canvas-keyboard-response","63","209089","0.0-12.0-1.10","2d_cat_multi_stim_exp1","2022-5-4","10:13:55","25","75","3","9","10","40","30","120","86","21","[""Asian"",""White""]","No","Male","1910103","null","null","","","","clear_screen","","","","","","","","","","","","","","","","","","","","","","","","","",""
"","","","","","canvas-keyboard-response","64","209977","0.0-12.0-2.10","2d_cat_multi_stim_exp1","2022-5-4","10:13:55","25","75","3","9","10","40","30","120","86","21","[""Asian"",""White""]","No","Male","1910103","878","u","learn","","","learn_trial","25","75","in","1","1","","","","","","","","","","","","","","","","","","","","",""
"","","","","","canvas-keyboard-response","65","210489","0.0-12.0-3.10","2d_cat_multi_stim_exp1","2022-5-4","10:13:55","25","75","3","9","10","40","30","120","86","21","[""Asian"",""White""]","No","Male","1910103","null","null","learn_feedback","","","learn_feedback","25","75","in","","","","","","","","","","","","","","","","","","","","","","",""
"","","","","","canvas-keyboard-response","66","210548","0.0-12.0-4.10","2d_cat_multi_stim_exp1","2022-5-4","10:13:55","25","75","3","9","10","40","30","120","86","21","[""Asian"",""White""]","No","Male","1910103","null","null","","","","clear_screen","","","","","","","","","","","","","","","","","","","","","","","","","",""
"","","","","","canvas-keyboard-response","67","211059","0.0-12.0-0.11","2d_cat_multi_stim_exp1","2022-5-4","10:13:55","25","75","3","9","10","40","30","120","86","21","[""Asian"",""White""]","No","Male","1910103","null","null","","","","fixation","","","","","","","","","","","","","","","","","","","","","","","","","",""
"","","","","","canvas-keyboard-response","68","211573","0.0-12.0-1.11","2d_cat_multi_stim_exp1","2022-5-4","10:13:55","25","75","3","9","10","40","30","120","86","21","[""Asian"",""White""]","No","Male","1910103","null","null","","","","clear_screen","","","","","","","","","","","","","","","","","","","","","","","","","",""
"","","","","","canvas-keyboard-response","69","212568","0.0-12.0-2.11","2d_cat_multi_stim_exp1","2022-5-4","10:13:55","25","75","3","9","10","40","30","120","86","21","[""Asian"",""White""]","No","Male","1910103","984","i","learn","","","learn_trial","40","30","out","0","1","","","","","","","","","","","","","","","","","","","","",""
"","","","","","canvas-keyboard-response","70","213078","0.0-12.0-3.11","2d_cat_multi_stim_exp1","2022-5-4","10:13:55","25","75","3","9","10","40","30","120","86","21","[""Asian"",""White""]","No","Male","1910103","null","null","learn_feedback","","","learn_feedback","40","30","out","","","","","","","","","","","","","","","","","","","","","","",""
"","","","","","canvas-keyboard-response","71","213141","0.0-12.0-4.11","2d_cat_multi_stim_exp1","2022-5-4","10:13:55","25","75","3","9","10","40","30","120","86","21","[""Asian"",""White""]","No","Male","1910103","null","null","","","","clear_screen","","","","","","","","","","","","","","","","","","","","","","","","","",""
"","","","","","canvas-keyboard-response","72","213652","0.0-12.0-0.12","2d_cat_multi_stim_exp1","2022-5-4","10:13:55","25","75","3","9","10","40","30","120","86","21","[""Asian"",""White""]","No","Male","1910103","null","null","","","","fixation","","","","","","","","","","","","","","","","","","","","","","","","","",""
"","","","","","canvas-keyboard-response","73","214162","0.0-12.0-1.12","2d_cat_multi_stim_exp1","2022-5-4","10:13:55","25","75","3","9","10","40","30","120","86","21","[""Asian"",""White""]","No","Male","1910103","null","null","","","","clear_screen","","","","","","","","","","","","","","","","","","","","","","","","","",""
"","","","","","canvas-keyboard-response","74","216841","0.0-12.0-2.12","2d_cat_multi_stim_exp1","2022-5-4","10:13:55","25","75","3","9","10","40","30","120","86","21","[""Asian"",""White""]","No","Male","1910103","2667","i","learn","","","learn_trial","30","50","out","0","1","","","","","","","","","","","","","","","","","","","","",""
"","","","","","canvas-keyboard-response","75","217351","0.0-12.0-3.12","2d_cat_multi_stim_exp1","2022-5-4","10:13:55","25","75","3","9","10","40","30","120","86","21","[""Asian"",""White""]","No","Male","1910103","null","null","learn_feedback","","","learn_feedback","30","50","out","","","","","","","","","","","","","","","","","","","","","","",""
"","","","","","canvas-keyboard-response","76","217412","0.0-12.0-4.12","2d_cat_multi_stim_exp1","2022-5-4","10:13:55","25","75","3","9","10","40","30","120","86","21","[""Asian"",""White""]","No","Male","1910103","null","null","","","","clear_screen","","","","","","","","","","","","","","","","","","","","","","","","","",""
"","","","","","canvas-keyboard-response","77","217924","0.0-12.0-0.13","2d_cat_multi_stim_exp1","2022-5-4","10:13:55","25","75","3","9","10","40","30","120","86","21","[""Asian"",""White""]","No","Male","1910103","null","null","","","","fixation","","","","","","","","","","","","","","","","","","","","","","","","","",""
"","","","","","canvas-keyboard-response","78","218434","0.0-12.0-1.13","2d_cat_multi_stim_exp1","2022-5-4","10:13:55","25","75","3","9","10","40","30","120","86","21","[""Asian"",""White""]","No","Male","1910103","null","null","","","","clear_screen","","","","","","","","","","","","","","","","","","","","","","","","","",""
"","","","","","canvas-keyboard-response","79","219392","0.0-12.0-2.13","2d_cat_multi_stim_exp1","2022-5-4","10:13:55","25","75","3","9","10","40","30","120","86","21","[""Asian"",""White""]","No","Male","1910103","948","u","learn","","","learn_trial","23.3473","67.4888","in","1","1","","","","","","","","","","","","","","","","","","","","",""
"","","","","","canvas-keyboard-response","80","219904","0.0-12.0-3.13","2d_cat_multi_stim_exp1","2022-5-4","10:13:55","25","75","3","9","10","40","30","120","86","21","[""Asian"",""White""]","No","Male","1910103","null","null","learn_feedback","","","learn_feedback","23.3473","67.4888","in","","","","","","","","","","","","","","","","","","","","","","",""
"","","","","","canvas-keyboard-response","81","219969","0.0-12.0-4.13","2d_cat_multi_stim_exp1","2022-5-4","10:13:55","25","75","3","9","10","40","30","120","86","21","[""Asian"",""White""]","No","Male","1910103","null","null","","","","clear_screen","","","","","","","","","","","","","","","","","","","","","","","","","",""
"","","","","","canvas-keyboard-response","82","220477","0.0-12.0-0.14","2d_cat_multi_stim_exp1","2022-5-4","10:13:55","25","75","3","9","10","40","30","120","86","21","[""Asian"",""White""]","No","Male","1910103","null","null","","","","fixation","","","","","","","","","","","","","","","","","","","","","","","","","",""
"","","","","","canvas-keyboard-response","83","220993","0.0-12.0-1.14","2d_cat_multi_stim_exp1","2022-5-4","10:13:55","25","75","3","9","10","40","30","120","86","21","[""Asian"",""White""]","No","Male","1910103","null","null","","","","clear_screen","","","","","","","","","","","","","","","","","","","","","","","","","",""
"","","","","","canvas-keyboard-response","84","221929","0.0-12.0-2.14","2d_cat_multi_stim_exp1","2022-5-4","10:13:55","25","75","3","9","10","40","30","120","86","21","[""Asian"",""White""]","No","Male","1910103","923","u","learn","","","learn_trial","27.9518","76.607","in","1","1","","","","","","","","","","","","","","","","","","","","",""
"","","","","","canvas-keyboard-response","85","222439","0.0-12.0-3.14","2d_cat_multi_stim_exp1","2022-5-4","10:13:55","25","75","3","9","10","40","30","120","86","21","[""Asian"",""White""]","No","Male","1910103","null","null","learn_feedback","","","learn_feedback","27.9518","76.607","in","","","","","","","","","","","","","","","","","","","","","","",""
"","","","","","canvas-keyboard-response","86","222501","0.0-12.0-4.14","2d_cat_multi_stim_exp1","2022-5-4","10:13:55","25","75","3","9","10","40","30","120","86","21","[""Asian"",""White""]","No","Male","1910103","null","null","","","","clear_screen","","","","","","","","","","","","","","","","","","","","","","","","","",""
"","","","","","canvas-keyboard-response","87","223013","0.0-12.0-0.15","2d_cat_multi_stim_exp1","2022-5-4","10:13:55","25","75","3","9","10","40","30","120","86","21","[""Asian"",""White""]","No","Male","1910103","null","null","","","","fixation","","","","","","","","","","","","","","","","","","","","","","","","","",""
"","","","","","canvas-keyboard-response","88","223528","0.0-12.0-1.15","2d_cat_multi_stim_exp1","2022-5-4","10:13:55","25","75","3","9","10","40","30","120","86","21","[""Asian"",""White""]","No","Male","1910103","null","null","","","","clear_screen","","","","","","","","","","","","","","","","","","","","","","","","","",""
"","","","","","canvas-keyboard-response","89","224400","0.0-12.0-2.15","2d_cat_multi_stim_exp1","2022-5-4","10:13:55","25","75","3","9","10","40","30","120","86","21","[""Asian"",""White""]","No","Male","1910103","861","u","learn","","","learn_trial","25","75","in","1","1","","","","","","","","","","","","","","","","","","","","",""
"","","","","","canvas-keyboard-response","90","224912","0.0-12.0-3.15","2d_cat_multi_stim_exp1","2022-5-4","10:13:55","25","75","3","9","10","40","30","120","86","21","[""Asian"",""White""]","No","Male","1910103","null","null","learn_feedback","","","learn_feedback","25","75","in","","","","","","","","","","","","","","","","","","","","","","",""
"","","","","","canvas-keyboard-response","91","224973","0.0-12.0-4.15","2d_cat_multi_stim_exp1","2022-5-4","10:13:55","25","75","3","9","10","40","30","120","86","21","[""Asian"",""White""]","No","Male","1910103","null","null","","","","clear_screen","","","","","","","","","","","","","","","","","","","","","","","","","",""
"","","","","","canvas-keyboard-response","92","225484","0.0-12.0-0.16","2d_cat_multi_stim_exp1","2022-5-4","10:13:55","25","75","3","9","10","40","30","120","86","21","[""Asian"",""White""]","No","Male","1910103","null","null","","","","fixation","","","","","","","","","","","","","","","","","","","","","","","","","",""
"","","","","","canvas-keyboard-response","93","225995","0.0-12.0-1.16","2d_cat_multi_stim_exp1","2022-5-4","10:13:55","25","75","3","9","10","40","30","120","86","21","[""Asian"",""White""]","No","Male","1910103","null","null","","","","clear_screen","","","","","","","","","","","","","","","","","","","","","","","","","",""
"","","","","","canvas-keyboard-response","94","227080","0.0-12.0-2.16","2d_cat_multi_stim_exp1","2022-5-4","10:13:55","25","75","3","9","10","40","30","120","86","21","[""Asian"",""White""]","No","Male","1910103","1076","i","learn","","","learn_trial","33.3333","60","out","0","1","","","","","","","","","","","","","","","","","","","","",""
"","","","","","canvas-keyboard-response","95","227592","0.0-12.0-3.16","2d_cat_multi_stim_exp1","2022-5-4","10:13:55","25","75","3","9","10","40","30","120","86","21","[""Asian"",""White""]","No","Male","1910103","null","null","learn_feedback","","","learn_feedback","33.3333","60","out","","","","","","","","","","","","","","","","","","","","","","",""
"","","","","","canvas-keyboard-response","96","227654","0.0-12.0-4.16","2d_cat_multi_stim_exp1","2022-5-4","10:13:55","25","75","3","9","10","40","30","120","86","21","[""Asian"",""White""]","No","Male","1910103","null","null","","","","clear_screen","","","","","","","","","","","","","","","","","","","","","","","","","",""
"","","","","","canvas-keyboard-response","97","228165","0.0-12.0-0.17","2d_cat_multi_stim_exp1","2022-5-4","10:13:55","25","75","3","9","10","40","30","120","86","21","[""Asian"",""White""]","No","Male","1910103","null","null","","","","fixation","","","","","","","","","","","","","","","","","","","","","","","","","",""
"","","","","","canvas-keyboard-response","98","228681","0.0-12.0-1.17","2d_cat_multi_stim_exp1","2022-5-4","10:13:55","25","75","3","9","10","40","30","120","86","21","[""Asian"",""White""]","No","Male","1910103","null","null","","","","clear_screen","","","","","","","","","","","","","","","","","","","","","","","","","",""
"","","","","","canvas-keyboard-response","99","229617","0.0-12.0-2.17","2d_cat_multi_stim_exp1","2022-5-4","10:13:55","25","75","3","9","10","40","30","120","86","21","[""Asian"",""White""]","No","Male","1910103","925","u","learn","","","learn_trial","25","75","in","1","1","","","","","","","","","","","","","","","","","","","","",""
"","","","","","canvas-keyboard-response","100","230129","0.0-12.0-3.17","2d_cat_multi_stim_exp1","2022-5-4","10:13:55","25","75","3","9","10","40","30","120","86","21","[""Asian"",""White""]","No","Male","1910103","null","null","learn_feedback","","","learn_feedback","25","75","in","","","","","","","","","","","","","","","","","","","","","","",""
"","","","","","canvas-keyboard-response","101","230190","0.0-12.0-4.17","2d_cat_multi_stim_exp1","2022-5-4","10:13:55","25","75","3","9","10","40","30","120","86","21","[""Asian"",""White""]","No","Male","1910103","null","null","","","","clear_screen","","","","","","","","","","","","","","","","","","","","","","","","","",""
"","","","","","canvas-keyboard-response","102","230702","0.0-12.0-0.18","2d_cat_multi_stim_exp1","2022-5-4","10:13:55","25","75","3","9","10","40","30","120","86","21","[""Asian"",""White""]","No","Male","1910103","null","null","","","","fixation","","","","","","","","","","","","","","","","","","","","","","","","","",""
"","","","","","canvas-keyboard-response","103","231212","0.0-12.0-1.18","2d_cat_multi_stim_exp1","2022-5-4","10:13:55","25","75","3","9","10","40","30","120","86","21","[""Asian"",""White""]","No","Male","1910103","null","null","","","","clear_screen","","","","","","","","","","","","","","","","","","","","","","","","","",""
"","","","","","canvas-keyboard-response","104","232280","0.0-12.0-2.18","2d_cat_multi_stim_exp1","2022-5-4","10:13:55","25","75","3","9","10","40","30","120","86","21","[""Asian"",""White""]","No","Male","1910103","1060","i","learn","","","learn_trial","33.3333","30","out","0","1","","","","","","","","","","","","","","","","","","","","",""
"","","","","","canvas-keyboard-response","105","232794","0.0-12.0-3.18","2d_cat_multi_stim_exp1","2022-5-4","10:13:55","25","75","3","9","10","40","30","120","86","21","[""Asian"",""White""]","No","Male","1910103","null","null","learn_feedback","","","learn_feedback","33.3333","30","out","","","","","","","","","","","","","","","","","","","","","","",""
"","","","","","canvas-keyboard-response","106","232855","0.0-12.0-4.18","2d_cat_multi_stim_exp1","2022-5-4","10:13:55","25","75","3","9","10","40","30","120","86","21","[""Asian"",""White""]","No","Male","1910103","null","null","","","","clear_screen","","","","","","","","","","","","","","","","","","","","","","","","","",""
"","","","","","canvas-keyboard-response","107","233367","0.0-12.0-0.19","2d_cat_multi_stim_exp1","2022-5-4","10:13:55","25","75","3","9","10","40","30","120","86","21","[""Asian"",""White""]","No","Male","1910103","null","null","","","","fixation","","","","","","","","","","","","","","","","","","","","","","","","","",""
"","","","","","canvas-keyboard-response","108","233880","0.0-12.0-1.19","2d_cat_multi_stim_exp1","2022-5-4","10:13:55","25","75","3","9","10","40","30","120","86","21","[""Asian"",""White""]","No","Male","1910103","null","null","","","","clear_screen","","","","","","","","","","","","","","","","","","","","","","","","","",""
"","","","","","canvas-keyboard-response","109","234769","0.0-12.0-2.19","2d_cat_multi_stim_exp1","2022-5-4","10:13:55","25","75","3","9","10","40","30","120","86","21","[""Asian"",""White""]","No","Male","1910103","880","u","learn","","","learn_trial","25","75","in","1","1","","","","","","","","","","","","","","","","","","","","",""
"","","","","","canvas-keyboard-response","110","235278","0.0-12.0-3.19","2d_cat_multi_stim_exp1","2022-5-4","10:13:55","25","75","3","9","10","40","30","120","86","21","[""Asian"",""White""]","No","Male","1910103","null","null","learn_feedback","","","learn_feedback","25","75","in","","","","","","","","","","","","","","","","","","","","","","",""
"","","","","","canvas-keyboard-response","111","235339","0.0-12.0-4.19","2d_cat_multi_stim_exp1","2022-5-4","10:13:55","25","75","3","9","10","40","30","120","86","21","[""Asian"",""White""]","No","Male","1910103","null","null","","","","clear_screen","","","","","","","","","","","","","","","","","","","","","","","","","",""
"","","","","","canvas-keyboard-response","112","235851","0.0-12.0-0.20","2d_cat_multi_stim_exp1","2022-5-4","10:13:55","25","75","3","9","10","40","30","120","86","21","[""Asian"",""White""]","No","Male","1910103","null","null","","","","fixation","","","","","","","","","","","","","","","","","","","","","","","","","",""
"","","","","","canvas-keyboard-response","113","236362","0.0-12.0-1.20","2d_cat_multi_stim_exp1","2022-5-4","10:13:55","25","75","3","9","10","40","30","120","86","21","[""Asian"",""White""]","No","Male","1910103","null","null","","","","clear_screen","","","","","","","","","","","","","","","","","","","","","","","","","",""
"","","","","","canvas-keyboard-response","114","238416","0.0-12.0-2.20","2d_cat_multi_stim_exp1","2022-5-4","10:13:55","25","75","3","9","10","40","30","120","86","21","[""Asian"",""White""]","No","Male","1910103","2043","u","learn","","","learn_trial","30","100","out","1","0","","","","","","","","","","","","","","","","","","","","",""
"","","","","","canvas-keyboard-response","115","239428","0.0-12.0-3.20","2d_cat_multi_stim_exp1","2022-5-4","10:13:55","25","75","3","9","10","40","30","120","86","21","[""Asian"",""White""]","No","Male","1910103","null","null","learn_feedback","","","learn_feedback","30","100","out","","","","","","","","","","","","","","","","","","","","","","",""
"","","","","","canvas-keyboard-response","116","239492","0.0-12.0-4.20","2d_cat_multi_stim_exp1","2022-5-4","10:13:55","25","75","3","9","10","40","30","120","86","21","[""Asian"",""White""]","No","Male","1910103","null","null","","","","clear_screen","","","","","","","","","","","","","","","","","","","","","","","","","",""
"","","","","","canvas-keyboard-response","117","240001","0.0-12.0-0.21","2d_cat_multi_stim_exp1","2022-5-4","10:13:55","25","75","3","9","10","40","30","120","86","21","[""Asian"",""White""]","No","Male","1910103","null","null","","","","fixation","","","","","","","","","","","","","","","","","","","","","","","","","",""
"","","","","","canvas-keyboard-response","118","240514","0.0-12.0-1.21","2d_cat_multi_stim_exp1","2022-5-4","10:13:55","25","75","3","9","10","40","30","120","86","21","[""Asian"",""White""]","No","Male","1910103","null","null","","","","clear_screen","","","","","","","","","","","","","","","","","","","","","","","","","",""
"","","","","","canvas-keyboard-response","119","242488","0.0-12.0-2.21","2d_cat_multi_stim_exp1","2022-5-4","10:13:55","25","75","3","9","10","40","30","120","86","21","[""Asian"",""White""]","No","Male","1910103","1962","i","learn","","","learn_trial","10","50","out","0","1","","","","","","","","","","","","","","","","","","","","",""
"","","","","","canvas-keyboard-response","120","243000","0.0-12.0-3.21","2d_cat_multi_stim_exp1","2022-5-4","10:13:55","25","75","3","9","10","40","30","120","86","21","[""Asian"",""White""]","No","Male","1910103","null","null","learn_feedback","","","learn_feedback","10","50","out","","","","","","","","","","","","","","","","","","","","","","",""
"","","","","","canvas-keyboard-response","121","243064","0.0-12.0-4.21","2d_cat_multi_stim_exp1","2022-5-4","10:13:55","25","75","3","9","10","40","30","120","86","21","[""Asian"",""White""]","No","Male","1910103","null","null","","","","clear_screen","","","","","","","","","","","","","","","","","","","","","","","","","",""
"","","","","","canvas-keyboard-response","122","243573","0.0-12.0-0.22","2d_cat_multi_stim_exp1","2022-5-4","10:13:55","25","75","3","9","10","40","30","120","86","21","[""Asian"",""White""]","No","Male","1910103","null","null","","","","fixation","","","","","","","","","","","","","","","","","","","","","","","","","",""
"","","","","","canvas-keyboard-response","123","244087","0.0-12.0-1.22","2d_cat_multi_stim_exp1","2022-5-4","10:13:55","25","75","3","9","10","40","30","120","86","21","[""Asian"",""White""]","No","Male","1910103","null","null","","","","clear_screen","","","","","","","","","","","","","","","","","","","","","","","","","",""
"","","","","","canvas-keyboard-response","124","245456","0.0-12.0-2.22","2d_cat_multi_stim_exp1","2022-5-4","10:13:55","25","75","3","9","10","40","30","120","86","21","[""Asian"",""White""]","No","Male","1910103","1359","i","learn","","","learn_trial","20","100","out","0","1","","","","","","","","","","","","","","","","","","","","",""
"","","","","","canvas-keyboard-response","125","245968","0.0-12.0-3.22","2d_cat_multi_stim_exp1","2022-5-4","10:13:55","25","75","3","9","10","40","30","120","86","21","[""Asian"",""White""]","No","Male","1910103","null","null","learn_feedback","","","learn_feedback","20","100","out","","","","","","","","","","","","","","","","","","","","","","",""
"","","","","","canvas-keyboard-response","126","246030","0.0-12.0-4.22","2d_cat_multi_stim_exp1","2022-5-4","10:13:55","25","75","3","9","10","40","30","120","86","21","[""Asian"",""White""]","No","Male","1910103","null","null","","","","clear_screen","","","","","","","","","","","","","","","","","","","","","","","","","",""
"","","","","","canvas-keyboard-response","127","246542","0.0-12.0-0.23","2d_cat_multi_stim_exp1","2022-5-4","10:13:55","25","75","3","9","10","40","30","120","86","21","[""Asian"",""White""]","No","Male","1910103","null","null","","","","fixation","","","","","","","","","","","","","","","","","","","","","","","","","",""
"","","","","","canvas-keyboard-response","128","247053","0.0-12.0-1.23","2d_cat_multi_stim_exp1","2022-5-4","10:13:55","25","75","3","9","10","40","30","120","86","21","[""Asian"",""White""]","No","Male","1910103","null","null","","","","clear_screen","","","","","","","","","","","","","","","","","","","","","","","","","",""
"","","","","","canvas-keyboard-response","129","247839","0.0-12.0-2.23","2d_cat_multi_stim_exp1","2022-5-4","10:13:55","25","75","3","9","10","40","30","120","86","21","[""Asian"",""White""]","No","Male","1910103","776","u","learn","","","learn_trial","22.0121","74.1932","in","1","1","","","","","","","","","","","","","","","","","","","","",""
"","","","","","canvas-keyboard-response","130","248348","0.0-12.0-3.23","2d_cat_multi_stim_exp1","2022-5-4","10:13:55","25","75","3","9","10","40","30","120","86","21","[""Asian"",""White""]","No","Male","1910103","null","null","learn_feedback","","","learn_feedback","22.0121","74.1932","in","","","","","","","","","","","","","","","","","","","","","","",""
"","","","","","canvas-keyboard-response","131","248407","0.0-12.0-4.23","2d_cat_multi_stim_exp1","2022-5-4","10:13:55","25","75","3","9","10","40","30","120","86","21","[""Asian"",""White""]","No","Male","1910103","null","null","","","","clear_screen","","","","","","","","","","","","","","","","","","","","","","","","","",""
"","","","","","canvas-keyboard-response","132","248919","0.0-12.0-0.24","2d_cat_multi_stim_exp1","2022-5-4","10:13:55","25","75","3","9","10","40","30","120","86","21","[""Asian"",""White""]","No","Male","1910103","null","null","","","","fixation","","","","","","","","","","","","","","","","","","","","","","","","","",""
"","","","","","canvas-keyboard-response","133","249434","0.0-12.0-1.24","2d_cat_multi_stim_exp1","2022-5-4","10:13:55","25","75","3","9","10","40","30","120","86","21","[""Asian"",""White""]","No","Male","1910103","null","null","","","","clear_screen","","","","","","","","","","","","","","","","","","","","","","","","","",""
"","","","","","canvas-keyboard-response","134","250424","0.0-12.0-2.24","2d_cat_multi_stim_exp1","2022-5-4","10:13:55","25","75","3","9","10","40","30","120","86","21","[""Asian"",""White""]","No","Male","1910103","978","i","learn","","","learn_trial","16.6667","30","out","0","1","","","","","","","","","","","","","","","","","","","","",""
"","","","","","canvas-keyboard-response","135","250936","0.0-12.0-3.24","2d_cat_multi_stim_exp1","2022-5-4","10:13:55","25","75","3","9","10","40","30","120","86","21","[""Asian"",""White""]","No","Male","1910103","null","null","learn_feedback","","","learn_feedback","16.6667","30","out","","","","","","","","","","","","","","","","","","","","","","",""
"","","","","","canvas-keyboard-response","136","251000","0.0-12.0-4.24","2d_cat_multi_stim_exp1","2022-5-4","10:13:55","25","75","3","9","10","40","30","120","86","21","[""Asian"",""White""]","No","Male","1910103","null","null","","","","clear_screen","","","","","","","","","","","","","","","","","","","","","","","","","",""
"","","","","","canvas-keyboard-response","137","251511","0.0-12.0-0.25","2d_cat_multi_stim_exp1","2022-5-4","10:13:55","25","75","3","9","10","40","30","120","86","21","[""Asian"",""White""]","No","Male","1910103","null","null","","","","fixation","","","","","","","","","","","","","","","","","","","","","","","","","",""
"","","","","","canvas-keyboard-response","138","252021","0.0-12.0-1.25","2d_cat_multi_stim_exp1","2022-5-4","10:13:55","25","75","3","9","10","40","30","120","86","21","[""Asian"",""White""]","No","Male","1910103","null","null","","","","clear_screen","","","","","","","","","","","","","","","","","","","","","","","","","",""
"","","","","","canvas-keyboard-response","139","253096","0.0-12.0-2.25","2d_cat_multi_stim_exp1","2022-5-4","10:13:55","25","75","3","9","10","40","30","120","86","21","[""Asian"",""White""]","No","Male","1910103","1066","u","learn","","","learn_trial","25","75","in","1","1","","","","","","","","","","","","","","","","","","","","",""
"","","","","","canvas-keyboard-response","140","253609","0.0-12.0-3.25","2d_cat_multi_stim_exp1","2022-5-4","10:13:55","25","75","3","9","10","40","30","120","86","21","[""Asian"",""White""]","No","Male","1910103","null","null","learn_feedback","","","learn_feedback","25","75","in","","","","","","","","","","","","","","","","","","","","","","",""
"","","","","","canvas-keyboard-response","141","253669","0.0-12.0-4.25","2d_cat_multi_stim_exp1","2022-5-4","10:13:55","25","75","3","9","10","40","30","120","86","21","[""Asian"",""White""]","No","Male","1910103","null","null","","","","clear_screen","","","","","","","","","","","","","","","","","","","","","","","","","",""
"","","","","","canvas-keyboard-response","142","254178","0.0-12.0-0.26","2d_cat_multi_stim_exp1","2022-5-4","10:13:55","25","75","3","9","10","40","30","120","86","21","[""Asian"",""White""]","No","Male","1910103","null","null","","","","fixation","","","","","","","","","","","","","","","","","","","","","","","","","",""
"","","","","","canvas-keyboard-response","143","254690","0.0-12.0-1.26","2d_cat_multi_stim_exp1","2022-5-4","10:13:55","25","75","3","9","10","40","30","120","86","21","[""Asian"",""White""]","No","Male","1910103","null","null","","","","clear_screen","","","","","","","","","","","","","","","","","","","","","","","","","",""
"","","","","","canvas-keyboard-response","144","255905","0.0-12.0-2.26","2d_cat_multi_stim_exp1","2022-5-4","10:13:55","25","75","3","9","10","40","30","120","86","21","[""Asian"",""White""]","No","Male","1910103","1205","u","learn","","","learn_trial","25","75","in","1","1","","","","","","","","","","","","","","","","","","","","",""
"","","","","","canvas-keyboard-response","145","256416","0.0-12.0-3.26","2d_cat_multi_stim_exp1","2022-5-4","10:13:55","25","75","3","9","10","40","30","120","86","21","[""Asian"",""White""]","No","Male","1910103","null","null","learn_feedback","","","learn_feedback","25","75","in","","","","","","","","","","","","","","","","","","","","","","",""
"","","","","","canvas-keyboard-response","146","256479","0.0-12.0-4.26","2d_cat_multi_stim_exp1","2022-5-4","10:13:55","25","75","3","9","10","40","30","120","86","21","[""Asian"",""White""]","No","Male","1910103","null","null","","","","clear_screen","","","","","","","","","","","","","","","","","","","","","","","","","",""
"","","","","","canvas-keyboard-response","147","256989","0.0-12.0-0.27","2d_cat_multi_stim_exp1","2022-5-4","10:13:55","25","75","3","9","10","40","30","120","86","21","[""Asian"",""White""]","No","Male","1910103","null","null","","","","fixation","","","","","","","","","","","","","","","","","","","","","","","","","",""
"","","","","","canvas-keyboard-response","148","257499","0.0-12.0-1.27","2d_cat_multi_stim_exp1","2022-5-4","10:13:55","25","75","3","9","10","40","30","120","86","21","[""Asian"",""White""]","No","Male","1910103","null","null","","","","clear_screen","","","","","","","","","","","","","","","","","","","","","","","","","",""
"","","","","","canvas-keyboard-response","149","259328","0.0-12.0-2.27","2d_cat_multi_stim_exp1","2022-5-4","10:13:55","25","75","3","9","10","40","30","120","86","21","[""Asian"",""White""]","No","Male","1910103","1817","u","learn","","","learn_trial","25","75","in","1","1","","","","","","","","","","","","","","","","","","","","",""
"","","","","","canvas-keyboard-response","150","259839","0.0-12.0-3.27","2d_cat_multi_stim_exp1","2022-5-4","10:13:55","25","75","3","9","10","40","30","120","86","21","[""Asian"",""White""]","No","Male","1910103","null","null","learn_feedback","","","learn_feedback","25","75","in","","","","","","","","","","","","","","","","","","","","","","",""
"","","","","","canvas-keyboard-response","151","259899","0.0-12.0-4.27","2d_cat_multi_stim_exp1","2022-5-4","10:13:55","25","75","3","9","10","40","30","120","86","21","[""Asian"",""White""]","No","Male","1910103","null","null","","","","clear_screen","","","","","","","","","","","","","","","","","","","","","","","","","",""
"","","","","","canvas-keyboard-response","152","260408","0.0-12.0-0.28","2d_cat_multi_stim_exp1","2022-5-4","10:13:55","25","75","3","9","10","40","30","120","86","21","[""Asian"",""White""]","No","Male","1910103","null","null","","","","fixation","","","","","","","","","","","","","","","","","","","","","","","","","",""
"","","","","","canvas-keyboard-response","153","260921","0.0-12.0-1.28","2d_cat_multi_stim_exp1","2022-5-4","10:13:55","25","75","3","9","10","40","30","120","86","21","[""Asian"",""White""]","No","Male","1910103","null","null","","","","clear_screen","","","","","","","","","","","","","","","","","","","","","","","","","",""
"","","","","","canvas-keyboard-response","154","261832","0.0-12.0-2.28","2d_cat_multi_stim_exp1","2022-5-4","10:13:55","25","75","3","9","10","40","30","120","86","21","[""Asian"",""White""]","No","Male","1910103","900","i","learn","","","learn_trial","26.6667","30","out","0","1","","","","","","","","","","","","","","","","","","","","",""
"","","","","","canvas-keyboard-response","155","262342","0.0-12.0-3.28","2d_cat_multi_stim_exp1","2022-5-4","10:13:55","25","75","3","9","10","40","30","120","86","21","[""Asian"",""White""]","No","Male","1910103","null","null","learn_feedback","","","learn_feedback","26.6667","30","out","","","","","","","","","","","","","","","","","","","","","","",""
"","","","","","canvas-keyboard-response","156","262405","0.0-12.0-4.28","2d_cat_multi_stim_exp1","2022-5-4","10:13:55","25","75","3","9","10","40","30","120","86","21","[""Asian"",""White""]","No","Male","1910103","null","null","","","","clear_screen","","","","","","","","","","","","","","","","","","","","","","","","","",""
"","","","","","canvas-keyboard-response","157","262915","0.0-12.0-0.29","2d_cat_multi_stim_exp1","2022-5-4","10:13:55","25","75","3","9","10","40","30","120","86","21","[""Asian"",""White""]","No","Male","1910103","null","null","","","","fixation","","","","","","","","","","","","","","","","","","","","","","","","","",""
"","","","","","canvas-keyboard-response","158","263425","0.0-12.0-1.29","2d_cat_multi_stim_exp1","2022-5-4","10:13:55","25","75","3","9","10","40","30","120","86","21","[""Asian"",""White""]","No","Male","1910103","null","null","","","","clear_screen","","","","","","","","","","","","","","","","","","","","","","","","","",""
"","","","","","canvas-keyboard-response","159","264568","0.0-12.0-2.29","2d_cat_multi_stim_exp1","2022-5-4","10:13:55","25","75","3","9","10","40","30","120","86","21","[""Asian"",""White""]","No","Male","1910103","1134","i","learn","","","learn_trial","10","60","out","0","1","","","","","","","","","","","","","","","","","","","","",""
"","","","","","canvas-keyboard-response","160","265079","0.0-12.0-3.29","2d_cat_multi_stim_exp1","2022-5-4","10:13:55","25","75","3","9","10","40","30","120","86","21","[""Asian"",""White""]","No","Male","1910103","null","null","learn_feedback","","","learn_feedback","10","60","out","","","","","","","","","","","","","","","","","","","","","","",""
"","","","","","canvas-keyboard-response","161","265141","0.0-12.0-4.29","2d_cat_multi_stim_exp1","2022-5-4","10:13:55","25","75","3","9","10","40","30","120","86","21","[""Asian"",""White""]","No","Male","1910103","null","null","","","","clear_screen","","","","","","","","","","","","","","","","","","","","","","","","","",""
"","","","","","canvas-keyboard-response","162","265652","0.0-12.0-0.30","2d_cat_multi_stim_exp1","2022-5-4","10:13:55","25","75","3","9","10","40","30","120","86","21","[""Asian"",""White""]","No","Male","1910103","null","null","","","","fixation","","","","","","","","","","","","","","","","","","","","","","","","","",""
"","","","","","canvas-keyboard-response","163","266162","0.0-12.0-1.30","2d_cat_multi_stim_exp1","2022-5-4","10:13:55","25","75","3","9","10","40","30","120","86","21","[""Asian"",""White""]","No","Male","1910103","null","null","","","","clear_screen","","","","","","","","","","","","","","","","","","","","","","","","","",""
"","","","","","canvas-keyboard-response","164","266816","0.0-12.0-2.30","2d_cat_multi_stim_exp1","2022-5-4","10:13:55","25","75","3","9","10","40","30","120","86","21","[""Asian"",""White""]","No","Male","1910103","644","u","learn","","","learn_trial","30","90","out","1","0","","","","","","","","","","","","","","","","","","","","",""
"","","","","","canvas-keyboard-response","165","267828","0.0-12.0-3.30","2d_cat_multi_stim_exp1","2022-5-4","10:13:55","25","75","3","9","10","40","30","120","86","21","[""Asian"",""White""]","No","Male","1910103","null","null","learn_feedback","","","learn_feedback","30","90","out","","","","","","","","","","","","","","","","","","","","","","",""
"","","","","","canvas-keyboard-response","166","267888","0.0-12.0-4.30","2d_cat_multi_stim_exp1","2022-5-4","10:13:55","25","75","3","9","10","40","30","120","86","21","[""Asian"",""White""]","No","Male","1910103","null","null","","","","clear_screen","","","","","","","","","","","","","","","","","","","","","","","","","",""
"","","","","","canvas-keyboard-response","167","268397","0.0-12.0-0.31","2d_cat_multi_stim_exp1","2022-5-4","10:13:55","25","75","3","9","10","40","30","120","86","21","[""Asian"",""White""]","No","Male","1910103","null","null","","","","fixation","","","","","","","","","","","","","","","","","","","","","","","","","",""
"","","","","","canvas-keyboard-response","168","268908","0.0-12.0-1.31","2d_cat_multi_stim_exp1","2022-5-4","10:13:55","25","75","3","9","10","40","30","120","86","21","[""Asian"",""White""]","No","Male","1910103","null","null","","","","clear_screen","","","","","","","","","","","","","","","","","","","","","","","","","",""
"","","","","","canvas-keyboard-response","169","270361","0.0-12.0-2.31","2d_cat_multi_stim_exp1","2022-5-4","10:13:55","25","75","3","9","10","40","30","120","86","21","[""Asian"",""White""]","No","Male","1910103","1443","i","learn","","","learn_trial","13.3333","70","out","0","1","","","","","","","","","","","","","","","","","","","","",""
"","","","","","canvas-keyboard-response","170","270874","0.0-12.0-3.31","2d_cat_multi_stim_exp1","2022-5-4","10:13:55","25","75","3","9","10","40","30","120","86","21","[""Asian"",""White""]","No","Male","1910103","null","null","learn_feedback","","","learn_feedback","13.3333","70","out","","","","","","","","","","","","","","","","","","","","","","",""
"","","","","","canvas-keyboard-response","171","270934","0.0-12.0-4.31","2d_cat_multi_stim_exp1","2022-5-4","10:13:55","25","75","3","9","10","40","30","120","86","21","[""Asian"",""White""]","No","Male","1910103","null","null","","","","clear_screen","","","","","","","","","","","","","","","","","","","","","","","","","",""
"","","","","","canvas-keyboard-response","172","271445","0.0-12.0-0.32","2d_cat_multi_stim_exp1","2022-5-4","10:13:55","25","75","3","9","10","40","30","120","86","21","[""Asian"",""White""]","No","Male","1910103","null","null","","","","fixation","","","","","","","","","","","","","","","","","","","","","","","","","",""
"","","","","","canvas-keyboard-response","173","271954","0.0-12.0-1.32","2d_cat_multi_stim_exp1","2022-5-4","10:13:55","25","75","3","9","10","40","30","120","86","21","[""Asian"",""White""]","No","Male","1910103","null","null","","","","clear_screen","","","","","","","","","","","","","","","","","","","","","","","","","",""
"","","","","","canvas-keyboard-response","174","272793","0.0-12.0-2.32","2d_cat_multi_stim_exp1","2022-5-4","10:13:55","25","75","3","9","10","40","30","120","86","21","[""Asian"",""White""]","No","Male","1910103","825","u","learn","","","learn_trial","25","75","in","1","1","","","","","","","","","","","","","","","","","","","","",""
"","","","","","canvas-keyboard-response","175","273303","0.0-12.0-3.32","2d_cat_multi_stim_exp1","2022-5-4","10:13:55","25","75","3","9","10","40","30","120","86","21","[""Asian"",""White""]","No","Male","1910103","null","null","learn_feedback","","","learn_feedback","25","75","in","","","","","","","","","","","","","","","","","","","","","","",""
"","","","","","canvas-keyboard-response","176","273365","0.0-12.0-4.32","2d_cat_multi_stim_exp1","2022-5-4","10:13:55","25","75","3","9","10","40","30","120","86","21","[""Asian"",""White""]","No","Male","1910103","null","null","","","","clear_screen","","","","","","","","","","","","","","","","","","","","","","","","","",""
"","","","","","canvas-keyboard-response","177","273876","0.0-12.0-0.33","2d_cat_multi_stim_exp1","2022-5-4","10:13:55","25","75","3","9","10","40","30","120","86","21","[""Asian"",""White""]","No","Male","1910103","null","null","","","","fixation","","","","","","","","","","","","","","","","","","","","","","","","","",""
"","","","","","canvas-keyboard-response","178","274388","0.0-12.0-1.33","2d_cat_multi_stim_exp1","2022-5-4","10:13:55","25","75","3","9","10","40","30","120","86","21","[""Asian"",""White""]","No","Male","1910103","null","null","","","","clear_screen","","","","","","","","","","","","","","","","","","","","","","","","","",""
"","","","","","canvas-keyboard-response","179","276017","0.0-12.0-2.33","2d_cat_multi_stim_exp1","2022-5-4","10:13:55","25","75","3","9","10","40","30","120","86","21","[""Asian"",""White""]","No","Male","1910103","1618","u","learn","","","learn_trial","33.3333","70","out","1","0","","","","","","","","","","","","","","","","","","","","",""
"","","","","","canvas-keyboard-response","180","277029","0.0-12.0-3.33","2d_cat_multi_stim_exp1","2022-5-4","10:13:55","25","75","3","9","10","40","30","120","86","21","[""Asian"",""White""]","No","Male","1910103","null","null","learn_feedback","","","learn_feedback","33.3333","70","out","","","","","","","","","","","","","","","","","","","","","","",""
"","","","","","canvas-keyboard-response","181","277093","0.0-12.0-4.33","2d_cat_multi_stim_exp1","2022-5-4","10:13:55","25","75","3","9","10","40","30","120","86","21","[""Asian"",""White""]","No","Male","1910103","null","null","","","","clear_screen","","","","","","","","","","","","","","","","","","","","","","","","","",""
"","","","","","canvas-keyboard-response","182","277604","0.0-12.0-0.34","2d_cat_multi_stim_exp1","2022-5-4","10:13:55","25","75","3","9","10","40","30","120","86","21","[""Asian"",""White""]","No","Male","1910103","null","null","","","","fixation","","","","","","","","","","","","","","","","","","","","","","","","","",""
"","","","","","canvas-keyboard-response","183","278117","0.0-12.0-1.34","2d_cat_multi_stim_exp1","2022-5-4","10:13:55","25","75","3","9","10","40","30","120","86","21","[""Asian"",""White""]","No","Male","1910103","null","null","","","","clear_screen","","","","","","","","","","","","","","","","","","","","","","","","","",""
"","","","","","canvas-keyboard-response","184","279233","0.0-12.0-2.34","2d_cat_multi_stim_exp1","2022-5-4","10:13:55","25","75","3","9","10","40","30","120","86","21","[""Asian"",""White""]","No","Male","1910103","1104","u","learn","","","learn_trial","25","75","in","1","1","","","","","","","","","","","","","","","","","","","","",""
"","","","","","canvas-keyboard-response","185","279742","0.0-12.0-3.34","2d_cat_multi_stim_exp1","2022-5-4","10:13:55","25","75","3","9","10","40","30","120","86","21","[""Asian"",""White""]","No","Male","1910103","null","null","learn_feedback","","","learn_feedback","25","75","in","","","","","","","","","","","","","","","","","","","","","","",""
"","","","","","canvas-keyboard-response","186","279802","0.0-12.0-4.34","2d_cat_multi_stim_exp1","2022-5-4","10:13:55","25","75","3","9","10","40","30","120","86","21","[""Asian"",""White""]","No","Male","1910103","null","null","","","","clear_screen","","","","","","","","","","","","","","","","","","","","","","","","","",""
"","","","","","canvas-keyboard-response","187","280312","0.0-12.0-0.35","2d_cat_multi_stim_exp1","2022-5-4","10:13:55","25","75","3","9","10","40","30","120","86","21","[""Asian"",""White""]","No","Male","1910103","null","null","","","","fixation","","","","","","","","","","","","","","","","","","","","","","","","","",""
"","","","","","canvas-keyboard-response","188","280825","0.0-12.0-1.35","2d_cat_multi_stim_exp1","2022-5-4","10:13:55","25","75","3","9","10","40","30","120","86","21","[""Asian"",""White""]","No","Male","1910103","null","null","","","","clear_screen","","","","","","","","","","","","","","","","","","","","","","","","","",""
"","","","","","canvas-keyboard-response","189","282281","0.0-12.0-2.35","2d_cat_multi_stim_exp1","2022-5-4","10:13:55","25","75","3","9","10","40","30","120","86","21","[""Asian"",""White""]","No","Male","1910103","1445","u","learn","","","learn_trial","23.3333","60","out","1","0","","","","","","","","","","","","","","","","","","","","",""
"","","","","","canvas-keyboard-response","190","283293","0.0-12.0-3.35","2d_cat_multi_stim_exp1","2022-5-4","10:13:55","25","75","3","9","10","40","30","120","86","21","[""Asian"",""White""]","No","Male","1910103","null","null","learn_feedback","","","learn_feedback","23.3333","60","out","","","","","","","","","","","","","","","","","","","","","","",""
"","","","","","canvas-keyboard-response","191","283353","0.0-12.0-4.35","2d_cat_multi_stim_exp1","2022-5-4","10:13:55","25","75","3","9","10","40","30","120","86","21","[""Asian"",""White""]","No","Male","1910103","null","null","","","","clear_screen","","","","","","","","","","","","","","","","","","","","","","","","","",""
"","","","","","canvas-keyboard-response","192","283863","0.0-12.0-0.36","2d_cat_multi_stim_exp1","2022-5-4","10:13:55","25","75","3","9","10","40","30","120","86","21","[""Asian"",""White""]","No","Male","1910103","null","null","","","","fixation","","","","","","","","","","","","","","","","","","","","","","","","","",""
"","","","","","canvas-keyboard-response","193","284377","0.0-12.0-1.36","2d_cat_multi_stim_exp1","2022-5-4","10:13:55","25","75","3","9","10","40","30","120","86","21","[""Asian"",""White""]","No","Male","1910103","null","null","","","","clear_screen","","","","","","","","","","","","","","","","","","","","","","","","","",""
"","","","","","canvas-keyboard-response","194","285792","0.0-12.0-2.36","2d_cat_multi_stim_exp1","2022-5-4","10:13:55","25","75","3","9","10","40","30","120","86","21","[""Asian"",""White""]","No","Male","1910103","1404","i","learn","","","learn_trial","16.6667","90","out","0","1","","","","","","","","","","","","","","","","","","","","",""
"","","","","","canvas-keyboard-response","195","286303","0.0-12.0-3.36","2d_cat_multi_stim_exp1","2022-5-4","10:13:55","25","75","3","9","10","40","30","120","86","21","[""Asian"",""White""]","No","Male","1910103","null","null","learn_feedback","","","learn_feedback","16.6667","90","out","","","","","","","","","","","","","","","","","","","","","","",""
"","","","","","canvas-keyboard-response","196","286366","0.0-12.0-4.36","2d_cat_multi_stim_exp1","2022-5-4","10:13:55","25","75","3","9","10","40","30","120","86","21","[""Asian"",""White""]","No","Male","1910103","null","null","","","","clear_screen","","","","","","","","","","","","","","","","","","","","","","","","","",""
"","","","","","canvas-keyboard-response","197","286876","0.0-12.0-0.37","2d_cat_multi_stim_exp1","2022-5-4","10:13:55","25","75","3","9","10","40","30","120","86","21","[""Asian"",""White""]","No","Male","1910103","null","null","","","","fixation","","","","","","","","","","","","","","","","","","","","","","","","","",""
"","","","","","canvas-keyboard-response","198","287389","0.0-12.0-1.37","2d_cat_multi_stim_exp1","2022-5-4","10:13:55","25","75","3","9","10","40","30","120","86","21","[""Asian"",""White""]","No","Male","1910103","null","null","","","","clear_screen","","","","","","","","","","","","","","","","","","","","","","","","","",""
"","","","","","canvas-keyboard-response","199","288392","0.0-12.0-2.37","2d_cat_multi_stim_exp1","2022-5-4","10:13:55","25","75","3","9","10","40","30","120","86","21","[""Asian"",""White""]","No","Male","1910103","993","u","learn","","","learn_trial","23.3333","70","out","1","0","","","","","","","","","","","","","","","","","","","","",""
"","","","","","canvas-keyboard-response","200","289404","0.0-12.0-3.37","2d_cat_multi_stim_exp1","2022-5-4","10:13:55","25","75","3","9","10","40","30","120","86","21","[""Asian"",""White""]","No","Male","1910103","null","null","learn_feedback","","","learn_feedback","23.3333","70","out","","","","","","","","","","","","","","","","","","","","","","",""
"","","","","","canvas-keyboard-response","201","289467","0.0-12.0-4.37","2d_cat_multi_stim_exp1","2022-5-4","10:13:55","25","75","3","9","10","40","30","120","86","21","[""Asian"",""White""]","No","Male","1910103","null","null","","","","clear_screen","","","","","","","","","","","","","","","","","","","","","","","","","",""
"","","","","","canvas-keyboard-response","202","289976","0.0-12.0-0.38","2d_cat_multi_stim_exp1","2022-5-4","10:13:55","25","75","3","9","10","40","30","120","86","21","[""Asian"",""White""]","No","Male","1910103","null","null","","","","fixation","","","","","","","","","","","","","","","","","","","","","","","","","",""
"","","","","","canvas-keyboard-response","203","290487","0.0-12.0-1.38","2d_cat_multi_stim_exp1","2022-5-4","10:13:55","25","75","3","9","10","40","30","120","86","21","[""Asian"",""White""]","No","Male","1910103","null","null","","","","clear_screen","","","","","","","","","","","","","","","","","","","","","","","","","",""
"","","","","","canvas-keyboard-response","204","291456","0.0-12.0-2.38","2d_cat_multi_stim_exp1","2022-5-4","10:13:55","25","75","3","9","10","40","30","120","86","21","[""Asian"",""White""]","No","Male","1910103","957","i","learn","","","learn_trial","23.3333","120","out","0","1","","","","","","","","","","","","","","","","","","","","",""
"","","","","","canvas-keyboard-response","205","291970","0.0-12.0-3.38","2d_cat_multi_stim_exp1","2022-5-4","10:13:55","25","75","3","9","10","40","30","120","86","21","[""Asian"",""White""]","No","Male","1910103","null","null","learn_feedback","","","learn_feedback","23.3333","120","out","","","","","","","","","","","","","","","","","","","","","","",""
"","","","","","canvas-keyboard-response","206","292031","0.0-12.0-4.38","2d_cat_multi_stim_exp1","2022-5-4","10:13:55","25","75","3","9","10","40","30","120","86","21","[""Asian"",""White""]","No","Male","1910103","null","null","","","","clear_screen","","","","","","","","","","","","","","","","","","","","","","","","","",""
"","","","","","canvas-keyboard-response","207","292540","0.0-12.0-0.39","2d_cat_multi_stim_exp1","2022-5-4","10:13:55","25","75","3","9","10","40","30","120","86","21","[""Asian"",""White""]","No","Male","1910103","null","null","","","","fixation","","","","","","","","","","","","","","","","","","","","","","","","","",""
"","","","","","canvas-keyboard-response","208","293052","0.0-12.0-1.39","2d_cat_multi_stim_exp1","2022-5-4","10:13:55","25","75","3","9","10","40","30","120","86","21","[""Asian"",""White""]","No","Male","1910103","null","null","","","","clear_screen","","","","","","","","","","","","","","","","","","","","","","","","","",""
"","","","","","canvas-keyboard-response","209","293848","0.0-12.0-2.39","2d_cat_multi_stim_exp1","2022-5-4","10:13:55","25","75","3","9","10","40","30","120","86","21","[""Asian"",""White""]","No","Male","1910103","786","u","learn","","","learn_trial","16.6667","80","out","1","0","","","","","","","","","","","","","","","","","","","","",""
"","","","","","canvas-keyboard-response","210","294862","0.0-12.0-3.39","2d_cat_multi_stim_exp1","2022-5-4","10:13:55","25","75","3","9","10","40","30","120","86","21","[""Asian"",""White""]","No","Male","1910103","null","null","learn_feedback","","","learn_feedback","16.6667","80","out","","","","","","","","","","","","","","","","","","","","","","",""
"","","","","","canvas-keyboard-response","211","294925","0.0-12.0-4.39","2d_cat_multi_stim_exp1","2022-5-4","10:13:55","25","75","3","9","10","40","30","120","86","21","[""Asian"",""White""]","No","Male","1910103","null","null","","","","clear_screen","","","","","","","","","","","","","","","","","","","","","","","","","",""
"","","","","","canvas-keyboard-response","212","295435","0.0-12.0-0.40","2d_cat_multi_stim_exp1","2022-5-4","10:13:55","25","75","3","9","10","40","30","120","86","21","[""Asian"",""White""]","No","Male","1910103","null","null","","","","fixation","","","","","","","","","","","","","","","","","","","","","","","","","",""
"","","","","","canvas-keyboard-response","213","295947","0.0-12.0-1.40","2d_cat_multi_stim_exp1","2022-5-4","10:13:55","25","75","3","9","10","40","30","120","86","21","[""Asian"",""White""]","No","Male","1910103","null","null","","","","clear_screen","","","","","","","","","","","","","","","","","","","","","","","","","",""
"","","","","","canvas-keyboard-response","214","298535","0.0-12.0-2.40","2d_cat_multi_stim_exp1","2022-5-4","10:13:55","25","75","3","9","10","40","30","120","86","21","[""Asian"",""White""]","No","Male","1910103","2576","i","learn","","","learn_trial","36.6667","90","out","0","1","","","","","","","","","","","","","","","","","","","","",""
"","","","","","canvas-keyboard-response","215","299047","0.0-12.0-3.40","2d_cat_multi_stim_exp1","2022-5-4","10:13:55","25","75","3","9","10","40","30","120","86","21","[""Asian"",""White""]","No","Male","1910103","null","null","learn_feedback","","","learn_feedback","36.6667","90","out","","","","","","","","","","","","","","","","","","","","","","",""
"","","","","","canvas-keyboard-response","216","299110","0.0-12.0-4.40","2d_cat_multi_stim_exp1","2022-5-4","10:13:55","25","75","3","9","10","40","30","120","86","21","[""Asian"",""White""]","No","Male","1910103","null","null","","","","clear_screen","","","","","","","","","","","","","","","","","","","","","","","","","",""
"","","","","","canvas-keyboard-response","217","299621","0.0-12.0-0.41","2d_cat_multi_stim_exp1","2022-5-4","10:13:55","25","75","3","9","10","40","30","120","86","21","[""Asian"",""White""]","No","Male","1910103","null","null","","","","fixation","","","","","","","","","","","","","","","","","","","","","","","","","",""
"","","","","","canvas-keyboard-response","218","300137","0.0-12.0-1.41","2d_cat_multi_stim_exp1","2022-5-4","10:13:55","25","75","3","9","10","40","30","120","86","21","[""Asian"",""White""]","No","Male","1910103","null","null","","","","clear_screen","","","","","","","","","","","","","","","","","","","","","","","","","",""
"","","","","","canvas-keyboard-response","219","300904","0.0-12.0-2.41","2d_cat_multi_stim_exp1","2022-5-4","10:13:55","25","75","3","9","10","40","30","120","86","21","[""Asian"",""White""]","No","Male","1910103","758","i","learn","","","learn_trial","10","30","out","0","1","","","","","","","","","","","","","","","","","","","","",""
"","","","","","canvas-keyboard-response","220","301416","0.0-12.0-3.41","2d_cat_multi_stim_exp1","2022-5-4","10:13:55","25","75","3","9","10","40","30","120","86","21","[""Asian"",""White""]","No","Male","1910103","null","null","learn_feedback","","","learn_feedback","10","30","out","","","","","","","","","","","","","","","","","","","","","","",""
"","","","","","canvas-keyboard-response","221","301475","0.0-12.0-4.41","2d_cat_multi_stim_exp1","2022-5-4","10:13:55","25","75","3","9","10","40","30","120","86","21","[""Asian"",""White""]","No","Male","1910103","null","null","","","","clear_screen","","","","","","","","","","","","","","","","","","","","","","","","","",""
"","","","","","canvas-keyboard-response","222","301987","0.0-12.0-0.42","2d_cat_multi_stim_exp1","2022-5-4","10:13:55","25","75","3","9","10","40","30","120","86","21","[""Asian"",""White""]","No","Male","1910103","null","null","","","","fixation","","","","","","","","","","","","","","","","","","","","","","","","","",""
"","","","","","canvas-keyboard-response","223","302498","0.0-12.0-1.42","2d_cat_multi_stim_exp1","2022-5-4","10:13:55","25","75","3","9","10","40","30","120","86","21","[""Asian"",""White""]","No","Male","1910103","null","null","","","","clear_screen","","","","","","","","","","","","","","","","","","","","","","","","","",""
"","","","","","canvas-keyboard-response","224","303745","0.0-12.0-2.42","2d_cat_multi_stim_exp1","2022-5-4","10:13:55","25","75","3","9","10","40","30","120","86","21","[""Asian"",""White""]","No","Male","1910103","1235","u","learn","","","learn_trial","20.7574","62.2721","in","1","1","","","","","","","","","","","","","","","","","","","","",""
"","","","","","canvas-keyboard-response","225","304256","0.0-12.0-3.42","2d_cat_multi_stim_exp1","2022-5-4","10:13:55","25","75","3","9","10","40","30","120","86","21","[""Asian"",""White""]","No","Male","1910103","null","null","learn_feedback","","","learn_feedback","20.7574","62.2721","in","","","","","","","","","","","","","","","","","","","","","","",""
"","","","","","canvas-keyboard-response","226","304320","0.0-12.0-4.42","2d_cat_multi_stim_exp1","2022-5-4","10:13:55","25","75","3","9","10","40","30","120","86","21","[""Asian"",""White""]","No","Male","1910103","null","null","","","","clear_screen","","","","","","","","","","","","","","","","","","","","","","","","","",""
"","","","","","canvas-keyboard-response","227","304829","0.0-12.0-0.43","2d_cat_multi_stim_exp1","2022-5-4","10:13:55","25","75","3","9","10","40","30","120","86","21","[""Asian"",""White""]","No","Male","1910103","null","null","","","","fixation","","","","","","","","","","","","","","","","","","","","","","","","","",""
"","","","","","canvas-keyboard-response","228","305339","0.0-12.0-1.43","2d_cat_multi_stim_exp1","2022-5-4","10:13:55","25","75","3","9","10","40","30","120","86","21","[""Asian"",""White""]","No","Male","1910103","null","null","","","","clear_screen","","","","","","","","","","","","","","","","","","","","","","","","","",""
"","","","","","canvas-keyboard-response","229","306152","0.0-12.0-2.43","2d_cat_multi_stim_exp1","2022-5-4","10:13:55","25","75","3","9","10","40","30","120","86","21","[""Asian"",""White""]","No","Male","1910103","805","u","learn","","","learn_trial","22.5729","69.7099","in","1","1","","","","","","","","","","","","","","","","","","","","",""
"","","","","","canvas-keyboard-response","230","306662","0.0-12.0-3.43","2d_cat_multi_stim_exp1","2022-5-4","10:13:55","25","75","3","9","10","40","30","120","86","21","[""Asian"",""White""]","No","Male","1910103","null","null","learn_feedback","","","learn_feedback","22.5729","69.7099","in","","","","","","","","","","","","","","","","","","","","","","",""
"","","","","","canvas-keyboard-response","231","306725","0.0-12.0-4.43","2d_cat_multi_stim_exp1","2022-5-4","10:13:55","25","75","3","9","10","40","30","120","86","21","[""Asian"",""White""]","No","Male","1910103","null","null","","","","clear_screen","","","","","","","","","","","","","","","","","","","","","","","","","",""
"","","","","","canvas-keyboard-response","232","307236","0.0-12.0-0.44","2d_cat_multi_stim_exp1","2022-5-4","10:13:55","25","75","3","9","10","40","30","120","86","21","[""Asian"",""White""]","No","Male","1910103","null","null","","","","fixation","","","","","","","","","","","","","","","","","","","","","","","","","",""
"","","","","","canvas-keyboard-response","233","307747","0.0-12.0-1.44","2d_cat_multi_stim_exp1","2022-5-4","10:13:55","25","75","3","9","10","40","30","120","86","21","[""Asian"",""White""]","No","Male","1910103","null","null","","","","clear_screen","","","","","","","","","","","","","","","","","","","","","","","","","",""
"","","","","","canvas-keyboard-response","234","308656","0.0-12.0-2.44","2d_cat_multi_stim_exp1","2022-5-4","10:13:55","25","75","3","9","10","40","30","120","86","21","[""Asian"",""White""]","No","Male","1910103","899","i","learn","","","learn_trial","33.3333","100","out","0","1","","","","","","","","","","","","","","","","","","","","",""
"","","","","","canvas-keyboard-response","235","309168","0.0-12.0-3.44","2d_cat_multi_stim_exp1","2022-5-4","10:13:55","25","75","3","9","10","40","30","120","86","21","[""Asian"",""White""]","No","Male","1910103","null","null","learn_feedback","","","learn_feedback","33.3333","100","out","","","","","","","","","","","","","","","","","","","","","","",""
"","","","","","canvas-keyboard-response","236","309232","0.0-12.0-4.44","2d_cat_multi_stim_exp1","2022-5-4","10:13:55","25","75","3","9","10","40","30","120","86","21","[""Asian"",""White""]","No","Male","1910103","null","null","","","","clear_screen","","","","","","","","","","","","","","","","","","","","","","","","","",""
"","","","","","canvas-keyboard-response","237","309742","0.0-12.0-0.45","2d_cat_multi_stim_exp1","2022-5-4","10:13:55","25","75","3","9","10","40","30","120","86","21","[""Asian"",""White""]","No","Male","1910103","null","null","","","","fixation","","","","","","","","","","","","","","","","","","","","","","","","","",""
"","","","","","canvas-keyboard-response","238","310254","0.0-12.0-1.45","2d_cat_multi_stim_exp1","2022-5-4","10:13:55","25","75","3","9","10","40","30","120","86","21","[""Asian"",""White""]","No","Male","1910103","null","null","","","","clear_screen","","","","","","","","","","","","","","","","","","","","","","","","","",""
"","","","","","canvas-keyboard-response","239","311240","0.0-12.0-2.45","2d_cat_multi_stim_exp1","2022-5-4","10:13:55","25","75","3","9","10","40","30","120","86","21","[""Asian"",""White""]","No","Male","1910103","977","u","learn","","","learn_trial","25","75","in","1","1","","","","","","","","","","","","","","","","","","","","",""
"","","","","","canvas-keyboard-response","240","311750","0.0-12.0-3.45","2d_cat_multi_stim_exp1","2022-5-4","10:13:55","25","75","3","9","10","40","30","120","86","21","[""Asian"",""White""]","No","Male","1910103","null","null","learn_feedback","","","learn_feedback","25","75","in","","","","","","","","","","","","","","","","","","","","","","",""
"","","","","","canvas-keyboard-response","241","311810","0.0-12.0-4.45","2d_cat_multi_stim_exp1","2022-5-4","10:13:55","25","75","3","9","10","40","30","120","86","21","[""Asian"",""White""]","No","Male","1910103","null","null","","","","clear_screen","","","","","","","","","","","","","","","","","","","","","","","","","",""
"","","","","","canvas-keyboard-response","242","312319","0.0-12.0-0.46","2d_cat_multi_stim_exp1","2022-5-4","10:13:55","25","75","3","9","10","40","30","120","86","21","[""Asian"",""White""]","No","Male","1910103","null","null","","","","fixation","","","","","","","","","","","","","","","","","","","","","","","","","",""
"","","","","","canvas-keyboard-response","243","312832","0.0-12.0-1.46","2d_cat_multi_stim_exp1","2022-5-4","10:13:55","25","75","3","9","10","40","30","120","86","21","[""Asian"",""White""]","No","Male","1910103","null","null","","","","clear_screen","","","","","","","","","","","","","","","","","","","","","","","","","",""
"","","","","","canvas-keyboard-response","244","313784","0.0-12.0-2.46","2d_cat_multi_stim_exp1","2022-5-4","10:13:55","25","75","3","9","10","40","30","120","86","21","[""Asian"",""White""]","No","Male","1910103","940","u","learn","","","learn_trial","25","75","in","1","1","","","","","","","","","","","","","","","","","","","","",""
"","","","","","canvas-keyboard-response","245","314295","0.0-12.0-3.46","2d_cat_multi_stim_exp1","2022-5-4","10:13:55","25","75","3","9","10","40","30","120","86","21","[""Asian"",""White""]","No","Male","1910103","null","null","learn_feedback","","","learn_feedback","25","75","in","","","","","","","","","","","","","","","","","","","","","","",""
"","","","","","canvas-keyboard-response","246","314357","0.0-12.0-4.46","2d_cat_multi_stim_exp1","2022-5-4","10:13:55","25","75","3","9","10","40","30","120","86","21","[""Asian"",""White""]","No","Male","1910103","null","null","","","","clear_screen","","","","","","","","","","","","","","","","","","","","","","","","","",""
"","","","","","canvas-keyboard-response","247","314870","0.0-12.0-0.47","2d_cat_multi_stim_exp1","2022-5-4","10:13:55","25","75","3","9","10","40","30","120","86","21","[""Asian"",""White""]","No","Male","1910103","null","null","","","","fixation","","","","","","","","","","","","","","","","","","","","","","","","","",""
"","","","","","canvas-keyboard-response","248","315384","0.0-12.0-1.47","2d_cat_multi_stim_exp1","2022-5-4","10:13:55","25","75","3","9","10","40","30","120","86","21","[""Asian"",""White""]","No","Male","1910103","null","null","","","","clear_screen","","","","","","","","","","","","","","","","","","","","","","","","","",""
"","","","","","canvas-keyboard-response","249","316161","0.0-12.0-2.47","2d_cat_multi_stim_exp1","2022-5-4","10:13:55","25","75","3","9","10","40","30","120","86","21","[""Asian"",""White""]","No","Male","1910103","764","u","learn","","","learn_trial","25.9271","66.4405","in","1","1","","","","","","","","","","","","","","","","","","","","",""
"","","","","","canvas-keyboard-response","250","316671","0.0-12.0-3.47","2d_cat_multi_stim_exp1","2022-5-4","10:13:55","25","75","3","9","10","40","30","120","86","21","[""Asian"",""White""]","No","Male","1910103","null","null","learn_feedback","","","learn_feedback","25.9271","66.4405","in","","","","","","","","","","","","","","","","","","","","","","",""
"","","","","","canvas-keyboard-response","251","316731","0.0-12.0-4.47","2d_cat_multi_stim_exp1","2022-5-4","10:13:55","25","75","3","9","10","40","30","120","86","21","[""Asian"",""White""]","No","Male","1910103","null","null","","","","clear_screen","","","","","","","","","","","","","","","","","","","","","","","","","",""
"","","","","","canvas-keyboard-response","252","317239","0.0-12.0-0.48","2d_cat_multi_stim_exp1","2022-5-4","10:13:55","25","75","3","9","10","40","30","120","86","21","[""Asian"",""White""]","No","Male","1910103","null","null","","","","fixation","","","","","","","","","","","","","","","","","","","","","","","","","",""
"","","","","","canvas-keyboard-response","253","317753","0.0-12.0-1.48","2d_cat_multi_stim_exp1","2022-5-4","10:13:55","25","75","3","9","10","40","30","120","86","21","[""Asian"",""White""]","No","Male","1910103","null","null","","","","clear_screen","","","","","","","","","","","","","","","","","","","","","","","","","",""
"","","","","","canvas-keyboard-response","254","318528","0.0-12.0-2.48","2d_cat_multi_stim_exp1","2022-5-4","10:13:55","25","75","3","9","10","40","30","120","86","21","[""Asian"",""White""]","No","Male","1910103","766","i","learn","","","learn_trial","13.3333","80","out","0","1","","","","","","","","","","","","","","","","","","","","",""
"","","","","","canvas-keyboard-response","255","319039","0.0-12.0-3.48","2d_cat_multi_stim_exp1","2022-5-4","10:13:55","25","75","3","9","10","40","30","120","86","21","[""Asian"",""White""]","No","Male","1910103","null","null","learn_feedback","","","learn_feedback","13.3333","80","out","","","","","","","","","","","","","","","","","","","","","","",""
"","","","","","canvas-keyboard-response","256","319101","0.0-12.0-4.48","2d_cat_multi_stim_exp1","2022-5-4","10:13:55","25","75","3","9","10","40","30","120","86","21","[""Asian"",""White""]","No","Male","1910103","null","null","","","","clear_screen","","","","","","","","","","","","","","","","","","","","","","","","","",""
"","","","","","canvas-keyboard-response","257","319611","0.0-12.0-0.49","2d_cat_multi_stim_exp1","2022-5-4","10:13:55","25","75","3","9","10","40","30","120","86","21","[""Asian"",""White""]","No","Male","1910103","null","null","","","","fixation","","","","","","","","","","","","","","","","","","","","","","","","","",""
"","","","","","canvas-keyboard-response","258","320122","0.0-12.0-1.49","2d_cat_multi_stim_exp1","2022-5-4","10:13:55","25","75","3","9","10","40","30","120","86","21","[""Asian"",""White""]","No","Male","1910103","null","null","","","","clear_screen","","","","","","","","","","","","","","","","","","","","","","","","","",""
"","","","","","canvas-keyboard-response","259","321121","0.0-12.0-2.49","2d_cat_multi_stim_exp1","2022-5-4","10:13:55","25","75","3","9","10","40","30","120","86","21","[""Asian"",""White""]","No","Male","1910103","989","i","learn","","","learn_trial","23.3333","110","out","0","1","","","","","","","","","","","","","","","","","","","","",""
"","","","","","canvas-keyboard-response","260","321632","0.0-12.0-3.49","2d_cat_multi_stim_exp1","2022-5-4","10:13:55","25","75","3","9","10","40","30","120","86","21","[""Asian"",""White""]","No","Male","1910103","null","null","learn_feedback","","","learn_feedback","23.3333","110","out","","","","","","","","","","","","","","","","","","","","","","",""
"","","","","","canvas-keyboard-response","261","321694","0.0-12.0-4.49","2d_cat_multi_stim_exp1","2022-5-4","10:13:55","25","75","3","9","10","40","30","120","86","21","[""Asian"",""White""]","No","Male","1910103","null","null","","","","clear_screen","","","","","","","","","","","","","","","","","","","","","","","","","",""
"","","","","","canvas-keyboard-response","262","322203","0.0-12.0-0.50","2d_cat_multi_stim_exp1","2022-5-4","10:13:55","25","75","3","9","10","40","30","120","86","21","[""Asian"",""White""]","No","Male","1910103","null","null","","","","fixation","","","","","","","","","","","","","","","","","","","","","","","","","",""
"","","","","","canvas-keyboard-response","263","322717","0.0-12.0-1.50","2d_cat_multi_stim_exp1","2022-5-4","10:13:55","25","75","3","9","10","40","30","120","86","21","[""Asian"",""White""]","No","Male","1910103","null","null","","","","clear_screen","","","","","","","","","","","","","","","","","","","","","","","","","",""
"","","","","","canvas-keyboard-response","264","323545","0.0-12.0-2.50","2d_cat_multi_stim_exp1","2022-5-4","10:13:55","25","75","3","9","10","40","30","120","86","21","[""Asian"",""White""]","No","Male","1910103","814","i","learn","","","learn_trial","16.6667","40","out","0","1","","","","","","","","","","","","","","","","","","","","",""
"","","","","","canvas-keyboard-response","265","324054","0.0-12.0-3.50","2d_cat_multi_stim_exp1","2022-5-4","10:13:55","25","75","3","9","10","40","30","120","86","21","[""Asian"",""White""]","No","Male","1910103","null","null","learn_feedback","","","learn_feedback","16.6667","40","out","","","","","","","","","","","","","","","","","","","","","","",""
"","","","","","canvas-keyboard-response","266","324113","0.0-12.0-4.50","2d_cat_multi_stim_exp1","2022-5-4","10:13:55","25","75","3","9","10","40","30","120","86","21","[""Asian"",""White""]","No","Male","1910103","null","null","","","","clear_screen","","","","","","","","","","","","","","","","","","","","","","","","","",""
"","","","","","canvas-keyboard-response","267","324624","0.0-12.0-0.51","2d_cat_multi_stim_exp1","2022-5-4","10:13:55","25","75","3","9","10","40","30","120","86","21","[""Asian"",""White""]","No","Male","1910103","null","null","","","","fixation","","","","","","","","","","","","","","","","","","","","","","","","","",""
"","","","","","canvas-keyboard-response","268","325135","0.0-12.0-1.51","2d_cat_multi_stim_exp1","2022-5-4","10:13:55","25","75","3","9","10","40","30","120","86","21","[""Asian"",""White""]","No","Male","1910103","null","null","","","","clear_screen","","","","","","","","","","","","","","","","","","","","","","","","","",""
"","","","","","canvas-keyboard-response","269","325856","0.0-12.0-2.51","2d_cat_multi_stim_exp1","2022-5-4","10:13:55","25","75","3","9","10","40","30","120","86","21","[""Asian"",""White""]","No","Male","1910103","708","u","learn","","","learn_trial","27.5753","79.6161","in","1","1","","","","","","","","","","","","","","","","","","","","",""
"","","","","","canvas-keyboard-response","270","326366","0.0-12.0-3.51","2d_cat_multi_stim_exp1","2022-5-4","10:13:55","25","75","3","9","10","40","30","120","86","21","[""Asian"",""White""]","No","Male","1910103","null","null","learn_feedback","","","learn_feedback","27.5753","79.6161","in","","","","","","","","","","","","","","","","","","","","","","",""
"","","","","","canvas-keyboard-response","271","326425","0.0-12.0-4.51","2d_cat_multi_stim_exp1","2022-5-4","10:13:55","25","75","3","9","10","40","30","120","86","21","[""Asian"",""White""]","No","Male","1910103","null","null","","","","clear_screen","","","","","","","","","","","","","","","","","","","","","","","","","",""
"","","","","","canvas-keyboard-response","272","326935","0.0-12.0-0.52","2d_cat_multi_stim_exp1","2022-5-4","10:13:55","25","75","3","9","10","40","30","120","86","21","[""Asian"",""White""]","No","Male","1910103","null","null","","","","fixation","","","","","","","","","","","","","","","","","","","","","","","","","",""
"","","","","","canvas-keyboard-response","273","327449","0.0-12.0-1.52","2d_cat_multi_stim_exp1","2022-5-4","10:13:55","25","75","3","9","10","40","30","120","86","21","[""Asian"",""White""]","No","Male","1910103","null","null","","","","clear_screen","","","","","","","","","","","","","","","","","","","","","","","","","",""
"","","","","","canvas-keyboard-response","274","328271","0.0-12.0-2.52","2d_cat_multi_stim_exp1","2022-5-4","10:13:55","25","75","3","9","10","40","30","120","86","21","[""Asian"",""White""]","No","Male","1910103","810","i","learn","","","learn_trial","13.3333","90","out","0","1","","","","","","","","","","","","","","","","","","","","",""
"","","","","","canvas-keyboard-response","275","328782","0.0-12.0-3.52","2d_cat_multi_stim_exp1","2022-5-4","10:13:55","25","75","3","9","10","40","30","120","86","21","[""Asian"",""White""]","No","Male","1910103","null","null","learn_feedback","","","learn_feedback","13.3333","90","out","","","","","","","","","","","","","","","","","","","","","","",""
"","","","","","canvas-keyboard-response","276","328845","0.0-12.0-4.52","2d_cat_multi_stim_exp1","2022-5-4","10:13:55","25","75","3","9","10","40","30","120","86","21","[""Asian"",""White""]","No","Male","1910103","null","null","","","","clear_screen","","","","","","","","","","","","","","","","","","","","","","","","","",""
"","","","","","canvas-keyboard-response","277","329358","0.0-12.0-0.53","2d_cat_multi_stim_exp1","2022-5-4","10:13:55","25","75","3","9","10","40","30","120","86","21","[""Asian"",""White""]","No","Male","1910103","null","null","","","","fixation","","","","","","","","","","","","","","","","","","","","","","","","","",""
"","","","","","canvas-keyboard-response","278","329870","0.0-12.0-1.53","2d_cat_multi_stim_exp1","2022-5-4","10:13:55","25","75","3","9","10","40","30","120","86","21","[""Asian"",""White""]","No","Male","1910103","null","null","","","","clear_screen","","","","","","","","","","","","","","","","","","","","","","","","","",""
"","","","","","canvas-keyboard-response","279","330752","0.0-12.0-2.53","2d_cat_multi_stim_exp1","2022-5-4","10:13:55","25","75","3","9","10","40","30","120","86","21","[""Asian"",""White""]","No","Male","1910103","872","u","learn","","","learn_trial","25","75","in","1","1","","","","","","","","","","","","","","","","","","","","",""
"","","","","","canvas-keyboard-response","280","331262","0.0-12.0-3.53","2d_cat_multi_stim_exp1","2022-5-4","10:13:55","25","75","3","9","10","40","30","120","86","21","[""Asian"",""White""]","No","Male","1910103","null","null","learn_feedback","","","learn_feedback","25","75","in","","","","","","","","","","","","","","","","","","","","","","",""
"","","","","","canvas-keyboard-response","281","331321","0.0-12.0-4.53","2d_cat_multi_stim_exp1","2022-5-4","10:13:55","25","75","3","9","10","40","30","120","86","21","[""Asian"",""White""]","No","Male","1910103","null","null","","","","clear_screen","","","","","","","","","","","","","","","","","","","","","","","","","",""
"","","","","","canvas-keyboard-response","282","331834","0.0-12.0-0.54","2d_cat_multi_stim_exp1","2022-5-4","10:13:55","25","75","3","9","10","40","30","120","86","21","[""Asian"",""White""]","No","Male","1910103","null","null","","","","fixation","","","","","","","","","","","","","","","","","","","","","","","","","",""
"","","","","","canvas-keyboard-response","283","332349","0.0-12.0-1.54","2d_cat_multi_stim_exp1","2022-5-4","10:13:55","25","75","3","9","10","40","30","120","86","21","[""Asian"",""White""]","No","Male","1910103","null","null","","","","clear_screen","","","","","","","","","","","","","","","","","","","","","","","","","",""
"","","","","","canvas-keyboard-response","284","333248","0.0-12.0-2.54","2d_cat_multi_stim_exp1","2022-5-4","10:13:55","25","75","3","9","10","40","30","120","86","21","[""Asian"",""White""]","No","Male","1910103","889","u","learn","","","learn_trial","25","75","in","1","1","","","","","","","","","","","","","","","","","","","","",""
"","","","","","canvas-keyboard-response","285","333760","0.0-12.0-3.54","2d_cat_multi_stim_exp1","2022-5-4","10:13:55","25","75","3","9","10","40","30","120","86","21","[""Asian"",""White""]","No","Male","1910103","null","null","learn_feedback","","","learn_feedback","25","75","in","","","","","","","","","","","","","","","","","","","","","","",""
"","","","","","canvas-keyboard-response","286","333821","0.0-12.0-4.54","2d_cat_multi_stim_exp1","2022-5-4","10:13:55","25","75","3","9","10","40","30","120","86","21","[""Asian"",""White""]","No","Male","1910103","null","null","","","","clear_screen","","","","","","","","","","","","","","","","","","","","","","","","","",""
"","","","","","canvas-keyboard-response","287","334330","0.0-12.0-0.55","2d_cat_multi_stim_exp1","2022-5-4","10:13:55","25","75","3","9","10","40","30","120","86","21","[""Asian"",""White""]","No","Male","1910103","null","null","","","","fixation","","","","","","","","","","","","","","","","","","","","","","","","","",""
"","","","","","canvas-keyboard-response","288","334839","0.0-12.0-1.55","2d_cat_multi_stim_exp1","2022-5-4","10:13:55","25","75","3","9","10","40","30","120","86","21","[""Asian"",""White""]","No","Male","1910103","null","null","","","","clear_screen","","","","","","","","","","","","","","","","","","","","","","","","","",""
"","","","","","canvas-keyboard-response","289","335544","0.0-12.0-2.55","2d_cat_multi_stim_exp1","2022-5-4","10:13:55","25","75","3","9","10","40","30","120","86","21","[""Asian"",""White""]","No","Male","1910103","695","u","learn","","","learn_trial","25","75","in","1","1","","","","","","","","","","","","","","","","","","","","",""
"","","","","","canvas-keyboard-response","290","336056","0.0-12.0-3.55","2d_cat_multi_stim_exp1","2022-5-4","10:13:55","25","75","3","9","10","40","30","120","86","21","[""Asian"",""White""]","No","Male","1910103","null","null","learn_feedback","","","learn_feedback","25","75","in","","","","","","","","","","","","","","","","","","","","","","",""
