"success","timeout","failed_images","failed_audio","failed_video","trial_type","trial_index","time_elapsed","internal_node_id","exp_name","date","time","angle_mean_in","radius_mean_in","angle_sd_in","radius_sd_in","angle_min_out","angle_max_out","radius_min_out","radius_max_out","sub_n","age","race","ethnicity","gender","exp_duration","rt","response","exp_trial_type","stimulus","view_history","screen_id","angle","radius","distribution","choice","correct","order","angle_a","radius_a","angle_b","radius_b","jkl_correct","transfer_trial_type","choice_set","abc_correct","tc_correct","tc_angle","tdc_a","tdc_b","tdc_c","pair","category_a","category_b","category_c","angle_c","radius_c","question_order"
"true","false","[]","[]","[]","preload","0","41","0.0-0.0","2d_cat_multi_stim_exp1","2022-4-19","14:57:11","25","75","3","9","10","40","30","120","45","18","[""White""]","No","Female","3062385","","","","","","","","","","","","","","","","","","","","","","","","","","","","","","","",""
"","","","","","survey-html-form","1","2544","0.0-1.0","2d_cat_multi_stim_exp1","2022-4-19","14:57:11","25","75","3","9","10","40","30","120","45","18","[""White""]","No","Female","3062385","2483","{""response"":""45""}","enter-sub-number","","","","","","","","","","","","","","","","","","","","","","","","","","","","",""
"true","","","","","fullscreen","2","6628","0.0-2.0","2d_cat_multi_stim_exp1","2022-4-19","14:57:11","25","75","3","9","10","40","30","120","45","18","[""White""]","No","Female","3062385","","","","","","","","","","","","","","","","","","","","","","","","","","","","","","","",""
"","","","","","image-button-response","3","1078429","0.0-3.0","2d_cat_multi_stim_exp1","2022-4-19","14:57:11","25","75","3","9","10","40","30","120","45","18","[""White""]","No","Female","3062385","1071793","0","","consent.png","","","","","","","","","","","","","","","","","","","","","","","","","","","",""
"","","","","","html-button-response","4","1083525","0.0-4.0","2d_cat_multi_stim_exp1","2022-4-19","14:57:11","25","75","3","9","10","40","30","120","45","18","[""White""]","No","Female","3062385","5091","0","","<div style= ""font-size:25px;"" <p> <strong> Welcome to the experiment! </strong><br> <p style=""color:#8B0000; font-size:25px;""><strong> Please do NOT exit full screen until you are done with the experiment. </strong> </p><p style=""font-size:25px;color:#8B0000;""> <strong> The experiment will be canceled and your data will be lost <br> if you try to go back or refresh the page at any point during the experiment.</strong> </p><br><p> <strong> Thanks in advance for your contribution to our research! </strong></p>","","","","","","","","","","","","","","","","","","","","","","","","","","","",""
"","","","","","instructions","5","1116789","0.0-5.0","2d_cat_multi_stim_exp1","2022-4-19","14:57:11","25","75","3","9","10","40","30","120","45","18","[""White""]","No","Female","3062385","33260","","","","[{""page_index"":0,""viewing_time"":3819},{""page_index"":1,""viewing_time"":2328},{""page_index"":2,""viewing_time"":7008},{""page_index"":3,""viewing_time"":20104}]","instructions_1","","","","","","","","","","","","","","","","","","","","","","","","","",""
"","","","","","instructions","6","1118421","0.0-6.0","2d_cat_multi_stim_exp1","2022-4-19","14:57:11","25","75","3","9","10","40","30","120","45","18","[""White""]","No","Female","3062385","1630","","","","[{""page_index"":0,""viewing_time"":1629}]","Click to see the kinds of turtles that will appear in the study.","","","","","","","","","","","","","","","","","","","","","","","","","",""
"","","","","","canvas-keyboard-response","7","1133444","0.0-7.0","2d_cat_multi_stim_exp1","2022-4-19","14:57:11","25","75","3","9","10","40","30","120","45","18","[""White""]","No","Female","3062385","null","null","","","","demo_range","","","","","","","","","","","","","","","","","","","","","","","","","",""
"","","","","","instructions","8","1136477","0.0-8.0","2d_cat_multi_stim_exp1","2022-4-19","14:57:11","25","75","3","9","10","40","30","120","45","18","[""White""]","No","Female","3062385","2531","","","","[{""page_index"":0,""viewing_time"":2531}]","Click to see some turtles in the subspecies.","","","","","","","","","","","","","","","","","","","","","","","","","",""
"","","","","","canvas-keyboard-response","9","1151497","0.0-9.0","2d_cat_multi_stim_exp1","2022-4-19","14:57:11","25","75","3","9","10","40","30","120","45","18","[""White""]","No","Female","3062385","null","null","","","","demo_in","","","","","","","","","","","","","","","","","","","","","","","","","",""
"","","","","","instructions","10","1182084","0.0-10.0","2d_cat_multi_stim_exp1","2022-4-19","14:57:11","25","75","3","9","10","40","30","120","45","18","[""White""]","No","Female","3062385","30086","","","","[{""page_index"":0,""viewing_time"":6061},{""page_index"":1,""viewing_time"":16248},{""page_index"":2,""viewing_time"":7777}]","instructions_2","","","","","","","","","","","","","","","","","","","","","","","","","",""
"","","","","","instructions","11","1183733","0.0-11.0","2d_cat_multi_stim_exp1","2022-4-19","14:57:11","25","75","3","9","10","40","30","120","45","18","[""White""]","No","Female","3062385","1645","","","","[{""page_index"":0,""viewing_time"":1645}]","Click to begin the first phase of the experiment.","","","","","","","","","","","","","","","","","","","","","","","","","",""
"","","","","","canvas-keyboard-response","12","1184243","0.0-12.0-0.0","2d_cat_multi_stim_exp1","2022-4-19","14:57:11","25","75","3","9","10","40","30","120","45","18","[""White""]","No","Female","3062385","null","null","","","","fixation","","","","","","","","","","","","","","","","","","","","","","","","","",""
"","","","","","canvas-keyboard-response","13","1184753","0.0-12.0-1.0","2d_cat_multi_stim_exp1","2022-4-19","14:57:11","25","75","3","9","10","40","30","120","45","18","[""White""]","No","Female","3062385","null","null","","","","clear_screen","","","","","","","","","","","","","","","","","","","","","","","","","",""
"","","","","","canvas-keyboard-response","14","1187450","0.0-12.0-2.0","2d_cat_multi_stim_exp1","2022-4-19","14:57:11","25","75","3","9","10","40","30","120","45","18","[""White""]","No","Female","3062385","2687","u","learn","","","learn_trial","25","75","in","1","1","","","","","","","","","","","","","","","","","","","","",""
"","","","","","canvas-keyboard-response","15","1187964","0.0-12.0-3.0","2d_cat_multi_stim_exp1","2022-4-19","14:57:11","25","75","3","9","10","40","30","120","45","18","[""White""]","No","Female","3062385","null","null","learn_feedback","","","learn_feedback","25","75","in","","","","","","","","","","","","","","","","","","","","","","",""
"","","","","","canvas-keyboard-response","16","1188024","0.0-12.0-4.0","2d_cat_multi_stim_exp1","2022-4-19","14:57:11","25","75","3","9","10","40","30","120","45","18","[""White""]","No","Female","3062385","null","null","","","","clear_screen","","","","","","","","","","","","","","","","","","","","","","","","","",""
"","","","","","canvas-keyboard-response","17","1188533","0.0-12.0-0.1","2d_cat_multi_stim_exp1","2022-4-19","14:57:11","25","75","3","9","10","40","30","120","45","18","[""White""]","No","Female","3062385","null","null","","","","fixation","","","","","","","","","","","","","","","","","","","","","","","","","",""
"","","","","","canvas-keyboard-response","18","1189043","0.0-12.0-1.1","2d_cat_multi_stim_exp1","2022-4-19","14:57:11","25","75","3","9","10","40","30","120","45","18","[""White""]","No","Female","3062385","null","null","","","","clear_screen","","","","","","","","","","","","","","","","","","","","","","","","","",""
"","","","","","canvas-keyboard-response","19","1190746","0.0-12.0-2.1","2d_cat_multi_stim_exp1","2022-4-19","14:57:11","25","75","3","9","10","40","30","120","45","18","[""White""]","No","Female","3062385","1694","i","learn","","","learn_trial","20","50","out","0","1","","","","","","","","","","","","","","","","","","","","",""
"","","","","","canvas-keyboard-response","20","1191256","0.0-12.0-3.1","2d_cat_multi_stim_exp1","2022-4-19","14:57:11","25","75","3","9","10","40","30","120","45","18","[""White""]","No","Female","3062385","null","null","learn_feedback","","","learn_feedback","20","50","out","","","","","","","","","","","","","","","","","","","","","","",""
"","","","","","canvas-keyboard-response","21","1191317","0.0-12.0-4.1","2d_cat_multi_stim_exp1","2022-4-19","14:57:11","25","75","3","9","10","40","30","120","45","18","[""White""]","No","Female","3062385","null","null","","","","clear_screen","","","","","","","","","","","","","","","","","","","","","","","","","",""
"","","","","","canvas-keyboard-response","22","1191826","0.0-12.0-0.2","2d_cat_multi_stim_exp1","2022-4-19","14:57:11","25","75","3","9","10","40","30","120","45","18","[""White""]","No","Female","3062385","null","null","","","","fixation","","","","","","","","","","","","","","","","","","","","","","","","","",""
"","","","","","canvas-keyboard-response","23","1192336","0.0-12.0-1.2","2d_cat_multi_stim_exp1","2022-4-19","14:57:11","25","75","3","9","10","40","30","120","45","18","[""White""]","No","Female","3062385","null","null","","","","clear_screen","","","","","","","","","","","","","","","","","","","","","","","","","",""
"","","","","","canvas-keyboard-response","24","1193313","0.0-12.0-2.2","2d_cat_multi_stim_exp1","2022-4-19","14:57:11","25","75","3","9","10","40","30","120","45","18","[""White""]","No","Female","3062385","969","u","learn","","","learn_trial","22.5729","80.2901","in","1","1","","","","","","","","","","","","","","","","","","","","",""
"","","","","","canvas-keyboard-response","25","1193824","0.0-12.0-3.2","2d_cat_multi_stim_exp1","2022-4-19","14:57:11","25","75","3","9","10","40","30","120","45","18","[""White""]","No","Female","3062385","null","null","learn_feedback","","","learn_feedback","22.5729","80.2901","in","","","","","","","","","","","","","","","","","","","","","","",""
"","","","","","canvas-keyboard-response","26","1193884","0.0-12.0-4.2","2d_cat_multi_stim_exp1","2022-4-19","14:57:11","25","75","3","9","10","40","30","120","45","18","[""White""]","No","Female","3062385","null","null","","","","clear_screen","","","","","","","","","","","","","","","","","","","","","","","","","",""
"","","","","","canvas-keyboard-response","27","1194394","0.0-12.0-0.3","2d_cat_multi_stim_exp1","2022-4-19","14:57:11","25","75","3","9","10","40","30","120","45","18","[""White""]","No","Female","3062385","null","null","","","","fixation","","","","","","","","","","","","","","","","","","","","","","","","","",""
"","","","","","canvas-keyboard-response","28","1194903","0.0-12.0-1.3","2d_cat_multi_stim_exp1","2022-4-19","14:57:11","25","75","3","9","10","40","30","120","45","18","[""White""]","No","Female","3062385","null","null","","","","clear_screen","","","","","","","","","","","","","","","","","","","","","","","","","",""
"","","","","","canvas-keyboard-response","29","1196018","0.0-12.0-2.3","2d_cat_multi_stim_exp1","2022-4-19","14:57:11","25","75","3","9","10","40","30","120","45","18","[""White""]","No","Female","3062385","1103","i","learn","","","learn_trial","10","100","out","0","1","","","","","","","","","","","","","","","","","","","","",""
"","","","","","canvas-keyboard-response","30","1196528","0.0-12.0-3.3","2d_cat_multi_stim_exp1","2022-4-19","14:57:11","25","75","3","9","10","40","30","120","45","18","[""White""]","No","Female","3062385","null","null","learn_feedback","","","learn_feedback","10","100","out","","","","","","","","","","","","","","","","","","","","","","",""
"","","","","","canvas-keyboard-response","31","1196587","0.0-12.0-4.3","2d_cat_multi_stim_exp1","2022-4-19","14:57:11","25","75","3","9","10","40","30","120","45","18","[""White""]","No","Female","3062385","null","null","","","","clear_screen","","","","","","","","","","","","","","","","","","","","","","","","","",""
"","","","","","canvas-keyboard-response","32","1197097","0.0-12.0-0.4","2d_cat_multi_stim_exp1","2022-4-19","14:57:11","25","75","3","9","10","40","30","120","45","18","[""White""]","No","Female","3062385","null","null","","","","fixation","","","","","","","","","","","","","","","","","","","","","","","","","",""
"","","","","","canvas-keyboard-response","33","1197607","0.0-12.0-1.4","2d_cat_multi_stim_exp1","2022-4-19","14:57:11","25","75","3","9","10","40","30","120","45","18","[""White""]","No","Female","3062385","null","null","","","","clear_screen","","","","","","","","","","","","","","","","","","","","","","","","","",""
"","","","","","canvas-keyboard-response","34","1200042","0.0-12.0-2.4","2d_cat_multi_stim_exp1","2022-4-19","14:57:11","25","75","3","9","10","40","30","120","45","18","[""White""]","No","Female","3062385","2426","u","learn","","","learn_trial","26.6667","70","out","1","0","","","","","","","","","","","","","","","","","","","","",""
"","","","","","canvas-keyboard-response","35","1201053","0.0-12.0-3.4","2d_cat_multi_stim_exp1","2022-4-19","14:57:11","25","75","3","9","10","40","30","120","45","18","[""White""]","No","Female","3062385","null","null","learn_feedback","","","learn_feedback","26.6667","70","out","","","","","","","","","","","","","","","","","","","","","","",""
"","","","","","canvas-keyboard-response","36","1201111","0.0-12.0-4.4","2d_cat_multi_stim_exp1","2022-4-19","14:57:11","25","75","3","9","10","40","30","120","45","18","[""White""]","No","Female","3062385","null","null","","","","clear_screen","","","","","","","","","","","","","","","","","","","","","","","","","",""
"","","","","","canvas-keyboard-response","37","1201620","0.0-12.0-0.5","2d_cat_multi_stim_exp1","2022-4-19","14:57:11","25","75","3","9","10","40","30","120","45","18","[""White""]","No","Female","3062385","null","null","","","","fixation","","","","","","","","","","","","","","","","","","","","","","","","","",""
"","","","","","canvas-keyboard-response","38","1202131","0.0-12.0-1.5","2d_cat_multi_stim_exp1","2022-4-19","14:57:11","25","75","3","9","10","40","30","120","45","18","[""White""]","No","Female","3062385","null","null","","","","clear_screen","","","","","","","","","","","","","","","","","","","","","","","","","",""
"","","","","","canvas-keyboard-response","39","1204114","0.0-12.0-2.5","2d_cat_multi_stim_exp1","2022-4-19","14:57:11","25","75","3","9","10","40","30","120","45","18","[""White""]","No","Female","3062385","1974","i","learn","","","learn_trial","22.2971","78.905","in","0","0","","","","","","","","","","","","","","","","","","","","",""
"","","","","","canvas-keyboard-response","40","1205124","0.0-12.0-3.5","2d_cat_multi_stim_exp1","2022-4-19","14:57:11","25","75","3","9","10","40","30","120","45","18","[""White""]","No","Female","3062385","null","null","learn_feedback","","","learn_feedback","22.2971","78.905","in","","","","","","","","","","","","","","","","","","","","","","",""
"","","","","","canvas-keyboard-response","41","1205183","0.0-12.0-4.5","2d_cat_multi_stim_exp1","2022-4-19","14:57:11","25","75","3","9","10","40","30","120","45","18","[""White""]","No","Female","3062385","null","null","","","","clear_screen","","","","","","","","","","","","","","","","","","","","","","","","","",""
"","","","","","canvas-keyboard-response","42","1205692","0.0-12.0-0.6","2d_cat_multi_stim_exp1","2022-4-19","14:57:11","25","75","3","9","10","40","30","120","45","18","[""White""]","No","Female","3062385","null","null","","","","fixation","","","","","","","","","","","","","","","","","","","","","","","","","",""
"","","","","","canvas-keyboard-response","43","1206205","0.0-12.0-1.6","2d_cat_multi_stim_exp1","2022-4-19","14:57:11","25","75","3","9","10","40","30","120","45","18","[""White""]","No","Female","3062385","null","null","","","","clear_screen","","","","","","","","","","","","","","","","","","","","","","","","","",""
"","","","","","canvas-keyboard-response","44","1207242","0.0-12.0-2.6","2d_cat_multi_stim_exp1","2022-4-19","14:57:11","25","75","3","9","10","40","30","120","45","18","[""White""]","No","Female","3062385","1029","i","learn","","","learn_trial","10","120","out","0","1","","","","","","","","","","","","","","","","","","","","",""
"","","","","","canvas-keyboard-response","45","1207753","0.0-12.0-3.6","2d_cat_multi_stim_exp1","2022-4-19","14:57:11","25","75","3","9","10","40","30","120","45","18","[""White""]","No","Female","3062385","null","null","learn_feedback","","","learn_feedback","10","120","out","","","","","","","","","","","","","","","","","","","","","","",""
"","","","","","canvas-keyboard-response","46","1207812","0.0-12.0-4.6","2d_cat_multi_stim_exp1","2022-4-19","14:57:11","25","75","3","9","10","40","30","120","45","18","[""White""]","No","Female","3062385","null","null","","","","clear_screen","","","","","","","","","","","","","","","","","","","","","","","","","",""
"","","","","","canvas-keyboard-response","47","1208320","0.0-12.0-0.7","2d_cat_multi_stim_exp1","2022-4-19","14:57:11","25","75","3","9","10","40","30","120","45","18","[""White""]","No","Female","3062385","null","null","","","","fixation","","","","","","","","","","","","","","","","","","","","","","","","","",""
"","","","","","canvas-keyboard-response","48","1208830","0.0-12.0-1.7","2d_cat_multi_stim_exp1","2022-4-19","14:57:11","25","75","3","9","10","40","30","120","45","18","[""White""]","No","Female","3062385","null","null","","","","clear_screen","","","","","","","","","","","","","","","","","","","","","","","","","",""
"","","","","","canvas-keyboard-response","49","1210274","0.0-12.0-2.7","2d_cat_multi_stim_exp1","2022-4-19","14:57:11","25","75","3","9","10","40","30","120","45","18","[""White""]","No","Female","3062385","1435","i","learn","","","learn_trial","25","75","in","0","0","","","","","","","","","","","","","","","","","","","","",""
"","","","","","canvas-keyboard-response","50","1211284","0.0-12.0-3.7","2d_cat_multi_stim_exp1","2022-4-19","14:57:11","25","75","3","9","10","40","30","120","45","18","[""White""]","No","Female","3062385","null","null","learn_feedback","","","learn_feedback","25","75","in","","","","","","","","","","","","","","","","","","","","","","",""
"","","","","","canvas-keyboard-response","51","1211343","0.0-12.0-4.7","2d_cat_multi_stim_exp1","2022-4-19","14:57:11","25","75","3","9","10","40","30","120","45","18","[""White""]","No","Female","3062385","null","null","","","","clear_screen","","","","","","","","","","","","","","","","","","","","","","","","","",""
"","","","","","canvas-keyboard-response","52","1211852","0.0-12.0-0.8","2d_cat_multi_stim_exp1","2022-4-19","14:57:11","25","75","3","9","10","40","30","120","45","18","[""White""]","No","Female","3062385","null","null","","","","fixation","","","","","","","","","","","","","","","","","","","","","","","","","",""
"","","","","","canvas-keyboard-response","53","1212362","0.0-12.0-1.8","2d_cat_multi_stim_exp1","2022-4-19","14:57:11","25","75","3","9","10","40","30","120","45","18","[""White""]","No","Female","3062385","null","null","","","","clear_screen","","","","","","","","","","","","","","","","","","","","","","","","","",""
"","","","","","canvas-keyboard-response","54","1214042","0.0-12.0-2.8","2d_cat_multi_stim_exp1","2022-4-19","14:57:11","25","75","3","9","10","40","30","120","45","18","[""White""]","No","Female","3062385","1671","u","learn","","","learn_trial","22.2971","71.095","in","1","1","","","","","","","","","","","","","","","","","","","","",""
"","","","","","canvas-keyboard-response","55","1214551","0.0-12.0-3.8","2d_cat_multi_stim_exp1","2022-4-19","14:57:11","25","75","3","9","10","40","30","120","45","18","[""White""]","No","Female","3062385","null","null","learn_feedback","","","learn_feedback","22.2971","71.095","in","","","","","","","","","","","","","","","","","","","","","","",""
"","","","","","canvas-keyboard-response","56","1214609","0.0-12.0-4.8","2d_cat_multi_stim_exp1","2022-4-19","14:57:11","25","75","3","9","10","40","30","120","45","18","[""White""]","No","Female","3062385","null","null","","","","clear_screen","","","","","","","","","","","","","","","","","","","","","","","","","",""
"","","","","","canvas-keyboard-response","57","1215118","0.0-12.0-0.9","2d_cat_multi_stim_exp1","2022-4-19","14:57:11","25","75","3","9","10","40","30","120","45","18","[""White""]","No","Female","3062385","null","null","","","","fixation","","","","","","","","","","","","","","","","","","","","","","","","","",""
"","","","","","canvas-keyboard-response","58","1215630","0.0-12.0-1.9","2d_cat_multi_stim_exp1","2022-4-19","14:57:11","25","75","3","9","10","40","30","120","45","18","[""White""]","No","Female","3062385","null","null","","","","clear_screen","","","","","","","","","","","","","","","","","","","","","","","","","",""
"","","","","","canvas-keyboard-response","59","1217530","0.0-12.0-2.9","2d_cat_multi_stim_exp1","2022-4-19","14:57:11","25","75","3","9","10","40","30","120","45","18","[""White""]","No","Female","3062385","1888","u","learn","","","learn_trial","26.6667","110","out","1","0","","","","","","","","","","","","","","","","","","","","",""
"","","","","","canvas-keyboard-response","60","1218542","0.0-12.0-3.9","2d_cat_multi_stim_exp1","2022-4-19","14:57:11","25","75","3","9","10","40","30","120","45","18","[""White""]","No","Female","3062385","null","null","learn_feedback","","","learn_feedback","26.6667","110","out","","","","","","","","","","","","","","","","","","","","","","",""
"","","","","","canvas-keyboard-response","61","1218602","0.0-12.0-4.9","2d_cat_multi_stim_exp1","2022-4-19","14:57:11","25","75","3","9","10","40","30","120","45","18","[""White""]","No","Female","3062385","null","null","","","","clear_screen","","","","","","","","","","","","","","","","","","","","","","","","","",""
"","","","","","canvas-keyboard-response","62","1219112","0.0-12.0-0.10","2d_cat_multi_stim_exp1","2022-4-19","14:57:11","25","75","3","9","10","40","30","120","45","18","[""White""]","No","Female","3062385","null","null","","","","fixation","","","","","","","","","","","","","","","","","","","","","","","","","",""
"","","","","","canvas-keyboard-response","63","1219622","0.0-12.0-1.10","2d_cat_multi_stim_exp1","2022-4-19","14:57:11","25","75","3","9","10","40","30","120","45","18","[""White""]","No","Female","3062385","null","null","","","","clear_screen","","","","","","","","","","","","","","","","","","","","","","","","","",""
"","","","","","canvas-keyboard-response","64","1221554","0.0-12.0-2.10","2d_cat_multi_stim_exp1","2022-4-19","14:57:11","25","75","3","9","10","40","30","120","45","18","[""White""]","No","Female","3062385","1921","u","learn","","","learn_trial","30","100","out","1","0","","","","","","","","","","","","","","","","","","","","",""
"","","","","","canvas-keyboard-response","65","1222565","0.0-12.0-3.10","2d_cat_multi_stim_exp1","2022-4-19","14:57:11","25","75","3","9","10","40","30","120","45","18","[""White""]","No","Female","3062385","null","null","learn_feedback","","","learn_feedback","30","100","out","","","","","","","","","","","","","","","","","","","","","","",""
"","","","","","canvas-keyboard-response","66","1222624","0.0-12.0-4.10","2d_cat_multi_stim_exp1","2022-4-19","14:57:11","25","75","3","9","10","40","30","120","45","18","[""White""]","No","Female","3062385","null","null","","","","clear_screen","","","","","","","","","","","","","","","","","","","","","","","","","",""
"","","","","","canvas-keyboard-response","67","1223135","0.0-12.0-0.11","2d_cat_multi_stim_exp1","2022-4-19","14:57:11","25","75","3","9","10","40","30","120","45","18","[""White""]","No","Female","3062385","null","null","","","","fixation","","","","","","","","","","","","","","","","","","","","","","","","","",""
"","","","","","canvas-keyboard-response","68","1223646","0.0-12.0-1.11","2d_cat_multi_stim_exp1","2022-4-19","14:57:11","25","75","3","9","10","40","30","120","45","18","[""White""]","No","Female","3062385","null","null","","","","clear_screen","","","","","","","","","","","","","","","","","","","","","","","","","",""
"","","","","","canvas-keyboard-response","69","1225650","0.0-12.0-2.11","2d_cat_multi_stim_exp1","2022-4-19","14:57:11","25","75","3","9","10","40","30","120","45","18","[""White""]","No","Female","3062385","1994","i","learn","","","learn_trial","40","70","out","0","1","","","","","","","","","","","","","","","","","","","","",""
"","","","","","canvas-keyboard-response","70","1226160","0.0-12.0-3.11","2d_cat_multi_stim_exp1","2022-4-19","14:57:11","25","75","3","9","10","40","30","120","45","18","[""White""]","No","Female","3062385","null","null","learn_feedback","","","learn_feedback","40","70","out","","","","","","","","","","","","","","","","","","","","","","",""
"","","","","","canvas-keyboard-response","71","1226219","0.0-12.0-4.11","2d_cat_multi_stim_exp1","2022-4-19","14:57:11","25","75","3","9","10","40","30","120","45","18","[""White""]","No","Female","3062385","null","null","","","","clear_screen","","","","","","","","","","","","","","","","","","","","","","","","","",""
"","","","","","canvas-keyboard-response","72","1226729","0.0-12.0-0.12","2d_cat_multi_stim_exp1","2022-4-19","14:57:11","25","75","3","9","10","40","30","120","45","18","[""White""]","No","Female","3062385","null","null","","","","fixation","","","","","","","","","","","","","","","","","","","","","","","","","",""
"","","","","","canvas-keyboard-response","73","1227239","0.0-12.0-1.12","2d_cat_multi_stim_exp1","2022-4-19","14:57:11","25","75","3","9","10","40","30","120","45","18","[""White""]","No","Female","3062385","null","null","","","","clear_screen","","","","","","","","","","","","","","","","","","","","","","","","","",""
"","","","","","canvas-keyboard-response","74","1228827","0.0-12.0-2.12","2d_cat_multi_stim_exp1","2022-4-19","14:57:11","25","75","3","9","10","40","30","120","45","18","[""White""]","No","Female","3062385","1577","u","learn","","","learn_trial","24.3324","66.2256","in","1","1","","","","","","","","","","","","","","","","","","","","",""
"","","","","","canvas-keyboard-response","75","1229336","0.0-12.0-3.12","2d_cat_multi_stim_exp1","2022-4-19","14:57:11","25","75","3","9","10","40","30","120","45","18","[""White""]","No","Female","3062385","null","null","learn_feedback","","","learn_feedback","24.3324","66.2256","in","","","","","","","","","","","","","","","","","","","","","","",""
"","","","","","canvas-keyboard-response","76","1229396","0.0-12.0-4.12","2d_cat_multi_stim_exp1","2022-4-19","14:57:11","25","75","3","9","10","40","30","120","45","18","[""White""]","No","Female","3062385","null","null","","","","clear_screen","","","","","","","","","","","","","","","","","","","","","","","","","",""
"","","","","","canvas-keyboard-response","77","1229904","0.0-12.0-0.13","2d_cat_multi_stim_exp1","2022-4-19","14:57:11","25","75","3","9","10","40","30","120","45","18","[""White""]","No","Female","3062385","null","null","","","","fixation","","","","","","","","","","","","","","","","","","","","","","","","","",""
"","","","","","canvas-keyboard-response","78","1230414","0.0-12.0-1.13","2d_cat_multi_stim_exp1","2022-4-19","14:57:11","25","75","3","9","10","40","30","120","45","18","[""White""]","No","Female","3062385","null","null","","","","clear_screen","","","","","","","","","","","","","","","","","","","","","","","","","",""
"","","","","","canvas-keyboard-response","79","1233170","0.0-12.0-2.13","2d_cat_multi_stim_exp1","2022-4-19","14:57:11","25","75","3","9","10","40","30","120","45","18","[""White""]","No","Female","3062385","2747","i","learn","","","learn_trial","26.6667","100","out","0","1","","","","","","","","","","","","","","","","","","","","",""
"","","","","","canvas-keyboard-response","80","1233680","0.0-12.0-3.13","2d_cat_multi_stim_exp1","2022-4-19","14:57:11","25","75","3","9","10","40","30","120","45","18","[""White""]","No","Female","3062385","null","null","learn_feedback","","","learn_feedback","26.6667","100","out","","","","","","","","","","","","","","","","","","","","","","",""
"","","","","","canvas-keyboard-response","81","1233738","0.0-12.0-4.13","2d_cat_multi_stim_exp1","2022-4-19","14:57:11","25","75","3","9","10","40","30","120","45","18","[""White""]","No","Female","3062385","null","null","","","","clear_screen","","","","","","","","","","","","","","","","","","","","","","","","","",""
"","","","","","canvas-keyboard-response","82","1234247","0.0-12.0-0.14","2d_cat_multi_stim_exp1","2022-4-19","14:57:11","25","75","3","9","10","40","30","120","45","18","[""White""]","No","Female","3062385","null","null","","","","fixation","","","","","","","","","","","","","","","","","","","","","","","","","",""
"","","","","","canvas-keyboard-response","83","1234757","0.0-12.0-1.14","2d_cat_multi_stim_exp1","2022-4-19","14:57:11","25","75","3","9","10","40","30","120","45","18","[""White""]","No","Female","3062385","null","null","","","","clear_screen","","","","","","","","","","","","","","","","","","","","","","","","","",""
"","","","","","canvas-keyboard-response","84","1237226","0.0-12.0-2.14","2d_cat_multi_stim_exp1","2022-4-19","14:57:11","25","75","3","9","10","40","30","120","45","18","[""White""]","No","Female","3062385","2459","u","learn","","","learn_trial","25","75","in","1","1","","","","","","","","","","","","","","","","","","","","",""
"","","","","","canvas-keyboard-response","85","1237736","0.0-12.0-3.14","2d_cat_multi_stim_exp1","2022-4-19","14:57:11","25","75","3","9","10","40","30","120","45","18","[""White""]","No","Female","3062385","null","null","learn_feedback","","","learn_feedback","25","75","in","","","","","","","","","","","","","","","","","","","","","","",""
"","","","","","canvas-keyboard-response","86","1237795","0.0-12.0-4.14","2d_cat_multi_stim_exp1","2022-4-19","14:57:11","25","75","3","9","10","40","30","120","45","18","[""White""]","No","Female","3062385","null","null","","","","clear_screen","","","","","","","","","","","","","","","","","","","","","","","","","",""
"","","","","","canvas-keyboard-response","87","1238303","0.0-12.0-0.15","2d_cat_multi_stim_exp1","2022-4-19","14:57:11","25","75","3","9","10","40","30","120","45","18","[""White""]","No","Female","3062385","null","null","","","","fixation","","","","","","","","","","","","","","","","","","","","","","","","","",""
"","","","","","canvas-keyboard-response","88","1238813","0.0-12.0-1.15","2d_cat_multi_stim_exp1","2022-4-19","14:57:11","25","75","3","9","10","40","30","120","45","18","[""White""]","No","Female","3062385","null","null","","","","clear_screen","","","","","","","","","","","","","","","","","","","","","","","","","",""
"","","","","","canvas-keyboard-response","89","1241450","0.0-12.0-2.15","2d_cat_multi_stim_exp1","2022-4-19","14:57:11","25","75","3","9","10","40","30","120","45","18","[""White""]","No","Female","3062385","2627","u","learn","","","learn_trial","25","75","in","1","1","","","","","","","","","","","","","","","","","","","","",""
"","","","","","canvas-keyboard-response","90","1241959","0.0-12.0-3.15","2d_cat_multi_stim_exp1","2022-4-19","14:57:11","25","75","3","9","10","40","30","120","45","18","[""White""]","No","Female","3062385","null","null","learn_feedback","","","learn_feedback","25","75","in","","","","","","","","","","","","","","","","","","","","","","",""
"","","","","","canvas-keyboard-response","91","1242018","0.0-12.0-4.15","2d_cat_multi_stim_exp1","2022-4-19","14:57:11","25","75","3","9","10","40","30","120","45","18","[""White""]","No","Female","3062385","null","null","","","","clear_screen","","","","","","","","","","","","","","","","","","","","","","","","","",""
"","","","","","canvas-keyboard-response","92","1242527","0.0-12.0-0.16","2d_cat_multi_stim_exp1","2022-4-19","14:57:11","25","75","3","9","10","40","30","120","45","18","[""White""]","No","Female","3062385","null","null","","","","fixation","","","","","","","","","","","","","","","","","","","","","","","","","",""
"","","","","","canvas-keyboard-response","93","1243036","0.0-12.0-1.16","2d_cat_multi_stim_exp1","2022-4-19","14:57:11","25","75","3","9","10","40","30","120","45","18","[""White""]","No","Female","3062385","null","null","","","","clear_screen","","","","","","","","","","","","","","","","","","","","","","","","","",""
"","","","","","canvas-keyboard-response","94","1244849","0.0-12.0-2.16","2d_cat_multi_stim_exp1","2022-4-19","14:57:11","25","75","3","9","10","40","30","120","45","18","[""White""]","No","Female","3062385","1804","u","learn","","","learn_trial","25","75","in","1","1","","","","","","","","","","","","","","","","","","","","",""
"","","","","","canvas-keyboard-response","95","1245359","0.0-12.0-3.16","2d_cat_multi_stim_exp1","2022-4-19","14:57:11","25","75","3","9","10","40","30","120","45","18","[""White""]","No","Female","3062385","null","null","learn_feedback","","","learn_feedback","25","75","in","","","","","","","","","","","","","","","","","","","","","","",""
"","","","","","canvas-keyboard-response","96","1245418","0.0-12.0-4.16","2d_cat_multi_stim_exp1","2022-4-19","14:57:11","25","75","3","9","10","40","30","120","45","18","[""White""]","No","Female","3062385","null","null","","","","clear_screen","","","","","","","","","","","","","","","","","","","","","","","","","",""
"","","","","","canvas-keyboard-response","97","1245927","0.0-12.0-0.17","2d_cat_multi_stim_exp1","2022-4-19","14:57:11","25","75","3","9","10","40","30","120","45","18","[""White""]","No","Female","3062385","null","null","","","","fixation","","","","","","","","","","","","","","","","","","","","","","","","","",""
"","","","","","canvas-keyboard-response","98","1246436","0.0-12.0-1.17","2d_cat_multi_stim_exp1","2022-4-19","14:57:11","25","75","3","9","10","40","30","120","45","18","[""White""]","No","Female","3062385","null","null","","","","clear_screen","","","","","","","","","","","","","","","","","","","","","","","","","",""
"","","","","","canvas-keyboard-response","99","1248011","0.0-12.0-2.17","2d_cat_multi_stim_exp1","2022-4-19","14:57:11","25","75","3","9","10","40","30","120","45","18","[""White""]","No","Female","3062385","1562","u","learn","","","learn_trial","23.3333","70","out","1","0","","","","","","","","","","","","","","","","","","","","",""
"","","","","","canvas-keyboard-response","100","1249024","0.0-12.0-3.17","2d_cat_multi_stim_exp1","2022-4-19","14:57:11","25","75","3","9","10","40","30","120","45","18","[""White""]","No","Female","3062385","null","null","learn_feedback","","","learn_feedback","23.3333","70","out","","","","","","","","","","","","","","","","","","","","","","",""
"","","","","","canvas-keyboard-response","101","1249085","0.0-12.0-4.17","2d_cat_multi_stim_exp1","2022-4-19","14:57:11","25","75","3","9","10","40","30","120","45","18","[""White""]","No","Female","3062385","null","null","","","","clear_screen","","","","","","","","","","","","","","","","","","","","","","","","","",""
"","","","","","canvas-keyboard-response","102","1249596","0.0-12.0-0.18","2d_cat_multi_stim_exp1","2022-4-19","14:57:11","25","75","3","9","10","40","30","120","45","18","[""White""]","No","Female","3062385","null","null","","","","fixation","","","","","","","","","","","","","","","","","","","","","","","","","",""
"","","","","","canvas-keyboard-response","103","1250107","0.0-12.0-1.18","2d_cat_multi_stim_exp1","2022-4-19","14:57:11","25","75","3","9","10","40","30","120","45","18","[""White""]","No","Female","3062385","null","null","","","","clear_screen","","","","","","","","","","","","","","","","","","","","","","","","","",""
"","","","","","canvas-keyboard-response","104","1251313","0.0-12.0-2.18","2d_cat_multi_stim_exp1","2022-4-19","14:57:11","25","75","3","9","10","40","30","120","45","18","[""White""]","No","Female","3062385","1198","i","learn","","","learn_trial","10","50","out","0","1","","","","","","","","","","","","","","","","","","","","",""
"","","","","","canvas-keyboard-response","105","1251823","0.0-12.0-3.18","2d_cat_multi_stim_exp1","2022-4-19","14:57:11","25","75","3","9","10","40","30","120","45","18","[""White""]","No","Female","3062385","null","null","learn_feedback","","","learn_feedback","10","50","out","","","","","","","","","","","","","","","","","","","","","","",""
"","","","","","canvas-keyboard-response","106","1251883","0.0-12.0-4.18","2d_cat_multi_stim_exp1","2022-4-19","14:57:11","25","75","3","9","10","40","30","120","45","18","[""White""]","No","Female","3062385","null","null","","","","clear_screen","","","","","","","","","","","","","","","","","","","","","","","","","",""
"","","","","","canvas-keyboard-response","107","1252393","0.0-12.0-0.19","2d_cat_multi_stim_exp1","2022-4-19","14:57:11","25","75","3","9","10","40","30","120","45","18","[""White""]","No","Female","3062385","null","null","","","","fixation","","","","","","","","","","","","","","","","","","","","","","","","","",""
"","","","","","canvas-keyboard-response","108","1252905","0.0-12.0-1.19","2d_cat_multi_stim_exp1","2022-4-19","14:57:11","25","75","3","9","10","40","30","120","45","18","[""White""]","No","Female","3062385","null","null","","","","clear_screen","","","","","","","","","","","","","","","","","","","","","","","","","",""
"","","","","","canvas-keyboard-response","109","1255898","0.0-12.0-2.19","2d_cat_multi_stim_exp1","2022-4-19","14:57:11","25","75","3","9","10","40","30","120","45","18","[""White""]","No","Female","3062385","2983","u","learn","","","learn_trial","30","80","out","1","0","","","","","","","","","","","","","","","","","","","","",""
"","","","","","canvas-keyboard-response","110","1256909","0.0-12.0-3.19","2d_cat_multi_stim_exp1","2022-4-19","14:57:11","25","75","3","9","10","40","30","120","45","18","[""White""]","No","Female","3062385","null","null","learn_feedback","","","learn_feedback","30","80","out","","","","","","","","","","","","","","","","","","","","","","",""
"","","","","","canvas-keyboard-response","111","1256968","0.0-12.0-4.19","2d_cat_multi_stim_exp1","2022-4-19","14:57:11","25","75","3","9","10","40","30","120","45","18","[""White""]","No","Female","3062385","null","null","","","","clear_screen","","","","","","","","","","","","","","","","","","","","","","","","","",""
"","","","","","canvas-keyboard-response","112","1257478","0.0-12.0-0.20","2d_cat_multi_stim_exp1","2022-4-19","14:57:11","25","75","3","9","10","40","30","120","45","18","[""White""]","No","Female","3062385","null","null","","","","fixation","","","","","","","","","","","","","","","","","","","","","","","","","",""
"","","","","","canvas-keyboard-response","113","1257987","0.0-12.0-1.20","2d_cat_multi_stim_exp1","2022-4-19","14:57:11","25","75","3","9","10","40","30","120","45","18","[""White""]","No","Female","3062385","null","null","","","","clear_screen","","","","","","","","","","","","","","","","","","","","","","","","","",""
"","","","","","canvas-keyboard-response","114","1258938","0.0-12.0-2.20","2d_cat_multi_stim_exp1","2022-4-19","14:57:11","25","75","3","9","10","40","30","120","45","18","[""White""]","No","Female","3062385","941","i","learn","","","learn_trial","20","110","out","0","1","","","","","","","","","","","","","","","","","","","","",""
"","","","","","canvas-keyboard-response","115","1259447","0.0-12.0-3.20","2d_cat_multi_stim_exp1","2022-4-19","14:57:11","25","75","3","9","10","40","30","120","45","18","[""White""]","No","Female","3062385","null","null","learn_feedback","","","learn_feedback","20","110","out","","","","","","","","","","","","","","","","","","","","","","",""
"","","","","","canvas-keyboard-response","116","1259507","0.0-12.0-4.20","2d_cat_multi_stim_exp1","2022-4-19","14:57:11","25","75","3","9","10","40","30","120","45","18","[""White""]","No","Female","3062385","null","null","","","","clear_screen","","","","","","","","","","","","","","","","","","","","","","","","","",""
"","","","","","canvas-keyboard-response","117","1260015","0.0-12.0-0.21","2d_cat_multi_stim_exp1","2022-4-19","14:57:11","25","75","3","9","10","40","30","120","45","18","[""White""]","No","Female","3062385","null","null","","","","fixation","","","","","","","","","","","","","","","","","","","","","","","","","",""
"","","","","","canvas-keyboard-response","118","1260525","0.0-12.0-1.21","2d_cat_multi_stim_exp1","2022-4-19","14:57:11","25","75","3","9","10","40","30","120","45","18","[""White""]","No","Female","3062385","null","null","","","","clear_screen","","","","","","","","","","","","","","","","","","","","","","","","","",""
"","","","","","canvas-keyboard-response","119","1262098","0.0-12.0-2.21","2d_cat_multi_stim_exp1","2022-4-19","14:57:11","25","75","3","9","10","40","30","120","45","18","[""White""]","No","Female","3062385","1562","i","learn","","","learn_trial","26.6667","120","out","0","1","","","","","","","","","","","","","","","","","","","","",""
"","","","","","canvas-keyboard-response","120","1262608","0.0-12.0-3.21","2d_cat_multi_stim_exp1","2022-4-19","14:57:11","25","75","3","9","10","40","30","120","45","18","[""White""]","No","Female","3062385","null","null","learn_feedback","","","learn_feedback","26.6667","120","out","","","","","","","","","","","","","","","","","","","","","","",""
"","","","","","canvas-keyboard-response","121","1262670","0.0-12.0-4.21","2d_cat_multi_stim_exp1","2022-4-19","14:57:11","25","75","3","9","10","40","30","120","45","18","[""White""]","No","Female","3062385","null","null","","","","clear_screen","","","","","","","","","","","","","","","","","","","","","","","","","",""
"","","","","","canvas-keyboard-response","122","1263176","0.0-12.0-0.22","2d_cat_multi_stim_exp1","2022-4-19","14:57:11","25","75","3","9","10","40","30","120","45","18","[""White""]","No","Female","3062385","null","null","","","","fixation","","","","","","","","","","","","","","","","","","","","","","","","","",""
"","","","","","canvas-keyboard-response","123","1263686","0.0-12.0-1.22","2d_cat_multi_stim_exp1","2022-4-19","14:57:11","25","75","3","9","10","40","30","120","45","18","[""White""]","No","Female","3062385","null","null","","","","clear_screen","","","","","","","","","","","","","","","","","","","","","","","","","",""
"","","","","","canvas-keyboard-response","124","1266753","0.0-12.0-2.22","2d_cat_multi_stim_exp1","2022-4-19","14:57:11","25","75","3","9","10","40","30","120","45","18","[""White""]","No","Female","3062385","3059","u","learn","","","learn_trial","25","75","in","1","1","","","","","","","","","","","","","","","","","","","","",""
"","","","","","canvas-keyboard-response","125","1267263","0.0-12.0-3.22","2d_cat_multi_stim_exp1","2022-4-19","14:57:11","25","75","3","9","10","40","30","120","45","18","[""White""]","No","Female","3062385","null","null","learn_feedback","","","learn_feedback","25","75","in","","","","","","","","","","","","","","","","","","","","","","",""
"","","","","","canvas-keyboard-response","126","1267322","0.0-12.0-4.22","2d_cat_multi_stim_exp1","2022-4-19","14:57:11","25","75","3","9","10","40","30","120","45","18","[""White""]","No","Female","3062385","null","null","","","","clear_screen","","","","","","","","","","","","","","","","","","","","","","","","","",""
"","","","","","canvas-keyboard-response","127","1267832","0.0-12.0-0.23","2d_cat_multi_stim_exp1","2022-4-19","14:57:11","25","75","3","9","10","40","30","120","45","18","[""White""]","No","Female","3062385","null","null","","","","fixation","","","","","","","","","","","","","","","","","","","","","","","","","",""
"","","","","","canvas-keyboard-response","128","1268341","0.0-12.0-1.23","2d_cat_multi_stim_exp1","2022-4-19","14:57:11","25","75","3","9","10","40","30","120","45","18","[""White""]","No","Female","3062385","null","null","","","","clear_screen","","","","","","","","","","","","","","","","","","","","","","","","","",""
"","","","","","canvas-keyboard-response","129","1270306","0.0-12.0-2.23","2d_cat_multi_stim_exp1","2022-4-19","14:57:11","25","75","3","9","10","40","30","120","45","18","[""White""]","No","Female","3062385","1955","i","learn","","","learn_trial","22.0121","75.8068","in","0","0","","","","","","","","","","","","","","","","","","","","",""
"","","","","","canvas-keyboard-response","130","1271316","0.0-12.0-3.23","2d_cat_multi_stim_exp1","2022-4-19","14:57:11","25","75","3","9","10","40","30","120","45","18","[""White""]","No","Female","3062385","null","null","learn_feedback","","","learn_feedback","22.0121","75.8068","in","","","","","","","","","","","","","","","","","","","","","","",""
"","","","","","canvas-keyboard-response","131","1271375","0.0-12.0-4.23","2d_cat_multi_stim_exp1","2022-4-19","14:57:11","25","75","3","9","10","40","30","120","45","18","[""White""]","No","Female","3062385","null","null","","","","clear_screen","","","","","","","","","","","","","","","","","","","","","","","","","",""
"","","","","","canvas-keyboard-response","132","1271884","0.0-12.0-0.24","2d_cat_multi_stim_exp1","2022-4-19","14:57:11","25","75","3","9","10","40","30","120","45","18","[""White""]","No","Female","3062385","null","null","","","","fixation","","","","","","","","","","","","","","","","","","","","","","","","","",""
"","","","","","canvas-keyboard-response","133","1272394","0.0-12.0-1.24","2d_cat_multi_stim_exp1","2022-4-19","14:57:11","25","75","3","9","10","40","30","120","45","18","[""White""]","No","Female","3062385","null","null","","","","clear_screen","","","","","","","","","","","","","","","","","","","","","","","","","",""
"","","","","","canvas-keyboard-response","134","1274362","0.0-12.0-2.24","2d_cat_multi_stim_exp1","2022-4-19","14:57:11","25","75","3","9","10","40","30","120","45","18","[""White""]","No","Female","3062385","1958","i","learn","","","learn_trial","23.3473","82.5112","in","0","0","","","","","","","","","","","","","","","","","","","","",""
"","","","","","canvas-keyboard-response","135","1275372","0.0-12.0-3.24","2d_cat_multi_stim_exp1","2022-4-19","14:57:11","25","75","3","9","10","40","30","120","45","18","[""White""]","No","Female","3062385","null","null","learn_feedback","","","learn_feedback","23.3473","82.5112","in","","","","","","","","","","","","","","","","","","","","","","",""
"","","","","","canvas-keyboard-response","136","1275434","0.0-12.0-4.24","2d_cat_multi_stim_exp1","2022-4-19","14:57:11","25","75","3","9","10","40","30","120","45","18","[""White""]","No","Female","3062385","null","null","","","","clear_screen","","","","","","","","","","","","","","","","","","","","","","","","","",""
"","","","","","canvas-keyboard-response","137","1275942","0.0-12.0-0.25","2d_cat_multi_stim_exp1","2022-4-19","14:57:11","25","75","3","9","10","40","30","120","45","18","[""White""]","No","Female","3062385","null","null","","","","fixation","","","","","","","","","","","","","","","","","","","","","","","","","",""
"","","","","","canvas-keyboard-response","138","1276452","0.0-12.0-1.25","2d_cat_multi_stim_exp1","2022-4-19","14:57:11","25","75","3","9","10","40","30","120","45","18","[""White""]","No","Female","3062385","null","null","","","","clear_screen","","","","","","","","","","","","","","","","","","","","","","","","","",""
"","","","","","canvas-keyboard-response","139","1277802","0.0-12.0-2.25","2d_cat_multi_stim_exp1","2022-4-19","14:57:11","25","75","3","9","10","40","30","120","45","18","[""White""]","No","Female","3062385","1340","i","learn","","","learn_trial","40","30","out","0","1","","","","","","","","","","","","","","","","","","","","",""
"","","","","","canvas-keyboard-response","140","1278311","0.0-12.0-3.25","2d_cat_multi_stim_exp1","2022-4-19","14:57:11","25","75","3","9","10","40","30","120","45","18","[""White""]","No","Female","3062385","null","null","learn_feedback","","","learn_feedback","40","30","out","","","","","","","","","","","","","","","","","","","","","","",""
"","","","","","canvas-keyboard-response","141","1278370","0.0-12.0-4.25","2d_cat_multi_stim_exp1","2022-4-19","14:57:11","25","75","3","9","10","40","30","120","45","18","[""White""]","No","Female","3062385","null","null","","","","clear_screen","","","","","","","","","","","","","","","","","","","","","","","","","",""
"","","","","","canvas-keyboard-response","142","1278878","0.0-12.0-0.26","2d_cat_multi_stim_exp1","2022-4-19","14:57:11","25","75","3","9","10","40","30","120","45","18","[""White""]","No","Female","3062385","null","null","","","","fixation","","","","","","","","","","","","","","","","","","","","","","","","","",""
"","","","","","canvas-keyboard-response","143","1279389","0.0-12.0-1.26","2d_cat_multi_stim_exp1","2022-4-19","14:57:11","25","75","3","9","10","40","30","120","45","18","[""White""]","No","Female","3062385","null","null","","","","clear_screen","","","","","","","","","","","","","","","","","","","","","","","","","",""
"","","","","","canvas-keyboard-response","144","1280865","0.0-12.0-2.26","2d_cat_multi_stim_exp1","2022-4-19","14:57:11","25","75","3","9","10","40","30","120","45","18","[""White""]","No","Female","3062385","1467","i","learn","","","learn_trial","26.6667","60","out","0","1","","","","","","","","","","","","","","","","","","","","",""
"","","","","","canvas-keyboard-response","145","1281375","0.0-12.0-3.26","2d_cat_multi_stim_exp1","2022-4-19","14:57:11","25","75","3","9","10","40","30","120","45","18","[""White""]","No","Female","3062385","null","null","learn_feedback","","","learn_feedback","26.6667","60","out","","","","","","","","","","","","","","","","","","","","","","",""
"","","","","","canvas-keyboard-response","146","1281435","0.0-12.0-4.26","2d_cat_multi_stim_exp1","2022-4-19","14:57:11","25","75","3","9","10","40","30","120","45","18","[""White""]","No","Female","3062385","null","null","","","","clear_screen","","","","","","","","","","","","","","","","","","","","","","","","","",""
"","","","","","canvas-keyboard-response","147","1281943","0.0-12.0-0.27","2d_cat_multi_stim_exp1","2022-4-19","14:57:11","25","75","3","9","10","40","30","120","45","18","[""White""]","No","Female","3062385","null","null","","","","fixation","","","","","","","","","","","","","","","","","","","","","","","","","",""
"","","","","","canvas-keyboard-response","148","1282453","0.0-12.0-1.27","2d_cat_multi_stim_exp1","2022-4-19","14:57:11","25","75","3","9","10","40","30","120","45","18","[""White""]","No","Female","3062385","null","null","","","","clear_screen","","","","","","","","","","","","","","","","","","","","","","","","","",""
"","","","","","canvas-keyboard-response","149","1283586","0.0-12.0-2.27","2d_cat_multi_stim_exp1","2022-4-19","14:57:11","25","75","3","9","10","40","30","120","45","18","[""White""]","No","Female","3062385","1125","i","learn","","","learn_trial","13.3333","110","out","0","1","","","","","","","","","","","","","","","","","","","","",""
"","","","","","canvas-keyboard-response","150","1284096","0.0-12.0-3.27","2d_cat_multi_stim_exp1","2022-4-19","14:57:11","25","75","3","9","10","40","30","120","45","18","[""White""]","No","Female","3062385","null","null","learn_feedback","","","learn_feedback","13.3333","110","out","","","","","","","","","","","","","","","","","","","","","","",""
"","","","","","canvas-keyboard-response","151","1284155","0.0-12.0-4.27","2d_cat_multi_stim_exp1","2022-4-19","14:57:11","25","75","3","9","10","40","30","120","45","18","[""White""]","No","Female","3062385","null","null","","","","clear_screen","","","","","","","","","","","","","","","","","","","","","","","","","",""
"","","","","","canvas-keyboard-response","152","1284665","0.0-12.0-0.28","2d_cat_multi_stim_exp1","2022-4-19","14:57:11","25","75","3","9","10","40","30","120","45","18","[""White""]","No","Female","3062385","null","null","","","","fixation","","","","","","","","","","","","","","","","","","","","","","","","","",""
"","","","","","canvas-keyboard-response","153","1285177","0.0-12.0-1.28","2d_cat_multi_stim_exp1","2022-4-19","14:57:11","25","75","3","9","10","40","30","120","45","18","[""White""]","No","Female","3062385","null","null","","","","clear_screen","","","","","","","","","","","","","","","","","","","","","","","","","",""
"","","","","","canvas-keyboard-response","154","1286674","0.0-12.0-2.28","2d_cat_multi_stim_exp1","2022-4-19","14:57:11","25","75","3","9","10","40","30","120","45","18","[""White""]","No","Female","3062385","1483","u","learn","","","learn_trial","23.3333","60","out","1","0","","","","","","","","","","","","","","","","","","","","",""
"","","","","","canvas-keyboard-response","155","1287686","0.0-12.0-3.28","2d_cat_multi_stim_exp1","2022-4-19","14:57:11","25","75","3","9","10","40","30","120","45","18","[""White""]","No","Female","3062385","null","null","learn_feedback","","","learn_feedback","23.3333","60","out","","","","","","","","","","","","","","","","","","","","","","",""
"","","","","","canvas-keyboard-response","156","1287746","0.0-12.0-4.28","2d_cat_multi_stim_exp1","2022-4-19","14:57:11","25","75","3","9","10","40","30","120","45","18","[""White""]","No","Female","3062385","null","null","","","","clear_screen","","","","","","","","","","","","","","","","","","","","","","","","","",""
"","","","","","canvas-keyboard-response","157","1288255","0.0-12.0-0.29","2d_cat_multi_stim_exp1","2022-4-19","14:57:11","25","75","3","9","10","40","30","120","45","18","[""White""]","No","Female","3062385","null","null","","","","fixation","","","","","","","","","","","","","","","","","","","","","","","","","",""
"","","","","","canvas-keyboard-response","158","1288766","0.0-12.0-1.29","2d_cat_multi_stim_exp1","2022-4-19","14:57:11","25","75","3","9","10","40","30","120","45","18","[""White""]","No","Female","3062385","null","null","","","","clear_screen","","","","","","","","","","","","","","","","","","","","","","","","","",""
"","","","","","canvas-keyboard-response","159","1289745","0.0-12.0-2.29","2d_cat_multi_stim_exp1","2022-4-19","14:57:11","25","75","3","9","10","40","30","120","45","18","[""White""]","No","Female","3062385","970","i","learn","","","learn_trial","13.3333","50","out","0","1","","","","","","","","","","","","","","","","","","","","",""
"","","","","","canvas-keyboard-response","160","1290254","0.0-12.0-3.29","2d_cat_multi_stim_exp1","2022-4-19","14:57:11","25","75","3","9","10","40","30","120","45","18","[""White""]","No","Female","3062385","null","null","learn_feedback","","","learn_feedback","13.3333","50","out","","","","","","","","","","","","","","","","","","","","","","",""
"","","","","","canvas-keyboard-response","161","1290313","0.0-12.0-4.29","2d_cat_multi_stim_exp1","2022-4-19","14:57:11","25","75","3","9","10","40","30","120","45","18","[""White""]","No","Female","3062385","null","null","","","","clear_screen","","","","","","","","","","","","","","","","","","","","","","","","","",""
"","","","","","canvas-keyboard-response","162","1290823","0.0-12.0-0.30","2d_cat_multi_stim_exp1","2022-4-19","14:57:11","25","75","3","9","10","40","30","120","45","18","[""White""]","No","Female","3062385","null","null","","","","fixation","","","","","","","","","","","","","","","","","","","","","","","","","",""
"","","","","","canvas-keyboard-response","163","1291334","0.0-12.0-1.30","2d_cat_multi_stim_exp1","2022-4-19","14:57:11","25","75","3","9","10","40","30","120","45","18","[""White""]","No","Female","3062385","null","null","","","","clear_screen","","","","","","","","","","","","","","","","","","","","","","","","","",""
"","","","","","canvas-keyboard-response","164","1294514","0.0-12.0-2.30","2d_cat_multi_stim_exp1","2022-4-19","14:57:11","25","75","3","9","10","40","30","120","45","18","[""White""]","No","Female","3062385","3169","u","learn","","","learn_trial","26.4216","82.9254","in","1","1","","","","","","","","","","","","","","","","","","","","",""
"","","","","","canvas-keyboard-response","165","1295024","0.0-12.0-3.30","2d_cat_multi_stim_exp1","2022-4-19","14:57:11","25","75","3","9","10","40","30","120","45","18","[""White""]","No","Female","3062385","null","null","learn_feedback","","","learn_feedback","26.4216","82.9254","in","","","","","","","","","","","","","","","","","","","","","","",""
"","","","","","canvas-keyboard-response","166","1295083","0.0-12.0-4.30","2d_cat_multi_stim_exp1","2022-4-19","14:57:11","25","75","3","9","10","40","30","120","45","18","[""White""]","No","Female","3062385","null","null","","","","clear_screen","","","","","","","","","","","","","","","","","","","","","","","","","",""
"","","","","","canvas-keyboard-response","167","1295592","0.0-12.0-0.31","2d_cat_multi_stim_exp1","2022-4-19","14:57:11","25","75","3","9","10","40","30","120","45","18","[""White""]","No","Female","3062385","null","null","","","","fixation","","","","","","","","","","","","","","","","","","","","","","","","","",""
"","","","","","canvas-keyboard-response","168","1296104","0.0-12.0-1.31","2d_cat_multi_stim_exp1","2022-4-19","14:57:11","25","75","3","9","10","40","30","120","45","18","[""White""]","No","Female","3062385","null","null","","","","clear_screen","","","","","","","","","","","","","","","","","","","","","","","","","",""
"","","","","","canvas-keyboard-response","169","1297978","0.0-12.0-2.31","2d_cat_multi_stim_exp1","2022-4-19","14:57:11","25","75","3","9","10","40","30","120","45","18","[""White""]","No","Female","3062385","1866","i","learn","","","learn_trial","33.3333","120","out","0","1","","","","","","","","","","","","","","","","","","","","",""
"","","","","","canvas-keyboard-response","170","1298487","0.0-12.0-3.31","2d_cat_multi_stim_exp1","2022-4-19","14:57:11","25","75","3","9","10","40","30","120","45","18","[""White""]","No","Female","3062385","null","null","learn_feedback","","","learn_feedback","33.3333","120","out","","","","","","","","","","","","","","","","","","","","","","",""
"","","","","","canvas-keyboard-response","171","1298546","0.0-12.0-4.31","2d_cat_multi_stim_exp1","2022-4-19","14:57:11","25","75","3","9","10","40","30","120","45","18","[""White""]","No","Female","3062385","null","null","","","","clear_screen","","","","","","","","","","","","","","","","","","","","","","","","","",""
"","","","","","canvas-keyboard-response","172","1299056","0.0-12.0-0.32","2d_cat_multi_stim_exp1","2022-4-19","14:57:11","25","75","3","9","10","40","30","120","45","18","[""White""]","No","Female","3062385","null","null","","","","fixation","","","","","","","","","","","","","","","","","","","","","","","","","",""
"","","","","","canvas-keyboard-response","173","1299565","0.0-12.0-1.32","2d_cat_multi_stim_exp1","2022-4-19","14:57:11","25","75","3","9","10","40","30","120","45","18","[""White""]","No","Female","3062385","null","null","","","","clear_screen","","","","","","","","","","","","","","","","","","","","","","","","","",""
"","","","","","canvas-keyboard-response","174","1300713","0.0-12.0-2.32","2d_cat_multi_stim_exp1","2022-4-19","14:57:11","25","75","3","9","10","40","30","120","45","18","[""White""]","No","Female","3062385","1139","i","learn","","","learn_trial","16.6667","60","out","0","1","","","","","","","","","","","","","","","","","","","","",""
"","","","","","canvas-keyboard-response","175","1301223","0.0-12.0-3.32","2d_cat_multi_stim_exp1","2022-4-19","14:57:11","25","75","3","9","10","40","30","120","45","18","[""White""]","No","Female","3062385","null","null","learn_feedback","","","learn_feedback","16.6667","60","out","","","","","","","","","","","","","","","","","","","","","","",""
"","","","","","canvas-keyboard-response","176","1301282","0.0-12.0-4.32","2d_cat_multi_stim_exp1","2022-4-19","14:57:11","25","75","3","9","10","40","30","120","45","18","[""White""]","No","Female","3062385","null","null","","","","clear_screen","","","","","","","","","","","","","","","","","","","","","","","","","",""
"","","","","","canvas-keyboard-response","177","1301791","0.0-12.0-0.33","2d_cat_multi_stim_exp1","2022-4-19","14:57:11","25","75","3","9","10","40","30","120","45","18","[""White""]","No","Female","3062385","null","null","","","","fixation","","","","","","","","","","","","","","","","","","","","","","","","","",""
"","","","","","canvas-keyboard-response","178","1302301","0.0-12.0-1.33","2d_cat_multi_stim_exp1","2022-4-19","14:57:11","25","75","3","9","10","40","30","120","45","18","[""White""]","No","Female","3062385","null","null","","","","clear_screen","","","","","","","","","","","","","","","","","","","","","","","","","",""
"","","","","","canvas-keyboard-response","179","1304049","0.0-12.0-2.33","2d_cat_multi_stim_exp1","2022-4-19","14:57:11","25","75","3","9","10","40","30","120","45","18","[""White""]","No","Female","3062385","1739","i","learn","","","learn_trial","25","75","in","0","0","","","","","","","","","","","","","","","","","","","","",""
"","","","","","canvas-keyboard-response","180","1305059","0.0-12.0-3.33","2d_cat_multi_stim_exp1","2022-4-19","14:57:11","25","75","3","9","10","40","30","120","45","18","[""White""]","No","Female","3062385","null","null","learn_feedback","","","learn_feedback","25","75","in","","","","","","","","","","","","","","","","","","","","","","",""
"","","","","","canvas-keyboard-response","181","1305118","0.0-12.0-4.33","2d_cat_multi_stim_exp1","2022-4-19","14:57:11","25","75","3","9","10","40","30","120","45","18","[""White""]","No","Female","3062385","null","null","","","","clear_screen","","","","","","","","","","","","","","","","","","","","","","","","","",""
"","","","","","canvas-keyboard-response","182","1305627","0.0-12.0-0.34","2d_cat_multi_stim_exp1","2022-4-19","14:57:11","25","75","3","9","10","40","30","120","45","18","[""White""]","No","Female","3062385","null","null","","","","fixation","","","","","","","","","","","","","","","","","","","","","","","","","",""
"","","","","","canvas-keyboard-response","183","1306137","0.0-12.0-1.34","2d_cat_multi_stim_exp1","2022-4-19","14:57:11","25","75","3","9","10","40","30","120","45","18","[""White""]","No","Female","3062385","null","null","","","","clear_screen","","","","","","","","","","","","","","","","","","","","","","","","","",""
"","","","","","canvas-keyboard-response","184","1309225","0.0-12.0-2.34","2d_cat_multi_stim_exp1","2022-4-19","14:57:11","25","75","3","9","10","40","30","120","45","18","[""White""]","No","Female","3062385","3078","i","learn","","","learn_trial","25","75","in","0","0","","","","","","","","","","","","","","","","","","","","",""
"","","","","","canvas-keyboard-response","185","1310236","0.0-12.0-3.34","2d_cat_multi_stim_exp1","2022-4-19","14:57:11","25","75","3","9","10","40","30","120","45","18","[""White""]","No","Female","3062385","null","null","learn_feedback","","","learn_feedback","25","75","in","","","","","","","","","","","","","","","","","","","","","","",""
"","","","","","canvas-keyboard-response","186","1310295","0.0-12.0-4.34","2d_cat_multi_stim_exp1","2022-4-19","14:57:11","25","75","3","9","10","40","30","120","45","18","[""White""]","No","Female","3062385","null","null","","","","clear_screen","","","","","","","","","","","","","","","","","","","","","","","","","",""
"","","","","","canvas-keyboard-response","187","1310804","0.0-12.0-0.35","2d_cat_multi_stim_exp1","2022-4-19","14:57:11","25","75","3","9","10","40","30","120","45","18","[""White""]","No","Female","3062385","null","null","","","","fixation","","","","","","","","","","","","","","","","","","","","","","","","","",""
"","","","","","canvas-keyboard-response","188","1311314","0.0-12.0-1.35","2d_cat_multi_stim_exp1","2022-4-19","14:57:11","25","75","3","9","10","40","30","120","45","18","[""White""]","No","Female","3062385","null","null","","","","clear_screen","","","","","","","","","","","","","","","","","","","","","","","","","",""
"","","","","","canvas-keyboard-response","189","1312201","0.0-12.0-2.35","2d_cat_multi_stim_exp1","2022-4-19","14:57:11","25","75","3","9","10","40","30","120","45","18","[""White""]","No","Female","3062385","877","i","learn","","","learn_trial","16.6667","110","out","0","1","","","","","","","","","","","","","","","","","","","","",""
"","","","","","canvas-keyboard-response","190","1312711","0.0-12.0-3.35","2d_cat_multi_stim_exp1","2022-4-19","14:57:11","25","75","3","9","10","40","30","120","45","18","[""White""]","No","Female","3062385","null","null","learn_feedback","","","learn_feedback","16.6667","110","out","","","","","","","","","","","","","","","","","","","","","","",""
"","","","","","canvas-keyboard-response","191","1312770","0.0-12.0-4.35","2d_cat_multi_stim_exp1","2022-4-19","14:57:11","25","75","3","9","10","40","30","120","45","18","[""White""]","No","Female","3062385","null","null","","","","clear_screen","","","","","","","","","","","","","","","","","","","","","","","","","",""
"","","","","","canvas-keyboard-response","192","1313280","0.0-12.0-0.36","2d_cat_multi_stim_exp1","2022-4-19","14:57:11","25","75","3","9","10","40","30","120","45","18","[""White""]","No","Female","3062385","null","null","","","","fixation","","","","","","","","","","","","","","","","","","","","","","","","","",""
"","","","","","canvas-keyboard-response","193","1313789","0.0-12.0-1.36","2d_cat_multi_stim_exp1","2022-4-19","14:57:11","25","75","3","9","10","40","30","120","45","18","[""White""]","No","Female","3062385","null","null","","","","clear_screen","","","","","","","","","","","","","","","","","","","","","","","","","",""
"","","","","","canvas-keyboard-response","194","1315152","0.0-12.0-2.36","2d_cat_multi_stim_exp1","2022-4-19","14:57:11","25","75","3","9","10","40","30","120","45","18","[""White""]","No","Female","3062385","1354","i","learn","","","learn_trial","23.3333","120","out","0","1","","","","","","","","","","","","","","","","","","","","",""
"","","","","","canvas-keyboard-response","195","1315663","0.0-12.0-3.36","2d_cat_multi_stim_exp1","2022-4-19","14:57:11","25","75","3","9","10","40","30","120","45","18","[""White""]","No","Female","3062385","null","null","learn_feedback","","","learn_feedback","23.3333","120","out","","","","","","","","","","","","","","","","","","","","","","",""
"","","","","","canvas-keyboard-response","196","1315726","0.0-12.0-4.36","2d_cat_multi_stim_exp1","2022-4-19","14:57:11","25","75","3","9","10","40","30","120","45","18","[""White""]","No","Female","3062385","null","null","","","","clear_screen","","","","","","","","","","","","","","","","","","","","","","","","","",""
"","","","","","canvas-keyboard-response","197","1316236","0.0-12.0-0.37","2d_cat_multi_stim_exp1","2022-4-19","14:57:11","25","75","3","9","10","40","30","120","45","18","[""White""]","No","Female","3062385","null","null","","","","fixation","","","","","","","","","","","","","","","","","","","","","","","","","",""
"","","","","","canvas-keyboard-response","198","1316745","0.0-12.0-1.37","2d_cat_multi_stim_exp1","2022-4-19","14:57:11","25","75","3","9","10","40","30","120","45","18","[""White""]","No","Female","3062385","null","null","","","","clear_screen","","","","","","","","","","","","","","","","","","","","","","","","","",""
"","","","","","canvas-keyboard-response","199","1318361","0.0-12.0-2.37","2d_cat_multi_stim_exp1","2022-4-19","14:57:11","25","75","3","9","10","40","30","120","45","18","[""White""]","No","Female","3062385","1606","u","learn","","","learn_trial","36.6667","90","out","1","0","","","","","","","","","","","","","","","","","","","","",""
"","","","","","canvas-keyboard-response","200","1319371","0.0-12.0-3.37","2d_cat_multi_stim_exp1","2022-4-19","14:57:11","25","75","3","9","10","40","30","120","45","18","[""White""]","No","Female","3062385","null","null","learn_feedback","","","learn_feedback","36.6667","90","out","","","","","","","","","","","","","","","","","","","","","","",""
"","","","","","canvas-keyboard-response","201","1319430","0.0-12.0-4.37","2d_cat_multi_stim_exp1","2022-4-19","14:57:11","25","75","3","9","10","40","30","120","45","18","[""White""]","No","Female","3062385","null","null","","","","clear_screen","","","","","","","","","","","","","","","","","","","","","","","","","",""
"","","","","","canvas-keyboard-response","202","1319938","0.0-12.0-0.38","2d_cat_multi_stim_exp1","2022-4-19","14:57:11","25","75","3","9","10","40","30","120","45","18","[""White""]","No","Female","3062385","null","null","","","","fixation","","","","","","","","","","","","","","","","","","","","","","","","","",""
"","","","","","canvas-keyboard-response","203","1320448","0.0-12.0-1.38","2d_cat_multi_stim_exp1","2022-4-19","14:57:11","25","75","3","9","10","40","30","120","45","18","[""White""]","No","Female","3062385","null","null","","","","clear_screen","","","","","","","","","","","","","","","","","","","","","","","","","",""
"","","","","","canvas-keyboard-response","204","1323330","0.0-12.0-2.38","2d_cat_multi_stim_exp1","2022-4-19","14:57:11","25","75","3","9","10","40","30","120","45","18","[""White""]","No","Female","3062385","2873","i","learn","","","learn_trial","26.6667","90","out","0","1","","","","","","","","","","","","","","","","","","","","",""
"","","","","","canvas-keyboard-response","205","1323840","0.0-12.0-3.38","2d_cat_multi_stim_exp1","2022-4-19","14:57:11","25","75","3","9","10","40","30","120","45","18","[""White""]","No","Female","3062385","null","null","learn_feedback","","","learn_feedback","26.6667","90","out","","","","","","","","","","","","","","","","","","","","","","",""
"","","","","","canvas-keyboard-response","206","1323898","0.0-12.0-4.38","2d_cat_multi_stim_exp1","2022-4-19","14:57:11","25","75","3","9","10","40","30","120","45","18","[""White""]","No","Female","3062385","null","null","","","","clear_screen","","","","","","","","","","","","","","","","","","","","","","","","","",""
"","","","","","canvas-keyboard-response","207","1324408","0.0-12.0-0.39","2d_cat_multi_stim_exp1","2022-4-19","14:57:11","25","75","3","9","10","40","30","120","45","18","[""White""]","No","Female","3062385","null","null","","","","fixation","","","","","","","","","","","","","","","","","","","","","","","","","",""
"","","","","","canvas-keyboard-response","208","1324918","0.0-12.0-1.39","2d_cat_multi_stim_exp1","2022-4-19","14:57:11","25","75","3","9","10","40","30","120","45","18","[""White""]","No","Female","3062385","null","null","","","","clear_screen","","","","","","","","","","","","","","","","","","","","","","","","","",""
"","","","","","canvas-keyboard-response","209","1326897","0.0-12.0-2.39","2d_cat_multi_stim_exp1","2022-4-19","14:57:11","25","75","3","9","10","40","30","120","45","18","[""White""]","No","Female","3062385","1969","i","learn","","","learn_trial","36.6667","100","out","0","1","","","","","","","","","","","","","","","","","","","","",""
"","","","","","canvas-keyboard-response","210","1327406","0.0-12.0-3.39","2d_cat_multi_stim_exp1","2022-4-19","14:57:11","25","75","3","9","10","40","30","120","45","18","[""White""]","No","Female","3062385","null","null","learn_feedback","","","learn_feedback","36.6667","100","out","","","","","","","","","","","","","","","","","","","","","","",""
"","","","","","canvas-keyboard-response","211","1327466","0.0-12.0-4.39","2d_cat_multi_stim_exp1","2022-4-19","14:57:11","25","75","3","9","10","40","30","120","45","18","[""White""]","No","Female","3062385","null","null","","","","clear_screen","","","","","","","","","","","","","","","","","","","","","","","","","",""
"","","","","","canvas-keyboard-response","212","1327978","0.0-12.0-0.40","2d_cat_multi_stim_exp1","2022-4-19","14:57:11","25","75","3","9","10","40","30","120","45","18","[""White""]","No","Female","3062385","null","null","","","","fixation","","","","","","","","","","","","","","","","","","","","","","","","","",""
"","","","","","canvas-keyboard-response","213","1328488","0.0-12.0-1.40","2d_cat_multi_stim_exp1","2022-4-19","14:57:11","25","75","3","9","10","40","30","120","45","18","[""White""]","No","Female","3062385","null","null","","","","clear_screen","","","","","","","","","","","","","","","","","","","","","","","","","",""
"","","","","","canvas-keyboard-response","214","1330321","0.0-12.0-2.40","2d_cat_multi_stim_exp1","2022-4-19","14:57:11","25","75","3","9","10","40","30","120","45","18","[""White""]","No","Female","3062385","1824","u","learn","","","learn_trial","20.7574","87.7279","in","1","1","","","","","","","","","","","","","","","","","","","","",""
"","","","","","canvas-keyboard-response","215","1330832","0.0-12.0-3.40","2d_cat_multi_stim_exp1","2022-4-19","14:57:11","25","75","3","9","10","40","30","120","45","18","[""White""]","No","Female","3062385","null","null","learn_feedback","","","learn_feedback","20.7574","87.7279","in","","","","","","","","","","","","","","","","","","","","","","",""
"","","","","","canvas-keyboard-response","216","1330891","0.0-12.0-4.40","2d_cat_multi_stim_exp1","2022-4-19","14:57:11","25","75","3","9","10","40","30","120","45","18","[""White""]","No","Female","3062385","null","null","","","","clear_screen","","","","","","","","","","","","","","","","","","","","","","","","","",""
"","","","","","canvas-keyboard-response","217","1331400","0.0-12.0-0.41","2d_cat_multi_stim_exp1","2022-4-19","14:57:11","25","75","3","9","10","40","30","120","45","18","[""White""]","No","Female","3062385","null","null","","","","fixation","","","","","","","","","","","","","","","","","","","","","","","","","",""
"","","","","","canvas-keyboard-response","218","1331909","0.0-12.0-1.41","2d_cat_multi_stim_exp1","2022-4-19","14:57:11","25","75","3","9","10","40","30","120","45","18","[""White""]","No","Female","3062385","null","null","","","","clear_screen","","","","","","","","","","","","","","","","","","","","","","","","","",""
"","","","","","canvas-keyboard-response","219","1334104","0.0-12.0-2.41","2d_cat_multi_stim_exp1","2022-4-19","14:57:11","25","75","3","9","10","40","30","120","45","18","[""White""]","No","Female","3062385","2187","i","learn","","","learn_trial","24.3324","83.7744","in","0","0","","","","","","","","","","","","","","","","","","","","",""
"","","","","","canvas-keyboard-response","220","1335115","0.0-12.0-3.41","2d_cat_multi_stim_exp1","2022-4-19","14:57:11","25","75","3","9","10","40","30","120","45","18","[""White""]","No","Female","3062385","null","null","learn_feedback","","","learn_feedback","24.3324","83.7744","in","","","","","","","","","","","","","","","","","","","","","","",""
"","","","","","canvas-keyboard-response","221","1335174","0.0-12.0-4.41","2d_cat_multi_stim_exp1","2022-4-19","14:57:11","25","75","3","9","10","40","30","120","45","18","[""White""]","No","Female","3062385","null","null","","","","clear_screen","","","","","","","","","","","","","","","","","","","","","","","","","",""
"","","","","","canvas-keyboard-response","222","1335682","0.0-12.0-0.42","2d_cat_multi_stim_exp1","2022-4-19","14:57:11","25","75","3","9","10","40","30","120","45","18","[""White""]","No","Female","3062385","null","null","","","","fixation","","","","","","","","","","","","","","","","","","","","","","","","","",""
"","","","","","canvas-keyboard-response","223","1336192","0.0-12.0-1.42","2d_cat_multi_stim_exp1","2022-4-19","14:57:11","25","75","3","9","10","40","30","120","45","18","[""White""]","No","Female","3062385","null","null","","","","clear_screen","","","","","","","","","","","","","","","","","","","","","","","","","",""
"","","","","","canvas-keyboard-response","224","1337050","0.0-12.0-2.42","2d_cat_multi_stim_exp1","2022-4-19","14:57:11","25","75","3","9","10","40","30","120","45","18","[""White""]","No","Female","3062385","847","i","learn","","","learn_trial","30","30","out","0","1","","","","","","","","","","","","","","","","","","","","",""
"","","","","","canvas-keyboard-response","225","1337558","0.0-12.0-3.42","2d_cat_multi_stim_exp1","2022-4-19","14:57:11","25","75","3","9","10","40","30","120","45","18","[""White""]","No","Female","3062385","null","null","learn_feedback","","","learn_feedback","30","30","out","","","","","","","","","","","","","","","","","","","","","","",""
"","","","","","canvas-keyboard-response","226","1337617","0.0-12.0-4.42","2d_cat_multi_stim_exp1","2022-4-19","14:57:11","25","75","3","9","10","40","30","120","45","18","[""White""]","No","Female","3062385","null","null","","","","clear_screen","","","","","","","","","","","","","","","","","","","","","","","","","",""
"","","","","","canvas-keyboard-response","227","1338126","0.0-12.0-0.43","2d_cat_multi_stim_exp1","2022-4-19","14:57:11","25","75","3","9","10","40","30","120","45","18","[""White""]","No","Female","3062385","null","null","","","","fixation","","","","","","","","","","","","","","","","","","","","","","","","","",""
"","","","","","canvas-keyboard-response","228","1338639","0.0-12.0-1.43","2d_cat_multi_stim_exp1","2022-4-19","14:57:11","25","75","3","9","10","40","30","120","45","18","[""White""]","No","Female","3062385","null","null","","","","clear_screen","","","","","","","","","","","","","","","","","","","","","","","","","",""
"","","","","","canvas-keyboard-response","229","1340369","0.0-12.0-2.43","2d_cat_multi_stim_exp1","2022-4-19","14:57:11","25","75","3","9","10","40","30","120","45","18","[""White""]","No","Female","3062385","1722","u","learn","","","learn_trial","25.9271","83.5595","in","1","1","","","","","","","","","","","","","","","","","","","","",""
"","","","","","canvas-keyboard-response","230","1340878","0.0-12.0-3.43","2d_cat_multi_stim_exp1","2022-4-19","14:57:11","25","75","3","9","10","40","30","120","45","18","[""White""]","No","Female","3062385","null","null","learn_feedback","","","learn_feedback","25.9271","83.5595","in","","","","","","","","","","","","","","","","","","","","","","",""
"","","","","","canvas-keyboard-response","231","1340937","0.0-12.0-4.43","2d_cat_multi_stim_exp1","2022-4-19","14:57:11","25","75","3","9","10","40","30","120","45","18","[""White""]","No","Female","3062385","null","null","","","","clear_screen","","","","","","","","","","","","","","","","","","","","","","","","","",""
"","","","","","canvas-keyboard-response","232","1341447","0.0-12.0-0.44","2d_cat_multi_stim_exp1","2022-4-19","14:57:11","25","75","3","9","10","40","30","120","45","18","[""White""]","No","Female","3062385","null","null","","","","fixation","","","","","","","","","","","","","","","","","","","","","","","","","",""
"","","","","","canvas-keyboard-response","233","1341956","0.0-12.0-1.44","2d_cat_multi_stim_exp1","2022-4-19","14:57:11","25","75","3","9","10","40","30","120","45","18","[""White""]","No","Female","3062385","null","null","","","","clear_screen","","","","","","","","","","","","","","","","","","","","","","","","","",""
"","","","","","canvas-keyboard-response","234","1343704","0.0-12.0-2.44","2d_cat_multi_stim_exp1","2022-4-19","14:57:11","25","75","3","9","10","40","30","120","45","18","[""White""]","No","Female","3062385","1739","i","learn","","","learn_trial","30","110","out","0","1","","","","","","","","","","","","","","","","","","","","",""
"","","","","","canvas-keyboard-response","235","1344216","0.0-12.0-3.44","2d_cat_multi_stim_exp1","2022-4-19","14:57:11","25","75","3","9","10","40","30","120","45","18","[""White""]","No","Female","3062385","null","null","learn_feedback","","","learn_feedback","30","110","out","","","","","","","","","","","","","","","","","","","","","","",""
"","","","","","canvas-keyboard-response","236","1344276","0.0-12.0-4.44","2d_cat_multi_stim_exp1","2022-4-19","14:57:11","25","75","3","9","10","40","30","120","45","18","[""White""]","No","Female","3062385","null","null","","","","clear_screen","","","","","","","","","","","","","","","","","","","","","","","","","",""
"","","","","","canvas-keyboard-response","237","1344784","0.0-12.0-0.45","2d_cat_multi_stim_exp1","2022-4-19","14:57:11","25","75","3","9","10","40","30","120","45","18","[""White""]","No","Female","3062385","null","null","","","","fixation","","","","","","","","","","","","","","","","","","","","","","","","","",""
"","","","","","canvas-keyboard-response","238","1345293","0.0-12.0-1.45","2d_cat_multi_stim_exp1","2022-4-19","14:57:11","25","75","3","9","10","40","30","120","45","18","[""White""]","No","Female","3062385","null","null","","","","clear_screen","","","","","","","","","","","","","","","","","","","","","","","","","",""
"","","","","","canvas-keyboard-response","239","1348857","0.0-12.0-2.45","2d_cat_multi_stim_exp1","2022-4-19","14:57:11","25","75","3","9","10","40","30","120","45","18","[""White""]","No","Female","3062385","3554","u","learn","","","learn_trial","25","75","in","1","1","","","","","","","","","","","","","","","","","","","","",""
"","","","","","canvas-keyboard-response","240","1349367","0.0-12.0-3.45","2d_cat_multi_stim_exp1","2022-4-19","14:57:11","25","75","3","9","10","40","30","120","45","18","[""White""]","No","Female","3062385","null","null","learn_feedback","","","learn_feedback","25","75","in","","","","","","","","","","","","","","","","","","","","","","",""
"","","","","","canvas-keyboard-response","241","1349425","0.0-12.0-4.45","2d_cat_multi_stim_exp1","2022-4-19","14:57:11","25","75","3","9","10","40","30","120","45","18","[""White""]","No","Female","3062385","null","null","","","","clear_screen","","","","","","","","","","","","","","","","","","","","","","","","","",""
"","","","","","canvas-keyboard-response","242","1349935","0.0-12.0-0.46","2d_cat_multi_stim_exp1","2022-4-19","14:57:11","25","75","3","9","10","40","30","120","45","18","[""White""]","No","Female","3062385","null","null","","","","fixation","","","","","","","","","","","","","","","","","","","","","","","","","",""
"","","","","","canvas-keyboard-response","243","1350444","0.0-12.0-1.46","2d_cat_multi_stim_exp1","2022-4-19","14:57:11","25","75","3","9","10","40","30","120","45","18","[""White""]","No","Female","3062385","null","null","","","","clear_screen","","","","","","","","","","","","","","","","","","","","","","","","","",""
"","","","","","canvas-keyboard-response","244","1351346","0.0-12.0-2.46","2d_cat_multi_stim_exp1","2022-4-19","14:57:11","25","75","3","9","10","40","30","120","45","18","[""White""]","No","Female","3062385","890","i","learn","","","learn_trial","13.3333","80","out","0","1","","","","","","","","","","","","","","","","","","","","",""
"","","","","","canvas-keyboard-response","245","1351859","0.0-12.0-3.46","2d_cat_multi_stim_exp1","2022-4-19","14:57:11","25","75","3","9","10","40","30","120","45","18","[""White""]","No","Female","3062385","null","null","learn_feedback","","","learn_feedback","13.3333","80","out","","","","","","","","","","","","","","","","","","","","","","",""
"","","","","","canvas-keyboard-response","246","1351920","0.0-12.0-4.46","2d_cat_multi_stim_exp1","2022-4-19","14:57:11","25","75","3","9","10","40","30","120","45","18","[""White""]","No","Female","3062385","null","null","","","","clear_screen","","","","","","","","","","","","","","","","","","","","","","","","","",""
"","","","","","canvas-keyboard-response","247","1352432","0.0-12.0-0.47","2d_cat_multi_stim_exp1","2022-4-19","14:57:11","25","75","3","9","10","40","30","120","45","18","[""White""]","No","Female","3062385","null","null","","","","fixation","","","","","","","","","","","","","","","","","","","","","","","","","",""
"","","","","","canvas-keyboard-response","248","1352943","0.0-12.0-1.47","2d_cat_multi_stim_exp1","2022-4-19","14:57:11","25","75","3","9","10","40","30","120","45","18","[""White""]","No","Female","3062385","null","null","","","","clear_screen","","","","","","","","","","","","","","","","","","","","","","","","","",""
"","","","","","canvas-keyboard-response","249","1354577","0.0-12.0-2.47","2d_cat_multi_stim_exp1","2022-4-19","14:57:11","25","75","3","9","10","40","30","120","45","18","[""White""]","No","Female","3062385","1624","i","learn","","","learn_trial","36.6667","120","out","0","1","","","","","","","","","","","","","","","","","","","","",""
"","","","","","canvas-keyboard-response","250","1355088","0.0-12.0-3.47","2d_cat_multi_stim_exp1","2022-4-19","14:57:11","25","75","3","9","10","40","30","120","45","18","[""White""]","No","Female","3062385","null","null","learn_feedback","","","learn_feedback","36.6667","120","out","","","","","","","","","","","","","","","","","","","","","","",""
"","","","","","canvas-keyboard-response","251","1355147","0.0-12.0-4.47","2d_cat_multi_stim_exp1","2022-4-19","14:57:11","25","75","3","9","10","40","30","120","45","18","[""White""]","No","Female","3062385","null","null","","","","clear_screen","","","","","","","","","","","","","","","","","","","","","","","","","",""
"","","","","","canvas-keyboard-response","252","1355657","0.0-12.0-0.48","2d_cat_multi_stim_exp1","2022-4-19","14:57:11","25","75","3","9","10","40","30","120","45","18","[""White""]","No","Female","3062385","null","null","","","","fixation","","","","","","","","","","","","","","","","","","","","","","","","","",""
"","","","","","canvas-keyboard-response","253","1356167","0.0-12.0-1.48","2d_cat_multi_stim_exp1","2022-4-19","14:57:11","25","75","3","9","10","40","30","120","45","18","[""White""]","No","Female","3062385","null","null","","","","clear_screen","","","","","","","","","","","","","","","","","","","","","","","","","",""
"","","","","","canvas-keyboard-response","254","1357489","0.0-12.0-2.48","2d_cat_multi_stim_exp1","2022-4-19","14:57:11","25","75","3","9","10","40","30","120","45","18","[""White""]","No","Female","3062385","1313","i","learn","","","learn_trial","20","60","out","0","1","","","","","","","","","","","","","","","","","","","","",""
"","","","","","canvas-keyboard-response","255","1358001","0.0-12.0-3.48","2d_cat_multi_stim_exp1","2022-4-19","14:57:11","25","75","3","9","10","40","30","120","45","18","[""White""]","No","Female","3062385","null","null","learn_feedback","","","learn_feedback","20","60","out","","","","","","","","","","","","","","","","","","","","","","",""
"","","","","","canvas-keyboard-response","256","1358062","0.0-12.0-4.48","2d_cat_multi_stim_exp1","2022-4-19","14:57:11","25","75","3","9","10","40","30","120","45","18","[""White""]","No","Female","3062385","null","null","","","","clear_screen","","","","","","","","","","","","","","","","","","","","","","","","","",""
"","","","","","canvas-keyboard-response","257","1358571","0.0-12.0-0.49","2d_cat_multi_stim_exp1","2022-4-19","14:57:11","25","75","3","9","10","40","30","120","45","18","[""White""]","No","Female","3062385","null","null","","","","fixation","","","","","","","","","","","","","","","","","","","","","","","","","",""
"","","","","","canvas-keyboard-response","258","1359081","0.0-12.0-1.49","2d_cat_multi_stim_exp1","2022-4-19","14:57:11","25","75","3","9","10","40","30","120","45","18","[""White""]","No","Female","3062385","null","null","","","","clear_screen","","","","","","","","","","","","","","","","","","","","","","","","","",""
"","","","","","canvas-keyboard-response","259","1360728","0.0-12.0-2.49","2d_cat_multi_stim_exp1","2022-4-19","14:57:11","25","75","3","9","10","40","30","120","45","18","[""White""]","No","Female","3062385","1638","u","learn","","","learn_trial","25","75","in","1","1","","","","","","","","","","","","","","","","","","","","",""
"","","","","","canvas-keyboard-response","260","1361239","0.0-12.0-3.49","2d_cat_multi_stim_exp1","2022-4-19","14:57:11","25","75","3","9","10","40","30","120","45","18","[""White""]","No","Female","3062385","null","null","learn_feedback","","","learn_feedback","25","75","in","","","","","","","","","","","","","","","","","","","","","","",""
"","","","","","canvas-keyboard-response","261","1361298","0.0-12.0-4.49","2d_cat_multi_stim_exp1","2022-4-19","14:57:11","25","75","3","9","10","40","30","120","45","18","[""White""]","No","Female","3062385","null","null","","","","clear_screen","","","","","","","","","","","","","","","","","","","","","","","","","",""
"","","","","","canvas-keyboard-response","262","1361808","0.0-12.0-0.50","2d_cat_multi_stim_exp1","2022-4-19","14:57:11","25","75","3","9","10","40","30","120","45","18","[""White""]","No","Female","3062385","null","null","","","","fixation","","","","","","","","","","","","","","","","","","","","","","","","","",""
"","","","","","canvas-keyboard-response","263","1362317","0.0-12.0-1.50","2d_cat_multi_stim_exp1","2022-4-19","14:57:11","25","75","3","9","10","40","30","120","45","18","[""White""]","No","Female","3062385","null","null","","","","clear_screen","","","","","","","","","","","","","","","","","","","","","","","","","",""
"","","","","","canvas-keyboard-response","264","1365264","0.0-12.0-2.50","2d_cat_multi_stim_exp1","2022-4-19","14:57:11","25","75","3","9","10","40","30","120","45","18","[""White""]","No","Female","3062385","2937","i","learn","","","learn_trial","29.2426","62.2721","in","0","0","","","","","","","","","","","","","","","","","","","","",""
"","","","","","canvas-keyboard-response","265","1366274","0.0-12.0-3.50","2d_cat_multi_stim_exp1","2022-4-19","14:57:11","25","75","3","9","10","40","30","120","45","18","[""White""]","No","Female","3062385","null","null","learn_feedback","","","learn_feedback","29.2426","62.2721","in","","","","","","","","","","","","","","","","","","","","","","",""
"","","","","","canvas-keyboard-response","266","1366333","0.0-12.0-4.50","2d_cat_multi_stim_exp1","2022-4-19","14:57:11","25","75","3","9","10","40","30","120","45","18","[""White""]","No","Female","3062385","null","null","","","","clear_screen","","","","","","","","","","","","","","","","","","","","","","","","","",""
"","","","","","canvas-keyboard-response","267","1366843","0.0-12.0-0.51","2d_cat_multi_stim_exp1","2022-4-19","14:57:11","25","75","3","9","10","40","30","120","45","18","[""White""]","No","Female","3062385","null","null","","","","fixation","","","","","","","","","","","","","","","","","","","","","","","","","",""
"","","","","","canvas-keyboard-response","268","1367352","0.0-12.0-1.51","2d_cat_multi_stim_exp1","2022-4-19","14:57:11","25","75","3","9","10","40","30","120","45","18","[""White""]","No","Female","3062385","null","null","","","","clear_screen","","","","","","","","","","","","","","","","","","","","","","","","","",""
"","","","","","canvas-keyboard-response","269","1368384","0.0-12.0-2.51","2d_cat_multi_stim_exp1","2022-4-19","14:57:11","25","75","3","9","10","40","30","120","45","18","[""White""]","No","Female","3062385","1023","u","learn","","","learn_trial","25","75","in","1","1","","","","","","","","","","","","","","","","","","","","",""
"","","","","","canvas-keyboard-response","270","1368894","0.0-12.0-3.51","2d_cat_multi_stim_exp1","2022-4-19","14:57:11","25","75","3","9","10","40","30","120","45","18","[""White""]","No","Female","3062385","null","null","learn_feedback","","","learn_feedback","25","75","in","","","","","","","","","","","","","","","","","","","","","","",""
"","","","","","canvas-keyboard-response","271","1368953","0.0-12.0-4.51","2d_cat_multi_stim_exp1","2022-4-19","14:57:11","25","75","3","9","10","40","30","120","45","18","[""White""]","No","Female","3062385","null","null","","","","clear_screen","","","","","","","","","","","","","","","","","","","","","","","","","",""
"","","","","","canvas-keyboard-response","272","1369462","0.0-12.0-0.52","2d_cat_multi_stim_exp1","2022-4-19","14:57:11","25","75","3","9","10","40","30","120","45","18","[""White""]","No","Female","3062385","null","null","","","","fixation","","","","","","","","","","","","","","","","","","","","","","","","","",""
"","","","","","canvas-keyboard-response","273","1369972","0.0-12.0-1.52","2d_cat_multi_stim_exp1","2022-4-19","14:57:11","25","75","3","9","10","40","30","120","45","18","[""White""]","No","Female","3062385","null","null","","","","clear_screen","","","","","","","","","","","","","","","","","","","","","","","","","",""
"","","","","","canvas-keyboard-response","274","1371449","0.0-12.0-2.52","2d_cat_multi_stim_exp1","2022-4-19","14:57:11","25","75","3","9","10","40","30","120","45","18","[""White""]","No","Female","3062385","1467","u","learn","","","learn_trial","25","75","in","1","1","","","","","","","","","","","","","","","","","","","","",""
"","","","","","canvas-keyboard-response","275","1371958","0.0-12.0-3.52","2d_cat_multi_stim_exp1","2022-4-19","14:57:11","25","75","3","9","10","40","30","120","45","18","[""White""]","No","Female","3062385","null","null","learn_feedback","","","learn_feedback","25","75","in","","","","","","","","","","","","","","","","","","","","","","",""
"","","","","","canvas-keyboard-response","276","1372020","0.0-12.0-4.52","2d_cat_multi_stim_exp1","2022-4-19","14:57:11","25","75","3","9","10","40","30","120","45","18","[""White""]","No","Female","3062385","null","null","","","","clear_screen","","","","","","","","","","","","","","","","","","","","","","","","","",""
"","","","","","canvas-keyboard-response","277","1372529","0.0-12.0-0.53","2d_cat_multi_stim_exp1","2022-4-19","14:57:11","25","75","3","9","10","40","30","120","45","18","[""White""]","No","Female","3062385","null","null","","","","fixation","","","","","","","","","","","","","","","","","","","","","","","","","",""
"","","","","","canvas-keyboard-response","278","1373038","0.0-12.0-1.53","2d_cat_multi_stim_exp1","2022-4-19","14:57:11","25","75","3","9","10","40","30","120","45","18","[""White""]","No","Female","3062385","null","null","","","","clear_screen","","","","","","","","","","","","","","","","","","","","","","","","","",""
"","","","","","canvas-keyboard-response","279","1374065","0.0-12.0-2.53","2d_cat_multi_stim_exp1","2022-4-19","14:57:11","25","75","3","9","10","40","30","120","45","18","[""White""]","No","Female","3062385","1017","u","learn","","","learn_trial","25","75","in","1","1","","","","","","","","","","","","","","","","","","","","",""
"","","","","","canvas-keyboard-response","280","1374575","0.0-12.0-3.53","2d_cat_multi_stim_exp1","2022-4-19","14:57:11","25","75","3","9","10","40","30","120","45","18","[""White""]","No","Female","3062385","null","null","learn_feedback","","","learn_feedback","25","75","in","","","","","","","","","","","","","","","","","","","","","","",""
"","","","","","canvas-keyboard-response","281","1374634","0.0-12.0-4.53","2d_cat_multi_stim_exp1","2022-4-19","14:57:11","25","75","3","9","10","40","30","120","45","18","[""White""]","No","Female","3062385","null","null","","","","clear_screen","","","","","","","","","","","","","","","","","","","","","","","","","",""
"","","","","","canvas-keyboard-response","282","1375143","0.0-12.0-0.54","2d_cat_multi_stim_exp1","2022-4-19","14:57:11","25","75","3","9","10","40","30","120","45","18","[""White""]","No","Female","3062385","null","null","","","","fixation","","","","","","","","","","","","","","","","","","","","","","","","","",""
"","","","","","canvas-keyboard-response","283","1375652","0.0-12.0-1.54","2d_cat_multi_stim_exp1","2022-4-19","14:57:11","25","75","3","9","10","40","30","120","45","18","[""White""]","No","Female","3062385","null","null","","","","clear_screen","","","","","","","","","","","","","","","","","","","","","","","","","",""
"","","","","","canvas-keyboard-response","284","1376769","0.0-12.0-2.54","2d_cat_multi_stim_exp1","2022-4-19","14:57:11","25","75","3","9","10","40","30","120","45","18","[""White""]","No","Female","3062385","1107","i","learn","","","learn_trial","36.6667","60","out","0","1","","","","","","","","","","","","","","","","","","","","",""
"","","","","","canvas-keyboard-response","285","1377279","0.0-12.0-3.54","2d_cat_multi_stim_exp1","2022-4-19","14:57:11","25","75","3","9","10","40","30","120","45","18","[""White""]","No","Female","3062385","null","null","learn_feedback","","","learn_feedback","36.6667","60","out","","","","","","","","","","","","","","","","","","","","","","",""
"","","","","","canvas-keyboard-response","286","1377338","0.0-12.0-4.54","2d_cat_multi_stim_exp1","2022-4-19","14:57:11","25","75","3","9","10","40","30","120","45","18","[""White""]","No","Female","3062385","null","null","","","","clear_screen","","","","","","","","","","","","","","","","","","","","","","","","","",""
"","","","","","canvas-keyboard-response","287","1377846","0.0-12.0-0.55","2d_cat_multi_stim_exp1","2022-4-19","14:57:11","25","75","3","9","10","40","30","120","45","18","[""White""]","No","Female","3062385","null","null","","","","fixation","","","","","","","","","","","","","","","","","","","","","","","","","",""
"","","","","","canvas-keyboard-response","288","1378355","0.0-12.0-1.55","2d_cat_multi_stim_exp1","2022-4-19","14:57:11","25","75","3","9","10","40","30","120","45","18","[""White""]","No","Female","3062385","null","null","","","","clear_screen","","","","","","","","","","","","","","","","","","","","","","","","","",""
"","","","","","canvas-keyboard-response","289","1379848","0.0-12.0-2.55","2d_cat_multi_stim_exp1","2022-4-19","14:57:11","25","75","3","9","10","40","30","120","45","18","[""White""]","No","Female","3062385","1484","i","learn","","","learn_trial","40","110","out","0","1","","","","","","","","","","","","","","","","","","","","",""
"","","","","","canvas-keyboard-response","290","1380358","0.0-12.0-3.55","2d_cat_multi_stim_exp1","2022-4-19","14:57:11","25","75","3","9","10","40","30","120","45","18","[""White""]","No","Female","3062385","null","null","learn_feedback","","","learn_feedback","40","110","out","","","","","","","","","","","","","","","","","","","","","","",""
"","","","","","canvas-keyboard-response","291","1380418","0.0-12.0-4.55","2d_cat_multi_stim_exp1","2022-4-19","14:57:11","25","75","3","9","10","40","30","120","45","18","[""White""]","No","Female","3062385","null","null","","","","clear_screen","","","","","","","","","","","","","","","","","","","","","","","","","",""
"","","","","","canvas-keyboard-response","292","1380926","0.0-12.0-0.56","2d_cat_multi_stim_exp1","2022-4-19","14:57:11","25","75","3","9","10","40","30","120","45","18","[""White""]","No","Female","3062385","null","null","","","","fixation","","","","","","","","","","","","","","","","","","","","","","","","","",""
"","","","","","canvas-keyboard-response","293","1381437","0.0-12.0-1.56","2d_cat_multi_stim_exp1","2022-4-19","14:57:11","25","75","3","9","10","40","30","120","45","18","[""White""]","No","Female","3062385","null","null","","","","clear_screen","","","","","","","","","","","","","","","","","","","","","","","","","",""
"","","","","","canvas-keyboard-response","294","1382521","0.0-12.0-2.56","2d_cat_multi_stim_exp1","2022-4-19","14:57:11","25","75","3","9","10","40","30","120","45","18","[""White""]","No","Female","3062385","1073","i","learn","","","learn_trial","20","100","out","0","1","","","","","","","","","","","","","","","","","","","","",""
"","","","","","canvas-keyboard-response","295","1383031","0.0-12.0-3.56","2d_cat_multi_stim_exp1","2022-4-19","14:57:11","25","75","3","9","10","40","30","120","45","18","[""White""]","No","Female","3062385","null","null","learn_feedback","","","learn_feedback","20","100","out","","","","","","","","","","","","","","","","","","","","","","",""
