"success","timeout","failed_images","failed_audio","failed_video","trial_type","trial_index","time_elapsed","internal_node_id","exp_name","date","time","angle_mean_in","radius_mean_in","angle_sd_in","radius_sd_in","angle_min_out","angle_max_out","radius_min_out","radius_max_out","sub_n","age","race","ethnicity","gender","exp_duration","rt","response","exp_trial_type","stimulus","view_history","screen_id","angle","radius","distribution","choice","correct","order","angle_a","radius_a","angle_b","radius_b","angle_c","radius_c","jkl_correct","transfer_trial_type","choice_set","abc_correct","tc_correct","tc_angle","tdc_a","tdc_b","tdc_c","pair","category_a","category_b","category_c","question_order"
"true","false","[]","[]","[]","preload","0","32","0.0-0.0","2d_cat_multi_stim_exp1","2022-4-19","16:11:21","25","75","3","9","10","40","30","120","46","19","[""Asian""]","No","Male","3476732","","","","","","","","","","","","","","","","","","","","","","","","","","","","","","","",""
"","","","","","survey-html-form","1","3463","0.0-1.0","2d_cat_multi_stim_exp1","2022-4-19","16:11:21","25","75","3","9","10","40","30","120","46","19","[""Asian""]","No","Male","3476732","3419","{""response"":""46""}","enter-sub-number","","","","","","","","","","","","","","","","","","","","","","","","","","","","",""
"true","","","","","fullscreen","2","6137","0.0-2.0","2d_cat_multi_stim_exp1","2022-4-19","16:11:21","25","75","3","9","10","40","30","120","46","19","[""Asian""]","No","Male","3476732","","","","","","","","","","","","","","","","","","","","","","","","","","","","","","","",""
"","","","","","image-button-response","3","1199408","0.0-3.0","2d_cat_multi_stim_exp1","2022-4-19","16:11:21","25","75","3","9","10","40","30","120","46","19","[""Asian""]","No","Male","3476732","1193263","0","","consent.png","","","","","","","","","","","","","","","","","","","","","","","","","","","",""
"","","","","","html-button-response","4","1203063","0.0-4.0","2d_cat_multi_stim_exp1","2022-4-19","16:11:21","25","75","3","9","10","40","30","120","46","19","[""Asian""]","No","Male","3476732","3650","0","","<div style= ""font-size:25px;"" <p> <strong> Welcome to the experiment! </strong><br> <p style=""color:#8B0000; font-size:25px;""><strong> Please do NOT exit full screen until you are done with the experiment. </strong> </p><p style=""font-size:25px;color:#8B0000;""> <strong> The experiment will be canceled and your data will be lost <br> if you try to go back or refresh the page at any point during the experiment.</strong> </p><br><p> <strong> Thanks in advance for your contribution to our research! </strong></p>","","","","","","","","","","","","","","","","","","","","","","","","","","","",""
"","","","","","instructions","5","1254400","0.0-5.0","2d_cat_multi_stim_exp1","2022-4-19","16:11:21","25","75","3","9","10","40","30","120","46","19","[""Asian""]","No","Male","3476732","51332","","","","[{""page_index"":0,""viewing_time"":5314},{""page_index"":1,""viewing_time"":2857},{""page_index"":0,""viewing_time"":4296},{""page_index"":1,""viewing_time"":2497},{""page_index"":2,""viewing_time"":11286},{""page_index"":3,""viewing_time"":25081}]","instructions_1","","","","","","","","","","","","","","","","","","","","","","","","","",""
"","","","","","instructions","6","1257432","0.0-6.0","2d_cat_multi_stim_exp1","2022-4-19","16:11:21","25","75","3","9","10","40","30","120","46","19","[""Asian""]","No","Male","3476732","3027","","","","[{""page_index"":0,""viewing_time"":3027}]","Click to see the kinds of turtles that will appear in the study.","","","","","","","","","","","","","","","","","","","","","","","","","",""
"","","","","","canvas-keyboard-response","7","1272449","0.0-7.0","2d_cat_multi_stim_exp1","2022-4-19","16:11:21","25","75","3","9","10","40","30","120","46","19","[""Asian""]","No","Male","3476732","null","null","","","","demo_range","","","","","","","","","","","","","","","","","","","","","","","","","",""
"","","","","","instructions","8","1275144","0.0-8.0","2d_cat_multi_stim_exp1","2022-4-19","16:11:21","25","75","3","9","10","40","30","120","46","19","[""Asian""]","No","Male","3476732","2193","","","","[{""page_index"":0,""viewing_time"":2193}]","Click to see some turtles in the subspecies.","","","","","","","","","","","","","","","","","","","","","","","","","",""
"","","","","","canvas-keyboard-response","9","1290159","0.0-9.0","2d_cat_multi_stim_exp1","2022-4-19","16:11:21","25","75","3","9","10","40","30","120","46","19","[""Asian""]","No","Male","3476732","null","null","","","","demo_in","","","","","","","","","","","","","","","","","","","","","","","","","",""
"","","","","","instructions","10","1321816","0.0-10.0","2d_cat_multi_stim_exp1","2022-4-19","16:11:21","25","75","3","9","10","40","30","120","46","19","[""Asian""]","No","Male","3476732","31155","","","","[{""page_index"":0,""viewing_time"":6930},{""page_index"":1,""viewing_time"":18344},{""page_index"":2,""viewing_time"":5880}]","instructions_2","","","","","","","","","","","","","","","","","","","","","","","","","",""
"","","","","","instructions","11","1323232","0.0-11.0","2d_cat_multi_stim_exp1","2022-4-19","16:11:21","25","75","3","9","10","40","30","120","46","19","[""Asian""]","No","Male","3476732","1412","","","","[{""page_index"":0,""viewing_time"":1411}]","Click to begin the first phase of the experiment.","","","","","","","","","","","","","","","","","","","","","","","","","",""
"","","","","","canvas-keyboard-response","12","1323742","0.0-12.0-0.0","2d_cat_multi_stim_exp1","2022-4-19","16:11:21","25","75","3","9","10","40","30","120","46","19","[""Asian""]","No","Male","3476732","null","null","","","","fixation","","","","","","","","","","","","","","","","","","","","","","","","","",""
"","","","","","canvas-keyboard-response","13","1324249","0.0-12.0-1.0","2d_cat_multi_stim_exp1","2022-4-19","16:11:21","25","75","3","9","10","40","30","120","46","19","[""Asian""]","No","Male","3476732","null","null","","","","clear_screen","","","","","","","","","","","","","","","","","","","","","","","","","",""
"","","","","","canvas-keyboard-response","14","1327246","0.0-12.0-2.0","2d_cat_multi_stim_exp1","2022-4-19","16:11:21","25","75","3","9","10","40","30","120","46","19","[""Asian""]","No","Male","3476732","2988","u","learn","","","learn_trial","30","100","out","1","0","","","","","","","","","","","","","","","","","","","","",""
"","","","","","canvas-keyboard-response","15","1328256","0.0-12.0-3.0","2d_cat_multi_stim_exp1","2022-4-19","16:11:21","25","75","3","9","10","40","30","120","46","19","[""Asian""]","No","Male","3476732","null","null","learn_feedback","","","learn_feedback","30","100","out","","","","","","","","","","","","","","","","","","","","","","",""
"","","","","","canvas-keyboard-response","16","1328316","0.0-12.0-4.0","2d_cat_multi_stim_exp1","2022-4-19","16:11:21","25","75","3","9","10","40","30","120","46","19","[""Asian""]","No","Male","3476732","null","null","","","","clear_screen","","","","","","","","","","","","","","","","","","","","","","","","","",""
"","","","","","canvas-keyboard-response","17","1328828","0.0-12.0-0.1","2d_cat_multi_stim_exp1","2022-4-19","16:11:21","25","75","3","9","10","40","30","120","46","19","[""Asian""]","No","Male","3476732","null","null","","","","fixation","","","","","","","","","","","","","","","","","","","","","","","","","",""
"","","","","","canvas-keyboard-response","18","1329343","0.0-12.0-1.1","2d_cat_multi_stim_exp1","2022-4-19","16:11:21","25","75","3","9","10","40","30","120","46","19","[""Asian""]","No","Male","3476732","null","null","","","","clear_screen","","","","","","","","","","","","","","","","","","","","","","","","","",""
"","","","","","canvas-keyboard-response","19","1332304","0.0-12.0-2.1","2d_cat_multi_stim_exp1","2022-4-19","16:11:21","25","75","3","9","10","40","30","120","46","19","[""Asian""]","No","Male","3476732","2948","u","learn","","","learn_trial","23.3473","82.5112","in","1","1","","","","","","","","","","","","","","","","","","","","",""
"","","","","","canvas-keyboard-response","20","1332815","0.0-12.0-3.1","2d_cat_multi_stim_exp1","2022-4-19","16:11:21","25","75","3","9","10","40","30","120","46","19","[""Asian""]","No","Male","3476732","null","null","learn_feedback","","","learn_feedback","23.3473","82.5112","in","","","","","","","","","","","","","","","","","","","","","","",""
"","","","","","canvas-keyboard-response","21","1332875","0.0-12.0-4.1","2d_cat_multi_stim_exp1","2022-4-19","16:11:21","25","75","3","9","10","40","30","120","46","19","[""Asian""]","No","Male","3476732","null","null","","","","clear_screen","","","","","","","","","","","","","","","","","","","","","","","","","",""
"","","","","","canvas-keyboard-response","22","1333386","0.0-12.0-0.2","2d_cat_multi_stim_exp1","2022-4-19","16:11:21","25","75","3","9","10","40","30","120","46","19","[""Asian""]","No","Male","3476732","null","null","","","","fixation","","","","","","","","","","","","","","","","","","","","","","","","","",""
"","","","","","canvas-keyboard-response","23","1333898","0.0-12.0-1.2","2d_cat_multi_stim_exp1","2022-4-19","16:11:21","25","75","3","9","10","40","30","120","46","19","[""Asian""]","No","Male","3476732","null","null","","","","clear_screen","","","","","","","","","","","","","","","","","","","","","","","","","",""
"","","","","","canvas-keyboard-response","24","1335920","0.0-12.0-2.2","2d_cat_multi_stim_exp1","2022-4-19","16:11:21","25","75","3","9","10","40","30","120","46","19","[""Asian""]","No","Male","3476732","2011","u","learn","","","learn_trial","25","75","in","1","1","","","","","","","","","","","","","","","","","","","","",""
"","","","","","canvas-keyboard-response","25","1336430","0.0-12.0-3.2","2d_cat_multi_stim_exp1","2022-4-19","16:11:21","25","75","3","9","10","40","30","120","46","19","[""Asian""]","No","Male","3476732","null","null","learn_feedback","","","learn_feedback","25","75","in","","","","","","","","","","","","","","","","","","","","","","",""
"","","","","","canvas-keyboard-response","26","1336488","0.0-12.0-4.2","2d_cat_multi_stim_exp1","2022-4-19","16:11:21","25","75","3","9","10","40","30","120","46","19","[""Asian""]","No","Male","3476732","null","null","","","","clear_screen","","","","","","","","","","","","","","","","","","","","","","","","","",""
"","","","","","canvas-keyboard-response","27","1336999","0.0-12.0-0.3","2d_cat_multi_stim_exp1","2022-4-19","16:11:21","25","75","3","9","10","40","30","120","46","19","[""Asian""]","No","Male","3476732","null","null","","","","fixation","","","","","","","","","","","","","","","","","","","","","","","","","",""
"","","","","","canvas-keyboard-response","28","1337513","0.0-12.0-1.3","2d_cat_multi_stim_exp1","2022-4-19","16:11:21","25","75","3","9","10","40","30","120","46","19","[""Asian""]","No","Male","3476732","null","null","","","","clear_screen","","","","","","","","","","","","","","","","","","","","","","","","","",""
"","","","","","canvas-keyboard-response","29","1341431","0.0-12.0-2.3","2d_cat_multi_stim_exp1","2022-4-19","16:11:21","25","75","3","9","10","40","30","120","46","19","[""Asian""]","No","Male","3476732","3909","i","learn","","","learn_trial","23.3333","40","out","0","1","","","","","","","","","","","","","","","","","","","","",""
"","","","","","canvas-keyboard-response","30","1341941","0.0-12.0-3.3","2d_cat_multi_stim_exp1","2022-4-19","16:11:21","25","75","3","9","10","40","30","120","46","19","[""Asian""]","No","Male","3476732","null","null","learn_feedback","","","learn_feedback","23.3333","40","out","","","","","","","","","","","","","","","","","","","","","","",""
"","","","","","canvas-keyboard-response","31","1342002","0.0-12.0-4.3","2d_cat_multi_stim_exp1","2022-4-19","16:11:21","25","75","3","9","10","40","30","120","46","19","[""Asian""]","No","Male","3476732","null","null","","","","clear_screen","","","","","","","","","","","","","","","","","","","","","","","","","",""
"","","","","","canvas-keyboard-response","32","1342513","0.0-12.0-0.4","2d_cat_multi_stim_exp1","2022-4-19","16:11:21","25","75","3","9","10","40","30","120","46","19","[""Asian""]","No","Male","3476732","null","null","","","","fixation","","","","","","","","","","","","","","","","","","","","","","","","","",""
"","","","","","canvas-keyboard-response","33","1343022","0.0-12.0-1.4","2d_cat_multi_stim_exp1","2022-4-19","16:11:21","25","75","3","9","10","40","30","120","46","19","[""Asian""]","No","Male","3476732","null","null","","","","clear_screen","","","","","","","","","","","","","","","","","","","","","","","","","",""
"","","","","","canvas-keyboard-response","34","1344423","0.0-12.0-2.4","2d_cat_multi_stim_exp1","2022-4-19","16:11:21","25","75","3","9","10","40","30","120","46","19","[""Asian""]","No","Male","3476732","1392","i","learn","","","learn_trial","16.6667","50","out","0","1","","","","","","","","","","","","","","","","","","","","",""
"","","","","","canvas-keyboard-response","35","1344935","0.0-12.0-3.4","2d_cat_multi_stim_exp1","2022-4-19","16:11:21","25","75","3","9","10","40","30","120","46","19","[""Asian""]","No","Male","3476732","null","null","learn_feedback","","","learn_feedback","16.6667","50","out","","","","","","","","","","","","","","","","","","","","","","",""
"","","","","","canvas-keyboard-response","36","1344995","0.0-12.0-4.4","2d_cat_multi_stim_exp1","2022-4-19","16:11:21","25","75","3","9","10","40","30","120","46","19","[""Asian""]","No","Male","3476732","null","null","","","","clear_screen","","","","","","","","","","","","","","","","","","","","","","","","","",""
"","","","","","canvas-keyboard-response","37","1345503","0.0-12.0-0.5","2d_cat_multi_stim_exp1","2022-4-19","16:11:21","25","75","3","9","10","40","30","120","46","19","[""Asian""]","No","Male","3476732","null","null","","","","fixation","","","","","","","","","","","","","","","","","","","","","","","","","",""
"","","","","","canvas-keyboard-response","38","1346013","0.0-12.0-1.5","2d_cat_multi_stim_exp1","2022-4-19","16:11:21","25","75","3","9","10","40","30","120","46","19","[""Asian""]","No","Male","3476732","null","null","","","","clear_screen","","","","","","","","","","","","","","","","","","","","","","","","","",""
"","","","","","canvas-keyboard-response","39","1347384","0.0-12.0-2.5","2d_cat_multi_stim_exp1","2022-4-19","16:11:21","25","75","3","9","10","40","30","120","46","19","[""Asian""]","No","Male","3476732","1360","u","learn","","","learn_trial","22.0121","75.8068","in","1","1","","","","","","","","","","","","","","","","","","","","",""
"","","","","","canvas-keyboard-response","40","1347892","0.0-12.0-3.5","2d_cat_multi_stim_exp1","2022-4-19","16:11:21","25","75","3","9","10","40","30","120","46","19","[""Asian""]","No","Male","3476732","null","null","learn_feedback","","","learn_feedback","22.0121","75.8068","in","","","","","","","","","","","","","","","","","","","","","","",""
"","","","","","canvas-keyboard-response","41","1347951","0.0-12.0-4.5","2d_cat_multi_stim_exp1","2022-4-19","16:11:21","25","75","3","9","10","40","30","120","46","19","[""Asian""]","No","Male","3476732","null","null","","","","clear_screen","","","","","","","","","","","","","","","","","","","","","","","","","",""
"","","","","","canvas-keyboard-response","42","1348462","0.0-12.0-0.6","2d_cat_multi_stim_exp1","2022-4-19","16:11:21","25","75","3","9","10","40","30","120","46","19","[""Asian""]","No","Male","3476732","null","null","","","","fixation","","","","","","","","","","","","","","","","","","","","","","","","","",""
"","","","","","canvas-keyboard-response","43","1348972","0.0-12.0-1.6","2d_cat_multi_stim_exp1","2022-4-19","16:11:21","25","75","3","9","10","40","30","120","46","19","[""Asian""]","No","Male","3476732","null","null","","","","clear_screen","","","","","","","","","","","","","","","","","","","","","","","","","",""
"","","","","","canvas-keyboard-response","44","1350815","0.0-12.0-2.6","2d_cat_multi_stim_exp1","2022-4-19","16:11:21","25","75","3","9","10","40","30","120","46","19","[""Asian""]","No","Male","3476732","1834","i","learn","","","learn_trial","40","80","out","0","1","","","","","","","","","","","","","","","","","","","","",""
"","","","","","canvas-keyboard-response","45","1351322","0.0-12.0-3.6","2d_cat_multi_stim_exp1","2022-4-19","16:11:21","25","75","3","9","10","40","30","120","46","19","[""Asian""]","No","Male","3476732","null","null","learn_feedback","","","learn_feedback","40","80","out","","","","","","","","","","","","","","","","","","","","","","",""
"","","","","","canvas-keyboard-response","46","1351385","0.0-12.0-4.6","2d_cat_multi_stim_exp1","2022-4-19","16:11:21","25","75","3","9","10","40","30","120","46","19","[""Asian""]","No","Male","3476732","null","null","","","","clear_screen","","","","","","","","","","","","","","","","","","","","","","","","","",""
"","","","","","canvas-keyboard-response","47","1351894","0.0-12.0-0.7","2d_cat_multi_stim_exp1","2022-4-19","16:11:21","25","75","3","9","10","40","30","120","46","19","[""Asian""]","No","Male","3476732","null","null","","","","fixation","","","","","","","","","","","","","","","","","","","","","","","","","",""
"","","","","","canvas-keyboard-response","48","1352406","0.0-12.0-1.7","2d_cat_multi_stim_exp1","2022-4-19","16:11:21","25","75","3","9","10","40","30","120","46","19","[""Asian""]","No","Male","3476732","null","null","","","","clear_screen","","","","","","","","","","","","","","","","","","","","","","","","","",""
"","","","","","canvas-keyboard-response","49","1354207","0.0-12.0-2.7","2d_cat_multi_stim_exp1","2022-4-19","16:11:21","25","75","3","9","10","40","30","120","46","19","[""Asian""]","No","Male","3476732","1791","u","learn","","","learn_trial","20","90","out","1","0","","","","","","","","","","","","","","","","","","","","",""
"","","","","","canvas-keyboard-response","50","1355218","0.0-12.0-3.7","2d_cat_multi_stim_exp1","2022-4-19","16:11:21","25","75","3","9","10","40","30","120","46","19","[""Asian""]","No","Male","3476732","null","null","learn_feedback","","","learn_feedback","20","90","out","","","","","","","","","","","","","","","","","","","","","","",""
"","","","","","canvas-keyboard-response","51","1355277","0.0-12.0-4.7","2d_cat_multi_stim_exp1","2022-4-19","16:11:21","25","75","3","9","10","40","30","120","46","19","[""Asian""]","No","Male","3476732","null","null","","","","clear_screen","","","","","","","","","","","","","","","","","","","","","","","","","",""
"","","","","","canvas-keyboard-response","52","1355786","0.0-12.0-0.8","2d_cat_multi_stim_exp1","2022-4-19","16:11:21","25","75","3","9","10","40","30","120","46","19","[""Asian""]","No","Male","3476732","null","null","","","","fixation","","","","","","","","","","","","","","","","","","","","","","","","","",""
"","","","","","canvas-keyboard-response","53","1356296","0.0-12.0-1.8","2d_cat_multi_stim_exp1","2022-4-19","16:11:21","25","75","3","9","10","40","30","120","46","19","[""Asian""]","No","Male","3476732","null","null","","","","clear_screen","","","","","","","","","","","","","","","","","","","","","","","","","",""
"","","","","","canvas-keyboard-response","54","1357423","0.0-12.0-2.8","2d_cat_multi_stim_exp1","2022-4-19","16:11:21","25","75","3","9","10","40","30","120","46","19","[""Asian""]","No","Male","3476732","1118","u","learn","","","learn_trial","26.4216","82.9254","in","1","1","","","","","","","","","","","","","","","","","","","","",""
"","","","","","canvas-keyboard-response","55","1357932","0.0-12.0-3.8","2d_cat_multi_stim_exp1","2022-4-19","16:11:21","25","75","3","9","10","40","30","120","46","19","[""Asian""]","No","Male","3476732","null","null","learn_feedback","","","learn_feedback","26.4216","82.9254","in","","","","","","","","","","","","","","","","","","","","","","",""
"","","","","","canvas-keyboard-response","56","1357994","0.0-12.0-4.8","2d_cat_multi_stim_exp1","2022-4-19","16:11:21","25","75","3","9","10","40","30","120","46","19","[""Asian""]","No","Male","3476732","null","null","","","","clear_screen","","","","","","","","","","","","","","","","","","","","","","","","","",""
"","","","","","canvas-keyboard-response","57","1358505","0.0-12.0-0.9","2d_cat_multi_stim_exp1","2022-4-19","16:11:21","25","75","3","9","10","40","30","120","46","19","[""Asian""]","No","Male","3476732","null","null","","","","fixation","","","","","","","","","","","","","","","","","","","","","","","","","",""
"","","","","","canvas-keyboard-response","58","1359016","0.0-12.0-1.9","2d_cat_multi_stim_exp1","2022-4-19","16:11:21","25","75","3","9","10","40","30","120","46","19","[""Asian""]","No","Male","3476732","null","null","","","","clear_screen","","","","","","","","","","","","","","","","","","","","","","","","","",""
"","","","","","canvas-keyboard-response","59","1359823","0.0-12.0-2.9","2d_cat_multi_stim_exp1","2022-4-19","16:11:21","25","75","3","9","10","40","30","120","46","19","[""Asian""]","No","Male","3476732","797","i","learn","","","learn_trial","36.6667","40","out","0","1","","","","","","","","","","","","","","","","","","","","",""
"","","","","","canvas-keyboard-response","60","1360332","0.0-12.0-3.9","2d_cat_multi_stim_exp1","2022-4-19","16:11:21","25","75","3","9","10","40","30","120","46","19","[""Asian""]","No","Male","3476732","null","null","learn_feedback","","","learn_feedback","36.6667","40","out","","","","","","","","","","","","","","","","","","","","","","",""
"","","","","","canvas-keyboard-response","61","1360393","0.0-12.0-4.9","2d_cat_multi_stim_exp1","2022-4-19","16:11:21","25","75","3","9","10","40","30","120","46","19","[""Asian""]","No","Male","3476732","null","null","","","","clear_screen","","","","","","","","","","","","","","","","","","","","","","","","","",""
"","","","","","canvas-keyboard-response","62","1360905","0.0-12.0-0.10","2d_cat_multi_stim_exp1","2022-4-19","16:11:21","25","75","3","9","10","40","30","120","46","19","[""Asian""]","No","Male","3476732","null","null","","","","fixation","","","","","","","","","","","","","","","","","","","","","","","","","",""
"","","","","","canvas-keyboard-response","63","1361416","0.0-12.0-1.10","2d_cat_multi_stim_exp1","2022-4-19","16:11:21","25","75","3","9","10","40","30","120","46","19","[""Asian""]","No","Male","3476732","null","null","","","","clear_screen","","","","","","","","","","","","","","","","","","","","","","","","","",""
"","","","","","canvas-keyboard-response","64","1362776","0.0-12.0-2.10","2d_cat_multi_stim_exp1","2022-4-19","16:11:21","25","75","3","9","10","40","30","120","46","19","[""Asian""]","No","Male","3476732","1347","i","learn","","","learn_trial","36.6667","120","out","0","1","","","","","","","","","","","","","","","","","","","","",""
"","","","","","canvas-keyboard-response","65","1363285","0.0-12.0-3.10","2d_cat_multi_stim_exp1","2022-4-19","16:11:21","25","75","3","9","10","40","30","120","46","19","[""Asian""]","No","Male","3476732","null","null","learn_feedback","","","learn_feedback","36.6667","120","out","","","","","","","","","","","","","","","","","","","","","","",""
"","","","","","canvas-keyboard-response","66","1363345","0.0-12.0-4.10","2d_cat_multi_stim_exp1","2022-4-19","16:11:21","25","75","3","9","10","40","30","120","46","19","[""Asian""]","No","Male","3476732","null","null","","","","clear_screen","","","","","","","","","","","","","","","","","","","","","","","","","",""
"","","","","","canvas-keyboard-response","67","1363857","0.0-12.0-0.11","2d_cat_multi_stim_exp1","2022-4-19","16:11:21","25","75","3","9","10","40","30","120","46","19","[""Asian""]","No","Male","3476732","null","null","","","","fixation","","","","","","","","","","","","","","","","","","","","","","","","","",""
"","","","","","canvas-keyboard-response","68","1364371","0.0-12.0-1.11","2d_cat_multi_stim_exp1","2022-4-19","16:11:21","25","75","3","9","10","40","30","120","46","19","[""Asian""]","No","Male","3476732","null","null","","","","clear_screen","","","","","","","","","","","","","","","","","","","","","","","","","",""
"","","","","","canvas-keyboard-response","69","1365271","0.0-12.0-2.11","2d_cat_multi_stim_exp1","2022-4-19","16:11:21","25","75","3","9","10","40","30","120","46","19","[""Asian""]","No","Male","3476732","889","u","learn","","","learn_trial","25","75","in","1","1","","","","","","","","","","","","","","","","","","","","",""
"","","","","","canvas-keyboard-response","70","1365786","0.0-12.0-3.11","2d_cat_multi_stim_exp1","2022-4-19","16:11:21","25","75","3","9","10","40","30","120","46","19","[""Asian""]","No","Male","3476732","null","null","learn_feedback","","","learn_feedback","25","75","in","","","","","","","","","","","","","","","","","","","","","","",""
"","","","","","canvas-keyboard-response","71","1365844","0.0-12.0-4.11","2d_cat_multi_stim_exp1","2022-4-19","16:11:21","25","75","3","9","10","40","30","120","46","19","[""Asian""]","No","Male","3476732","null","null","","","","clear_screen","","","","","","","","","","","","","","","","","","","","","","","","","",""
"","","","","","canvas-keyboard-response","72","1366353","0.0-12.0-0.12","2d_cat_multi_stim_exp1","2022-4-19","16:11:21","25","75","3","9","10","40","30","120","46","19","[""Asian""]","No","Male","3476732","null","null","","","","fixation","","","","","","","","","","","","","","","","","","","","","","","","","",""
"","","","","","canvas-keyboard-response","73","1366865","0.0-12.0-1.12","2d_cat_multi_stim_exp1","2022-4-19","16:11:21","25","75","3","9","10","40","30","120","46","19","[""Asian""]","No","Male","3476732","null","null","","","","clear_screen","","","","","","","","","","","","","","","","","","","","","","","","","",""
"","","","","","canvas-keyboard-response","74","1367879","0.0-12.0-2.12","2d_cat_multi_stim_exp1","2022-4-19","16:11:21","25","75","3","9","10","40","30","120","46","19","[""Asian""]","No","Male","3476732","1002","i","learn","","","learn_trial","20","120","out","0","1","","","","","","","","","","","","","","","","","","","","",""
"","","","","","canvas-keyboard-response","75","1368388","0.0-12.0-3.12","2d_cat_multi_stim_exp1","2022-4-19","16:11:21","25","75","3","9","10","40","30","120","46","19","[""Asian""]","No","Male","3476732","null","null","learn_feedback","","","learn_feedback","20","120","out","","","","","","","","","","","","","","","","","","","","","","",""
"","","","","","canvas-keyboard-response","76","1368449","0.0-12.0-4.12","2d_cat_multi_stim_exp1","2022-4-19","16:11:21","25","75","3","9","10","40","30","120","46","19","[""Asian""]","No","Male","3476732","null","null","","","","clear_screen","","","","","","","","","","","","","","","","","","","","","","","","","",""
"","","","","","canvas-keyboard-response","77","1368959","0.0-12.0-0.13","2d_cat_multi_stim_exp1","2022-4-19","16:11:21","25","75","3","9","10","40","30","120","46","19","[""Asian""]","No","Male","3476732","null","null","","","","fixation","","","","","","","","","","","","","","","","","","","","","","","","","",""
"","","","","","canvas-keyboard-response","78","1369471","0.0-12.0-1.13","2d_cat_multi_stim_exp1","2022-4-19","16:11:21","25","75","3","9","10","40","30","120","46","19","[""Asian""]","No","Male","3476732","null","null","","","","clear_screen","","","","","","","","","","","","","","","","","","","","","","","","","",""
"","","","","","canvas-keyboard-response","79","1370271","0.0-12.0-2.13","2d_cat_multi_stim_exp1","2022-4-19","16:11:21","25","75","3","9","10","40","30","120","46","19","[""Asian""]","No","Male","3476732","792","i","learn","","","learn_trial","16.6667","100","out","0","1","","","","","","","","","","","","","","","","","","","","",""
"","","","","","canvas-keyboard-response","80","1370781","0.0-12.0-3.13","2d_cat_multi_stim_exp1","2022-4-19","16:11:21","25","75","3","9","10","40","30","120","46","19","[""Asian""]","No","Male","3476732","null","null","learn_feedback","","","learn_feedback","16.6667","100","out","","","","","","","","","","","","","","","","","","","","","","",""
"","","","","","canvas-keyboard-response","81","1370843","0.0-12.0-4.13","2d_cat_multi_stim_exp1","2022-4-19","16:11:21","25","75","3","9","10","40","30","120","46","19","[""Asian""]","No","Male","3476732","null","null","","","","clear_screen","","","","","","","","","","","","","","","","","","","","","","","","","",""
"","","","","","canvas-keyboard-response","82","1371353","0.0-12.0-0.14","2d_cat_multi_stim_exp1","2022-4-19","16:11:21","25","75","3","9","10","40","30","120","46","19","[""Asian""]","No","Male","3476732","null","null","","","","fixation","","","","","","","","","","","","","","","","","","","","","","","","","",""
"","","","","","canvas-keyboard-response","83","1371862","0.0-12.0-1.14","2d_cat_multi_stim_exp1","2022-4-19","16:11:21","25","75","3","9","10","40","30","120","46","19","[""Asian""]","No","Male","3476732","null","null","","","","clear_screen","","","","","","","","","","","","","","","","","","","","","","","","","",""
"","","","","","canvas-keyboard-response","84","1373855","0.0-12.0-2.14","2d_cat_multi_stim_exp1","2022-4-19","16:11:21","25","75","3","9","10","40","30","120","46","19","[""Asian""]","No","Male","3476732","1983","u","learn","","","learn_trial","33.3333","50","out","1","0","","","","","","","","","","","","","","","","","","","","",""
"","","","","","canvas-keyboard-response","85","1374866","0.0-12.0-3.14","2d_cat_multi_stim_exp1","2022-4-19","16:11:21","25","75","3","9","10","40","30","120","46","19","[""Asian""]","No","Male","3476732","null","null","learn_feedback","","","learn_feedback","33.3333","50","out","","","","","","","","","","","","","","","","","","","","","","",""
"","","","","","canvas-keyboard-response","86","1374929","0.0-12.0-4.14","2d_cat_multi_stim_exp1","2022-4-19","16:11:21","25","75","3","9","10","40","30","120","46","19","[""Asian""]","No","Male","3476732","null","null","","","","clear_screen","","","","","","","","","","","","","","","","","","","","","","","","","",""
"","","","","","canvas-keyboard-response","87","1375438","0.0-12.0-0.15","2d_cat_multi_stim_exp1","2022-4-19","16:11:21","25","75","3","9","10","40","30","120","46","19","[""Asian""]","No","Male","3476732","null","null","","","","fixation","","","","","","","","","","","","","","","","","","","","","","","","","",""
"","","","","","canvas-keyboard-response","88","1375947","0.0-12.0-1.15","2d_cat_multi_stim_exp1","2022-4-19","16:11:21","25","75","3","9","10","40","30","120","46","19","[""Asian""]","No","Male","3476732","null","null","","","","clear_screen","","","","","","","","","","","","","","","","","","","","","","","","","",""
"","","","","","canvas-keyboard-response","89","1376926","0.0-12.0-2.15","2d_cat_multi_stim_exp1","2022-4-19","16:11:21","25","75","3","9","10","40","30","120","46","19","[""Asian""]","No","Male","3476732","969","u","learn","","","learn_trial","25","75","in","1","1","","","","","","","","","","","","","","","","","","","","",""
"","","","","","canvas-keyboard-response","90","1377437","0.0-12.0-3.15","2d_cat_multi_stim_exp1","2022-4-19","16:11:21","25","75","3","9","10","40","30","120","46","19","[""Asian""]","No","Male","3476732","null","null","learn_feedback","","","learn_feedback","25","75","in","","","","","","","","","","","","","","","","","","","","","","",""
"","","","","","canvas-keyboard-response","91","1377496","0.0-12.0-4.15","2d_cat_multi_stim_exp1","2022-4-19","16:11:21","25","75","3","9","10","40","30","120","46","19","[""Asian""]","No","Male","3476732","null","null","","","","clear_screen","","","","","","","","","","","","","","","","","","","","","","","","","",""
"","","","","","canvas-keyboard-response","92","1378003","0.0-12.0-0.16","2d_cat_multi_stim_exp1","2022-4-19","16:11:21","25","75","3","9","10","40","30","120","46","19","[""Asian""]","No","Male","3476732","null","null","","","","fixation","","","","","","","","","","","","","","","","","","","","","","","","","",""
"","","","","","canvas-keyboard-response","93","1378517","0.0-12.0-1.16","2d_cat_multi_stim_exp1","2022-4-19","16:11:21","25","75","3","9","10","40","30","120","46","19","[""Asian""]","No","Male","3476732","null","null","","","","clear_screen","","","","","","","","","","","","","","","","","","","","","","","","","",""
"","","","","","canvas-keyboard-response","94","1379455","0.0-12.0-2.16","2d_cat_multi_stim_exp1","2022-4-19","16:11:21","25","75","3","9","10","40","30","120","46","19","[""Asian""]","No","Male","3476732","929","u","learn","","","learn_trial","26.6667","60","out","1","0","","","","","","","","","","","","","","","","","","","","",""
"","","","","","canvas-keyboard-response","95","1380464","0.0-12.0-3.16","2d_cat_multi_stim_exp1","2022-4-19","16:11:21","25","75","3","9","10","40","30","120","46","19","[""Asian""]","No","Male","3476732","null","null","learn_feedback","","","learn_feedback","26.6667","60","out","","","","","","","","","","","","","","","","","","","","","","",""
"","","","","","canvas-keyboard-response","96","1380523","0.0-12.0-4.16","2d_cat_multi_stim_exp1","2022-4-19","16:11:21","25","75","3","9","10","40","30","120","46","19","[""Asian""]","No","Male","3476732","null","null","","","","clear_screen","","","","","","","","","","","","","","","","","","","","","","","","","",""
"","","","","","canvas-keyboard-response","97","1381033","0.0-12.0-0.17","2d_cat_multi_stim_exp1","2022-4-19","16:11:21","25","75","3","9","10","40","30","120","46","19","[""Asian""]","No","Male","3476732","null","null","","","","fixation","","","","","","","","","","","","","","","","","","","","","","","","","",""
"","","","","","canvas-keyboard-response","98","1381543","0.0-12.0-1.17","2d_cat_multi_stim_exp1","2022-4-19","16:11:21","25","75","3","9","10","40","30","120","46","19","[""Asian""]","No","Male","3476732","null","null","","","","clear_screen","","","","","","","","","","","","","","","","","","","","","","","","","",""
"","","","","","canvas-keyboard-response","99","1382711","0.0-12.0-2.17","2d_cat_multi_stim_exp1","2022-4-19","16:11:21","25","75","3","9","10","40","30","120","46","19","[""Asian""]","No","Male","3476732","1160","u","learn","","","learn_trial","25","75","in","1","1","","","","","","","","","","","","","","","","","","","","",""
"","","","","","canvas-keyboard-response","100","1383219","0.0-12.0-3.17","2d_cat_multi_stim_exp1","2022-4-19","16:11:21","25","75","3","9","10","40","30","120","46","19","[""Asian""]","No","Male","3476732","null","null","learn_feedback","","","learn_feedback","25","75","in","","","","","","","","","","","","","","","","","","","","","","",""
"","","","","","canvas-keyboard-response","101","1383282","0.0-12.0-4.17","2d_cat_multi_stim_exp1","2022-4-19","16:11:21","25","75","3","9","10","40","30","120","46","19","[""Asian""]","No","Male","3476732","null","null","","","","clear_screen","","","","","","","","","","","","","","","","","","","","","","","","","",""
"","","","","","canvas-keyboard-response","102","1383791","0.0-12.0-0.18","2d_cat_multi_stim_exp1","2022-4-19","16:11:21","25","75","3","9","10","40","30","120","46","19","[""Asian""]","No","Male","3476732","null","null","","","","fixation","","","","","","","","","","","","","","","","","","","","","","","","","",""
"","","","","","canvas-keyboard-response","103","1384303","0.0-12.0-1.18","2d_cat_multi_stim_exp1","2022-4-19","16:11:21","25","75","3","9","10","40","30","120","46","19","[""Asian""]","No","Male","3476732","null","null","","","","clear_screen","","","","","","","","","","","","","","","","","","","","","","","","","",""
"","","","","","canvas-keyboard-response","104","1385311","0.0-12.0-2.18","2d_cat_multi_stim_exp1","2022-4-19","16:11:21","25","75","3","9","10","40","30","120","46","19","[""Asian""]","No","Male","3476732","999","i","learn","","","learn_trial","16.6667","60","out","0","1","","","","","","","","","","","","","","","","","","","","",""
"","","","","","canvas-keyboard-response","105","1385819","0.0-12.0-3.18","2d_cat_multi_stim_exp1","2022-4-19","16:11:21","25","75","3","9","10","40","30","120","46","19","[""Asian""]","No","Male","3476732","null","null","learn_feedback","","","learn_feedback","16.6667","60","out","","","","","","","","","","","","","","","","","","","","","","",""
"","","","","","canvas-keyboard-response","106","1385877","0.0-12.0-4.18","2d_cat_multi_stim_exp1","2022-4-19","16:11:21","25","75","3","9","10","40","30","120","46","19","[""Asian""]","No","Male","3476732","null","null","","","","clear_screen","","","","","","","","","","","","","","","","","","","","","","","","","",""
"","","","","","canvas-keyboard-response","107","1386389","0.0-12.0-0.19","2d_cat_multi_stim_exp1","2022-4-19","16:11:21","25","75","3","9","10","40","30","120","46","19","[""Asian""]","No","Male","3476732","null","null","","","","fixation","","","","","","","","","","","","","","","","","","","","","","","","","",""
"","","","","","canvas-keyboard-response","108","1386903","0.0-12.0-1.19","2d_cat_multi_stim_exp1","2022-4-19","16:11:21","25","75","3","9","10","40","30","120","46","19","[""Asian""]","No","Male","3476732","null","null","","","","clear_screen","","","","","","","","","","","","","","","","","","","","","","","","","",""
"","","","","","canvas-keyboard-response","109","1387942","0.0-12.0-2.19","2d_cat_multi_stim_exp1","2022-4-19","16:11:21","25","75","3","9","10","40","30","120","46","19","[""Asian""]","No","Male","3476732","1031","i","learn","","","learn_trial","40","60","out","0","1","","","","","","","","","","","","","","","","","","","","",""
"","","","","","canvas-keyboard-response","110","1388454","0.0-12.0-3.19","2d_cat_multi_stim_exp1","2022-4-19","16:11:21","25","75","3","9","10","40","30","120","46","19","[""Asian""]","No","Male","3476732","null","null","learn_feedback","","","learn_feedback","40","60","out","","","","","","","","","","","","","","","","","","","","","","",""
"","","","","","canvas-keyboard-response","111","1388514","0.0-12.0-4.19","2d_cat_multi_stim_exp1","2022-4-19","16:11:21","25","75","3","9","10","40","30","120","46","19","[""Asian""]","No","Male","3476732","null","null","","","","clear_screen","","","","","","","","","","","","","","","","","","","","","","","","","",""
"","","","","","canvas-keyboard-response","112","1389023","0.0-12.0-0.20","2d_cat_multi_stim_exp1","2022-4-19","16:11:21","25","75","3","9","10","40","30","120","46","19","[""Asian""]","No","Male","3476732","null","null","","","","fixation","","","","","","","","","","","","","","","","","","","","","","","","","",""
"","","","","","canvas-keyboard-response","113","1389536","0.0-12.0-1.20","2d_cat_multi_stim_exp1","2022-4-19","16:11:21","25","75","3","9","10","40","30","120","46","19","[""Asian""]","No","Male","3476732","null","null","","","","clear_screen","","","","","","","","","","","","","","","","","","","","","","","","","",""
"","","","","","canvas-keyboard-response","114","1390694","0.0-12.0-2.20","2d_cat_multi_stim_exp1","2022-4-19","16:11:21","25","75","3","9","10","40","30","120","46","19","[""Asian""]","No","Male","3476732","1150","u","learn","","","learn_trial","33.3333","40","out","1","0","","","","","","","","","","","","","","","","","","","","",""
"","","","","","canvas-keyboard-response","115","1391704","0.0-12.0-3.20","2d_cat_multi_stim_exp1","2022-4-19","16:11:21","25","75","3","9","10","40","30","120","46","19","[""Asian""]","No","Male","3476732","null","null","learn_feedback","","","learn_feedback","33.3333","40","out","","","","","","","","","","","","","","","","","","","","","","",""
"","","","","","canvas-keyboard-response","116","1391763","0.0-12.0-4.20","2d_cat_multi_stim_exp1","2022-4-19","16:11:21","25","75","3","9","10","40","30","120","46","19","[""Asian""]","No","Male","3476732","null","null","","","","clear_screen","","","","","","","","","","","","","","","","","","","","","","","","","",""
"","","","","","canvas-keyboard-response","117","1392272","0.0-12.0-0.21","2d_cat_multi_stim_exp1","2022-4-19","16:11:21","25","75","3","9","10","40","30","120","46","19","[""Asian""]","No","Male","3476732","null","null","","","","fixation","","","","","","","","","","","","","","","","","","","","","","","","","",""
"","","","","","canvas-keyboard-response","118","1392784","0.0-12.0-1.21","2d_cat_multi_stim_exp1","2022-4-19","16:11:21","25","75","3","9","10","40","30","120","46","19","[""Asian""]","No","Male","3476732","null","null","","","","clear_screen","","","","","","","","","","","","","","","","","","","","","","","","","",""
"","","","","","canvas-keyboard-response","119","1394295","0.0-12.0-2.21","2d_cat_multi_stim_exp1","2022-4-19","16:11:21","25","75","3","9","10","40","30","120","46","19","[""Asian""]","No","Male","3476732","1501","i","learn","","","learn_trial","40","50","out","0","1","","","","","","","","","","","","","","","","","","","","",""
"","","","","","canvas-keyboard-response","120","1394805","0.0-12.0-3.21","2d_cat_multi_stim_exp1","2022-4-19","16:11:21","25","75","3","9","10","40","30","120","46","19","[""Asian""]","No","Male","3476732","null","null","learn_feedback","","","learn_feedback","40","50","out","","","","","","","","","","","","","","","","","","","","","","",""
"","","","","","canvas-keyboard-response","121","1394865","0.0-12.0-4.21","2d_cat_multi_stim_exp1","2022-4-19","16:11:21","25","75","3","9","10","40","30","120","46","19","[""Asian""]","No","Male","3476732","null","null","","","","clear_screen","","","","","","","","","","","","","","","","","","","","","","","","","",""
"","","","","","canvas-keyboard-response","122","1395376","0.0-12.0-0.22","2d_cat_multi_stim_exp1","2022-4-19","16:11:21","25","75","3","9","10","40","30","120","46","19","[""Asian""]","No","Male","3476732","null","null","","","","fixation","","","","","","","","","","","","","","","","","","","","","","","","","",""
"","","","","","canvas-keyboard-response","123","1395891","0.0-12.0-1.22","2d_cat_multi_stim_exp1","2022-4-19","16:11:21","25","75","3","9","10","40","30","120","46","19","[""Asian""]","No","Male","3476732","null","null","","","","clear_screen","","","","","","","","","","","","","","","","","","","","","","","","","",""
"","","","","","canvas-keyboard-response","124","1396871","0.0-12.0-2.22","2d_cat_multi_stim_exp1","2022-4-19","16:11:21","25","75","3","9","10","40","30","120","46","19","[""Asian""]","No","Male","3476732","969","u","learn","","","learn_trial","23.3333","80","out","1","0","","","","","","","","","","","","","","","","","","","","",""
"","","","","","canvas-keyboard-response","125","1397883","0.0-12.0-3.22","2d_cat_multi_stim_exp1","2022-4-19","16:11:21","25","75","3","9","10","40","30","120","46","19","[""Asian""]","No","Male","3476732","null","null","learn_feedback","","","learn_feedback","23.3333","80","out","","","","","","","","","","","","","","","","","","","","","","",""
"","","","","","canvas-keyboard-response","126","1397942","0.0-12.0-4.22","2d_cat_multi_stim_exp1","2022-4-19","16:11:21","25","75","3","9","10","40","30","120","46","19","[""Asian""]","No","Male","3476732","null","null","","","","clear_screen","","","","","","","","","","","","","","","","","","","","","","","","","",""
"","","","","","canvas-keyboard-response","127","1398452","0.0-12.0-0.23","2d_cat_multi_stim_exp1","2022-4-19","16:11:21","25","75","3","9","10","40","30","120","46","19","[""Asian""]","No","Male","3476732","null","null","","","","fixation","","","","","","","","","","","","","","","","","","","","","","","","","",""
"","","","","","canvas-keyboard-response","128","1398967","0.0-12.0-1.23","2d_cat_multi_stim_exp1","2022-4-19","16:11:21","25","75","3","9","10","40","30","120","46","19","[""Asian""]","No","Male","3476732","null","null","","","","clear_screen","","","","","","","","","","","","","","","","","","","","","","","","","",""
"","","","","","canvas-keyboard-response","129","1400456","0.0-12.0-2.23","2d_cat_multi_stim_exp1","2022-4-19","16:11:21","25","75","3","9","10","40","30","120","46","19","[""Asian""]","No","Male","3476732","1480","u","learn","","","learn_trial","25","75","in","1","1","","","","","","","","","","","","","","","","","","","","",""
"","","","","","canvas-keyboard-response","130","1400963","0.0-12.0-3.23","2d_cat_multi_stim_exp1","2022-4-19","16:11:21","25","75","3","9","10","40","30","120","46","19","[""Asian""]","No","Male","3476732","null","null","learn_feedback","","","learn_feedback","25","75","in","","","","","","","","","","","","","","","","","","","","","","",""
"","","","","","canvas-keyboard-response","131","1401024","0.0-12.0-4.23","2d_cat_multi_stim_exp1","2022-4-19","16:11:21","25","75","3","9","10","40","30","120","46","19","[""Asian""]","No","Male","3476732","null","null","","","","clear_screen","","","","","","","","","","","","","","","","","","","","","","","","","",""
"","","","","","canvas-keyboard-response","132","1401534","0.0-12.0-0.24","2d_cat_multi_stim_exp1","2022-4-19","16:11:21","25","75","3","9","10","40","30","120","46","19","[""Asian""]","No","Male","3476732","null","null","","","","fixation","","","","","","","","","","","","","","","","","","","","","","","","","",""
"","","","","","canvas-keyboard-response","133","1402044","0.0-12.0-1.24","2d_cat_multi_stim_exp1","2022-4-19","16:11:21","25","75","3","9","10","40","30","120","46","19","[""Asian""]","No","Male","3476732","null","null","","","","clear_screen","","","","","","","","","","","","","","","","","","","","","","","","","",""
"","","","","","canvas-keyboard-response","134","1403439","0.0-12.0-2.24","2d_cat_multi_stim_exp1","2022-4-19","16:11:21","25","75","3","9","10","40","30","120","46","19","[""Asian""]","No","Male","3476732","1384","u","learn","","","learn_trial","25","75","in","1","1","","","","","","","","","","","","","","","","","","","","",""
"","","","","","canvas-keyboard-response","135","1403949","0.0-12.0-3.24","2d_cat_multi_stim_exp1","2022-4-19","16:11:21","25","75","3","9","10","40","30","120","46","19","[""Asian""]","No","Male","3476732","null","null","learn_feedback","","","learn_feedback","25","75","in","","","","","","","","","","","","","","","","","","","","","","",""
"","","","","","canvas-keyboard-response","136","1404009","0.0-12.0-4.24","2d_cat_multi_stim_exp1","2022-4-19","16:11:21","25","75","3","9","10","40","30","120","46","19","[""Asian""]","No","Male","3476732","null","null","","","","clear_screen","","","","","","","","","","","","","","","","","","","","","","","","","",""
"","","","","","canvas-keyboard-response","137","1404518","0.0-12.0-0.25","2d_cat_multi_stim_exp1","2022-4-19","16:11:21","25","75","3","9","10","40","30","120","46","19","[""Asian""]","No","Male","3476732","null","null","","","","fixation","","","","","","","","","","","","","","","","","","","","","","","","","",""
"","","","","","canvas-keyboard-response","138","1405030","0.0-12.0-1.25","2d_cat_multi_stim_exp1","2022-4-19","16:11:21","25","75","3","9","10","40","30","120","46","19","[""Asian""]","No","Male","3476732","null","null","","","","clear_screen","","","","","","","","","","","","","","","","","","","","","","","","","",""
"","","","","","canvas-keyboard-response","139","1406279","0.0-12.0-2.25","2d_cat_multi_stim_exp1","2022-4-19","16:11:21","25","75","3","9","10","40","30","120","46","19","[""Asian""]","No","Male","3476732","1241","i","learn","","","learn_trial","25","75","in","0","0","","","","","","","","","","","","","","","","","","","","",""
"","","","","","canvas-keyboard-response","140","1407290","0.0-12.0-3.25","2d_cat_multi_stim_exp1","2022-4-19","16:11:21","25","75","3","9","10","40","30","120","46","19","[""Asian""]","No","Male","3476732","null","null","learn_feedback","","","learn_feedback","25","75","in","","","","","","","","","","","","","","","","","","","","","","",""
"","","","","","canvas-keyboard-response","141","1407351","0.0-12.0-4.25","2d_cat_multi_stim_exp1","2022-4-19","16:11:21","25","75","3","9","10","40","30","120","46","19","[""Asian""]","No","Male","3476732","null","null","","","","clear_screen","","","","","","","","","","","","","","","","","","","","","","","","","",""
"","","","","","canvas-keyboard-response","142","1407861","0.0-12.0-0.26","2d_cat_multi_stim_exp1","2022-4-19","16:11:21","25","75","3","9","10","40","30","120","46","19","[""Asian""]","No","Male","3476732","null","null","","","","fixation","","","","","","","","","","","","","","","","","","","","","","","","","",""
"","","","","","canvas-keyboard-response","143","1408374","0.0-12.0-1.26","2d_cat_multi_stim_exp1","2022-4-19","16:11:21","25","75","3","9","10","40","30","120","46","19","[""Asian""]","No","Male","3476732","null","null","","","","clear_screen","","","","","","","","","","","","","","","","","","","","","","","","","",""
"","","","","","canvas-keyboard-response","144","1409536","0.0-12.0-2.26","2d_cat_multi_stim_exp1","2022-4-19","16:11:21","25","75","3","9","10","40","30","120","46","19","[""Asian""]","No","Male","3476732","1149","i","learn","","","learn_trial","26.6667","110","out","0","1","","","","","","","","","","","","","","","","","","","","",""
"","","","","","canvas-keyboard-response","145","1410046","0.0-12.0-3.26","2d_cat_multi_stim_exp1","2022-4-19","16:11:21","25","75","3","9","10","40","30","120","46","19","[""Asian""]","No","Male","3476732","null","null","learn_feedback","","","learn_feedback","26.6667","110","out","","","","","","","","","","","","","","","","","","","","","","",""
"","","","","","canvas-keyboard-response","146","1410103","0.0-12.0-4.26","2d_cat_multi_stim_exp1","2022-4-19","16:11:21","25","75","3","9","10","40","30","120","46","19","[""Asian""]","No","Male","3476732","null","null","","","","clear_screen","","","","","","","","","","","","","","","","","","","","","","","","","",""
"","","","","","canvas-keyboard-response","147","1410610","0.0-12.0-0.27","2d_cat_multi_stim_exp1","2022-4-19","16:11:21","25","75","3","9","10","40","30","120","46","19","[""Asian""]","No","Male","3476732","null","null","","","","fixation","","","","","","","","","","","","","","","","","","","","","","","","","",""
"","","","","","canvas-keyboard-response","148","1411122","0.0-12.0-1.27","2d_cat_multi_stim_exp1","2022-4-19","16:11:21","25","75","3","9","10","40","30","120","46","19","[""Asian""]","No","Male","3476732","null","null","","","","clear_screen","","","","","","","","","","","","","","","","","","","","","","","","","",""
"","","","","","canvas-keyboard-response","149","1412494","0.0-12.0-2.27","2d_cat_multi_stim_exp1","2022-4-19","16:11:21","25","75","3","9","10","40","30","120","46","19","[""Asian""]","No","Male","3476732","1363","u","learn","","","learn_trial","25","75","in","1","1","","","","","","","","","","","","","","","","","","","","",""
"","","","","","canvas-keyboard-response","150","1413004","0.0-12.0-3.27","2d_cat_multi_stim_exp1","2022-4-19","16:11:21","25","75","3","9","10","40","30","120","46","19","[""Asian""]","No","Male","3476732","null","null","learn_feedback","","","learn_feedback","25","75","in","","","","","","","","","","","","","","","","","","","","","","",""
"","","","","","canvas-keyboard-response","151","1413066","0.0-12.0-4.27","2d_cat_multi_stim_exp1","2022-4-19","16:11:21","25","75","3","9","10","40","30","120","46","19","[""Asian""]","No","Male","3476732","null","null","","","","clear_screen","","","","","","","","","","","","","","","","","","","","","","","","","",""
"","","","","","canvas-keyboard-response","152","1413574","0.0-12.0-0.28","2d_cat_multi_stim_exp1","2022-4-19","16:11:21","25","75","3","9","10","40","30","120","46","19","[""Asian""]","No","Male","3476732","null","null","","","","fixation","","","","","","","","","","","","","","","","","","","","","","","","","",""
"","","","","","canvas-keyboard-response","153","1414087","0.0-12.0-1.28","2d_cat_multi_stim_exp1","2022-4-19","16:11:21","25","75","3","9","10","40","30","120","46","19","[""Asian""]","No","Male","3476732","null","null","","","","clear_screen","","","","","","","","","","","","","","","","","","","","","","","","","",""
"","","","","","canvas-keyboard-response","154","1416063","0.0-12.0-2.28","2d_cat_multi_stim_exp1","2022-4-19","16:11:21","25","75","3","9","10","40","30","120","46","19","[""Asian""]","No","Male","3476732","1966","u","learn","","","learn_trial","25","75","in","1","1","","","","","","","","","","","","","","","","","","","","",""
"","","","","","canvas-keyboard-response","155","1416573","0.0-12.0-3.28","2d_cat_multi_stim_exp1","2022-4-19","16:11:21","25","75","3","9","10","40","30","120","46","19","[""Asian""]","No","Male","3476732","null","null","learn_feedback","","","learn_feedback","25","75","in","","","","","","","","","","","","","","","","","","","","","","",""
"","","","","","canvas-keyboard-response","156","1416635","0.0-12.0-4.28","2d_cat_multi_stim_exp1","2022-4-19","16:11:21","25","75","3","9","10","40","30","120","46","19","[""Asian""]","No","Male","3476732","null","null","","","","clear_screen","","","","","","","","","","","","","","","","","","","","","","","","","",""
"","","","","","canvas-keyboard-response","157","1417144","0.0-12.0-0.29","2d_cat_multi_stim_exp1","2022-4-19","16:11:21","25","75","3","9","10","40","30","120","46","19","[""Asian""]","No","Male","3476732","null","null","","","","fixation","","","","","","","","","","","","","","","","","","","","","","","","","",""
"","","","","","canvas-keyboard-response","158","1417655","0.0-12.0-1.29","2d_cat_multi_stim_exp1","2022-4-19","16:11:21","25","75","3","9","10","40","30","120","46","19","[""Asian""]","No","Male","3476732","null","null","","","","clear_screen","","","","","","","","","","","","","","","","","","","","","","","","","",""
"","","","","","canvas-keyboard-response","159","1419175","0.0-12.0-2.29","2d_cat_multi_stim_exp1","2022-4-19","16:11:21","25","75","3","9","10","40","30","120","46","19","[""Asian""]","No","Male","3476732","1511","i","learn","","","learn_trial","25","57","in","0","0","","","","","","","","","","","","","","","","","","","","",""
"","","","","","canvas-keyboard-response","160","1420186","0.0-12.0-3.29","2d_cat_multi_stim_exp1","2022-4-19","16:11:21","25","75","3","9","10","40","30","120","46","19","[""Asian""]","No","Male","3476732","null","null","learn_feedback","","","learn_feedback","25","57","in","","","","","","","","","","","","","","","","","","","","","","",""
"","","","","","canvas-keyboard-response","161","1420246","0.0-12.0-4.29","2d_cat_multi_stim_exp1","2022-4-19","16:11:21","25","75","3","9","10","40","30","120","46","19","[""Asian""]","No","Male","3476732","null","null","","","","clear_screen","","","","","","","","","","","","","","","","","","","","","","","","","",""
"","","","","","canvas-keyboard-response","162","1420753","0.0-12.0-0.30","2d_cat_multi_stim_exp1","2022-4-19","16:11:21","25","75","3","9","10","40","30","120","46","19","[""Asian""]","No","Male","3476732","null","null","","","","fixation","","","","","","","","","","","","","","","","","","","","","","","","","",""
"","","","","","canvas-keyboard-response","163","1421264","0.0-12.0-1.30","2d_cat_multi_stim_exp1","2022-4-19","16:11:21","25","75","3","9","10","40","30","120","46","19","[""Asian""]","No","Male","3476732","null","null","","","","clear_screen","","","","","","","","","","","","","","","","","","","","","","","","","",""
"","","","","","canvas-keyboard-response","164","1422423","0.0-12.0-2.30","2d_cat_multi_stim_exp1","2022-4-19","16:11:21","25","75","3","9","10","40","30","120","46","19","[""Asian""]","No","Male","3476732","1151","i","learn","","","learn_trial","27.8087","71.8376","in","0","0","","","","","","","","","","","","","","","","","","","","",""
"","","","","","canvas-keyboard-response","165","1423434","0.0-12.0-3.30","2d_cat_multi_stim_exp1","2022-4-19","16:11:21","25","75","3","9","10","40","30","120","46","19","[""Asian""]","No","Male","3476732","null","null","learn_feedback","","","learn_feedback","27.8087","71.8376","in","","","","","","","","","","","","","","","","","","","","","","",""
"","","","","","canvas-keyboard-response","166","1423493","0.0-12.0-4.30","2d_cat_multi_stim_exp1","2022-4-19","16:11:21","25","75","3","9","10","40","30","120","46","19","[""Asian""]","No","Male","3476732","null","null","","","","clear_screen","","","","","","","","","","","","","","","","","","","","","","","","","",""
"","","","","","canvas-keyboard-response","167","1424001","0.0-12.0-0.31","2d_cat_multi_stim_exp1","2022-4-19","16:11:21","25","75","3","9","10","40","30","120","46","19","[""Asian""]","No","Male","3476732","null","null","","","","fixation","","","","","","","","","","","","","","","","","","","","","","","","","",""
"","","","","","canvas-keyboard-response","168","1424508","0.0-12.0-1.31","2d_cat_multi_stim_exp1","2022-4-19","16:11:21","25","75","3","9","10","40","30","120","46","19","[""Asian""]","No","Male","3476732","null","null","","","","clear_screen","","","","","","","","","","","","","","","","","","","","","","","","","",""
"","","","","","canvas-keyboard-response","169","1426463","0.0-12.0-2.31","2d_cat_multi_stim_exp1","2022-4-19","16:11:21","25","75","3","9","10","40","30","120","46","19","[""Asian""]","No","Male","3476732","1944","i","learn","","","learn_trial","20.7574","62.2721","in","0","0","","","","","","","","","","","","","","","","","","","","",""
"","","","","","canvas-keyboard-response","170","1427477","0.0-12.0-3.31","2d_cat_multi_stim_exp1","2022-4-19","16:11:21","25","75","3","9","10","40","30","120","46","19","[""Asian""]","No","Male","3476732","null","null","learn_feedback","","","learn_feedback","20.7574","62.2721","in","","","","","","","","","","","","","","","","","","","","","","",""
"","","","","","canvas-keyboard-response","171","1427535","0.0-12.0-4.31","2d_cat_multi_stim_exp1","2022-4-19","16:11:21","25","75","3","9","10","40","30","120","46","19","[""Asian""]","No","Male","3476732","null","null","","","","clear_screen","","","","","","","","","","","","","","","","","","","","","","","","","",""
"","","","","","canvas-keyboard-response","172","1428044","0.0-12.0-0.32","2d_cat_multi_stim_exp1","2022-4-19","16:11:21","25","75","3","9","10","40","30","120","46","19","[""Asian""]","No","Male","3476732","null","null","","","","fixation","","","","","","","","","","","","","","","","","","","","","","","","","",""
"","","","","","canvas-keyboard-response","173","1428552","0.0-12.0-1.32","2d_cat_multi_stim_exp1","2022-4-19","16:11:21","25","75","3","9","10","40","30","120","46","19","[""Asian""]","No","Male","3476732","null","null","","","","clear_screen","","","","","","","","","","","","","","","","","","","","","","","","","",""
"","","","","","canvas-keyboard-response","174","1429462","0.0-12.0-2.32","2d_cat_multi_stim_exp1","2022-4-19","16:11:21","25","75","3","9","10","40","30","120","46","19","[""Asian""]","No","Male","3476732","903","u","learn","","","learn_trial","25","75","in","1","1","","","","","","","","","","","","","","","","","","","","",""
"","","","","","canvas-keyboard-response","175","1429974","0.0-12.0-3.32","2d_cat_multi_stim_exp1","2022-4-19","16:11:21","25","75","3","9","10","40","30","120","46","19","[""Asian""]","No","Male","3476732","null","null","learn_feedback","","","learn_feedback","25","75","in","","","","","","","","","","","","","","","","","","","","","","",""
"","","","","","canvas-keyboard-response","176","1430034","0.0-12.0-4.32","2d_cat_multi_stim_exp1","2022-4-19","16:11:21","25","75","3","9","10","40","30","120","46","19","[""Asian""]","No","Male","3476732","null","null","","","","clear_screen","","","","","","","","","","","","","","","","","","","","","","","","","",""
"","","","","","canvas-keyboard-response","177","1430544","0.0-12.0-0.33","2d_cat_multi_stim_exp1","2022-4-19","16:11:21","25","75","3","9","10","40","30","120","46","19","[""Asian""]","No","Male","3476732","null","null","","","","fixation","","","","","","","","","","","","","","","","","","","","","","","","","",""
"","","","","","canvas-keyboard-response","178","1431053","0.0-12.0-1.33","2d_cat_multi_stim_exp1","2022-4-19","16:11:21","25","75","3","9","10","40","30","120","46","19","[""Asian""]","No","Male","3476732","null","null","","","","clear_screen","","","","","","","","","","","","","","","","","","","","","","","","","",""
"","","","","","canvas-keyboard-response","179","1436767","0.0-12.0-2.33","2d_cat_multi_stim_exp1","2022-4-19","16:11:21","25","75","3","9","10","40","30","120","46","19","[""Asian""]","No","Male","3476732","5705","i","learn","","","learn_trial","25.9271","66.4405","in","0","0","","","","","","","","","","","","","","","","","","","","",""
"","","","","","canvas-keyboard-response","180","1437777","0.0-12.0-3.33","2d_cat_multi_stim_exp1","2022-4-19","16:11:21","25","75","3","9","10","40","30","120","46","19","[""Asian""]","No","Male","3476732","null","null","learn_feedback","","","learn_feedback","25.9271","66.4405","in","","","","","","","","","","","","","","","","","","","","","","",""
"","","","","","canvas-keyboard-response","181","1437838","0.0-12.0-4.33","2d_cat_multi_stim_exp1","2022-4-19","16:11:21","25","75","3","9","10","40","30","120","46","19","[""Asian""]","No","Male","3476732","null","null","","","","clear_screen","","","","","","","","","","","","","","","","","","","","","","","","","",""
"","","","","","canvas-keyboard-response","182","1438348","0.0-12.0-0.34","2d_cat_multi_stim_exp1","2022-4-19","16:11:21","25","75","3","9","10","40","30","120","46","19","[""Asian""]","No","Male","3476732","null","null","","","","fixation","","","","","","","","","","","","","","","","","","","","","","","","","",""
"","","","","","canvas-keyboard-response","183","1438860","0.0-12.0-1.34","2d_cat_multi_stim_exp1","2022-4-19","16:11:21","25","75","3","9","10","40","30","120","46","19","[""Asian""]","No","Male","3476732","null","null","","","","clear_screen","","","","","","","","","","","","","","","","","","","","","","","","","",""
"","","","","","canvas-keyboard-response","184","1440215","0.0-12.0-2.34","2d_cat_multi_stim_exp1","2022-4-19","16:11:21","25","75","3","9","10","40","30","120","46","19","[""Asian""]","No","Male","3476732","1346","i","learn","","","learn_trial","36.6667","70","out","0","1","","","","","","","","","","","","","","","","","","","","",""
"","","","","","canvas-keyboard-response","185","1440726","0.0-12.0-3.34","2d_cat_multi_stim_exp1","2022-4-19","16:11:21","25","75","3","9","10","40","30","120","46","19","[""Asian""]","No","Male","3476732","null","null","learn_feedback","","","learn_feedback","36.6667","70","out","","","","","","","","","","","","","","","","","","","","","","",""
"","","","","","canvas-keyboard-response","186","1440785","0.0-12.0-4.34","2d_cat_multi_stim_exp1","2022-4-19","16:11:21","25","75","3","9","10","40","30","120","46","19","[""Asian""]","No","Male","3476732","null","null","","","","clear_screen","","","","","","","","","","","","","","","","","","","","","","","","","",""
"","","","","","canvas-keyboard-response","187","1441294","0.0-12.0-0.35","2d_cat_multi_stim_exp1","2022-4-19","16:11:21","25","75","3","9","10","40","30","120","46","19","[""Asian""]","No","Male","3476732","null","null","","","","fixation","","","","","","","","","","","","","","","","","","","","","","","","","",""
"","","","","","canvas-keyboard-response","188","1441809","0.0-12.0-1.35","2d_cat_multi_stim_exp1","2022-4-19","16:11:21","25","75","3","9","10","40","30","120","46","19","[""Asian""]","No","Male","3476732","null","null","","","","clear_screen","","","","","","","","","","","","","","","","","","","","","","","","","",""
"","","","","","canvas-keyboard-response","189","1443032","0.0-12.0-2.35","2d_cat_multi_stim_exp1","2022-4-19","16:11:21","25","75","3","9","10","40","30","120","46","19","[""Asian""]","No","Male","3476732","1214","i","learn","","","learn_trial","36.6667","100","out","0","1","","","","","","","","","","","","","","","","","","","","",""
"","","","","","canvas-keyboard-response","190","1443540","0.0-12.0-3.35","2d_cat_multi_stim_exp1","2022-4-19","16:11:21","25","75","3","9","10","40","30","120","46","19","[""Asian""]","No","Male","3476732","null","null","learn_feedback","","","learn_feedback","36.6667","100","out","","","","","","","","","","","","","","","","","","","","","","",""
"","","","","","canvas-keyboard-response","191","1443603","0.0-12.0-4.35","2d_cat_multi_stim_exp1","2022-4-19","16:11:21","25","75","3","9","10","40","30","120","46","19","[""Asian""]","No","Male","3476732","null","null","","","","clear_screen","","","","","","","","","","","","","","","","","","","","","","","","","",""
"","","","","","canvas-keyboard-response","192","1444111","0.0-12.0-0.36","2d_cat_multi_stim_exp1","2022-4-19","16:11:21","25","75","3","9","10","40","30","120","46","19","[""Asian""]","No","Male","3476732","null","null","","","","fixation","","","","","","","","","","","","","","","","","","","","","","","","","",""
"","","","","","canvas-keyboard-response","193","1444622","0.0-12.0-1.36","2d_cat_multi_stim_exp1","2022-4-19","16:11:21","25","75","3","9","10","40","30","120","46","19","[""Asian""]","No","Male","3476732","null","null","","","","clear_screen","","","","","","","","","","","","","","","","","","","","","","","","","",""
"","","","","","canvas-keyboard-response","194","1445887","0.0-12.0-2.36","2d_cat_multi_stim_exp1","2022-4-19","16:11:21","25","75","3","9","10","40","30","120","46","19","[""Asian""]","No","Male","3476732","1253","i","learn","","","learn_trial","10","40","out","0","1","","","","","","","","","","","","","","","","","","","","",""
"","","","","","canvas-keyboard-response","195","1446397","0.0-12.0-3.36","2d_cat_multi_stim_exp1","2022-4-19","16:11:21","25","75","3","9","10","40","30","120","46","19","[""Asian""]","No","Male","3476732","null","null","learn_feedback","","","learn_feedback","10","40","out","","","","","","","","","","","","","","","","","","","","","","",""
"","","","","","canvas-keyboard-response","196","1446459","0.0-12.0-4.36","2d_cat_multi_stim_exp1","2022-4-19","16:11:21","25","75","3","9","10","40","30","120","46","19","[""Asian""]","No","Male","3476732","null","null","","","","clear_screen","","","","","","","","","","","","","","","","","","","","","","","","","",""
"","","","","","canvas-keyboard-response","197","1446966","0.0-12.0-0.37","2d_cat_multi_stim_exp1","2022-4-19","16:11:21","25","75","3","9","10","40","30","120","46","19","[""Asian""]","No","Male","3476732","null","null","","","","fixation","","","","","","","","","","","","","","","","","","","","","","","","","",""
"","","","","","canvas-keyboard-response","198","1447477","0.0-12.0-1.37","2d_cat_multi_stim_exp1","2022-4-19","16:11:21","25","75","3","9","10","40","30","120","46","19","[""Asian""]","No","Male","3476732","null","null","","","","clear_screen","","","","","","","","","","","","","","","","","","","","","","","","","",""
"","","","","","canvas-keyboard-response","199","1448429","0.0-12.0-2.37","2d_cat_multi_stim_exp1","2022-4-19","16:11:21","25","75","3","9","10","40","30","120","46","19","[""Asian""]","No","Male","3476732","942","u","learn","","","learn_trial","25","75","in","1","1","","","","","","","","","","","","","","","","","","","","",""
"","","","","","canvas-keyboard-response","200","1448933","0.0-12.0-3.37","2d_cat_multi_stim_exp1","2022-4-19","16:11:21","25","75","3","9","10","40","30","120","46","19","[""Asian""]","No","Male","3476732","null","null","learn_feedback","","","learn_feedback","25","75","in","","","","","","","","","","","","","","","","","","","","","","",""
"","","","","","canvas-keyboard-response","201","1448993","0.0-12.0-4.37","2d_cat_multi_stim_exp1","2022-4-19","16:11:21","25","75","3","9","10","40","30","120","46","19","[""Asian""]","No","Male","3476732","null","null","","","","clear_screen","","","","","","","","","","","","","","","","","","","","","","","","","",""
"","","","","","canvas-keyboard-response","202","1449501","0.0-12.0-0.38","2d_cat_multi_stim_exp1","2022-4-19","16:11:21","25","75","3","9","10","40","30","120","46","19","[""Asian""]","No","Male","3476732","null","null","","","","fixation","","","","","","","","","","","","","","","","","","","","","","","","","",""
"","","","","","canvas-keyboard-response","203","1450010","0.0-12.0-1.38","2d_cat_multi_stim_exp1","2022-4-19","16:11:21","25","75","3","9","10","40","30","120","46","19","[""Asian""]","No","Male","3476732","null","null","","","","clear_screen","","","","","","","","","","","","","","","","","","","","","","","","","",""
"","","","","","canvas-keyboard-response","204","1451118","0.0-12.0-2.38","2d_cat_multi_stim_exp1","2022-4-19","16:11:21","25","75","3","9","10","40","30","120","46","19","[""Asian""]","No","Male","3476732","1098","u","learn","","","learn_trial","22.5729","80.2901","in","1","1","","","","","","","","","","","","","","","","","","","","",""
"","","","","","canvas-keyboard-response","205","1451628","0.0-12.0-3.38","2d_cat_multi_stim_exp1","2022-4-19","16:11:21","25","75","3","9","10","40","30","120","46","19","[""Asian""]","No","Male","3476732","null","null","learn_feedback","","","learn_feedback","22.5729","80.2901","in","","","","","","","","","","","","","","","","","","","","","","",""
"","","","","","canvas-keyboard-response","206","1451687","0.0-12.0-4.38","2d_cat_multi_stim_exp1","2022-4-19","16:11:21","25","75","3","9","10","40","30","120","46","19","[""Asian""]","No","Male","3476732","null","null","","","","clear_screen","","","","","","","","","","","","","","","","","","","","","","","","","",""
"","","","","","canvas-keyboard-response","207","1452196","0.0-12.0-0.39","2d_cat_multi_stim_exp1","2022-4-19","16:11:21","25","75","3","9","10","40","30","120","46","19","[""Asian""]","No","Male","3476732","null","null","","","","fixation","","","","","","","","","","","","","","","","","","","","","","","","","",""
"","","","","","canvas-keyboard-response","208","1452710","0.0-12.0-1.39","2d_cat_multi_stim_exp1","2022-4-19","16:11:21","25","75","3","9","10","40","30","120","46","19","[""Asian""]","No","Male","3476732","null","null","","","","clear_screen","","","","","","","","","","","","","","","","","","","","","","","","","",""
"","","","","","canvas-keyboard-response","209","1453735","0.0-12.0-2.39","2d_cat_multi_stim_exp1","2022-4-19","16:11:21","25","75","3","9","10","40","30","120","46","19","[""Asian""]","No","Male","3476732","1016","u","learn","","","learn_trial","25","75","in","1","1","","","","","","","","","","","","","","","","","","","","",""
"","","","","","canvas-keyboard-response","210","1454245","0.0-12.0-3.39","2d_cat_multi_stim_exp1","2022-4-19","16:11:21","25","75","3","9","10","40","30","120","46","19","[""Asian""]","No","Male","3476732","null","null","learn_feedback","","","learn_feedback","25","75","in","","","","","","","","","","","","","","","","","","","","","","",""
"","","","","","canvas-keyboard-response","211","1454303","0.0-12.0-4.39","2d_cat_multi_stim_exp1","2022-4-19","16:11:21","25","75","3","9","10","40","30","120","46","19","[""Asian""]","No","Male","3476732","null","null","","","","clear_screen","","","","","","","","","","","","","","","","","","","","","","","","","",""
"","","","","","canvas-keyboard-response","212","1454814","0.0-12.0-0.40","2d_cat_multi_stim_exp1","2022-4-19","16:11:21","25","75","3","9","10","40","30","120","46","19","[""Asian""]","No","Male","3476732","null","null","","","","fixation","","","","","","","","","","","","","","","","","","","","","","","","","",""
"","","","","","canvas-keyboard-response","213","1455325","0.0-12.0-1.40","2d_cat_multi_stim_exp1","2022-4-19","16:11:21","25","75","3","9","10","40","30","120","46","19","[""Asian""]","No","Male","3476732","null","null","","","","clear_screen","","","","","","","","","","","","","","","","","","","","","","","","","",""
"","","","","","canvas-keyboard-response","214","1457040","0.0-12.0-2.40","2d_cat_multi_stim_exp1","2022-4-19","16:11:21","25","75","3","9","10","40","30","120","46","19","[""Asian""]","No","Male","3476732","1703","u","learn","","","learn_trial","25","75","in","1","1","","","","","","","","","","","","","","","","","","","","",""
"","","","","","canvas-keyboard-response","215","1457550","0.0-12.0-3.40","2d_cat_multi_stim_exp1","2022-4-19","16:11:21","25","75","3","9","10","40","30","120","46","19","[""Asian""]","No","Male","3476732","null","null","learn_feedback","","","learn_feedback","25","75","in","","","","","","","","","","","","","","","","","","","","","","",""
"","","","","","canvas-keyboard-response","216","1457614","0.0-12.0-4.40","2d_cat_multi_stim_exp1","2022-4-19","16:11:21","25","75","3","9","10","40","30","120","46","19","[""Asian""]","No","Male","3476732","null","null","","","","clear_screen","","","","","","","","","","","","","","","","","","","","","","","","","",""
"","","","","","canvas-keyboard-response","217","1458124","0.0-12.0-0.41","2d_cat_multi_stim_exp1","2022-4-19","16:11:21","25","75","3","9","10","40","30","120","46","19","[""Asian""]","No","Male","3476732","null","null","","","","fixation","","","","","","","","","","","","","","","","","","","","","","","","","",""
"","","","","","canvas-keyboard-response","218","1458634","0.0-12.0-1.41","2d_cat_multi_stim_exp1","2022-4-19","16:11:21","25","75","3","9","10","40","30","120","46","19","[""Asian""]","No","Male","3476732","null","null","","","","clear_screen","","","","","","","","","","","","","","","","","","","","","","","","","",""
"","","","","","canvas-keyboard-response","219","1459567","0.0-12.0-2.41","2d_cat_multi_stim_exp1","2022-4-19","16:11:21","25","75","3","9","10","40","30","120","46","19","[""Asian""]","No","Male","3476732","923","i","learn","","","learn_trial","30","40","out","0","1","","","","","","","","","","","","","","","","","","","","",""
"","","","","","canvas-keyboard-response","220","1460078","0.0-12.0-3.41","2d_cat_multi_stim_exp1","2022-4-19","16:11:21","25","75","3","9","10","40","30","120","46","19","[""Asian""]","No","Male","3476732","null","null","learn_feedback","","","learn_feedback","30","40","out","","","","","","","","","","","","","","","","","","","","","","",""
"","","","","","canvas-keyboard-response","221","1460139","0.0-12.0-4.41","2d_cat_multi_stim_exp1","2022-4-19","16:11:21","25","75","3","9","10","40","30","120","46","19","[""Asian""]","No","Male","3476732","null","null","","","","clear_screen","","","","","","","","","","","","","","","","","","","","","","","","","",""
"","","","","","canvas-keyboard-response","222","1460649","0.0-12.0-0.42","2d_cat_multi_stim_exp1","2022-4-19","16:11:21","25","75","3","9","10","40","30","120","46","19","[""Asian""]","No","Male","3476732","null","null","","","","fixation","","","","","","","","","","","","","","","","","","","","","","","","","",""
"","","","","","canvas-keyboard-response","223","1461160","0.0-12.0-1.42","2d_cat_multi_stim_exp1","2022-4-19","16:11:21","25","75","3","9","10","40","30","120","46","19","[""Asian""]","No","Male","3476732","null","null","","","","clear_screen","","","","","","","","","","","","","","","","","","","","","","","","","",""
"","","","","","canvas-keyboard-response","224","1462646","0.0-12.0-2.42","2d_cat_multi_stim_exp1","2022-4-19","16:11:21","25","75","3","9","10","40","30","120","46","19","[""Asian""]","No","Male","3476732","1478","u","learn","","","learn_trial","25","75","in","1","1","","","","","","","","","","","","","","","","","","","","",""
"","","","","","canvas-keyboard-response","225","1463158","0.0-12.0-3.42","2d_cat_multi_stim_exp1","2022-4-19","16:11:21","25","75","3","9","10","40","30","120","46","19","[""Asian""]","No","Male","3476732","null","null","learn_feedback","","","learn_feedback","25","75","in","","","","","","","","","","","","","","","","","","","","","","",""
"","","","","","canvas-keyboard-response","226","1463216","0.0-12.0-4.42","2d_cat_multi_stim_exp1","2022-4-19","16:11:21","25","75","3","9","10","40","30","120","46","19","[""Asian""]","No","Male","3476732","null","null","","","","clear_screen","","","","","","","","","","","","","","","","","","","","","","","","","",""
"","","","","","canvas-keyboard-response","227","1463726","0.0-12.0-0.43","2d_cat_multi_stim_exp1","2022-4-19","16:11:21","25","75","3","9","10","40","30","120","46","19","[""Asian""]","No","Male","3476732","null","null","","","","fixation","","","","","","","","","","","","","","","","","","","","","","","","","",""
"","","","","","canvas-keyboard-response","228","1464238","0.0-12.0-1.43","2d_cat_multi_stim_exp1","2022-4-19","16:11:21","25","75","3","9","10","40","30","120","46","19","[""Asian""]","No","Male","3476732","null","null","","","","clear_screen","","","","","","","","","","","","","","","","","","","","","","","","","",""
"","","","","","canvas-keyboard-response","229","1465112","0.0-12.0-2.43","2d_cat_multi_stim_exp1","2022-4-19","16:11:21","25","75","3","9","10","40","30","120","46","19","[""Asian""]","No","Male","3476732","864","u","learn","","","learn_trial","25.4027","83.9185","in","1","1","","","","","","","","","","","","","","","","","","","","",""
"","","","","","canvas-keyboard-response","230","1465620","0.0-12.0-3.43","2d_cat_multi_stim_exp1","2022-4-19","16:11:21","25","75","3","9","10","40","30","120","46","19","[""Asian""]","No","Male","3476732","null","null","learn_feedback","","","learn_feedback","25.4027","83.9185","in","","","","","","","","","","","","","","","","","","","","","","",""
"","","","","","canvas-keyboard-response","231","1465686","0.0-12.0-4.43","2d_cat_multi_stim_exp1","2022-4-19","16:11:21","25","75","3","9","10","40","30","120","46","19","[""Asian""]","No","Male","3476732","null","null","","","","clear_screen","","","","","","","","","","","","","","","","","","","","","","","","","",""
"","","","","","canvas-keyboard-response","232","1466195","0.0-12.0-0.44","2d_cat_multi_stim_exp1","2022-4-19","16:11:21","25","75","3","9","10","40","30","120","46","19","[""Asian""]","No","Male","3476732","null","null","","","","fixation","","","","","","","","","","","","","","","","","","","","","","","","","",""
"","","","","","canvas-keyboard-response","233","1466706","0.0-12.0-1.44","2d_cat_multi_stim_exp1","2022-4-19","16:11:21","25","75","3","9","10","40","30","120","46","19","[""Asian""]","No","Male","3476732","null","null","","","","clear_screen","","","","","","","","","","","","","","","","","","","","","","","","","",""
"","","","","","canvas-keyboard-response","234","1467695","0.0-12.0-2.44","2d_cat_multi_stim_exp1","2022-4-19","16:11:21","25","75","3","9","10","40","30","120","46","19","[""Asian""]","No","Male","3476732","980","u","learn","","","learn_trial","25","75","in","1","1","","","","","","","","","","","","","","","","","","","","",""
"","","","","","canvas-keyboard-response","235","1468205","0.0-12.0-3.44","2d_cat_multi_stim_exp1","2022-4-19","16:11:21","25","75","3","9","10","40","30","120","46","19","[""Asian""]","No","Male","3476732","null","null","learn_feedback","","","learn_feedback","25","75","in","","","","","","","","","","","","","","","","","","","","","","",""
"","","","","","canvas-keyboard-response","236","1468265","0.0-12.0-4.44","2d_cat_multi_stim_exp1","2022-4-19","16:11:21","25","75","3","9","10","40","30","120","46","19","[""Asian""]","No","Male","3476732","null","null","","","","clear_screen","","","","","","","","","","","","","","","","","","","","","","","","","",""
"","","","","","canvas-keyboard-response","237","1468775","0.0-12.0-0.45","2d_cat_multi_stim_exp1","2022-4-19","16:11:21","25","75","3","9","10","40","30","120","46","19","[""Asian""]","No","Male","3476732","null","null","","","","fixation","","","","","","","","","","","","","","","","","","","","","","","","","",""
"","","","","","canvas-keyboard-response","238","1469287","0.0-12.0-1.45","2d_cat_multi_stim_exp1","2022-4-19","16:11:21","25","75","3","9","10","40","30","120","46","19","[""Asian""]","No","Male","3476732","null","null","","","","clear_screen","","","","","","","","","","","","","","","","","","","","","","","","","",""
"","","","","","canvas-keyboard-response","239","1470175","0.0-12.0-2.45","2d_cat_multi_stim_exp1","2022-4-19","16:11:21","25","75","3","9","10","40","30","120","46","19","[""Asian""]","No","Male","3476732","879","i","learn","","","learn_trial","13.3333","40","out","0","1","","","","","","","","","","","","","","","","","","","","",""
"","","","","","canvas-keyboard-response","240","1470683","0.0-12.0-3.45","2d_cat_multi_stim_exp1","2022-4-19","16:11:21","25","75","3","9","10","40","30","120","46","19","[""Asian""]","No","Male","3476732","null","null","learn_feedback","","","learn_feedback","13.3333","40","out","","","","","","","","","","","","","","","","","","","","","","",""
"","","","","","canvas-keyboard-response","241","1470746","0.0-12.0-4.45","2d_cat_multi_stim_exp1","2022-4-19","16:11:21","25","75","3","9","10","40","30","120","46","19","[""Asian""]","No","Male","3476732","null","null","","","","clear_screen","","","","","","","","","","","","","","","","","","","","","","","","","",""
"","","","","","canvas-keyboard-response","242","1471257","0.0-12.0-0.46","2d_cat_multi_stim_exp1","2022-4-19","16:11:21","25","75","3","9","10","40","30","120","46","19","[""Asian""]","No","Male","3476732","null","null","","","","fixation","","","","","","","","","","","","","","","","","","","","","","","","","",""
"","","","","","canvas-keyboard-response","243","1471770","0.0-12.0-1.46","2d_cat_multi_stim_exp1","2022-4-19","16:11:21","25","75","3","9","10","40","30","120","46","19","[""Asian""]","No","Male","3476732","null","null","","","","clear_screen","","","","","","","","","","","","","","","","","","","","","","","","","",""
"","","","","","canvas-keyboard-response","244","1472886","0.0-12.0-2.46","2d_cat_multi_stim_exp1","2022-4-19","16:11:21","25","75","3","9","10","40","30","120","46","19","[""Asian""]","No","Male","3476732","1106","u","learn","","","learn_trial","23.3333","90","out","1","0","","","","","","","","","","","","","","","","","","","","",""
"","","","","","canvas-keyboard-response","245","1473896","0.0-12.0-3.46","2d_cat_multi_stim_exp1","2022-4-19","16:11:21","25","75","3","9","10","40","30","120","46","19","[""Asian""]","No","Male","3476732","null","null","learn_feedback","","","learn_feedback","23.3333","90","out","","","","","","","","","","","","","","","","","","","","","","",""
"","","","","","canvas-keyboard-response","246","1473956","0.0-12.0-4.46","2d_cat_multi_stim_exp1","2022-4-19","16:11:21","25","75","3","9","10","40","30","120","46","19","[""Asian""]","No","Male","3476732","null","null","","","","clear_screen","","","","","","","","","","","","","","","","","","","","","","","","","",""
"","","","","","canvas-keyboard-response","247","1474467","0.0-12.0-0.47","2d_cat_multi_stim_exp1","2022-4-19","16:11:21","25","75","3","9","10","40","30","120","46","19","[""Asian""]","No","Male","3476732","null","null","","","","fixation","","","","","","","","","","","","","","","","","","","","","","","","","",""
"","","","","","canvas-keyboard-response","248","1474976","0.0-12.0-1.47","2d_cat_multi_stim_exp1","2022-4-19","16:11:21","25","75","3","9","10","40","30","120","46","19","[""Asian""]","No","Male","3476732","null","null","","","","clear_screen","","","","","","","","","","","","","","","","","","","","","","","","","",""
"","","","","","canvas-keyboard-response","249","1475911","0.0-12.0-2.47","2d_cat_multi_stim_exp1","2022-4-19","16:11:21","25","75","3","9","10","40","30","120","46","19","[""Asian""]","No","Male","3476732","925","i","learn","","","learn_trial","40","30","out","0","1","","","","","","","","","","","","","","","","","","","","",""
"","","","","","canvas-keyboard-response","250","1476419","0.0-12.0-3.47","2d_cat_multi_stim_exp1","2022-4-19","16:11:21","25","75","3","9","10","40","30","120","46","19","[""Asian""]","No","Male","3476732","null","null","learn_feedback","","","learn_feedback","40","30","out","","","","","","","","","","","","","","","","","","","","","","",""
"","","","","","canvas-keyboard-response","251","1476477","0.0-12.0-4.47","2d_cat_multi_stim_exp1","2022-4-19","16:11:21","25","75","3","9","10","40","30","120","46","19","[""Asian""]","No","Male","3476732","null","null","","","","clear_screen","","","","","","","","","","","","","","","","","","","","","","","","","",""
"","","","","","canvas-keyboard-response","252","1476987","0.0-12.0-0.48","2d_cat_multi_stim_exp1","2022-4-19","16:11:21","25","75","3","9","10","40","30","120","46","19","[""Asian""]","No","Male","3476732","null","null","","","","fixation","","","","","","","","","","","","","","","","","","","","","","","","","",""
"","","","","","canvas-keyboard-response","253","1477498","0.0-12.0-1.48","2d_cat_multi_stim_exp1","2022-4-19","16:11:21","25","75","3","9","10","40","30","120","46","19","[""Asian""]","No","Male","3476732","null","null","","","","clear_screen","","","","","","","","","","","","","","","","","","","","","","","","","",""
"","","","","","canvas-keyboard-response","254","1479694","0.0-12.0-2.48","2d_cat_multi_stim_exp1","2022-4-19","16:11:21","25","75","3","9","10","40","30","120","46","19","[""Asian""]","No","Male","3476732","2186","u","learn","","","learn_trial","26.8705","67.9635","in","1","1","","","","","","","","","","","","","","","","","","","","",""
"","","","","","canvas-keyboard-response","255","1480205","0.0-12.0-3.48","2d_cat_multi_stim_exp1","2022-4-19","16:11:21","25","75","3","9","10","40","30","120","46","19","[""Asian""]","No","Male","3476732","null","null","learn_feedback","","","learn_feedback","26.8705","67.9635","in","","","","","","","","","","","","","","","","","","","","","","",""
"","","","","","canvas-keyboard-response","256","1480267","0.0-12.0-4.48","2d_cat_multi_stim_exp1","2022-4-19","16:11:21","25","75","3","9","10","40","30","120","46","19","[""Asian""]","No","Male","3476732","null","null","","","","clear_screen","","","","","","","","","","","","","","","","","","","","","","","","","",""
"","","","","","canvas-keyboard-response","257","1480777","0.0-12.0-0.49","2d_cat_multi_stim_exp1","2022-4-19","16:11:21","25","75","3","9","10","40","30","120","46","19","[""Asian""]","No","Male","3476732","null","null","","","","fixation","","","","","","","","","","","","","","","","","","","","","","","","","",""
"","","","","","canvas-keyboard-response","258","1481290","0.0-12.0-1.49","2d_cat_multi_stim_exp1","2022-4-19","16:11:21","25","75","3","9","10","40","30","120","46","19","[""Asian""]","No","Male","3476732","null","null","","","","clear_screen","","","","","","","","","","","","","","","","","","","","","","","","","",""
"","","","","","canvas-keyboard-response","259","1482286","0.0-12.0-2.49","2d_cat_multi_stim_exp1","2022-4-19","16:11:21","25","75","3","9","10","40","30","120","46","19","[""Asian""]","No","Male","3476732","987","u","learn","","","learn_trial","25","75","in","1","1","","","","","","","","","","","","","","","","","","","","",""
"","","","","","canvas-keyboard-response","260","1482794","0.0-12.0-3.49","2d_cat_multi_stim_exp1","2022-4-19","16:11:21","25","75","3","9","10","40","30","120","46","19","[""Asian""]","No","Male","3476732","null","null","learn_feedback","","","learn_feedback","25","75","in","","","","","","","","","","","","","","","","","","","","","","",""
"","","","","","canvas-keyboard-response","261","1482856","0.0-12.0-4.49","2d_cat_multi_stim_exp1","2022-4-19","16:11:21","25","75","3","9","10","40","30","120","46","19","[""Asian""]","No","Male","3476732","null","null","","","","clear_screen","","","","","","","","","","","","","","","","","","","","","","","","","",""
"","","","","","canvas-keyboard-response","262","1483366","0.0-12.0-0.50","2d_cat_multi_stim_exp1","2022-4-19","16:11:21","25","75","3","9","10","40","30","120","46","19","[""Asian""]","No","Male","3476732","null","null","","","","fixation","","","","","","","","","","","","","","","","","","","","","","","","","",""
"","","","","","canvas-keyboard-response","263","1483879","0.0-12.0-1.50","2d_cat_multi_stim_exp1","2022-4-19","16:11:21","25","75","3","9","10","40","30","120","46","19","[""Asian""]","No","Male","3476732","null","null","","","","clear_screen","","","","","","","","","","","","","","","","","","","","","","","","","",""
"","","","","","canvas-keyboard-response","264","1486958","0.0-12.0-2.50","2d_cat_multi_stim_exp1","2022-4-19","16:11:21","25","75","3","9","10","40","30","120","46","19","[""Asian""]","No","Male","3476732","3068","u","learn","","","learn_trial","33.3333","100","out","1","0","","","","","","","","","","","","","","","","","","","","",""
"","","","","","canvas-keyboard-response","265","1487966","0.0-12.0-3.50","2d_cat_multi_stim_exp1","2022-4-19","16:11:21","25","75","3","9","10","40","30","120","46","19","[""Asian""]","No","Male","3476732","null","null","learn_feedback","","","learn_feedback","33.3333","100","out","","","","","","","","","","","","","","","","","","","","","","",""
"","","","","","canvas-keyboard-response","266","1488026","0.0-12.0-4.50","2d_cat_multi_stim_exp1","2022-4-19","16:11:21","25","75","3","9","10","40","30","120","46","19","[""Asian""]","No","Male","3476732","null","null","","","","clear_screen","","","","","","","","","","","","","","","","","","","","","","","","","",""
"","","","","","canvas-keyboard-response","267","1488534","0.0-12.0-0.51","2d_cat_multi_stim_exp1","2022-4-19","16:11:21","25","75","3","9","10","40","30","120","46","19","[""Asian""]","No","Male","3476732","null","null","","","","fixation","","","","","","","","","","","","","","","","","","","","","","","","","",""
"","","","","","canvas-keyboard-response","268","1489045","0.0-12.0-1.51","2d_cat_multi_stim_exp1","2022-4-19","16:11:21","25","75","3","9","10","40","30","120","46","19","[""Asian""]","No","Male","3476732","null","null","","","","clear_screen","","","","","","","","","","","","","","","","","","","","","","","","","",""
"","","","","","canvas-keyboard-response","269","1490103","0.0-12.0-2.51","2d_cat_multi_stim_exp1","2022-4-19","16:11:21","25","75","3","9","10","40","30","120","46","19","[""Asian""]","No","Male","3476732","1049","i","learn","","","learn_trial","20","30","out","0","1","","","","","","","","","","","","","","","","","","","","",""
"","","","","","canvas-keyboard-response","270","1490611","0.0-12.0-3.51","2d_cat_multi_stim_exp1","2022-4-19","16:11:21","25","75","3","9","10","40","30","120","46","19","[""Asian""]","No","Male","3476732","null","null","learn_feedback","","","learn_feedback","20","30","out","","","","","","","","","","","","","","","","","","","","","","",""
"","","","","","canvas-keyboard-response","271","1490672","0.0-12.0-4.51","2d_cat_multi_stim_exp1","2022-4-19","16:11:21","25","75","3","9","10","40","30","120","46","19","[""Asian""]","No","Male","3476732","null","null","","","","clear_screen","","","","","","","","","","","","","","","","","","","","","","","","","",""
"","","","","","canvas-keyboard-response","272","1491180","0.0-12.0-0.52","2d_cat_multi_stim_exp1","2022-4-19","16:11:21","25","75","3","9","10","40","30","120","46","19","[""Asian""]","No","Male","3476732","null","null","","","","fixation","","","","","","","","","","","","","","","","","","","","","","","","","",""
"","","","","","canvas-keyboard-response","273","1491689","0.0-12.0-1.52","2d_cat_multi_stim_exp1","2022-4-19","16:11:21","25","75","3","9","10","40","30","120","46","19","[""Asian""]","No","Male","3476732","null","null","","","","clear_screen","","","","","","","","","","","","","","","","","","","","","","","","","",""
"","","","","","canvas-keyboard-response","274","1497734","0.0-12.0-2.52","2d_cat_multi_stim_exp1","2022-4-19","16:11:21","25","75","3","9","10","40","30","120","46","19","[""Asian""]","No","Male","3476732","6034","i","learn","","","learn_trial","36.6667","50","out","0","1","","","","","","","","","","","","","","","","","","","","",""
"","","","","","canvas-keyboard-response","275","1498244","0.0-12.0-3.52","2d_cat_multi_stim_exp1","2022-4-19","16:11:21","25","75","3","9","10","40","30","120","46","19","[""Asian""]","No","Male","3476732","null","null","learn_feedback","","","learn_feedback","36.6667","50","out","","","","","","","","","","","","","","","","","","","","","","",""
"","","","","","canvas-keyboard-response","276","1498309","0.0-12.0-4.52","2d_cat_multi_stim_exp1","2022-4-19","16:11:21","25","75","3","9","10","40","30","120","46","19","[""Asian""]","No","Male","3476732","null","null","","","","clear_screen","","","","","","","","","","","","","","","","","","","","","","","","","",""
"","","","","","canvas-keyboard-response","277","1498822","0.0-12.0-0.53","2d_cat_multi_stim_exp1","2022-4-19","16:11:21","25","75","3","9","10","40","30","120","46","19","[""Asian""]","No","Male","3476732","null","null","","","","fixation","","","","","","","","","","","","","","","","","","","","","","","","","",""
"","","","","","canvas-keyboard-response","278","1499332","0.0-12.0-1.53","2d_cat_multi_stim_exp1","2022-4-19","16:11:21","25","75","3","9","10","40","30","120","46","19","[""Asian""]","No","Male","3476732","null","null","","","","clear_screen","","","","","","","","","","","","","","","","","","","","","","","","","",""
"","","","","","canvas-keyboard-response","279","1500318","0.0-12.0-2.53","2d_cat_multi_stim_exp1","2022-4-19","16:11:21","25","75","3","9","10","40","30","120","46","19","[""Asian""]","No","Male","3476732","978","i","learn","","","learn_trial","33.3333","110","out","0","1","","","","","","","","","","","","","","","","","","","","",""
"","","","","","canvas-keyboard-response","280","1500831","0.0-12.0-3.53","2d_cat_multi_stim_exp1","2022-4-19","16:11:21","25","75","3","9","10","40","30","120","46","19","[""Asian""]","No","Male","3476732","null","null","learn_feedback","","","learn_feedback","33.3333","110","out","","","","","","","","","","","","","","","","","","","","","","",""
"","","","","","canvas-keyboard-response","281","1500891","0.0-12.0-4.53","2d_cat_multi_stim_exp1","2022-4-19","16:11:21","25","75","3","9","10","40","30","120","46","19","[""Asian""]","No","Male","3476732","null","null","","","","clear_screen","","","","","","","","","","","","","","","","","","","","","","","","","",""
"","","","","","canvas-keyboard-response","282","1501401","0.0-12.0-0.54","2d_cat_multi_stim_exp1","2022-4-19","16:11:21","25","75","3","9","10","40","30","120","46","19","[""Asian""]","No","Male","3476732","null","null","","","","fixation","","","","","","","","","","","","","","","","","","","","","","","","","",""
"","","","","","canvas-keyboard-response","283","1501912","0.0-12.0-1.54","2d_cat_multi_stim_exp1","2022-4-19","16:11:21","25","75","3","9","10","40","30","120","46","19","[""Asian""]","No","Male","3476732","null","null","","","","clear_screen","","","","","","","","","","","","","","","","","","","","","","","","","",""
"","","","","","canvas-keyboard-response","284","1503183","0.0-12.0-2.54","2d_cat_multi_stim_exp1","2022-4-19","16:11:21","25","75","3","9","10","40","30","120","46","19","[""Asian""]","No","Male","3476732","1262","u","learn","","","learn_trial","33.3333","80","out","1","0","","","","","","","","","","","","","","","","","","","","",""
"","","","","","canvas-keyboard-response","285","1504195","0.0-12.0-3.54","2d_cat_multi_stim_exp1","2022-4-19","16:11:21","25","75","3","9","10","40","30","120","46","19","[""Asian""]","No","Male","3476732","null","null","learn_feedback","","","learn_feedback","33.3333","80","out","","","","","","","","","","","","","","","","","","","","","","",""
"","","","","","canvas-keyboard-response","286","1504256","0.0-12.0-4.54","2d_cat_multi_stim_exp1","2022-4-19","16:11:21","25","75","3","9","10","40","30","120","46","19","[""Asian""]","No","Male","3476732","null","null","","","","clear_screen","","","","","","","","","","","","","","","","","","","","","","","","","",""
"","","","","","canvas-keyboard-response","287","1504764","0.0-12.0-0.55","2d_cat_multi_stim_exp1","2022-4-19","16:11:21","25","75","3","9","10","40","30","120","46","19","[""Asian""]","No","Male","3476732","null","null","","","","fixation","","","","","","","","","","","","","","","","","","","","","","","","","",""
"","","","","","canvas-keyboard-response","288","1505278","0.0-12.0-1.55","2d_cat_multi_stim_exp1","2022-4-19","16:11:21","25","75","3","9","10","40","30","120","46","19","[""Asian""]","No","Male","3476732","null","null","","","","clear_screen","","","","","","","","","","","","","","","","","","","","","","","","","",""
"","","","","","canvas-keyboard-response","289","1506055","0.0-12.0-2.55","2d_cat_multi_stim_exp1","2022-4-19","16:11:21","25","75","3","9","10","40","30","120","46","19","[""Asian""]","No","Male","3476732","770","u","learn","","","learn_trial","25","75","in","1","1","","","","","","","","","","","","","","","","","","","","",""
"","","","","","canvas-keyboard-response","290","1506565","0.0-12.0-3.55","2d_cat_multi_stim_exp1","2022-4-19","16:11:21","25","75","3","9","10","40","30","120","46","19","[""Asian""]","No","Male","3476732","null","null","learn_feedback","","","learn_feedback","25","75","in","","","","","","","","","","","","","","","","","","","","","","",""
"","","","","","canvas-keyboard-response","291","1506628","0.0-12.0-4.55","2d_cat_multi_stim_exp1","2022-4-19","16:11:21","25","75","3","9","10","40","30","120","46","19","[""Asian""]","No","Male","3476732","null","null","","","","clear_screen","","","","","","","","","","","","","","","","","","","","","","","","","",""
"","","","","","canvas-keyboard-response","292","1507137","0.0-12.0-0.56","2d_cat_multi_stim_exp1","2022-4-19","16:11:21","25","75","3","9","10","40","30","120","46","19","[""Asian""]","No","Male","3476732","null","null","","","","fixation","","","","","","","","","","","","","","","","","","","","","","","","","",""
"","","","","","canvas-keyboard-response","293","1507652","0.0-12.0-1.56","2d_cat_multi_stim_exp1","2022-4-19","16:11:21","25","75","3","9","10","40","30","120","46","19","[""Asian""]","No","Male","3476732","null","null","","","","clear_screen","","","","","","","","","","","","","","","","","","","","","","","","","",""
"","","","","","canvas-keyboard-response","294","1508712","0.0-12.0-2.56","2d_cat_multi_stim_exp1","2022-4-19","16:11:21","25","75","3","9","10","40","30","120","46","19","[""Asian""]","No","Male","3476732","1046","i","learn","","","learn_trial","26.6667","30","out","0","1","","","","","","","","","","","","","","","","","","","","",""
"","","","","","canvas-keyboard-response","295","1509222","0.0-12.0-3.56","2d_cat_multi_stim_exp1","2022-4-19","16:11:21","25","75","3","9","10","40","30","120","46","19","[""Asian""]","No","Male","3476732","null","null","learn_feedback","","","learn_feedback","26.6667","30","out","","","","","","","","","","","","","","","","","","","","","","",""
"","","","","","canvas-keyboard-response","296","1509285","0.0-12.0-4.56","2d_cat_multi_stim_exp1","2022-4-19","16:11:21","25","75","3","9","10","40","30","120","46","19","[""Asian""]","No","Male","3476732","null","null","","","","clear_screen","","","","","","","","","","","","","","","","","","","","","","","","","",""
"","","","","","canvas-keyboard-response","297","1509794","0.0-12.0-0.57","2d_cat_multi_stim_exp1","2022-4-19","16:11:21","25","75","3","9","10","40","30","120","46","19","[""Asian""]","No","Male","3476732","null","null","","","","fixation","","","","","","","","","","","","","","","","","","","","","","","","","",""
