"success","timeout","failed_images","failed_audio","failed_video","trial_type","trial_index","time_elapsed","internal_node_id","exp_name","date","time","angle_mean_in","radius_mean_in","angle_sd_in","radius_sd_in","angle_min_out","angle_max_out","radius_min_out","radius_max_out","sub_n","age","race","ethnicity","gender","exp_duration","rt","response","exp_trial_type","stimulus","view_history","screen_id","angle","radius","distribution","choice","correct","order","angle_a","radius_a","angle_b","radius_b","jkl_correct","transfer_trial_type","choice_set","abc_correct","tc_correct","tc_angle","tdc_a","tdc_b","tdc_c","pair","category_a","category_b","category_c","angle_c","radius_c","question_order"
"true","false","[]","[]","[]","preload","0","25","0.0-0.0","2d_cat_multi_stim_exp1","2022-4-27","10:27:41","25","75","3","9","10","40","30","120","66","20","[""Asian""]","No","Female","2075062","","","","","","","","","","","","","","","","","","","","","","","","","","","","","","","",""
"","","","","","survey-html-form","1","4126","0.0-1.0","2d_cat_multi_stim_exp1","2022-4-27","10:27:41","25","75","3","9","10","40","30","120","66","20","[""Asian""]","No","Female","2075062","4087","{""response"":""66""}","enter-sub-number","","","","","","","","","","","","","","","","","","","","","","","","","","","","",""
"true","","","","","fullscreen","2","5908","0.0-2.0","2d_cat_multi_stim_exp1","2022-4-27","10:27:41","25","75","3","9","10","40","30","120","66","20","[""Asian""]","No","Female","2075062","","","","","","","","","","","","","","","","","","","","","","","","","","","","","","","",""
"","","","","","image-button-response","3","41309","0.0-3.0","2d_cat_multi_stim_exp1","2022-4-27","10:27:41","25","75","3","9","10","40","30","120","66","20","[""Asian""]","No","Female","2075062","35395","0","","consent.png","","","","","","","","","","","","","","","","","","","","","","","","","","","",""
"","","","","","html-button-response","4","79139","0.0-4.0","2d_cat_multi_stim_exp1","2022-4-27","10:27:41","25","75","3","9","10","40","30","120","66","20","[""Asian""]","No","Female","2075062","37826","0","","<div style= ""font-size:25px;"" <p> <strong> Welcome to the experiment! </strong><br> <p style=""color:#8B0000; font-size:25px;""><strong> Please do NOT exit full screen until you are done with the experiment. </strong> </p><p style=""font-size:25px;color:#8B0000;""> <strong> The experiment will be canceled and your data will be lost <br> if you try to go back or refresh the page at any point during the experiment.</strong> </p><br><p> <strong> Thanks in advance for your contribution to our research! </strong></p>","","","","","","","","","","","","","","","","","","","","","","","","","","","",""
"","","","","","instructions","5","139034","0.0-5.0","2d_cat_multi_stim_exp1","2022-4-27","10:27:41","25","75","3","9","10","40","30","120","66","20","[""Asian""]","No","Female","2075062","59890","","","","[{""page_index"":0,""viewing_time"":23819},{""page_index"":1,""viewing_time"":7670},{""page_index"":2,""viewing_time"":13937},{""page_index"":3,""viewing_time"":14463}]","instructions_1","","","","","","","","","","","","","","","","","","","","","","","","","",""
"","","","","","instructions","6","140675","0.0-6.0","2d_cat_multi_stim_exp1","2022-4-27","10:27:41","25","75","3","9","10","40","30","120","66","20","[""Asian""]","No","Female","2075062","1637","","","","[{""page_index"":0,""viewing_time"":1637}]","Click to see the kinds of turtles that will appear in the study.","","","","","","","","","","","","","","","","","","","","","","","","","",""
"","","","","","canvas-keyboard-response","7","155693","0.0-7.0","2d_cat_multi_stim_exp1","2022-4-27","10:27:41","25","75","3","9","10","40","30","120","66","20","[""Asian""]","No","Female","2075062","null","null","","","","demo_range","","","","","","","","","","","","","","","","","","","","","","","","","",""
"","","","","","instructions","8","157427","0.0-8.0","2d_cat_multi_stim_exp1","2022-4-27","10:27:41","25","75","3","9","10","40","30","120","66","20","[""Asian""]","No","Female","2075062","1232","","","","[{""page_index"":0,""viewing_time"":1232}]","Click to see some turtles in the subspecies.","","","","","","","","","","","","","","","","","","","","","","","","","",""
"","","","","","canvas-keyboard-response","9","172446","0.0-9.0","2d_cat_multi_stim_exp1","2022-4-27","10:27:41","25","75","3","9","10","40","30","120","66","20","[""Asian""]","No","Female","2075062","null","null","","","","demo_in","","","","","","","","","","","","","","","","","","","","","","","","","",""
"","","","","","instructions","10","211843","0.0-10.0","2d_cat_multi_stim_exp1","2022-4-27","10:27:41","25","75","3","9","10","40","30","120","66","20","[""Asian""]","No","Female","2075062","38897","","","","[{""page_index"":0,""viewing_time"":7311},{""page_index"":1,""viewing_time"":22192},{""page_index"":2,""viewing_time"":1345},{""page_index"":1,""viewing_time"":4753},{""page_index"":2,""viewing_time"":3295}]","instructions_2","","","","","","","","","","","","","","","","","","","","","","","","","",""
"","","","","","instructions","11","224259","0.0-11.0","2d_cat_multi_stim_exp1","2022-4-27","10:27:41","25","75","3","9","10","40","30","120","66","20","[""Asian""]","No","Female","2075062","12413","","","","[{""page_index"":0,""viewing_time"":12413}]","Click to begin the first phase of the experiment.","","","","","","","","","","","","","","","","","","","","","","","","","",""
"","","","","","canvas-keyboard-response","12","224770","0.0-12.0-0.0","2d_cat_multi_stim_exp1","2022-4-27","10:27:41","25","75","3","9","10","40","30","120","66","20","[""Asian""]","No","Female","2075062","null","null","","","","fixation","","","","","","","","","","","","","","","","","","","","","","","","","",""
"","","","","","canvas-keyboard-response","13","225280","0.0-12.0-1.0","2d_cat_multi_stim_exp1","2022-4-27","10:27:41","25","75","3","9","10","40","30","120","66","20","[""Asian""]","No","Female","2075062","null","null","","","","clear_screen","","","","","","","","","","","","","","","","","","","","","","","","","",""
"","","","","","canvas-keyboard-response","14","229075","0.0-12.0-2.0","2d_cat_multi_stim_exp1","2022-4-27","10:27:41","25","75","3","9","10","40","30","120","66","20","[""Asian""]","No","Female","2075062","3780","u","learn","","","learn_trial","27.8087","71.8376","in","1","1","","","","","","","","","","","","","","","","","","","","",""
"","","","","","canvas-keyboard-response","15","229587","0.0-12.0-3.0","2d_cat_multi_stim_exp1","2022-4-27","10:27:41","25","75","3","9","10","40","30","120","66","20","[""Asian""]","No","Female","2075062","null","null","learn_feedback","","","learn_feedback","27.8087","71.8376","in","","","","","","","","","","","","","","","","","","","","","","",""
"","","","","","canvas-keyboard-response","16","229646","0.0-12.0-4.0","2d_cat_multi_stim_exp1","2022-4-27","10:27:41","25","75","3","9","10","40","30","120","66","20","[""Asian""]","No","Female","2075062","null","null","","","","clear_screen","","","","","","","","","","","","","","","","","","","","","","","","","",""
"","","","","","canvas-keyboard-response","17","230158","0.0-12.0-0.1","2d_cat_multi_stim_exp1","2022-4-27","10:27:41","25","75","3","9","10","40","30","120","66","20","[""Asian""]","No","Female","2075062","null","null","","","","fixation","","","","","","","","","","","","","","","","","","","","","","","","","",""
"","","","","","canvas-keyboard-response","18","230672","0.0-12.0-1.1","2d_cat_multi_stim_exp1","2022-4-27","10:27:41","25","75","3","9","10","40","30","120","66","20","[""Asian""]","No","Female","2075062","null","null","","","","clear_screen","","","","","","","","","","","","","","","","","","","","","","","","","",""
"","","","","","canvas-keyboard-response","19","231843","0.0-12.0-2.1","2d_cat_multi_stim_exp1","2022-4-27","10:27:41","25","75","3","9","10","40","30","120","66","20","[""Asian""]","No","Female","2075062","1160","u","learn","","","learn_trial","25","75","in","1","1","","","","","","","","","","","","","","","","","","","","",""
"","","","","","canvas-keyboard-response","20","232354","0.0-12.0-3.1","2d_cat_multi_stim_exp1","2022-4-27","10:27:41","25","75","3","9","10","40","30","120","66","20","[""Asian""]","No","Female","2075062","null","null","learn_feedback","","","learn_feedback","25","75","in","","","","","","","","","","","","","","","","","","","","","","",""
"","","","","","canvas-keyboard-response","21","232416","0.0-12.0-4.1","2d_cat_multi_stim_exp1","2022-4-27","10:27:41","25","75","3","9","10","40","30","120","66","20","[""Asian""]","No","Female","2075062","null","null","","","","clear_screen","","","","","","","","","","","","","","","","","","","","","","","","","",""
"","","","","","canvas-keyboard-response","22","232926","0.0-12.0-0.2","2d_cat_multi_stim_exp1","2022-4-27","10:27:41","25","75","3","9","10","40","30","120","66","20","[""Asian""]","No","Female","2075062","null","null","","","","fixation","","","","","","","","","","","","","","","","","","","","","","","","","",""
"","","","","","canvas-keyboard-response","23","233436","0.0-12.0-1.2","2d_cat_multi_stim_exp1","2022-4-27","10:27:41","25","75","3","9","10","40","30","120","66","20","[""Asian""]","No","Female","2075062","null","null","","","","clear_screen","","","","","","","","","","","","","","","","","","","","","","","","","",""
"","","","","","canvas-keyboard-response","24","238571","0.0-12.0-2.2","2d_cat_multi_stim_exp1","2022-4-27","10:27:41","25","75","3","9","10","40","30","120","66","20","[""Asian""]","No","Female","2075062","5121","i","learn","","","learn_trial","33.3333","110","out","0","1","","","","","","","","","","","","","","","","","","","","",""
"","","","","","canvas-keyboard-response","25","239084","0.0-12.0-3.2","2d_cat_multi_stim_exp1","2022-4-27","10:27:41","25","75","3","9","10","40","30","120","66","20","[""Asian""]","No","Female","2075062","null","null","learn_feedback","","","learn_feedback","33.3333","110","out","","","","","","","","","","","","","","","","","","","","","","",""
"","","","","","canvas-keyboard-response","26","239145","0.0-12.0-4.2","2d_cat_multi_stim_exp1","2022-4-27","10:27:41","25","75","3","9","10","40","30","120","66","20","[""Asian""]","No","Female","2075062","null","null","","","","clear_screen","","","","","","","","","","","","","","","","","","","","","","","","","",""
"","","","","","canvas-keyboard-response","27","239655","0.0-12.0-0.3","2d_cat_multi_stim_exp1","2022-4-27","10:27:41","25","75","3","9","10","40","30","120","66","20","[""Asian""]","No","Female","2075062","null","null","","","","fixation","","","","","","","","","","","","","","","","","","","","","","","","","",""
"","","","","","canvas-keyboard-response","28","240168","0.0-12.0-1.3","2d_cat_multi_stim_exp1","2022-4-27","10:27:41","25","75","3","9","10","40","30","120","66","20","[""Asian""]","No","Female","2075062","null","null","","","","clear_screen","","","","","","","","","","","","","","","","","","","","","","","","","",""
"","","","","","canvas-keyboard-response","29","241435","0.0-12.0-2.3","2d_cat_multi_stim_exp1","2022-4-27","10:27:41","25","75","3","9","10","40","30","120","66","20","[""Asian""]","No","Female","2075062","1262","u","learn","","","learn_trial","30","70","out","1","0","","","","","","","","","","","","","","","","","","","","",""
"","","","","","canvas-keyboard-response","30","242445","0.0-12.0-3.3","2d_cat_multi_stim_exp1","2022-4-27","10:27:41","25","75","3","9","10","40","30","120","66","20","[""Asian""]","No","Female","2075062","null","null","learn_feedback","","","learn_feedback","30","70","out","","","","","","","","","","","","","","","","","","","","","","",""
"","","","","","canvas-keyboard-response","31","242506","0.0-12.0-4.3","2d_cat_multi_stim_exp1","2022-4-27","10:27:41","25","75","3","9","10","40","30","120","66","20","[""Asian""]","No","Female","2075062","null","null","","","","clear_screen","","","","","","","","","","","","","","","","","","","","","","","","","",""
"","","","","","canvas-keyboard-response","32","243014","0.0-12.0-0.4","2d_cat_multi_stim_exp1","2022-4-27","10:27:41","25","75","3","9","10","40","30","120","66","20","[""Asian""]","No","Female","2075062","null","null","","","","fixation","","","","","","","","","","","","","","","","","","","","","","","","","",""
"","","","","","canvas-keyboard-response","33","243525","0.0-12.0-1.4","2d_cat_multi_stim_exp1","2022-4-27","10:27:41","25","75","3","9","10","40","30","120","66","20","[""Asian""]","No","Female","2075062","null","null","","","","clear_screen","","","","","","","","","","","","","","","","","","","","","","","","","",""
"","","","","","canvas-keyboard-response","34","244347","0.0-12.0-2.4","2d_cat_multi_stim_exp1","2022-4-27","10:27:41","25","75","3","9","10","40","30","120","66","20","[""Asian""]","No","Female","2075062","812","u","learn","","","learn_trial","36.6667","80","out","1","0","","","","","","","","","","","","","","","","","","","","",""
"","","","","","canvas-keyboard-response","35","245358","0.0-12.0-3.4","2d_cat_multi_stim_exp1","2022-4-27","10:27:41","25","75","3","9","10","40","30","120","66","20","[""Asian""]","No","Female","2075062","null","null","learn_feedback","","","learn_feedback","36.6667","80","out","","","","","","","","","","","","","","","","","","","","","","",""
"","","","","","canvas-keyboard-response","36","245418","0.0-12.0-4.4","2d_cat_multi_stim_exp1","2022-4-27","10:27:41","25","75","3","9","10","40","30","120","66","20","[""Asian""]","No","Female","2075062","null","null","","","","clear_screen","","","","","","","","","","","","","","","","","","","","","","","","","",""
"","","","","","canvas-keyboard-response","37","245929","0.0-12.0-0.5","2d_cat_multi_stim_exp1","2022-4-27","10:27:41","25","75","3","9","10","40","30","120","66","20","[""Asian""]","No","Female","2075062","null","null","","","","fixation","","","","","","","","","","","","","","","","","","","","","","","","","",""
"","","","","","canvas-keyboard-response","38","246440","0.0-12.0-1.5","2d_cat_multi_stim_exp1","2022-4-27","10:27:41","25","75","3","9","10","40","30","120","66","20","[""Asian""]","No","Female","2075062","null","null","","","","clear_screen","","","","","","","","","","","","","","","","","","","","","","","","","",""
"","","","","","canvas-keyboard-response","39","248418","0.0-12.0-2.5","2d_cat_multi_stim_exp1","2022-4-27","10:27:41","25","75","3","9","10","40","30","120","66","20","[""Asian""]","No","Female","2075062","1970","u","learn","","","learn_trial","13.3333","60","out","1","0","","","","","","","","","","","","","","","","","","","","",""
"","","","","","canvas-keyboard-response","40","249427","0.0-12.0-3.5","2d_cat_multi_stim_exp1","2022-4-27","10:27:41","25","75","3","9","10","40","30","120","66","20","[""Asian""]","No","Female","2075062","null","null","learn_feedback","","","learn_feedback","13.3333","60","out","","","","","","","","","","","","","","","","","","","","","","",""
"","","","","","canvas-keyboard-response","41","249487","0.0-12.0-4.5","2d_cat_multi_stim_exp1","2022-4-27","10:27:41","25","75","3","9","10","40","30","120","66","20","[""Asian""]","No","Female","2075062","null","null","","","","clear_screen","","","","","","","","","","","","","","","","","","","","","","","","","",""
"","","","","","canvas-keyboard-response","42","249995","0.0-12.0-0.6","2d_cat_multi_stim_exp1","2022-4-27","10:27:41","25","75","3","9","10","40","30","120","66","20","[""Asian""]","No","Female","2075062","null","null","","","","fixation","","","","","","","","","","","","","","","","","","","","","","","","","",""
"","","","","","canvas-keyboard-response","43","250510","0.0-12.0-1.6","2d_cat_multi_stim_exp1","2022-4-27","10:27:41","25","75","3","9","10","40","30","120","66","20","[""Asian""]","No","Female","2075062","null","null","","","","clear_screen","","","","","","","","","","","","","","","","","","","","","","","","","",""
"","","","","","canvas-keyboard-response","44","251362","0.0-12.0-2.6","2d_cat_multi_stim_exp1","2022-4-27","10:27:41","25","75","3","9","10","40","30","120","66","20","[""Asian""]","No","Female","2075062","845","u","learn","","","learn_trial","23.3333","110","out","1","0","","","","","","","","","","","","","","","","","","","","",""
"","","","","","canvas-keyboard-response","45","252372","0.0-12.0-3.6","2d_cat_multi_stim_exp1","2022-4-27","10:27:41","25","75","3","9","10","40","30","120","66","20","[""Asian""]","No","Female","2075062","null","null","learn_feedback","","","learn_feedback","23.3333","110","out","","","","","","","","","","","","","","","","","","","","","","",""
"","","","","","canvas-keyboard-response","46","252430","0.0-12.0-4.6","2d_cat_multi_stim_exp1","2022-4-27","10:27:41","25","75","3","9","10","40","30","120","66","20","[""Asian""]","No","Female","2075062","null","null","","","","clear_screen","","","","","","","","","","","","","","","","","","","","","","","","","",""
"","","","","","canvas-keyboard-response","47","252942","0.0-12.0-0.7","2d_cat_multi_stim_exp1","2022-4-27","10:27:41","25","75","3","9","10","40","30","120","66","20","[""Asian""]","No","Female","2075062","null","null","","","","fixation","","","","","","","","","","","","","","","","","","","","","","","","","",""
"","","","","","canvas-keyboard-response","48","253452","0.0-12.0-1.7","2d_cat_multi_stim_exp1","2022-4-27","10:27:41","25","75","3","9","10","40","30","120","66","20","[""Asian""]","No","Female","2075062","null","null","","","","clear_screen","","","","","","","","","","","","","","","","","","","","","","","","","",""
"","","","","","canvas-keyboard-response","49","254114","0.0-12.0-2.7","2d_cat_multi_stim_exp1","2022-4-27","10:27:41","25","75","3","9","10","40","30","120","66","20","[""Asian""]","No","Female","2075062","652","u","learn","","","learn_trial","31","75","in","1","1","","","","","","","","","","","","","","","","","","","","",""
"","","","","","canvas-keyboard-response","50","254624","0.0-12.0-3.7","2d_cat_multi_stim_exp1","2022-4-27","10:27:41","25","75","3","9","10","40","30","120","66","20","[""Asian""]","No","Female","2075062","null","null","learn_feedback","","","learn_feedback","31","75","in","","","","","","","","","","","","","","","","","","","","","","",""
"","","","","","canvas-keyboard-response","51","254682","0.0-12.0-4.7","2d_cat_multi_stim_exp1","2022-4-27","10:27:41","25","75","3","9","10","40","30","120","66","20","[""Asian""]","No","Female","2075062","null","null","","","","clear_screen","","","","","","","","","","","","","","","","","","","","","","","","","",""
"","","","","","canvas-keyboard-response","52","255191","0.0-12.0-0.8","2d_cat_multi_stim_exp1","2022-4-27","10:27:41","25","75","3","9","10","40","30","120","66","20","[""Asian""]","No","Female","2075062","null","null","","","","fixation","","","","","","","","","","","","","","","","","","","","","","","","","",""
"","","","","","canvas-keyboard-response","53","255706","0.0-12.0-1.8","2d_cat_multi_stim_exp1","2022-4-27","10:27:41","25","75","3","9","10","40","30","120","66","20","[""Asian""]","No","Female","2075062","null","null","","","","clear_screen","","","","","","","","","","","","","","","","","","","","","","","","","",""
"","","","","","canvas-keyboard-response","54","257091","0.0-12.0-2.8","2d_cat_multi_stim_exp1","2022-4-27","10:27:41","25","75","3","9","10","40","30","120","66","20","[""Asian""]","No","Female","2075062","1376","u","learn","","","learn_trial","24.8654","66.0091","in","1","1","","","","","","","","","","","","","","","","","","","","",""
"","","","","","canvas-keyboard-response","55","257601","0.0-12.0-3.8","2d_cat_multi_stim_exp1","2022-4-27","10:27:41","25","75","3","9","10","40","30","120","66","20","[""Asian""]","No","Female","2075062","null","null","learn_feedback","","","learn_feedback","24.8654","66.0091","in","","","","","","","","","","","","","","","","","","","","","","",""
"","","","","","canvas-keyboard-response","56","257659","0.0-12.0-4.8","2d_cat_multi_stim_exp1","2022-4-27","10:27:41","25","75","3","9","10","40","30","120","66","20","[""Asian""]","No","Female","2075062","null","null","","","","clear_screen","","","","","","","","","","","","","","","","","","","","","","","","","",""
"","","","","","canvas-keyboard-response","57","258171","0.0-12.0-0.9","2d_cat_multi_stim_exp1","2022-4-27","10:27:41","25","75","3","9","10","40","30","120","66","20","[""Asian""]","No","Female","2075062","null","null","","","","fixation","","","","","","","","","","","","","","","","","","","","","","","","","",""
"","","","","","canvas-keyboard-response","58","258681","0.0-12.0-1.9","2d_cat_multi_stim_exp1","2022-4-27","10:27:41","25","75","3","9","10","40","30","120","66","20","[""Asian""]","No","Female","2075062","null","null","","","","clear_screen","","","","","","","","","","","","","","","","","","","","","","","","","",""
"","","","","","canvas-keyboard-response","59","259443","0.0-12.0-2.9","2d_cat_multi_stim_exp1","2022-4-27","10:27:41","25","75","3","9","10","40","30","120","66","20","[""Asian""]","No","Female","2075062","753","u","learn","","","learn_trial","25","75","in","1","1","","","","","","","","","","","","","","","","","","","","",""
"","","","","","canvas-keyboard-response","60","259954","0.0-12.0-3.9","2d_cat_multi_stim_exp1","2022-4-27","10:27:41","25","75","3","9","10","40","30","120","66","20","[""Asian""]","No","Female","2075062","null","null","learn_feedback","","","learn_feedback","25","75","in","","","","","","","","","","","","","","","","","","","","","","",""
"","","","","","canvas-keyboard-response","61","260013","0.0-12.0-4.9","2d_cat_multi_stim_exp1","2022-4-27","10:27:41","25","75","3","9","10","40","30","120","66","20","[""Asian""]","No","Female","2075062","null","null","","","","clear_screen","","","","","","","","","","","","","","","","","","","","","","","","","",""
"","","","","","canvas-keyboard-response","62","260524","0.0-12.0-0.10","2d_cat_multi_stim_exp1","2022-4-27","10:27:41","25","75","3","9","10","40","30","120","66","20","[""Asian""]","No","Female","2075062","null","null","","","","fixation","","","","","","","","","","","","","","","","","","","","","","","","","",""
"","","","","","canvas-keyboard-response","63","261039","0.0-12.0-1.10","2d_cat_multi_stim_exp1","2022-4-27","10:27:41","25","75","3","9","10","40","30","120","66","20","[""Asian""]","No","Female","2075062","null","null","","","","clear_screen","","","","","","","","","","","","","","","","","","","","","","","","","",""
"","","","","","canvas-keyboard-response","64","262020","0.0-12.0-2.10","2d_cat_multi_stim_exp1","2022-4-27","10:27:41","25","75","3","9","10","40","30","120","66","20","[""Asian""]","No","Female","2075062","967","i","learn","","","learn_trial","36.6667","70","out","0","1","","","","","","","","","","","","","","","","","","","","",""
"","","","","","canvas-keyboard-response","65","262532","0.0-12.0-3.10","2d_cat_multi_stim_exp1","2022-4-27","10:27:41","25","75","3","9","10","40","30","120","66","20","[""Asian""]","No","Female","2075062","null","null","learn_feedback","","","learn_feedback","36.6667","70","out","","","","","","","","","","","","","","","","","","","","","","",""
"","","","","","canvas-keyboard-response","66","262594","0.0-12.0-4.10","2d_cat_multi_stim_exp1","2022-4-27","10:27:41","25","75","3","9","10","40","30","120","66","20","[""Asian""]","No","Female","2075062","null","null","","","","clear_screen","","","","","","","","","","","","","","","","","","","","","","","","","",""
"","","","","","canvas-keyboard-response","67","263104","0.0-12.0-0.11","2d_cat_multi_stim_exp1","2022-4-27","10:27:41","25","75","3","9","10","40","30","120","66","20","[""Asian""]","No","Female","2075062","null","null","","","","fixation","","","","","","","","","","","","","","","","","","","","","","","","","",""
"","","","","","canvas-keyboard-response","68","263619","0.0-12.0-1.11","2d_cat_multi_stim_exp1","2022-4-27","10:27:41","25","75","3","9","10","40","30","120","66","20","[""Asian""]","No","Female","2075062","null","null","","","","clear_screen","","","","","","","","","","","","","","","","","","","","","","","","","",""
"","","","","","canvas-keyboard-response","69","267179","0.0-12.0-2.11","2d_cat_multi_stim_exp1","2022-4-27","10:27:41","25","75","3","9","10","40","30","120","66","20","[""Asian""]","No","Female","2075062","3550","i","learn","","","learn_trial","30","60","out","0","1","","","","","","","","","","","","","","","","","","","","",""
"","","","","","canvas-keyboard-response","70","267689","0.0-12.0-3.11","2d_cat_multi_stim_exp1","2022-4-27","10:27:41","25","75","3","9","10","40","30","120","66","20","[""Asian""]","No","Female","2075062","null","null","learn_feedback","","","learn_feedback","30","60","out","","","","","","","","","","","","","","","","","","","","","","",""
"","","","","","canvas-keyboard-response","71","267752","0.0-12.0-4.11","2d_cat_multi_stim_exp1","2022-4-27","10:27:41","25","75","3","9","10","40","30","120","66","20","[""Asian""]","No","Female","2075062","null","null","","","","clear_screen","","","","","","","","","","","","","","","","","","","","","","","","","",""
"","","","","","canvas-keyboard-response","72","268260","0.0-12.0-0.12","2d_cat_multi_stim_exp1","2022-4-27","10:27:41","25","75","3","9","10","40","30","120","66","20","[""Asian""]","No","Female","2075062","null","null","","","","fixation","","","","","","","","","","","","","","","","","","","","","","","","","",""
"","","","","","canvas-keyboard-response","73","268773","0.0-12.0-1.12","2d_cat_multi_stim_exp1","2022-4-27","10:27:41","25","75","3","9","10","40","30","120","66","20","[""Asian""]","No","Female","2075062","null","null","","","","clear_screen","","","","","","","","","","","","","","","","","","","","","","","","","",""
"","","","","","canvas-keyboard-response","74","270499","0.0-12.0-2.12","2d_cat_multi_stim_exp1","2022-4-27","10:27:41","25","75","3","9","10","40","30","120","66","20","[""Asian""]","No","Female","2075062","1719","i","learn","","","learn_trial","25","57","in","0","0","","","","","","","","","","","","","","","","","","","","",""
"","","","","","canvas-keyboard-response","75","271513","0.0-12.0-3.12","2d_cat_multi_stim_exp1","2022-4-27","10:27:41","25","75","3","9","10","40","30","120","66","20","[""Asian""]","No","Female","2075062","null","null","learn_feedback","","","learn_feedback","25","57","in","","","","","","","","","","","","","","","","","","","","","","",""
"","","","","","canvas-keyboard-response","76","271571","0.0-12.0-4.12","2d_cat_multi_stim_exp1","2022-4-27","10:27:41","25","75","3","9","10","40","30","120","66","20","[""Asian""]","No","Female","2075062","null","null","","","","clear_screen","","","","","","","","","","","","","","","","","","","","","","","","","",""
"","","","","","canvas-keyboard-response","77","272082","0.0-12.0-0.13","2d_cat_multi_stim_exp1","2022-4-27","10:27:41","25","75","3","9","10","40","30","120","66","20","[""Asian""]","No","Female","2075062","null","null","","","","fixation","","","","","","","","","","","","","","","","","","","","","","","","","",""
"","","","","","canvas-keyboard-response","78","272595","0.0-12.0-1.13","2d_cat_multi_stim_exp1","2022-4-27","10:27:41","25","75","3","9","10","40","30","120","66","20","[""Asian""]","No","Female","2075062","null","null","","","","clear_screen","","","","","","","","","","","","","","","","","","","","","","","","","",""
"","","","","","canvas-keyboard-response","79","273579","0.0-12.0-2.13","2d_cat_multi_stim_exp1","2022-4-27","10:27:41","25","75","3","9","10","40","30","120","66","20","[""Asian""]","No","Female","2075062","975","i","learn","","","learn_trial","23.3333","30","out","0","1","","","","","","","","","","","","","","","","","","","","",""
"","","","","","canvas-keyboard-response","80","274090","0.0-12.0-3.13","2d_cat_multi_stim_exp1","2022-4-27","10:27:41","25","75","3","9","10","40","30","120","66","20","[""Asian""]","No","Female","2075062","null","null","learn_feedback","","","learn_feedback","23.3333","30","out","","","","","","","","","","","","","","","","","","","","","","",""
"","","","","","canvas-keyboard-response","81","274152","0.0-12.0-4.13","2d_cat_multi_stim_exp1","2022-4-27","10:27:41","25","75","3","9","10","40","30","120","66","20","[""Asian""]","No","Female","2075062","null","null","","","","clear_screen","","","","","","","","","","","","","","","","","","","","","","","","","",""
"","","","","","canvas-keyboard-response","82","274662","0.0-12.0-0.14","2d_cat_multi_stim_exp1","2022-4-27","10:27:41","25","75","3","9","10","40","30","120","66","20","[""Asian""]","No","Female","2075062","null","null","","","","fixation","","","","","","","","","","","","","","","","","","","","","","","","","",""
"","","","","","canvas-keyboard-response","83","275174","0.0-12.0-1.14","2d_cat_multi_stim_exp1","2022-4-27","10:27:41","25","75","3","9","10","40","30","120","66","20","[""Asian""]","No","Female","2075062","null","null","","","","clear_screen","","","","","","","","","","","","","","","","","","","","","","","","","",""
"","","","","","canvas-keyboard-response","84","275793","0.0-12.0-2.14","2d_cat_multi_stim_exp1","2022-4-27","10:27:41","25","75","3","9","10","40","30","120","66","20","[""Asian""]","No","Female","2075062","610","u","learn","","","learn_trial","33.3333","120","out","1","0","","","","","","","","","","","","","","","","","","","","",""
"","","","","","canvas-keyboard-response","85","276800","0.0-12.0-3.14","2d_cat_multi_stim_exp1","2022-4-27","10:27:41","25","75","3","9","10","40","30","120","66","20","[""Asian""]","No","Female","2075062","null","null","learn_feedback","","","learn_feedback","33.3333","120","out","","","","","","","","","","","","","","","","","","","","","","",""
"","","","","","canvas-keyboard-response","86","276858","0.0-12.0-4.14","2d_cat_multi_stim_exp1","2022-4-27","10:27:41","25","75","3","9","10","40","30","120","66","20","[""Asian""]","No","Female","2075062","null","null","","","","clear_screen","","","","","","","","","","","","","","","","","","","","","","","","","",""
"","","","","","canvas-keyboard-response","87","277370","0.0-12.0-0.15","2d_cat_multi_stim_exp1","2022-4-27","10:27:41","25","75","3","9","10","40","30","120","66","20","[""Asian""]","No","Female","2075062","null","null","","","","fixation","","","","","","","","","","","","","","","","","","","","","","","","","",""
"","","","","","canvas-keyboard-response","88","277881","0.0-12.0-1.15","2d_cat_multi_stim_exp1","2022-4-27","10:27:41","25","75","3","9","10","40","30","120","66","20","[""Asian""]","No","Female","2075062","null","null","","","","clear_screen","","","","","","","","","","","","","","","","","","","","","","","","","",""
"","","","","","canvas-keyboard-response","89","278537","0.0-12.0-2.15","2d_cat_multi_stim_exp1","2022-4-27","10:27:41","25","75","3","9","10","40","30","120","66","20","[""Asian""]","No","Female","2075062","648","u","learn","","","learn_trial","16.6667","90","out","1","0","","","","","","","","","","","","","","","","","","","","",""
"","","","","","canvas-keyboard-response","90","279550","0.0-12.0-3.15","2d_cat_multi_stim_exp1","2022-4-27","10:27:41","25","75","3","9","10","40","30","120","66","20","[""Asian""]","No","Female","2075062","null","null","learn_feedback","","","learn_feedback","16.6667","90","out","","","","","","","","","","","","","","","","","","","","","","",""
"","","","","","canvas-keyboard-response","91","279610","0.0-12.0-4.15","2d_cat_multi_stim_exp1","2022-4-27","10:27:41","25","75","3","9","10","40","30","120","66","20","[""Asian""]","No","Female","2075062","null","null","","","","clear_screen","","","","","","","","","","","","","","","","","","","","","","","","","",""
"","","","","","canvas-keyboard-response","92","280119","0.0-12.0-0.16","2d_cat_multi_stim_exp1","2022-4-27","10:27:41","25","75","3","9","10","40","30","120","66","20","[""Asian""]","No","Female","2075062","null","null","","","","fixation","","","","","","","","","","","","","","","","","","","","","","","","","",""
"","","","","","canvas-keyboard-response","93","280629","0.0-12.0-1.16","2d_cat_multi_stim_exp1","2022-4-27","10:27:41","25","75","3","9","10","40","30","120","66","20","[""Asian""]","No","Female","2075062","null","null","","","","clear_screen","","","","","","","","","","","","","","","","","","","","","","","","","",""
"","","","","","canvas-keyboard-response","94","281251","0.0-12.0-2.16","2d_cat_multi_stim_exp1","2022-4-27","10:27:41","25","75","3","9","10","40","30","120","66","20","[""Asian""]","No","Female","2075062","614","u","learn","","","learn_trial","25.9271","83.5595","in","1","1","","","","","","","","","","","","","","","","","","","","",""
"","","","","","canvas-keyboard-response","95","281759","0.0-12.0-3.16","2d_cat_multi_stim_exp1","2022-4-27","10:27:41","25","75","3","9","10","40","30","120","66","20","[""Asian""]","No","Female","2075062","null","null","learn_feedback","","","learn_feedback","25.9271","83.5595","in","","","","","","","","","","","","","","","","","","","","","","",""
"","","","","","canvas-keyboard-response","96","281820","0.0-12.0-4.16","2d_cat_multi_stim_exp1","2022-4-27","10:27:41","25","75","3","9","10","40","30","120","66","20","[""Asian""]","No","Female","2075062","null","null","","","","clear_screen","","","","","","","","","","","","","","","","","","","","","","","","","",""
"","","","","","canvas-keyboard-response","97","282330","0.0-12.0-0.17","2d_cat_multi_stim_exp1","2022-4-27","10:27:41","25","75","3","9","10","40","30","120","66","20","[""Asian""]","No","Female","2075062","null","null","","","","fixation","","","","","","","","","","","","","","","","","","","","","","","","","",""
"","","","","","canvas-keyboard-response","98","282844","0.0-12.0-1.17","2d_cat_multi_stim_exp1","2022-4-27","10:27:41","25","75","3","9","10","40","30","120","66","20","[""Asian""]","No","Female","2075062","null","null","","","","clear_screen","","","","","","","","","","","","","","","","","","","","","","","","","",""
"","","","","","canvas-keyboard-response","99","283683","0.0-12.0-2.17","2d_cat_multi_stim_exp1","2022-4-27","10:27:41","25","75","3","9","10","40","30","120","66","20","[""Asian""]","No","Female","2075062","829","i","learn","","","learn_trial","26.6667","40","out","0","1","","","","","","","","","","","","","","","","","","","","",""
"","","","","","canvas-keyboard-response","100","284194","0.0-12.0-3.17","2d_cat_multi_stim_exp1","2022-4-27","10:27:41","25","75","3","9","10","40","30","120","66","20","[""Asian""]","No","Female","2075062","null","null","learn_feedback","","","learn_feedback","26.6667","40","out","","","","","","","","","","","","","","","","","","","","","","",""
"","","","","","canvas-keyboard-response","101","284258","0.0-12.0-4.17","2d_cat_multi_stim_exp1","2022-4-27","10:27:41","25","75","3","9","10","40","30","120","66","20","[""Asian""]","No","Female","2075062","null","null","","","","clear_screen","","","","","","","","","","","","","","","","","","","","","","","","","",""
"","","","","","canvas-keyboard-response","102","284767","0.0-12.0-0.18","2d_cat_multi_stim_exp1","2022-4-27","10:27:41","25","75","3","9","10","40","30","120","66","20","[""Asian""]","No","Female","2075062","null","null","","","","fixation","","","","","","","","","","","","","","","","","","","","","","","","","",""
"","","","","","canvas-keyboard-response","103","285280","0.0-12.0-1.18","2d_cat_multi_stim_exp1","2022-4-27","10:27:41","25","75","3","9","10","40","30","120","66","20","[""Asian""]","No","Female","2075062","null","null","","","","clear_screen","","","","","","","","","","","","","","","","","","","","","","","","","",""
"","","","","","canvas-keyboard-response","104","286242","0.0-12.0-2.18","2d_cat_multi_stim_exp1","2022-4-27","10:27:41","25","75","3","9","10","40","30","120","66","20","[""Asian""]","No","Female","2075062","956","u","learn","","","learn_trial","16.6667","60","out","1","0","","","","","","","","","","","","","","","","","","","","",""
"","","","","","canvas-keyboard-response","105","287251","0.0-12.0-3.18","2d_cat_multi_stim_exp1","2022-4-27","10:27:41","25","75","3","9","10","40","30","120","66","20","[""Asian""]","No","Female","2075062","null","null","learn_feedback","","","learn_feedback","16.6667","60","out","","","","","","","","","","","","","","","","","","","","","","",""
"","","","","","canvas-keyboard-response","106","287312","0.0-12.0-4.18","2d_cat_multi_stim_exp1","2022-4-27","10:27:41","25","75","3","9","10","40","30","120","66","20","[""Asian""]","No","Female","2075062","null","null","","","","clear_screen","","","","","","","","","","","","","","","","","","","","","","","","","",""
"","","","","","canvas-keyboard-response","107","287818","0.0-12.0-0.19","2d_cat_multi_stim_exp1","2022-4-27","10:27:41","25","75","3","9","10","40","30","120","66","20","[""Asian""]","No","Female","2075062","null","null","","","","fixation","","","","","","","","","","","","","","","","","","","","","","","","","",""
"","","","","","canvas-keyboard-response","108","288329","0.0-12.0-1.19","2d_cat_multi_stim_exp1","2022-4-27","10:27:41","25","75","3","9","10","40","30","120","66","20","[""Asian""]","No","Female","2075062","null","null","","","","clear_screen","","","","","","","","","","","","","","","","","","","","","","","","","",""
"","","","","","canvas-keyboard-response","109","291267","0.0-12.0-2.19","2d_cat_multi_stim_exp1","2022-4-27","10:27:41","25","75","3","9","10","40","30","120","66","20","[""Asian""]","No","Female","2075062","2928","i","learn","","","learn_trial","40","70","out","0","1","","","","","","","","","","","","","","","","","","","","",""
"","","","","","canvas-keyboard-response","110","291776","0.0-12.0-3.19","2d_cat_multi_stim_exp1","2022-4-27","10:27:41","25","75","3","9","10","40","30","120","66","20","[""Asian""]","No","Female","2075062","null","null","learn_feedback","","","learn_feedback","40","70","out","","","","","","","","","","","","","","","","","","","","","","",""
"","","","","","canvas-keyboard-response","111","291840","0.0-12.0-4.19","2d_cat_multi_stim_exp1","2022-4-27","10:27:41","25","75","3","9","10","40","30","120","66","20","[""Asian""]","No","Female","2075062","null","null","","","","clear_screen","","","","","","","","","","","","","","","","","","","","","","","","","",""
"","","","","","canvas-keyboard-response","112","292349","0.0-12.0-0.20","2d_cat_multi_stim_exp1","2022-4-27","10:27:41","25","75","3","9","10","40","30","120","66","20","[""Asian""]","No","Female","2075062","null","null","","","","fixation","","","","","","","","","","","","","","","","","","","","","","","","","",""
"","","","","","canvas-keyboard-response","113","292863","0.0-12.0-1.20","2d_cat_multi_stim_exp1","2022-4-27","10:27:41","25","75","3","9","10","40","30","120","66","20","[""Asian""]","No","Female","2075062","null","null","","","","clear_screen","","","","","","","","","","","","","","","","","","","","","","","","","",""
"","","","","","canvas-keyboard-response","114","293652","0.0-12.0-2.20","2d_cat_multi_stim_exp1","2022-4-27","10:27:41","25","75","3","9","10","40","30","120","66","20","[""Asian""]","No","Female","2075062","780","u","learn","","","learn_trial","26.6667","80","out","1","0","","","","","","","","","","","","","","","","","","","","",""
"","","","","","canvas-keyboard-response","115","294663","0.0-12.0-3.20","2d_cat_multi_stim_exp1","2022-4-27","10:27:41","25","75","3","9","10","40","30","120","66","20","[""Asian""]","No","Female","2075062","null","null","learn_feedback","","","learn_feedback","26.6667","80","out","","","","","","","","","","","","","","","","","","","","","","",""
"","","","","","canvas-keyboard-response","116","294725","0.0-12.0-4.20","2d_cat_multi_stim_exp1","2022-4-27","10:27:41","25","75","3","9","10","40","30","120","66","20","[""Asian""]","No","Female","2075062","null","null","","","","clear_screen","","","","","","","","","","","","","","","","","","","","","","","","","",""
"","","","","","canvas-keyboard-response","117","295235","0.0-12.0-0.21","2d_cat_multi_stim_exp1","2022-4-27","10:27:41","25","75","3","9","10","40","30","120","66","20","[""Asian""]","No","Female","2075062","null","null","","","","fixation","","","","","","","","","","","","","","","","","","","","","","","","","",""
"","","","","","canvas-keyboard-response","118","295751","0.0-12.0-1.21","2d_cat_multi_stim_exp1","2022-4-27","10:27:41","25","75","3","9","10","40","30","120","66","20","[""Asian""]","No","Female","2075062","null","null","","","","clear_screen","","","","","","","","","","","","","","","","","","","","","","","","","",""
"","","","","","canvas-keyboard-response","119","297291","0.0-12.0-2.21","2d_cat_multi_stim_exp1","2022-4-27","10:27:41","25","75","3","9","10","40","30","120","66","20","[""Asian""]","No","Female","2075062","1531","u","learn","","","learn_trial","23.8209","66.7243","in","1","1","","","","","","","","","","","","","","","","","","","","",""
"","","","","","canvas-keyboard-response","120","297803","0.0-12.0-3.21","2d_cat_multi_stim_exp1","2022-4-27","10:27:41","25","75","3","9","10","40","30","120","66","20","[""Asian""]","No","Female","2075062","null","null","learn_feedback","","","learn_feedback","23.8209","66.7243","in","","","","","","","","","","","","","","","","","","","","","","",""
"","","","","","canvas-keyboard-response","121","297863","0.0-12.0-4.21","2d_cat_multi_stim_exp1","2022-4-27","10:27:41","25","75","3","9","10","40","30","120","66","20","[""Asian""]","No","Female","2075062","null","null","","","","clear_screen","","","","","","","","","","","","","","","","","","","","","","","","","",""
"","","","","","canvas-keyboard-response","122","298372","0.0-12.0-0.22","2d_cat_multi_stim_exp1","2022-4-27","10:27:41","25","75","3","9","10","40","30","120","66","20","[""Asian""]","No","Female","2075062","null","null","","","","fixation","","","","","","","","","","","","","","","","","","","","","","","","","",""
"","","","","","canvas-keyboard-response","123","298881","0.0-12.0-1.22","2d_cat_multi_stim_exp1","2022-4-27","10:27:41","25","75","3","9","10","40","30","120","66","20","[""Asian""]","No","Female","2075062","null","null","","","","clear_screen","","","","","","","","","","","","","","","","","","","","","","","","","",""
"","","","","","canvas-keyboard-response","124","299539","0.0-12.0-2.22","2d_cat_multi_stim_exp1","2022-4-27","10:27:41","25","75","3","9","10","40","30","120","66","20","[""Asian""]","No","Female","2075062","648","u","learn","","","learn_trial","25","75","in","1","1","","","","","","","","","","","","","","","","","","","","",""
"","","","","","canvas-keyboard-response","125","300051","0.0-12.0-3.22","2d_cat_multi_stim_exp1","2022-4-27","10:27:41","25","75","3","9","10","40","30","120","66","20","[""Asian""]","No","Female","2075062","null","null","learn_feedback","","","learn_feedback","25","75","in","","","","","","","","","","","","","","","","","","","","","","",""
"","","","","","canvas-keyboard-response","126","300109","0.0-12.0-4.22","2d_cat_multi_stim_exp1","2022-4-27","10:27:41","25","75","3","9","10","40","30","120","66","20","[""Asian""]","No","Female","2075062","null","null","","","","clear_screen","","","","","","","","","","","","","","","","","","","","","","","","","",""
"","","","","","canvas-keyboard-response","127","300618","0.0-12.0-0.23","2d_cat_multi_stim_exp1","2022-4-27","10:27:41","25","75","3","9","10","40","30","120","66","20","[""Asian""]","No","Female","2075062","null","null","","","","fixation","","","","","","","","","","","","","","","","","","","","","","","","","",""
"","","","","","canvas-keyboard-response","128","301128","0.0-12.0-1.23","2d_cat_multi_stim_exp1","2022-4-27","10:27:41","25","75","3","9","10","40","30","120","66","20","[""Asian""]","No","Female","2075062","null","null","","","","clear_screen","","","","","","","","","","","","","","","","","","","","","","","","","",""
"","","","","","canvas-keyboard-response","129","301874","0.0-12.0-2.23","2d_cat_multi_stim_exp1","2022-4-27","10:27:41","25","75","3","9","10","40","30","120","66","20","[""Asian""]","No","Female","2075062","736","u","learn","","","learn_trial","27.8087","78.1624","in","1","1","","","","","","","","","","","","","","","","","","","","",""
"","","","","","canvas-keyboard-response","130","302385","0.0-12.0-3.23","2d_cat_multi_stim_exp1","2022-4-27","10:27:41","25","75","3","9","10","40","30","120","66","20","[""Asian""]","No","Female","2075062","null","null","learn_feedback","","","learn_feedback","27.8087","78.1624","in","","","","","","","","","","","","","","","","","","","","","","",""
"","","","","","canvas-keyboard-response","131","302447","0.0-12.0-4.23","2d_cat_multi_stim_exp1","2022-4-27","10:27:41","25","75","3","9","10","40","30","120","66","20","[""Asian""]","No","Female","2075062","null","null","","","","clear_screen","","","","","","","","","","","","","","","","","","","","","","","","","",""
"","","","","","canvas-keyboard-response","132","302954","0.0-12.0-0.24","2d_cat_multi_stim_exp1","2022-4-27","10:27:41","25","75","3","9","10","40","30","120","66","20","[""Asian""]","No","Female","2075062","null","null","","","","fixation","","","","","","","","","","","","","","","","","","","","","","","","","",""
"","","","","","canvas-keyboard-response","133","303461","0.0-12.0-1.24","2d_cat_multi_stim_exp1","2022-4-27","10:27:41","25","75","3","9","10","40","30","120","66","20","[""Asian""]","No","Female","2075062","null","null","","","","clear_screen","","","","","","","","","","","","","","","","","","","","","","","","","",""
"","","","","","canvas-keyboard-response","134","304243","0.0-12.0-2.24","2d_cat_multi_stim_exp1","2022-4-27","10:27:41","25","75","3","9","10","40","30","120","66","20","[""Asian""]","No","Female","2075062","773","i","learn","","","learn_trial","33.3333","80","out","0","1","","","","","","","","","","","","","","","","","","","","",""
"","","","","","canvas-keyboard-response","135","304754","0.0-12.0-3.24","2d_cat_multi_stim_exp1","2022-4-27","10:27:41","25","75","3","9","10","40","30","120","66","20","[""Asian""]","No","Female","2075062","null","null","learn_feedback","","","learn_feedback","33.3333","80","out","","","","","","","","","","","","","","","","","","","","","","",""
"","","","","","canvas-keyboard-response","136","304813","0.0-12.0-4.24","2d_cat_multi_stim_exp1","2022-4-27","10:27:41","25","75","3","9","10","40","30","120","66","20","[""Asian""]","No","Female","2075062","null","null","","","","clear_screen","","","","","","","","","","","","","","","","","","","","","","","","","",""
"","","","","","canvas-keyboard-response","137","305322","0.0-12.0-0.25","2d_cat_multi_stim_exp1","2022-4-27","10:27:41","25","75","3","9","10","40","30","120","66","20","[""Asian""]","No","Female","2075062","null","null","","","","fixation","","","","","","","","","","","","","","","","","","","","","","","","","",""
"","","","","","canvas-keyboard-response","138","305835","0.0-12.0-1.25","2d_cat_multi_stim_exp1","2022-4-27","10:27:41","25","75","3","9","10","40","30","120","66","20","[""Asian""]","No","Female","2075062","null","null","","","","clear_screen","","","","","","","","","","","","","","","","","","","","","","","","","",""
"","","","","","canvas-keyboard-response","139","306619","0.0-12.0-2.25","2d_cat_multi_stim_exp1","2022-4-27","10:27:41","25","75","3","9","10","40","30","120","66","20","[""Asian""]","No","Female","2075062","773","i","learn","","","learn_trial","36.6667","40","out","0","1","","","","","","","","","","","","","","","","","","","","",""
"","","","","","canvas-keyboard-response","140","307128","0.0-12.0-3.25","2d_cat_multi_stim_exp1","2022-4-27","10:27:41","25","75","3","9","10","40","30","120","66","20","[""Asian""]","No","Female","2075062","null","null","learn_feedback","","","learn_feedback","36.6667","40","out","","","","","","","","","","","","","","","","","","","","","","",""
"","","","","","canvas-keyboard-response","141","307188","0.0-12.0-4.25","2d_cat_multi_stim_exp1","2022-4-27","10:27:41","25","75","3","9","10","40","30","120","66","20","[""Asian""]","No","Female","2075062","null","null","","","","clear_screen","","","","","","","","","","","","","","","","","","","","","","","","","",""
"","","","","","canvas-keyboard-response","142","307697","0.0-12.0-0.26","2d_cat_multi_stim_exp1","2022-4-27","10:27:41","25","75","3","9","10","40","30","120","66","20","[""Asian""]","No","Female","2075062","null","null","","","","fixation","","","","","","","","","","","","","","","","","","","","","","","","","",""
"","","","","","canvas-keyboard-response","143","308206","0.0-12.0-1.26","2d_cat_multi_stim_exp1","2022-4-27","10:27:41","25","75","3","9","10","40","30","120","66","20","[""Asian""]","No","Female","2075062","null","null","","","","clear_screen","","","","","","","","","","","","","","","","","","","","","","","","","",""
"","","","","","canvas-keyboard-response","144","308922","0.0-12.0-2.26","2d_cat_multi_stim_exp1","2022-4-27","10:27:41","25","75","3","9","10","40","30","120","66","20","[""Asian""]","No","Female","2075062","707","i","learn","","","learn_trial","13.3333","30","out","0","1","","","","","","","","","","","","","","","","","","","","",""
"","","","","","canvas-keyboard-response","145","309431","0.0-12.0-3.26","2d_cat_multi_stim_exp1","2022-4-27","10:27:41","25","75","3","9","10","40","30","120","66","20","[""Asian""]","No","Female","2075062","null","null","learn_feedback","","","learn_feedback","13.3333","30","out","","","","","","","","","","","","","","","","","","","","","","",""
"","","","","","canvas-keyboard-response","146","309487","0.0-12.0-4.26","2d_cat_multi_stim_exp1","2022-4-27","10:27:41","25","75","3","9","10","40","30","120","66","20","[""Asian""]","No","Female","2075062","null","null","","","","clear_screen","","","","","","","","","","","","","","","","","","","","","","","","","",""
"","","","","","canvas-keyboard-response","147","309998","0.0-12.0-0.27","2d_cat_multi_stim_exp1","2022-4-27","10:27:41","25","75","3","9","10","40","30","120","66","20","[""Asian""]","No","Female","2075062","null","null","","","","fixation","","","","","","","","","","","","","","","","","","","","","","","","","",""
"","","","","","canvas-keyboard-response","148","310509","0.0-12.0-1.27","2d_cat_multi_stim_exp1","2022-4-27","10:27:41","25","75","3","9","10","40","30","120","66","20","[""Asian""]","No","Female","2075062","null","null","","","","clear_screen","","","","","","","","","","","","","","","","","","","","","","","","","",""
"","","","","","canvas-keyboard-response","149","311187","0.0-12.0-2.27","2d_cat_multi_stim_exp1","2022-4-27","10:27:41","25","75","3","9","10","40","30","120","66","20","[""Asian""]","No","Female","2075062","668","u","learn","","","learn_trial","22.0121","74.1932","in","1","1","","","","","","","","","","","","","","","","","","","","",""
"","","","","","canvas-keyboard-response","150","311698","0.0-12.0-3.27","2d_cat_multi_stim_exp1","2022-4-27","10:27:41","25","75","3","9","10","40","30","120","66","20","[""Asian""]","No","Female","2075062","null","null","learn_feedback","","","learn_feedback","22.0121","74.1932","in","","","","","","","","","","","","","","","","","","","","","","",""
"","","","","","canvas-keyboard-response","151","311759","0.0-12.0-4.27","2d_cat_multi_stim_exp1","2022-4-27","10:27:41","25","75","3","9","10","40","30","120","66","20","[""Asian""]","No","Female","2075062","null","null","","","","clear_screen","","","","","","","","","","","","","","","","","","","","","","","","","",""
"","","","","","canvas-keyboard-response","152","312270","0.0-12.0-0.28","2d_cat_multi_stim_exp1","2022-4-27","10:27:41","25","75","3","9","10","40","30","120","66","20","[""Asian""]","No","Female","2075062","null","null","","","","fixation","","","","","","","","","","","","","","","","","","","","","","","","","",""
"","","","","","canvas-keyboard-response","153","312784","0.0-12.0-1.28","2d_cat_multi_stim_exp1","2022-4-27","10:27:41","25","75","3","9","10","40","30","120","66","20","[""Asian""]","No","Female","2075062","null","null","","","","clear_screen","","","","","","","","","","","","","","","","","","","","","","","","","",""
"","","","","","canvas-keyboard-response","154","313482","0.0-12.0-2.28","2d_cat_multi_stim_exp1","2022-4-27","10:27:41","25","75","3","9","10","40","30","120","66","20","[""Asian""]","No","Female","2075062","688","i","learn","","","learn_trial","13.3333","40","out","0","1","","","","","","","","","","","","","","","","","","","","",""
"","","","","","canvas-keyboard-response","155","313991","0.0-12.0-3.28","2d_cat_multi_stim_exp1","2022-4-27","10:27:41","25","75","3","9","10","40","30","120","66","20","[""Asian""]","No","Female","2075062","null","null","learn_feedback","","","learn_feedback","13.3333","40","out","","","","","","","","","","","","","","","","","","","","","","",""
"","","","","","canvas-keyboard-response","156","314051","0.0-12.0-4.28","2d_cat_multi_stim_exp1","2022-4-27","10:27:41","25","75","3","9","10","40","30","120","66","20","[""Asian""]","No","Female","2075062","null","null","","","","clear_screen","","","","","","","","","","","","","","","","","","","","","","","","","",""
"","","","","","canvas-keyboard-response","157","314559","0.0-12.0-0.29","2d_cat_multi_stim_exp1","2022-4-27","10:27:41","25","75","3","9","10","40","30","120","66","20","[""Asian""]","No","Female","2075062","null","null","","","","fixation","","","","","","","","","","","","","","","","","","","","","","","","","",""
"","","","","","canvas-keyboard-response","158","315073","0.0-12.0-1.29","2d_cat_multi_stim_exp1","2022-4-27","10:27:41","25","75","3","9","10","40","30","120","66","20","[""Asian""]","No","Female","2075062","null","null","","","","clear_screen","","","","","","","","","","","","","","","","","","","","","","","","","",""
"","","","","","canvas-keyboard-response","159","315699","0.0-12.0-2.29","2d_cat_multi_stim_exp1","2022-4-27","10:27:41","25","75","3","9","10","40","30","120","66","20","[""Asian""]","No","Female","2075062","614","u","learn","","","learn_trial","25","75","in","1","1","","","","","","","","","","","","","","","","","","","","",""
"","","","","","canvas-keyboard-response","160","316208","0.0-12.0-3.29","2d_cat_multi_stim_exp1","2022-4-27","10:27:41","25","75","3","9","10","40","30","120","66","20","[""Asian""]","No","Female","2075062","null","null","learn_feedback","","","learn_feedback","25","75","in","","","","","","","","","","","","","","","","","","","","","","",""
"","","","","","canvas-keyboard-response","161","316272","0.0-12.0-4.29","2d_cat_multi_stim_exp1","2022-4-27","10:27:41","25","75","3","9","10","40","30","120","66","20","[""Asian""]","No","Female","2075062","null","null","","","","clear_screen","","","","","","","","","","","","","","","","","","","","","","","","","",""
"","","","","","canvas-keyboard-response","162","316782","0.0-12.0-0.30","2d_cat_multi_stim_exp1","2022-4-27","10:27:41","25","75","3","9","10","40","30","120","66","20","[""Asian""]","No","Female","2075062","null","null","","","","fixation","","","","","","","","","","","","","","","","","","","","","","","","","",""
"","","","","","canvas-keyboard-response","163","317294","0.0-12.0-1.30","2d_cat_multi_stim_exp1","2022-4-27","10:27:41","25","75","3","9","10","40","30","120","66","20","[""Asian""]","No","Female","2075062","null","null","","","","clear_screen","","","","","","","","","","","","","","","","","","","","","","","","","",""
"","","","","","canvas-keyboard-response","164","317827","0.0-12.0-2.30","2d_cat_multi_stim_exp1","2022-4-27","10:27:41","25","75","3","9","10","40","30","120","66","20","[""Asian""]","No","Female","2075062","520","u","learn","","","learn_trial","25","75","in","1","1","","","","","","","","","","","","","","","","","","","","",""
"","","","","","canvas-keyboard-response","165","318336","0.0-12.0-3.30","2d_cat_multi_stim_exp1","2022-4-27","10:27:41","25","75","3","9","10","40","30","120","66","20","[""Asian""]","No","Female","2075062","null","null","learn_feedback","","","learn_feedback","25","75","in","","","","","","","","","","","","","","","","","","","","","","",""
"","","","","","canvas-keyboard-response","166","318397","0.0-12.0-4.30","2d_cat_multi_stim_exp1","2022-4-27","10:27:41","25","75","3","9","10","40","30","120","66","20","[""Asian""]","No","Female","2075062","null","null","","","","clear_screen","","","","","","","","","","","","","","","","","","","","","","","","","",""
"","","","","","canvas-keyboard-response","167","318905","0.0-12.0-0.31","2d_cat_multi_stim_exp1","2022-4-27","10:27:41","25","75","3","9","10","40","30","120","66","20","[""Asian""]","No","Female","2075062","null","null","","","","fixation","","","","","","","","","","","","","","","","","","","","","","","","","",""
"","","","","","canvas-keyboard-response","168","319417","0.0-12.0-1.31","2d_cat_multi_stim_exp1","2022-4-27","10:27:41","25","75","3","9","10","40","30","120","66","20","[""Asian""]","No","Female","2075062","null","null","","","","clear_screen","","","","","","","","","","","","","","","","","","","","","","","","","",""
"","","","","","canvas-keyboard-response","169","321833","0.0-12.0-2.31","2d_cat_multi_stim_exp1","2022-4-27","10:27:41","25","75","3","9","10","40","30","120","66","20","[""Asian""]","No","Female","2075062","2406","i","learn","","","learn_trial","16.6667","110","out","0","1","","","","","","","","","","","","","","","","","","","","",""
"","","","","","canvas-keyboard-response","170","322341","0.0-12.0-3.31","2d_cat_multi_stim_exp1","2022-4-27","10:27:41","25","75","3","9","10","40","30","120","66","20","[""Asian""]","No","Female","2075062","null","null","learn_feedback","","","learn_feedback","16.6667","110","out","","","","","","","","","","","","","","","","","","","","","","",""
"","","","","","canvas-keyboard-response","171","322403","0.0-12.0-4.31","2d_cat_multi_stim_exp1","2022-4-27","10:27:41","25","75","3","9","10","40","30","120","66","20","[""Asian""]","No","Female","2075062","null","null","","","","clear_screen","","","","","","","","","","","","","","","","","","","","","","","","","",""
"","","","","","canvas-keyboard-response","172","322911","0.0-12.0-0.32","2d_cat_multi_stim_exp1","2022-4-27","10:27:41","25","75","3","9","10","40","30","120","66","20","[""Asian""]","No","Female","2075062","null","null","","","","fixation","","","","","","","","","","","","","","","","","","","","","","","","","",""
"","","","","","canvas-keyboard-response","173","323421","0.0-12.0-1.32","2d_cat_multi_stim_exp1","2022-4-27","10:27:41","25","75","3","9","10","40","30","120","66","20","[""Asian""]","No","Female","2075062","null","null","","","","clear_screen","","","","","","","","","","","","","","","","","","","","","","","","","",""
"","","","","","canvas-keyboard-response","174","324161","0.0-12.0-2.32","2d_cat_multi_stim_exp1","2022-4-27","10:27:41","25","75","3","9","10","40","30","120","66","20","[""Asian""]","No","Female","2075062","729","i","learn","","","learn_trial","30","50","out","0","1","","","","","","","","","","","","","","","","","","","","",""
"","","","","","canvas-keyboard-response","175","324674","0.0-12.0-3.32","2d_cat_multi_stim_exp1","2022-4-27","10:27:41","25","75","3","9","10","40","30","120","66","20","[""Asian""]","No","Female","2075062","null","null","learn_feedback","","","learn_feedback","30","50","out","","","","","","","","","","","","","","","","","","","","","","",""
"","","","","","canvas-keyboard-response","176","324733","0.0-12.0-4.32","2d_cat_multi_stim_exp1","2022-4-27","10:27:41","25","75","3","9","10","40","30","120","66","20","[""Asian""]","No","Female","2075062","null","null","","","","clear_screen","","","","","","","","","","","","","","","","","","","","","","","","","",""
"","","","","","canvas-keyboard-response","177","325243","0.0-12.0-0.33","2d_cat_multi_stim_exp1","2022-4-27","10:27:41","25","75","3","9","10","40","30","120","66","20","[""Asian""]","No","Female","2075062","null","null","","","","fixation","","","","","","","","","","","","","","","","","","","","","","","","","",""
"","","","","","canvas-keyboard-response","178","325757","0.0-12.0-1.33","2d_cat_multi_stim_exp1","2022-4-27","10:27:41","25","75","3","9","10","40","30","120","66","20","[""Asian""]","No","Female","2075062","null","null","","","","clear_screen","","","","","","","","","","","","","","","","","","","","","","","","","",""
"","","","","","canvas-keyboard-response","179","326946","0.0-12.0-2.33","2d_cat_multi_stim_exp1","2022-4-27","10:27:41","25","75","3","9","10","40","30","120","66","20","[""Asian""]","No","Female","2075062","1179","u","learn","","","learn_trial","16.6667","100","out","1","0","","","","","","","","","","","","","","","","","","","","",""
"","","","","","canvas-keyboard-response","180","327959","0.0-12.0-3.33","2d_cat_multi_stim_exp1","2022-4-27","10:27:41","25","75","3","9","10","40","30","120","66","20","[""Asian""]","No","Female","2075062","null","null","learn_feedback","","","learn_feedback","16.6667","100","out","","","","","","","","","","","","","","","","","","","","","","",""
"","","","","","canvas-keyboard-response","181","328020","0.0-12.0-4.33","2d_cat_multi_stim_exp1","2022-4-27","10:27:41","25","75","3","9","10","40","30","120","66","20","[""Asian""]","No","Female","2075062","null","null","","","","clear_screen","","","","","","","","","","","","","","","","","","","","","","","","","",""
"","","","","","canvas-keyboard-response","182","328532","0.0-12.0-0.34","2d_cat_multi_stim_exp1","2022-4-27","10:27:41","25","75","3","9","10","40","30","120","66","20","[""Asian""]","No","Female","2075062","null","null","","","","fixation","","","","","","","","","","","","","","","","","","","","","","","","","",""
"","","","","","canvas-keyboard-response","183","329041","0.0-12.0-1.34","2d_cat_multi_stim_exp1","2022-4-27","10:27:41","25","75","3","9","10","40","30","120","66","20","[""Asian""]","No","Female","2075062","null","null","","","","clear_screen","","","","","","","","","","","","","","","","","","","","","","","","","",""
"","","","","","canvas-keyboard-response","184","330210","0.0-12.0-2.34","2d_cat_multi_stim_exp1","2022-4-27","10:27:41","25","75","3","9","10","40","30","120","66","20","[""Asian""]","No","Female","2075062","1158","u","learn","","","learn_trial","20","50","out","1","0","","","","","","","","","","","","","","","","","","","","",""
"","","","","","canvas-keyboard-response","185","331221","0.0-12.0-3.34","2d_cat_multi_stim_exp1","2022-4-27","10:27:41","25","75","3","9","10","40","30","120","66","20","[""Asian""]","No","Female","2075062","null","null","learn_feedback","","","learn_feedback","20","50","out","","","","","","","","","","","","","","","","","","","","","","",""
"","","","","","canvas-keyboard-response","186","331283","0.0-12.0-4.34","2d_cat_multi_stim_exp1","2022-4-27","10:27:41","25","75","3","9","10","40","30","120","66","20","[""Asian""]","No","Female","2075062","null","null","","","","clear_screen","","","","","","","","","","","","","","","","","","","","","","","","","",""
"","","","","","canvas-keyboard-response","187","331796","0.0-12.0-0.35","2d_cat_multi_stim_exp1","2022-4-27","10:27:41","25","75","3","9","10","40","30","120","66","20","[""Asian""]","No","Female","2075062","null","null","","","","fixation","","","","","","","","","","","","","","","","","","","","","","","","","",""
"","","","","","canvas-keyboard-response","188","332307","0.0-12.0-1.35","2d_cat_multi_stim_exp1","2022-4-27","10:27:41","25","75","3","9","10","40","30","120","66","20","[""Asian""]","No","Female","2075062","null","null","","","","clear_screen","","","","","","","","","","","","","","","","","","","","","","","","","",""
"","","","","","canvas-keyboard-response","189","332987","0.0-12.0-2.35","2d_cat_multi_stim_exp1","2022-4-27","10:27:41","25","75","3","9","10","40","30","120","66","20","[""Asian""]","No","Female","2075062","667","i","learn","","","learn_trial","16.6667","120","out","0","1","","","","","","","","","","","","","","","","","","","","",""
"","","","","","canvas-keyboard-response","190","333499","0.0-12.0-3.35","2d_cat_multi_stim_exp1","2022-4-27","10:27:41","25","75","3","9","10","40","30","120","66","20","[""Asian""]","No","Female","2075062","null","null","learn_feedback","","","learn_feedback","16.6667","120","out","","","","","","","","","","","","","","","","","","","","","","",""
"","","","","","canvas-keyboard-response","191","333558","0.0-12.0-4.35","2d_cat_multi_stim_exp1","2022-4-27","10:27:41","25","75","3","9","10","40","30","120","66","20","[""Asian""]","No","Female","2075062","null","null","","","","clear_screen","","","","","","","","","","","","","","","","","","","","","","","","","",""
"","","","","","canvas-keyboard-response","192","334068","0.0-12.0-0.36","2d_cat_multi_stim_exp1","2022-4-27","10:27:41","25","75","3","9","10","40","30","120","66","20","[""Asian""]","No","Female","2075062","null","null","","","","fixation","","","","","","","","","","","","","","","","","","","","","","","","","",""
"","","","","","canvas-keyboard-response","193","334581","0.0-12.0-1.36","2d_cat_multi_stim_exp1","2022-4-27","10:27:41","25","75","3","9","10","40","30","120","66","20","[""Asian""]","No","Female","2075062","null","null","","","","clear_screen","","","","","","","","","","","","","","","","","","","","","","","","","",""
"","","","","","canvas-keyboard-response","194","335299","0.0-12.0-2.36","2d_cat_multi_stim_exp1","2022-4-27","10:27:41","25","75","3","9","10","40","30","120","66","20","[""Asian""]","No","Female","2075062","709","u","learn","","","learn_trial","23.3473","82.5112","in","1","1","","","","","","","","","","","","","","","","","","","","",""
"","","","","","canvas-keyboard-response","195","335808","0.0-12.0-3.36","2d_cat_multi_stim_exp1","2022-4-27","10:27:41","25","75","3","9","10","40","30","120","66","20","[""Asian""]","No","Female","2075062","null","null","learn_feedback","","","learn_feedback","23.3473","82.5112","in","","","","","","","","","","","","","","","","","","","","","","",""
"","","","","","canvas-keyboard-response","196","335868","0.0-12.0-4.36","2d_cat_multi_stim_exp1","2022-4-27","10:27:41","25","75","3","9","10","40","30","120","66","20","[""Asian""]","No","Female","2075062","null","null","","","","clear_screen","","","","","","","","","","","","","","","","","","","","","","","","","",""
"","","","","","canvas-keyboard-response","197","336380","0.0-12.0-0.37","2d_cat_multi_stim_exp1","2022-4-27","10:27:41","25","75","3","9","10","40","30","120","66","20","[""Asian""]","No","Female","2075062","null","null","","","","fixation","","","","","","","","","","","","","","","","","","","","","","","","","",""
"","","","","","canvas-keyboard-response","198","336894","0.0-12.0-1.37","2d_cat_multi_stim_exp1","2022-4-27","10:27:41","25","75","3","9","10","40","30","120","66","20","[""Asian""]","No","Female","2075062","null","null","","","","clear_screen","","","","","","","","","","","","","","","","","","","","","","","","","",""
"","","","","","canvas-keyboard-response","199","337603","0.0-12.0-2.37","2d_cat_multi_stim_exp1","2022-4-27","10:27:41","25","75","3","9","10","40","30","120","66","20","[""Asian""]","No","Female","2075062","699","u","learn","","","learn_trial","27.9518","76.607","in","1","1","","","","","","","","","","","","","","","","","","","","",""
"","","","","","canvas-keyboard-response","200","338113","0.0-12.0-3.37","2d_cat_multi_stim_exp1","2022-4-27","10:27:41","25","75","3","9","10","40","30","120","66","20","[""Asian""]","No","Female","2075062","null","null","learn_feedback","","","learn_feedback","27.9518","76.607","in","","","","","","","","","","","","","","","","","","","","","","",""
"","","","","","canvas-keyboard-response","201","338176","0.0-12.0-4.37","2d_cat_multi_stim_exp1","2022-4-27","10:27:41","25","75","3","9","10","40","30","120","66","20","[""Asian""]","No","Female","2075062","null","null","","","","clear_screen","","","","","","","","","","","","","","","","","","","","","","","","","",""
"","","","","","canvas-keyboard-response","202","338687","0.0-12.0-0.38","2d_cat_multi_stim_exp1","2022-4-27","10:27:41","25","75","3","9","10","40","30","120","66","20","[""Asian""]","No","Female","2075062","null","null","","","","fixation","","","","","","","","","","","","","","","","","","","","","","","","","",""
"","","","","","canvas-keyboard-response","203","339202","0.0-12.0-1.38","2d_cat_multi_stim_exp1","2022-4-27","10:27:41","25","75","3","9","10","40","30","120","66","20","[""Asian""]","No","Female","2075062","null","null","","","","clear_screen","","","","","","","","","","","","","","","","","","","","","","","","","",""
"","","","","","canvas-keyboard-response","204","339691","0.0-12.0-2.38","2d_cat_multi_stim_exp1","2022-4-27","10:27:41","25","75","3","9","10","40","30","120","66","20","[""Asian""]","No","Female","2075062","479","u","learn","","","learn_trial","25","75","in","1","1","","","","","","","","","","","","","","","","","","","","",""
"","","","","","canvas-keyboard-response","205","340203","0.0-12.0-3.38","2d_cat_multi_stim_exp1","2022-4-27","10:27:41","25","75","3","9","10","40","30","120","66","20","[""Asian""]","No","Female","2075062","null","null","learn_feedback","","","learn_feedback","25","75","in","","","","","","","","","","","","","","","","","","","","","","",""
"","","","","","canvas-keyboard-response","206","340259","0.0-12.0-4.38","2d_cat_multi_stim_exp1","2022-4-27","10:27:41","25","75","3","9","10","40","30","120","66","20","[""Asian""]","No","Female","2075062","null","null","","","","clear_screen","","","","","","","","","","","","","","","","","","","","","","","","","",""
"","","","","","canvas-keyboard-response","207","340769","0.0-12.0-0.39","2d_cat_multi_stim_exp1","2022-4-27","10:27:41","25","75","3","9","10","40","30","120","66","20","[""Asian""]","No","Female","2075062","null","null","","","","fixation","","","","","","","","","","","","","","","","","","","","","","","","","",""
"","","","","","canvas-keyboard-response","208","341279","0.0-12.0-1.39","2d_cat_multi_stim_exp1","2022-4-27","10:27:41","25","75","3","9","10","40","30","120","66","20","[""Asian""]","No","Female","2075062","null","null","","","","clear_screen","","","","","","","","","","","","","","","","","","","","","","","","","",""
"","","","","","canvas-keyboard-response","209","341739","0.0-12.0-2.39","2d_cat_multi_stim_exp1","2022-4-27","10:27:41","25","75","3","9","10","40","30","120","66","20","[""Asian""]","No","Female","2075062","452","u","learn","","","learn_trial","27.2592","69.0786","in","1","1","","","","","","","","","","","","","","","","","","","","",""
"","","","","","canvas-keyboard-response","210","342250","0.0-12.0-3.39","2d_cat_multi_stim_exp1","2022-4-27","10:27:41","25","75","3","9","10","40","30","120","66","20","[""Asian""]","No","Female","2075062","null","null","learn_feedback","","","learn_feedback","27.2592","69.0786","in","","","","","","","","","","","","","","","","","","","","","","",""
"","","","","","canvas-keyboard-response","211","342312","0.0-12.0-4.39","2d_cat_multi_stim_exp1","2022-4-27","10:27:41","25","75","3","9","10","40","30","120","66","20","[""Asian""]","No","Female","2075062","null","null","","","","clear_screen","","","","","","","","","","","","","","","","","","","","","","","","","",""
"","","","","","canvas-keyboard-response","212","342821","0.0-12.0-0.40","2d_cat_multi_stim_exp1","2022-4-27","10:27:41","25","75","3","9","10","40","30","120","66","20","[""Asian""]","No","Female","2075062","null","null","","","","fixation","","","","","","","","","","","","","","","","","","","","","","","","","",""
"","","","","","canvas-keyboard-response","213","343333","0.0-12.0-1.40","2d_cat_multi_stim_exp1","2022-4-27","10:27:41","25","75","3","9","10","40","30","120","66","20","[""Asian""]","No","Female","2075062","null","null","","","","clear_screen","","","","","","","","","","","","","","","","","","","","","","","","","",""
"","","","","","canvas-keyboard-response","214","343971","0.0-12.0-2.40","2d_cat_multi_stim_exp1","2022-4-27","10:27:41","25","75","3","9","10","40","30","120","66","20","[""Asian""]","No","Female","2075062","627","i","learn","","","learn_trial","25","75","in","0","0","","","","","","","","","","","","","","","","","","","","",""
"","","","","","canvas-keyboard-response","215","344982","0.0-12.0-3.40","2d_cat_multi_stim_exp1","2022-4-27","10:27:41","25","75","3","9","10","40","30","120","66","20","[""Asian""]","No","Female","2075062","null","null","learn_feedback","","","learn_feedback","25","75","in","","","","","","","","","","","","","","","","","","","","","","",""
"","","","","","canvas-keyboard-response","216","345044","0.0-12.0-4.40","2d_cat_multi_stim_exp1","2022-4-27","10:27:41","25","75","3","9","10","40","30","120","66","20","[""Asian""]","No","Female","2075062","null","null","","","","clear_screen","","","","","","","","","","","","","","","","","","","","","","","","","",""
"","","","","","canvas-keyboard-response","217","345555","0.0-12.0-0.41","2d_cat_multi_stim_exp1","2022-4-27","10:27:41","25","75","3","9","10","40","30","120","66","20","[""Asian""]","No","Female","2075062","null","null","","","","fixation","","","","","","","","","","","","","","","","","","","","","","","","","",""
"","","","","","canvas-keyboard-response","218","346064","0.0-12.0-1.41","2d_cat_multi_stim_exp1","2022-4-27","10:27:41","25","75","3","9","10","40","30","120","66","20","[""Asian""]","No","Female","2075062","null","null","","","","clear_screen","","","","","","","","","","","","","","","","","","","","","","","","","",""
"","","","","","canvas-keyboard-response","219","346683","0.0-12.0-2.41","2d_cat_multi_stim_exp1","2022-4-27","10:27:41","25","75","3","9","10","40","30","120","66","20","[""Asian""]","No","Female","2075062","608","u","learn","","","learn_trial","25","75","in","1","1","","","","","","","","","","","","","","","","","","","","",""
"","","","","","canvas-keyboard-response","220","347193","0.0-12.0-3.41","2d_cat_multi_stim_exp1","2022-4-27","10:27:41","25","75","3","9","10","40","30","120","66","20","[""Asian""]","No","Female","2075062","null","null","learn_feedback","","","learn_feedback","25","75","in","","","","","","","","","","","","","","","","","","","","","","",""
"","","","","","canvas-keyboard-response","221","347254","0.0-12.0-4.41","2d_cat_multi_stim_exp1","2022-4-27","10:27:41","25","75","3","9","10","40","30","120","66","20","[""Asian""]","No","Female","2075062","null","null","","","","clear_screen","","","","","","","","","","","","","","","","","","","","","","","","","",""
"","","","","","canvas-keyboard-response","222","347764","0.0-12.0-0.42","2d_cat_multi_stim_exp1","2022-4-27","10:27:41","25","75","3","9","10","40","30","120","66","20","[""Asian""]","No","Female","2075062","null","null","","","","fixation","","","","","","","","","","","","","","","","","","","","","","","","","",""
"","","","","","canvas-keyboard-response","223","348276","0.0-12.0-1.42","2d_cat_multi_stim_exp1","2022-4-27","10:27:41","25","75","3","9","10","40","30","120","66","20","[""Asian""]","No","Female","2075062","null","null","","","","clear_screen","","","","","","","","","","","","","","","","","","","","","","","","","",""
"","","","","","canvas-keyboard-response","224","348651","0.0-12.0-2.42","2d_cat_multi_stim_exp1","2022-4-27","10:27:41","25","75","3","9","10","40","30","120","66","20","[""Asian""]","No","Female","2075062","367","u","learn","","","learn_trial","23.3333","70","out","1","0","","","","","","","","","","","","","","","","","","","","",""
"","","","","","canvas-keyboard-response","225","349662","0.0-12.0-3.42","2d_cat_multi_stim_exp1","2022-4-27","10:27:41","25","75","3","9","10","40","30","120","66","20","[""Asian""]","No","Female","2075062","null","null","learn_feedback","","","learn_feedback","23.3333","70","out","","","","","","","","","","","","","","","","","","","","","","",""
"","","","","","canvas-keyboard-response","226","349724","0.0-12.0-4.42","2d_cat_multi_stim_exp1","2022-4-27","10:27:41","25","75","3","9","10","40","30","120","66","20","[""Asian""]","No","Female","2075062","null","null","","","","clear_screen","","","","","","","","","","","","","","","","","","","","","","","","","",""
"","","","","","canvas-keyboard-response","227","350235","0.0-12.0-0.43","2d_cat_multi_stim_exp1","2022-4-27","10:27:41","25","75","3","9","10","40","30","120","66","20","[""Asian""]","No","Female","2075062","null","null","","","","fixation","","","","","","","","","","","","","","","","","","","","","","","","","",""
"","","","","","canvas-keyboard-response","228","350747","0.0-12.0-1.43","2d_cat_multi_stim_exp1","2022-4-27","10:27:41","25","75","3","9","10","40","30","120","66","20","[""Asian""]","No","Female","2075062","null","null","","","","clear_screen","","","","","","","","","","","","","","","","","","","","","","","","","",""
"","","","","","canvas-keyboard-response","229","351643","0.0-12.0-2.43","2d_cat_multi_stim_exp1","2022-4-27","10:27:41","25","75","3","9","10","40","30","120","66","20","[""Asian""]","No","Female","2075062","885","u","learn","","","learn_trial","27.5753","70.3839","in","1","1","","","","","","","","","","","","","","","","","","","","",""
"","","","","","canvas-keyboard-response","230","352154","0.0-12.0-3.43","2d_cat_multi_stim_exp1","2022-4-27","10:27:41","25","75","3","9","10","40","30","120","66","20","[""Asian""]","No","Female","2075062","null","null","learn_feedback","","","learn_feedback","27.5753","70.3839","in","","","","","","","","","","","","","","","","","","","","","","",""
"","","","","","canvas-keyboard-response","231","352214","0.0-12.0-4.43","2d_cat_multi_stim_exp1","2022-4-27","10:27:41","25","75","3","9","10","40","30","120","66","20","[""Asian""]","No","Female","2075062","null","null","","","","clear_screen","","","","","","","","","","","","","","","","","","","","","","","","","",""
"","","","","","canvas-keyboard-response","232","352723","0.0-12.0-0.44","2d_cat_multi_stim_exp1","2022-4-27","10:27:41","25","75","3","9","10","40","30","120","66","20","[""Asian""]","No","Female","2075062","null","null","","","","fixation","","","","","","","","","","","","","","","","","","","","","","","","","",""
"","","","","","canvas-keyboard-response","233","353234","0.0-12.0-1.44","2d_cat_multi_stim_exp1","2022-4-27","10:27:41","25","75","3","9","10","40","30","120","66","20","[""Asian""]","No","Female","2075062","null","null","","","","clear_screen","","","","","","","","","","","","","","","","","","","","","","","","","",""
"","","","","","canvas-keyboard-response","234","353867","0.0-12.0-2.44","2d_cat_multi_stim_exp1","2022-4-27","10:27:41","25","75","3","9","10","40","30","120","66","20","[""Asian""]","No","Female","2075062","623","i","learn","","","learn_trial","10","70","out","0","1","","","","","","","","","","","","","","","","","","","","",""
"","","","","","canvas-keyboard-response","235","354375","0.0-12.0-3.44","2d_cat_multi_stim_exp1","2022-4-27","10:27:41","25","75","3","9","10","40","30","120","66","20","[""Asian""]","No","Female","2075062","null","null","learn_feedback","","","learn_feedback","10","70","out","","","","","","","","","","","","","","","","","","","","","","",""
"","","","","","canvas-keyboard-response","236","354437","0.0-12.0-4.44","2d_cat_multi_stim_exp1","2022-4-27","10:27:41","25","75","3","9","10","40","30","120","66","20","[""Asian""]","No","Female","2075062","null","null","","","","clear_screen","","","","","","","","","","","","","","","","","","","","","","","","","",""
"","","","","","canvas-keyboard-response","237","354942","0.0-12.0-0.45","2d_cat_multi_stim_exp1","2022-4-27","10:27:41","25","75","3","9","10","40","30","120","66","20","[""Asian""]","No","Female","2075062","null","null","","","","fixation","","","","","","","","","","","","","","","","","","","","","","","","","",""
"","","","","","canvas-keyboard-response","238","355457","0.0-12.0-1.45","2d_cat_multi_stim_exp1","2022-4-27","10:27:41","25","75","3","9","10","40","30","120","66","20","[""Asian""]","No","Female","2075062","null","null","","","","clear_screen","","","","","","","","","","","","","","","","","","","","","","","","","",""
"","","","","","canvas-keyboard-response","239","356211","0.0-12.0-2.45","2d_cat_multi_stim_exp1","2022-4-27","10:27:41","25","75","3","9","10","40","30","120","66","20","[""Asian""]","No","Female","2075062","746","u","learn","","","learn_trial","24.3324","83.7744","in","1","1","","","","","","","","","","","","","","","","","","","","",""
"","","","","","canvas-keyboard-response","240","356722","0.0-12.0-3.45","2d_cat_multi_stim_exp1","2022-4-27","10:27:41","25","75","3","9","10","40","30","120","66","20","[""Asian""]","No","Female","2075062","null","null","learn_feedback","","","learn_feedback","24.3324","83.7744","in","","","","","","","","","","","","","","","","","","","","","","",""
"","","","","","canvas-keyboard-response","241","356783","0.0-12.0-4.45","2d_cat_multi_stim_exp1","2022-4-27","10:27:41","25","75","3","9","10","40","30","120","66","20","[""Asian""]","No","Female","2075062","null","null","","","","clear_screen","","","","","","","","","","","","","","","","","","","","","","","","","",""
"","","","","","canvas-keyboard-response","242","357293","0.0-12.0-0.46","2d_cat_multi_stim_exp1","2022-4-27","10:27:41","25","75","3","9","10","40","30","120","66","20","[""Asian""]","No","Female","2075062","null","null","","","","fixation","","","","","","","","","","","","","","","","","","","","","","","","","",""
"","","","","","canvas-keyboard-response","243","357805","0.0-12.0-1.46","2d_cat_multi_stim_exp1","2022-4-27","10:27:41","25","75","3","9","10","40","30","120","66","20","[""Asian""]","No","Female","2075062","null","null","","","","clear_screen","","","","","","","","","","","","","","","","","","","","","","","","","",""
"","","","","","canvas-keyboard-response","244","358802","0.0-12.0-2.46","2d_cat_multi_stim_exp1","2022-4-27","10:27:41","25","75","3","9","10","40","30","120","66","20","[""Asian""]","No","Female","2075062","987","u","learn","","","learn_trial","25","75","in","1","1","","","","","","","","","","","","","","","","","","","","",""
"","","","","","canvas-keyboard-response","245","359315","0.0-12.0-3.46","2d_cat_multi_stim_exp1","2022-4-27","10:27:41","25","75","3","9","10","40","30","120","66","20","[""Asian""]","No","Female","2075062","null","null","learn_feedback","","","learn_feedback","25","75","in","","","","","","","","","","","","","","","","","","","","","","",""
"","","","","","canvas-keyboard-response","246","359373","0.0-12.0-4.46","2d_cat_multi_stim_exp1","2022-4-27","10:27:41","25","75","3","9","10","40","30","120","66","20","[""Asian""]","No","Female","2075062","null","null","","","","clear_screen","","","","","","","","","","","","","","","","","","","","","","","","","",""
"","","","","","canvas-keyboard-response","247","359885","0.0-12.0-0.47","2d_cat_multi_stim_exp1","2022-4-27","10:27:41","25","75","3","9","10","40","30","120","66","20","[""Asian""]","No","Female","2075062","null","null","","","","fixation","","","","","","","","","","","","","","","","","","","","","","","","","",""
"","","","","","canvas-keyboard-response","248","360399","0.0-12.0-1.47","2d_cat_multi_stim_exp1","2022-4-27","10:27:41","25","75","3","9","10","40","30","120","66","20","[""Asian""]","No","Female","2075062","null","null","","","","clear_screen","","","","","","","","","","","","","","","","","","","","","","","","","",""
"","","","","","canvas-keyboard-response","249","361483","0.0-12.0-2.47","2d_cat_multi_stim_exp1","2022-4-27","10:27:41","25","75","3","9","10","40","30","120","66","20","[""Asian""]","No","Female","2075062","1077","i","learn","","","learn_trial","23.3333","40","out","0","1","","","","","","","","","","","","","","","","","","","","",""
"","","","","","canvas-keyboard-response","250","361995","0.0-12.0-3.47","2d_cat_multi_stim_exp1","2022-4-27","10:27:41","25","75","3","9","10","40","30","120","66","20","[""Asian""]","No","Female","2075062","null","null","learn_feedback","","","learn_feedback","23.3333","40","out","","","","","","","","","","","","","","","","","","","","","","",""
"","","","","","canvas-keyboard-response","251","362057","0.0-12.0-4.47","2d_cat_multi_stim_exp1","2022-4-27","10:27:41","25","75","3","9","10","40","30","120","66","20","[""Asian""]","No","Female","2075062","null","null","","","","clear_screen","","","","","","","","","","","","","","","","","","","","","","","","","",""
"","","","","","canvas-keyboard-response","252","362566","0.0-12.0-0.48","2d_cat_multi_stim_exp1","2022-4-27","10:27:41","25","75","3","9","10","40","30","120","66","20","[""Asian""]","No","Female","2075062","null","null","","","","fixation","","","","","","","","","","","","","","","","","","","","","","","","","",""
"","","","","","canvas-keyboard-response","253","363077","0.0-12.0-1.48","2d_cat_multi_stim_exp1","2022-4-27","10:27:41","25","75","3","9","10","40","30","120","66","20","[""Asian""]","No","Female","2075062","null","null","","","","clear_screen","","","","","","","","","","","","","","","","","","","","","","","","","",""
"","","","","","canvas-keyboard-response","254","363587","0.0-12.0-2.48","2d_cat_multi_stim_exp1","2022-4-27","10:27:41","25","75","3","9","10","40","30","120","66","20","[""Asian""]","No","Female","2075062","502","u","learn","","","learn_trial","25","75","in","1","1","","","","","","","","","","","","","","","","","","","","",""
"","","","","","canvas-keyboard-response","255","364098","0.0-12.0-3.48","2d_cat_multi_stim_exp1","2022-4-27","10:27:41","25","75","3","9","10","40","30","120","66","20","[""Asian""]","No","Female","2075062","null","null","learn_feedback","","","learn_feedback","25","75","in","","","","","","","","","","","","","","","","","","","","","","",""
"","","","","","canvas-keyboard-response","256","364158","0.0-12.0-4.48","2d_cat_multi_stim_exp1","2022-4-27","10:27:41","25","75","3","9","10","40","30","120","66","20","[""Asian""]","No","Female","2075062","null","null","","","","clear_screen","","","","","","","","","","","","","","","","","","","","","","","","","",""
"","","","","","canvas-keyboard-response","257","364670","0.0-12.0-0.49","2d_cat_multi_stim_exp1","2022-4-27","10:27:41","25","75","3","9","10","40","30","120","66","20","[""Asian""]","No","Female","2075062","null","null","","","","fixation","","","","","","","","","","","","","","","","","","","","","","","","","",""
"","","","","","canvas-keyboard-response","258","365181","0.0-12.0-1.49","2d_cat_multi_stim_exp1","2022-4-27","10:27:41","25","75","3","9","10","40","30","120","66","20","[""Asian""]","No","Female","2075062","null","null","","","","clear_screen","","","","","","","","","","","","","","","","","","","","","","","","","",""
"","","","","","canvas-keyboard-response","259","365803","0.0-12.0-2.49","2d_cat_multi_stim_exp1","2022-4-27","10:27:41","25","75","3","9","10","40","30","120","66","20","[""Asian""]","No","Female","2075062","611","i","learn","","","learn_trial","33.3333","30","out","0","1","","","","","","","","","","","","","","","","","","","","",""
"","","","","","canvas-keyboard-response","260","366313","0.0-12.0-3.49","2d_cat_multi_stim_exp1","2022-4-27","10:27:41","25","75","3","9","10","40","30","120","66","20","[""Asian""]","No","Female","2075062","null","null","learn_feedback","","","learn_feedback","33.3333","30","out","","","","","","","","","","","","","","","","","","","","","","",""
"","","","","","canvas-keyboard-response","261","366374","0.0-12.0-4.49","2d_cat_multi_stim_exp1","2022-4-27","10:27:41","25","75","3","9","10","40","30","120","66","20","[""Asian""]","No","Female","2075062","null","null","","","","clear_screen","","","","","","","","","","","","","","","","","","","","","","","","","",""
"","","","","","canvas-keyboard-response","262","366883","0.0-12.0-0.50","2d_cat_multi_stim_exp1","2022-4-27","10:27:41","25","75","3","9","10","40","30","120","66","20","[""Asian""]","No","Female","2075062","null","null","","","","fixation","","","","","","","","","","","","","","","","","","","","","","","","","",""
"","","","","","canvas-keyboard-response","263","367394","0.0-12.0-1.50","2d_cat_multi_stim_exp1","2022-4-27","10:27:41","25","75","3","9","10","40","30","120","66","20","[""Asian""]","No","Female","2075062","null","null","","","","clear_screen","","","","","","","","","","","","","","","","","","","","","","","","","",""
"","","","","","canvas-keyboard-response","264","368058","0.0-12.0-2.50","2d_cat_multi_stim_exp1","2022-4-27","10:27:41","25","75","3","9","10","40","30","120","66","20","[""Asian""]","No","Female","2075062","651","u","learn","","","learn_trial","40","100","out","1","0","","","","","","","","","","","","","","","","","","","","",""
"","","","","","canvas-keyboard-response","265","369070","0.0-12.0-3.50","2d_cat_multi_stim_exp1","2022-4-27","10:27:41","25","75","3","9","10","40","30","120","66","20","[""Asian""]","No","Female","2075062","null","null","learn_feedback","","","learn_feedback","40","100","out","","","","","","","","","","","","","","","","","","","","","","",""
"","","","","","canvas-keyboard-response","266","369132","0.0-12.0-4.50","2d_cat_multi_stim_exp1","2022-4-27","10:27:41","25","75","3","9","10","40","30","120","66","20","[""Asian""]","No","Female","2075062","null","null","","","","clear_screen","","","","","","","","","","","","","","","","","","","","","","","","","",""
"","","","","","canvas-keyboard-response","267","369642","0.0-12.0-0.51","2d_cat_multi_stim_exp1","2022-4-27","10:27:41","25","75","3","9","10","40","30","120","66","20","[""Asian""]","No","Female","2075062","null","null","","","","fixation","","","","","","","","","","","","","","","","","","","","","","","","","",""
"","","","","","canvas-keyboard-response","268","370156","0.0-12.0-1.51","2d_cat_multi_stim_exp1","2022-4-27","10:27:41","25","75","3","9","10","40","30","120","66","20","[""Asian""]","No","Female","2075062","null","null","","","","clear_screen","","","","","","","","","","","","","","","","","","","","","","","","","",""
"","","","","","canvas-keyboard-response","269","370962","0.0-12.0-2.51","2d_cat_multi_stim_exp1","2022-4-27","10:27:41","25","75","3","9","10","40","30","120","66","20","[""Asian""]","No","Female","2075062","796","u","learn","","","learn_trial","25","75","in","1","1","","","","","","","","","","","","","","","","","","","","",""
"","","","","","canvas-keyboard-response","270","371474","0.0-12.0-3.51","2d_cat_multi_stim_exp1","2022-4-27","10:27:41","25","75","3","9","10","40","30","120","66","20","[""Asian""]","No","Female","2075062","null","null","learn_feedback","","","learn_feedback","25","75","in","","","","","","","","","","","","","","","","","","","","","","",""
"","","","","","canvas-keyboard-response","271","371534","0.0-12.0-4.51","2d_cat_multi_stim_exp1","2022-4-27","10:27:41","25","75","3","9","10","40","30","120","66","20","[""Asian""]","No","Female","2075062","null","null","","","","clear_screen","","","","","","","","","","","","","","","","","","","","","","","","","",""
"","","","","","canvas-keyboard-response","272","372043","0.0-12.0-0.52","2d_cat_multi_stim_exp1","2022-4-27","10:27:41","25","75","3","9","10","40","30","120","66","20","[""Asian""]","No","Female","2075062","null","null","","","","fixation","","","","","","","","","","","","","","","","","","","","","","","","","",""
"","","","","","canvas-keyboard-response","273","372556","0.0-12.0-1.52","2d_cat_multi_stim_exp1","2022-4-27","10:27:41","25","75","3","9","10","40","30","120","66","20","[""Asian""]","No","Female","2075062","null","null","","","","clear_screen","","","","","","","","","","","","","","","","","","","","","","","","","",""
"","","","","","canvas-keyboard-response","274","373115","0.0-12.0-2.52","2d_cat_multi_stim_exp1","2022-4-27","10:27:41","25","75","3","9","10","40","30","120","66","20","[""Asian""]","No","Female","2075062","548","u","learn","","","learn_trial","25","75","in","1","1","","","","","","","","","","","","","","","","","","","","",""
"","","","","","canvas-keyboard-response","275","373627","0.0-12.0-3.52","2d_cat_multi_stim_exp1","2022-4-27","10:27:41","25","75","3","9","10","40","30","120","66","20","[""Asian""]","No","Female","2075062","null","null","learn_feedback","","","learn_feedback","25","75","in","","","","","","","","","","","","","","","","","","","","","","",""
"","","","","","canvas-keyboard-response","276","373686","0.0-12.0-4.52","2d_cat_multi_stim_exp1","2022-4-27","10:27:41","25","75","3","9","10","40","30","120","66","20","[""Asian""]","No","Female","2075062","null","null","","","","clear_screen","","","","","","","","","","","","","","","","","","","","","","","","","",""
"","","","","","canvas-keyboard-response","277","374194","0.0-12.0-0.53","2d_cat_multi_stim_exp1","2022-4-27","10:27:41","25","75","3","9","10","40","30","120","66","20","[""Asian""]","No","Female","2075062","null","null","","","","fixation","","","","","","","","","","","","","","","","","","","","","","","","","",""
"","","","","","canvas-keyboard-response","278","374704","0.0-12.0-1.53","2d_cat_multi_stim_exp1","2022-4-27","10:27:41","25","75","3","9","10","40","30","120","66","20","[""Asian""]","No","Female","2075062","null","null","","","","clear_screen","","","","","","","","","","","","","","","","","","","","","","","","","",""
"","","","","","canvas-keyboard-response","279","375259","0.0-12.0-2.53","2d_cat_multi_stim_exp1","2022-4-27","10:27:41","25","75","3","9","10","40","30","120","66","20","[""Asian""]","No","Female","2075062","547","i","learn","","","learn_trial","13.3333","120","out","0","1","","","","","","","","","","","","","","","","","","","","",""
"","","","","","canvas-keyboard-response","280","375770","0.0-12.0-3.53","2d_cat_multi_stim_exp1","2022-4-27","10:27:41","25","75","3","9","10","40","30","120","66","20","[""Asian""]","No","Female","2075062","null","null","learn_feedback","","","learn_feedback","13.3333","120","out","","","","","","","","","","","","","","","","","","","","","","",""
"","","","","","canvas-keyboard-response","281","375832","0.0-12.0-4.53","2d_cat_multi_stim_exp1","2022-4-27","10:27:41","25","75","3","9","10","40","30","120","66","20","[""Asian""]","No","Female","2075062","null","null","","","","clear_screen","","","","","","","","","","","","","","","","","","","","","","","","","",""
"","","","","","canvas-keyboard-response","282","376339","0.0-12.0-0.54","2d_cat_multi_stim_exp1","2022-4-27","10:27:41","25","75","3","9","10","40","30","120","66","20","[""Asian""]","No","Female","2075062","null","null","","","","fixation","","","","","","","","","","","","","","","","","","","","","","","","","",""
"","","","","","canvas-keyboard-response","283","376850","0.0-12.0-1.54","2d_cat_multi_stim_exp1","2022-4-27","10:27:41","25","75","3","9","10","40","30","120","66","20","[""Asian""]","No","Female","2075062","null","null","","","","clear_screen","","","","","","","","","","","","","","","","","","","","","","","","","",""
"","","","","","canvas-keyboard-response","284","377451","0.0-12.0-2.54","2d_cat_multi_stim_exp1","2022-4-27","10:27:41","25","75","3","9","10","40","30","120","66","20","[""Asian""]","No","Female","2075062","590","u","learn","","","learn_trial","25","93","in","1","1","","","","","","","","","","","","","","","","","","","","",""
"","","","","","canvas-keyboard-response","285","377959","0.0-12.0-3.54","2d_cat_multi_stim_exp1","2022-4-27","10:27:41","25","75","3","9","10","40","30","120","66","20","[""Asian""]","No","Female","2075062","null","null","learn_feedback","","","learn_feedback","25","93","in","","","","","","","","","","","","","","","","","","","","","","",""
"","","","","","canvas-keyboard-response","286","378022","0.0-12.0-4.54","2d_cat_multi_stim_exp1","2022-4-27","10:27:41","25","75","3","9","10","40","30","120","66","20","[""Asian""]","No","Female","2075062","null","null","","","","clear_screen","","","","","","","","","","","","","","","","","","","","","","","","","",""
"","","","","","canvas-keyboard-response","287","378531","0.0-12.0-0.55","2d_cat_multi_stim_exp1","2022-4-27","10:27:41","25","75","3","9","10","40","30","120","66","20","[""Asian""]","No","Female","2075062","null","null","","","","fixation","","","","","","","","","","","","","","","","","","","","","","","","","",""
"","","","","","canvas-keyboard-response","288","379044","0.0-12.0-1.55","2d_cat_multi_stim_exp1","2022-4-27","10:27:41","25","75","3","9","10","40","30","120","66","20","[""Asian""]","No","Female","2075062","null","null","","","","clear_screen","","","","","","","","","","","","","","","","","","","","","","","","","",""
"","","","","","canvas-keyboard-response","289","379523","0.0-12.0-2.55","2d_cat_multi_stim_exp1","2022-4-27","10:27:41","25","75","3","9","10","40","30","120","66","20","[""Asian""]","No","Female","2075062","467","u","learn","","","learn_trial","22.0121","75.8068","in","1","1","","","","","","","","","","","","","","","","","","","","",""
"","","","","","canvas-keyboard-response","290","380033","0.0-12.0-3.55","2d_cat_multi_stim_exp1","2022-4-27","10:27:41","25","75","3","9","10","40","30","120","66","20","[""Asian""]","No","Female","2075062","null","null","learn_feedback","","","learn_feedback","22.0121","75.8068","in","","","","","","","","","","","","","","","","","","","","","","",""
"","","","","","canvas-keyboard-response","291","380092","0.0-12.0-4.55","2d_cat_multi_stim_exp1","2022-4-27","10:27:41","25","75","3","9","10","40","30","120","66","20","[""Asian""]","No","Female","2075062","null","null","","","","clear_screen","","","","","","","","","","","","","","","","","","","","","","","","","",""
"","","","","","canvas-keyboard-response","292","380603","0.0-12.0-0.56","2d_cat_multi_stim_exp1","2022-4-27","10:27:41","25","75","3","9","10","40","30","120","66","20","[""Asian""]","No","Female","2075062","null","null","","","","fixation","","","","","","","","","","","","","","","","","","","","","","","","","",""
"","","","","","canvas-keyboard-response","293","381112","0.0-12.0-1.56","2d_cat_multi_stim_exp1","2022-4-27","10:27:41","25","75","3","9","10","40","30","120","66","20","[""Asian""]","No","Female","2075062","null","null","","","","clear_screen","","","","","","","","","","","","","","","","","","","","","","","","","",""
"","","","","","canvas-keyboard-response","294","381643","0.0-12.0-2.56","2d_cat_multi_stim_exp1","2022-4-27","10:27:41","25","75","3","9","10","40","30","120","66","20","[""Asian""]","No","Female","2075062","522","u","learn","","","learn_trial","22.5729","80.2901","in","1","1","","","","","","","","","","","","","","","","","","","","",""
"","","","","","canvas-keyboard-response","295","382152","0.0-12.0-3.56","2d_cat_multi_stim_exp1","2022-4-27","10:27:41","25","75","3","9","10","40","30","120","66","20","[""Asian""]","No","Female","2075062","null","null","learn_feedback","","","learn_feedback","22.5729","80.2901","in","","","","","","","","","","","","","","","","","","","","","","",""
