"success","timeout","failed_images","failed_audio","failed_video","trial_type","trial_index","time_elapsed","internal_node_id","exp_name","date","time","angle_mean_in","radius_mean_in","angle_sd_in","radius_sd_in","angle_min_out","angle_max_out","radius_min_out","radius_max_out","sub_n","age","race","ethnicity","gender","exp_duration","rt","response","exp_trial_type","stimulus","view_history","screen_id","angle","radius","distribution","choice","correct","order","angle_a","radius_a","angle_b","radius_b","angle_c","radius_c","jkl_correct","transfer_trial_type","choice_set","abc_correct","tc_correct","tc_angle","tdc_a","tdc_b","tdc_c","pair","category_a","category_b","category_c","question_order"
"true","false","[]","[]","[]","preload","0","21","0.0-0.0","2d_cat_multi_stim_exp1","2022-4-11","11:35:49","25","75","3","9","10","40","30","120","26","20","[""White""]","No","Male","1643862","","","","","","","","","","","","","","","","","","","","","","","","","","","","","","","",""
"","","","","","survey-html-form","1","3372","0.0-1.0","2d_cat_multi_stim_exp1","2022-4-11","11:35:49","25","75","3","9","10","40","30","120","26","20","[""White""]","No","Male","1643862","3342","{""response"":""26""}","enter-sub-number","","","","","","","","","","","","","","","","","","","","","","","","","","","","",""
"true","","","","","fullscreen","2","14776","0.0-2.0","2d_cat_multi_stim_exp1","2022-4-11","11:35:49","25","75","3","9","10","40","30","120","26","20","[""White""]","No","Male","1643862","","","","","","","","","","","","","","","","","","","","","","","","","","","","","","","",""
"","","","","","image-button-response","3","21464","0.0-3.0","2d_cat_multi_stim_exp1","2022-4-11","11:35:49","25","75","3","9","10","40","30","120","26","20","[""White""]","No","Male","1643862","6679","0","","consent.png","","","","","","","","","","","","","","","","","","","","","","","","","","","",""
"","","","","","html-button-response","4","26679","0.0-4.0","2d_cat_multi_stim_exp1","2022-4-11","11:35:49","25","75","3","9","10","40","30","120","26","20","[""White""]","No","Male","1643862","5209","0","","<div style= ""font-size:25px;"" <p> <strong> Welcome to the experiment! </strong><br> <p style=""color:#8B0000; font-size:25px;""><strong> Please do NOT exit full screen until you are done with the experiment. </strong> </p><p style=""font-size:25px;color:#8B0000;""> <strong> The experiment will be canceled and your data will be lost <br> if you try to go back or refresh the page at any point during the experiment.</strong> </p><br><p> <strong> Thanks in advance for your contribution to our research! </strong></p>","","","","","","","","","","","","","","","","","","","","","","","","","","","",""
"","","","","","instructions","5","62401","0.0-5.0","2d_cat_multi_stim_exp1","2022-4-11","11:35:49","25","75","3","9","10","40","30","120","26","20","[""White""]","No","Male","1643862","35718","","","","[{""page_index"":0,""viewing_time"":8548},{""page_index"":1,""viewing_time"":3112},{""page_index"":2,""viewing_time"":8576},{""page_index"":3,""viewing_time"":15481}]","instructions_1","","","","","","","","","","","","","","","","","","","","","","","","","",""
"","","","","","instructions","6","63824","0.0-6.0","2d_cat_multi_stim_exp1","2022-4-11","11:35:49","25","75","3","9","10","40","30","120","26","20","[""White""]","No","Male","1643862","1421","","","","[{""page_index"":0,""viewing_time"":1420}]","Click to see the kinds of turtles that will appear in the study.","","","","","","","","","","","","","","","","","","","","","","","","","",""
"","","","","","canvas-keyboard-response","7","78843","0.0-7.0","2d_cat_multi_stim_exp1","2022-4-11","11:35:49","25","75","3","9","10","40","30","120","26","20","[""White""]","No","Male","1643862","null","null","","","","demo_range","","","","","","","","","","","","","","","","","","","","","","","","","",""
"","","","","","instructions","8","80600","0.0-8.0","2d_cat_multi_stim_exp1","2022-4-11","11:35:49","25","75","3","9","10","40","30","120","26","20","[""White""]","No","Male","1643862","1253","","","","[{""page_index"":0,""viewing_time"":1253}]","Click to see some turtles in the subspecies.","","","","","","","","","","","","","","","","","","","","","","","","","",""
"","","","","","canvas-keyboard-response","9","95619","0.0-9.0","2d_cat_multi_stim_exp1","2022-4-11","11:35:49","25","75","3","9","10","40","30","120","26","20","[""White""]","No","Male","1643862","null","null","","","","demo_in","","","","","","","","","","","","","","","","","","","","","","","","","",""
"","","","","","instructions","10","127096","0.0-10.0","2d_cat_multi_stim_exp1","2022-4-11","11:35:49","25","75","3","9","10","40","30","120","26","20","[""White""]","No","Male","1643862","30973","","","","[{""page_index"":0,""viewing_time"":6772},{""page_index"":1,""viewing_time"":16536},{""page_index"":2,""viewing_time"":3376},{""page_index"":1,""viewing_time"":2937},{""page_index"":2,""viewing_time"":1351}]","instructions_2","","","","","","","","","","","","","","","","","","","","","","","","","",""
"","","","","","instructions","11","128249","0.0-11.0","2d_cat_multi_stim_exp1","2022-4-11","11:35:49","25","75","3","9","10","40","30","120","26","20","[""White""]","No","Male","1643862","1150","","","","[{""page_index"":0,""viewing_time"":1150}]","Click to begin the first phase of the experiment.","","","","","","","","","","","","","","","","","","","","","","","","","",""
"","","","","","canvas-keyboard-response","12","128759","0.0-12.0-0.0","2d_cat_multi_stim_exp1","2022-4-11","11:35:49","25","75","3","9","10","40","30","120","26","20","[""White""]","No","Male","1643862","null","null","","","","fixation","","","","","","","","","","","","","","","","","","","","","","","","","",""
"","","","","","canvas-keyboard-response","13","129271","0.0-12.0-1.0","2d_cat_multi_stim_exp1","2022-4-11","11:35:49","25","75","3","9","10","40","30","120","26","20","[""White""]","No","Male","1643862","null","null","","","","clear_screen","","","","","","","","","","","","","","","","","","","","","","","","","",""
"","","","","","canvas-keyboard-response","14","136489","0.0-12.0-2.0","2d_cat_multi_stim_exp1","2022-4-11","11:35:49","25","75","3","9","10","40","30","120","26","20","[""White""]","No","Male","1643862","7208","u","learn","","","learn_trial","30","120","out","1","0","","","","","","","","","","","","","","","","","","","","",""
"","","","","","canvas-keyboard-response","15","137499","0.0-12.0-3.0","2d_cat_multi_stim_exp1","2022-4-11","11:35:49","25","75","3","9","10","40","30","120","26","20","[""White""]","No","Male","1643862","null","null","learn_feedback","","","learn_feedback","30","120","out","","","","","","","","","","","","","","","","","","","","","","",""
"","","","","","canvas-keyboard-response","16","137564","0.0-12.0-4.0","2d_cat_multi_stim_exp1","2022-4-11","11:35:49","25","75","3","9","10","40","30","120","26","20","[""White""]","No","Male","1643862","null","null","","","","clear_screen","","","","","","","","","","","","","","","","","","","","","","","","","",""
"","","","","","canvas-keyboard-response","17","138078","0.0-12.0-0.1","2d_cat_multi_stim_exp1","2022-4-11","11:35:49","25","75","3","9","10","40","30","120","26","20","[""White""]","No","Male","1643862","null","null","","","","fixation","","","","","","","","","","","","","","","","","","","","","","","","","",""
"","","","","","canvas-keyboard-response","18","138590","0.0-12.0-1.1","2d_cat_multi_stim_exp1","2022-4-11","11:35:49","25","75","3","9","10","40","30","120","26","20","[""White""]","No","Male","1643862","null","null","","","","clear_screen","","","","","","","","","","","","","","","","","","","","","","","","","",""
"","","","","","canvas-keyboard-response","19","140488","0.0-12.0-2.1","2d_cat_multi_stim_exp1","2022-4-11","11:35:49","25","75","3","9","10","40","30","120","26","20","[""White""]","No","Male","1643862","1888","i","learn","","","learn_trial","20","90","out","0","1","","","","","","","","","","","","","","","","","","","","",""
"","","","","","canvas-keyboard-response","20","140999","0.0-12.0-3.1","2d_cat_multi_stim_exp1","2022-4-11","11:35:49","25","75","3","9","10","40","30","120","26","20","[""White""]","No","Male","1643862","null","null","learn_feedback","","","learn_feedback","20","90","out","","","","","","","","","","","","","","","","","","","","","","",""
"","","","","","canvas-keyboard-response","21","141061","0.0-12.0-4.1","2d_cat_multi_stim_exp1","2022-4-11","11:35:49","25","75","3","9","10","40","30","120","26","20","[""White""]","No","Male","1643862","null","null","","","","clear_screen","","","","","","","","","","","","","","","","","","","","","","","","","",""
"","","","","","canvas-keyboard-response","22","141570","0.0-12.0-0.2","2d_cat_multi_stim_exp1","2022-4-11","11:35:49","25","75","3","9","10","40","30","120","26","20","[""White""]","No","Male","1643862","null","null","","","","fixation","","","","","","","","","","","","","","","","","","","","","","","","","",""
"","","","","","canvas-keyboard-response","23","142084","0.0-12.0-1.2","2d_cat_multi_stim_exp1","2022-4-11","11:35:49","25","75","3","9","10","40","30","120","26","20","[""White""]","No","Male","1643862","null","null","","","","clear_screen","","","","","","","","","","","","","","","","","","","","","","","","","",""
"","","","","","canvas-keyboard-response","24","143592","0.0-12.0-2.2","2d_cat_multi_stim_exp1","2022-4-11","11:35:49","25","75","3","9","10","40","30","120","26","20","[""White""]","No","Male","1643862","1494","i","learn","","","learn_trial","20","110","out","0","1","","","","","","","","","","","","","","","","","","","","",""
"","","","","","canvas-keyboard-response","25","144103","0.0-12.0-3.2","2d_cat_multi_stim_exp1","2022-4-11","11:35:49","25","75","3","9","10","40","30","120","26","20","[""White""]","No","Male","1643862","null","null","learn_feedback","","","learn_feedback","20","110","out","","","","","","","","","","","","","","","","","","","","","","",""
"","","","","","canvas-keyboard-response","26","144164","0.0-12.0-4.2","2d_cat_multi_stim_exp1","2022-4-11","11:35:49","25","75","3","9","10","40","30","120","26","20","[""White""]","No","Male","1643862","null","null","","","","clear_screen","","","","","","","","","","","","","","","","","","","","","","","","","",""
"","","","","","canvas-keyboard-response","27","144676","0.0-12.0-0.3","2d_cat_multi_stim_exp1","2022-4-11","11:35:49","25","75","3","9","10","40","30","120","26","20","[""White""]","No","Male","1643862","null","null","","","","fixation","","","","","","","","","","","","","","","","","","","","","","","","","",""
"","","","","","canvas-keyboard-response","28","145188","0.0-12.0-1.3","2d_cat_multi_stim_exp1","2022-4-11","11:35:49","25","75","3","9","10","40","30","120","26","20","[""White""]","No","Male","1643862","null","null","","","","clear_screen","","","","","","","","","","","","","","","","","","","","","","","","","",""
"","","","","","canvas-keyboard-response","29","146655","0.0-12.0-2.3","2d_cat_multi_stim_exp1","2022-4-11","11:35:49","25","75","3","9","10","40","30","120","26","20","[""White""]","No","Male","1643862","1457","u","learn","","","learn_trial","10","120","out","1","0","","","","","","","","","","","","","","","","","","","","",""
"","","","","","canvas-keyboard-response","30","147666","0.0-12.0-3.3","2d_cat_multi_stim_exp1","2022-4-11","11:35:49","25","75","3","9","10","40","30","120","26","20","[""White""]","No","Male","1643862","null","null","learn_feedback","","","learn_feedback","10","120","out","","","","","","","","","","","","","","","","","","","","","","",""
"","","","","","canvas-keyboard-response","31","147725","0.0-12.0-4.3","2d_cat_multi_stim_exp1","2022-4-11","11:35:49","25","75","3","9","10","40","30","120","26","20","[""White""]","No","Male","1643862","null","null","","","","clear_screen","","","","","","","","","","","","","","","","","","","","","","","","","",""
"","","","","","canvas-keyboard-response","32","148237","0.0-12.0-0.4","2d_cat_multi_stim_exp1","2022-4-11","11:35:49","25","75","3","9","10","40","30","120","26","20","[""White""]","No","Male","1643862","null","null","","","","fixation","","","","","","","","","","","","","","","","","","","","","","","","","",""
"","","","","","canvas-keyboard-response","33","148751","0.0-12.0-1.4","2d_cat_multi_stim_exp1","2022-4-11","11:35:49","25","75","3","9","10","40","30","120","26","20","[""White""]","No","Male","1643862","null","null","","","","clear_screen","","","","","","","","","","","","","","","","","","","","","","","","","",""
"","","","","","canvas-keyboard-response","34","149688","0.0-12.0-2.4","2d_cat_multi_stim_exp1","2022-4-11","11:35:49","25","75","3","9","10","40","30","120","26","20","[""White""]","No","Male","1643862","925","i","learn","","","learn_trial","23.3333","100","out","0","1","","","","","","","","","","","","","","","","","","","","",""
"","","","","","canvas-keyboard-response","35","150198","0.0-12.0-3.4","2d_cat_multi_stim_exp1","2022-4-11","11:35:49","25","75","3","9","10","40","30","120","26","20","[""White""]","No","Male","1643862","null","null","learn_feedback","","","learn_feedback","23.3333","100","out","","","","","","","","","","","","","","","","","","","","","","",""
"","","","","","canvas-keyboard-response","36","150261","0.0-12.0-4.4","2d_cat_multi_stim_exp1","2022-4-11","11:35:49","25","75","3","9","10","40","30","120","26","20","[""White""]","No","Male","1643862","null","null","","","","clear_screen","","","","","","","","","","","","","","","","","","","","","","","","","",""
"","","","","","canvas-keyboard-response","37","150773","0.0-12.0-0.5","2d_cat_multi_stim_exp1","2022-4-11","11:35:49","25","75","3","9","10","40","30","120","26","20","[""White""]","No","Male","1643862","null","null","","","","fixation","","","","","","","","","","","","","","","","","","","","","","","","","",""
"","","","","","canvas-keyboard-response","38","151288","0.0-12.0-1.5","2d_cat_multi_stim_exp1","2022-4-11","11:35:49","25","75","3","9","10","40","30","120","26","20","[""White""]","No","Male","1643862","null","null","","","","clear_screen","","","","","","","","","","","","","","","","","","","","","","","","","",""
"","","","","","canvas-keyboard-response","39","153792","0.0-12.0-2.5","2d_cat_multi_stim_exp1","2022-4-11","11:35:49","25","75","3","9","10","40","30","120","26","20","[""White""]","No","Male","1643862","2494","u","learn","","","learn_trial","13.3333","50","out","1","0","","","","","","","","","","","","","","","","","","","","",""
"","","","","","canvas-keyboard-response","40","154801","0.0-12.0-3.5","2d_cat_multi_stim_exp1","2022-4-11","11:35:49","25","75","3","9","10","40","30","120","26","20","[""White""]","No","Male","1643862","null","null","learn_feedback","","","learn_feedback","13.3333","50","out","","","","","","","","","","","","","","","","","","","","","","",""
"","","","","","canvas-keyboard-response","41","154863","0.0-12.0-4.5","2d_cat_multi_stim_exp1","2022-4-11","11:35:49","25","75","3","9","10","40","30","120","26","20","[""White""]","No","Male","1643862","null","null","","","","clear_screen","","","","","","","","","","","","","","","","","","","","","","","","","",""
"","","","","","canvas-keyboard-response","42","155374","0.0-12.0-0.6","2d_cat_multi_stim_exp1","2022-4-11","11:35:49","25","75","3","9","10","40","30","120","26","20","[""White""]","No","Male","1643862","null","null","","","","fixation","","","","","","","","","","","","","","","","","","","","","","","","","",""
"","","","","","canvas-keyboard-response","43","155887","0.0-12.0-1.6","2d_cat_multi_stim_exp1","2022-4-11","11:35:49","25","75","3","9","10","40","30","120","26","20","[""White""]","No","Male","1643862","null","null","","","","clear_screen","","","","","","","","","","","","","","","","","","","","","","","","","",""
"","","","","","canvas-keyboard-response","44","159631","0.0-12.0-2.6","2d_cat_multi_stim_exp1","2022-4-11","11:35:49","25","75","3","9","10","40","30","120","26","20","[""White""]","No","Male","1643862","3733","i","learn","","","learn_trial","25","75","in","0","0","","","","","","","","","","","","","","","","","","","","",""
"","","","","","canvas-keyboard-response","45","160644","0.0-12.0-3.6","2d_cat_multi_stim_exp1","2022-4-11","11:35:49","25","75","3","9","10","40","30","120","26","20","[""White""]","No","Male","1643862","null","null","learn_feedback","","","learn_feedback","25","75","in","","","","","","","","","","","","","","","","","","","","","","",""
"","","","","","canvas-keyboard-response","46","160705","0.0-12.0-4.6","2d_cat_multi_stim_exp1","2022-4-11","11:35:49","25","75","3","9","10","40","30","120","26","20","[""White""]","No","Male","1643862","null","null","","","","clear_screen","","","","","","","","","","","","","","","","","","","","","","","","","",""
"","","","","","canvas-keyboard-response","47","161215","0.0-12.0-0.7","2d_cat_multi_stim_exp1","2022-4-11","11:35:49","25","75","3","9","10","40","30","120","26","20","[""White""]","No","Male","1643862","null","null","","","","fixation","","","","","","","","","","","","","","","","","","","","","","","","","",""
"","","","","","canvas-keyboard-response","48","161725","0.0-12.0-1.7","2d_cat_multi_stim_exp1","2022-4-11","11:35:49","25","75","3","9","10","40","30","120","26","20","[""White""]","No","Male","1643862","null","null","","","","clear_screen","","","","","","","","","","","","","","","","","","","","","","","","","",""
"","","","","","canvas-keyboard-response","49","163664","0.0-12.0-2.7","2d_cat_multi_stim_exp1","2022-4-11","11:35:49","25","75","3","9","10","40","30","120","26","20","[""White""]","No","Male","1643862","1927","i","learn","","","learn_trial","40","50","out","0","1","","","","","","","","","","","","","","","","","","","","",""
"","","","","","canvas-keyboard-response","50","164174","0.0-12.0-3.7","2d_cat_multi_stim_exp1","2022-4-11","11:35:49","25","75","3","9","10","40","30","120","26","20","[""White""]","No","Male","1643862","null","null","learn_feedback","","","learn_feedback","40","50","out","","","","","","","","","","","","","","","","","","","","","","",""
"","","","","","canvas-keyboard-response","51","164237","0.0-12.0-4.7","2d_cat_multi_stim_exp1","2022-4-11","11:35:49","25","75","3","9","10","40","30","120","26","20","[""White""]","No","Male","1643862","null","null","","","","clear_screen","","","","","","","","","","","","","","","","","","","","","","","","","",""
"","","","","","canvas-keyboard-response","52","164743","0.0-12.0-0.8","2d_cat_multi_stim_exp1","2022-4-11","11:35:49","25","75","3","9","10","40","30","120","26","20","[""White""]","No","Male","1643862","null","null","","","","fixation","","","","","","","","","","","","","","","","","","","","","","","","","",""
"","","","","","canvas-keyboard-response","53","165258","0.0-12.0-1.8","2d_cat_multi_stim_exp1","2022-4-11","11:35:49","25","75","3","9","10","40","30","120","26","20","[""White""]","No","Male","1643862","null","null","","","","clear_screen","","","","","","","","","","","","","","","","","","","","","","","","","",""
"","","","","","canvas-keyboard-response","54","166656","0.0-12.0-2.8","2d_cat_multi_stim_exp1","2022-4-11","11:35:49","25","75","3","9","10","40","30","120","26","20","[""White""]","No","Male","1643862","1389","u","learn","","","learn_trial","24.3324","83.7744","in","1","1","","","","","","","","","","","","","","","","","","","","",""
"","","","","","canvas-keyboard-response","55","167167","0.0-12.0-3.8","2d_cat_multi_stim_exp1","2022-4-11","11:35:49","25","75","3","9","10","40","30","120","26","20","[""White""]","No","Male","1643862","null","null","learn_feedback","","","learn_feedback","24.3324","83.7744","in","","","","","","","","","","","","","","","","","","","","","","",""
"","","","","","canvas-keyboard-response","56","167226","0.0-12.0-4.8","2d_cat_multi_stim_exp1","2022-4-11","11:35:49","25","75","3","9","10","40","30","120","26","20","[""White""]","No","Male","1643862","null","null","","","","clear_screen","","","","","","","","","","","","","","","","","","","","","","","","","",""
"","","","","","canvas-keyboard-response","57","167738","0.0-12.0-0.9","2d_cat_multi_stim_exp1","2022-4-11","11:35:49","25","75","3","9","10","40","30","120","26","20","[""White""]","No","Male","1643862","null","null","","","","fixation","","","","","","","","","","","","","","","","","","","","","","","","","",""
"","","","","","canvas-keyboard-response","58","168249","0.0-12.0-1.9","2d_cat_multi_stim_exp1","2022-4-11","11:35:49","25","75","3","9","10","40","30","120","26","20","[""White""]","No","Male","1643862","null","null","","","","clear_screen","","","","","","","","","","","","","","","","","","","","","","","","","",""
"","","","","","canvas-keyboard-response","59","169696","0.0-12.0-2.9","2d_cat_multi_stim_exp1","2022-4-11","11:35:49","25","75","3","9","10","40","30","120","26","20","[""White""]","No","Male","1643862","1436","u","learn","","","learn_trial","36.6667","70","out","1","0","","","","","","","","","","","","","","","","","","","","",""
"","","","","","canvas-keyboard-response","60","170708","0.0-12.0-3.9","2d_cat_multi_stim_exp1","2022-4-11","11:35:49","25","75","3","9","10","40","30","120","26","20","[""White""]","No","Male","1643862","null","null","learn_feedback","","","learn_feedback","36.6667","70","out","","","","","","","","","","","","","","","","","","","","","","",""
"","","","","","canvas-keyboard-response","61","170772","0.0-12.0-4.9","2d_cat_multi_stim_exp1","2022-4-11","11:35:49","25","75","3","9","10","40","30","120","26","20","[""White""]","No","Male","1643862","null","null","","","","clear_screen","","","","","","","","","","","","","","","","","","","","","","","","","",""
"","","","","","canvas-keyboard-response","62","171282","0.0-12.0-0.10","2d_cat_multi_stim_exp1","2022-4-11","11:35:49","25","75","3","9","10","40","30","120","26","20","[""White""]","No","Male","1643862","null","null","","","","fixation","","","","","","","","","","","","","","","","","","","","","","","","","",""
"","","","","","canvas-keyboard-response","63","171794","0.0-12.0-1.10","2d_cat_multi_stim_exp1","2022-4-11","11:35:49","25","75","3","9","10","40","30","120","26","20","[""White""]","No","Male","1643862","null","null","","","","clear_screen","","","","","","","","","","","","","","","","","","","","","","","","","",""
"","","","","","canvas-keyboard-response","64","173392","0.0-12.0-2.10","2d_cat_multi_stim_exp1","2022-4-11","11:35:49","25","75","3","9","10","40","30","120","26","20","[""White""]","No","Male","1643862","1585","u","learn","","","learn_trial","25","75","in","1","1","","","","","","","","","","","","","","","","","","","","",""
"","","","","","canvas-keyboard-response","65","173902","0.0-12.0-3.10","2d_cat_multi_stim_exp1","2022-4-11","11:35:49","25","75","3","9","10","40","30","120","26","20","[""White""]","No","Male","1643862","null","null","learn_feedback","","","learn_feedback","25","75","in","","","","","","","","","","","","","","","","","","","","","","",""
"","","","","","canvas-keyboard-response","66","173962","0.0-12.0-4.10","2d_cat_multi_stim_exp1","2022-4-11","11:35:49","25","75","3","9","10","40","30","120","26","20","[""White""]","No","Male","1643862","null","null","","","","clear_screen","","","","","","","","","","","","","","","","","","","","","","","","","",""
"","","","","","canvas-keyboard-response","67","174471","0.0-12.0-0.11","2d_cat_multi_stim_exp1","2022-4-11","11:35:49","25","75","3","9","10","40","30","120","26","20","[""White""]","No","Male","1643862","null","null","","","","fixation","","","","","","","","","","","","","","","","","","","","","","","","","",""
"","","","","","canvas-keyboard-response","68","174984","0.0-12.0-1.11","2d_cat_multi_stim_exp1","2022-4-11","11:35:49","25","75","3","9","10","40","30","120","26","20","[""White""]","No","Male","1643862","null","null","","","","clear_screen","","","","","","","","","","","","","","","","","","","","","","","","","",""
"","","","","","canvas-keyboard-response","69","175791","0.0-12.0-2.11","2d_cat_multi_stim_exp1","2022-4-11","11:35:49","25","75","3","9","10","40","30","120","26","20","[""White""]","No","Male","1643862","797","u","learn","","","learn_trial","22.5729","80.2901","in","1","1","","","","","","","","","","","","","","","","","","","","",""
"","","","","","canvas-keyboard-response","70","176303","0.0-12.0-3.11","2d_cat_multi_stim_exp1","2022-4-11","11:35:49","25","75","3","9","10","40","30","120","26","20","[""White""]","No","Male","1643862","null","null","learn_feedback","","","learn_feedback","22.5729","80.2901","in","","","","","","","","","","","","","","","","","","","","","","",""
"","","","","","canvas-keyboard-response","71","176363","0.0-12.0-4.11","2d_cat_multi_stim_exp1","2022-4-11","11:35:49","25","75","3","9","10","40","30","120","26","20","[""White""]","No","Male","1643862","null","null","","","","clear_screen","","","","","","","","","","","","","","","","","","","","","","","","","",""
"","","","","","canvas-keyboard-response","72","176879","0.0-12.0-0.12","2d_cat_multi_stim_exp1","2022-4-11","11:35:49","25","75","3","9","10","40","30","120","26","20","[""White""]","No","Male","1643862","null","null","","","","fixation","","","","","","","","","","","","","","","","","","","","","","","","","",""
"","","","","","canvas-keyboard-response","73","177389","0.0-12.0-1.12","2d_cat_multi_stim_exp1","2022-4-11","11:35:49","25","75","3","9","10","40","30","120","26","20","[""White""]","No","Male","1643862","null","null","","","","clear_screen","","","","","","","","","","","","","","","","","","","","","","","","","",""
"","","","","","canvas-keyboard-response","74","177967","0.0-12.0-2.12","2d_cat_multi_stim_exp1","2022-4-11","11:35:49","25","75","3","9","10","40","30","120","26","20","[""White""]","No","Male","1643862","568","u","learn","","","learn_trial","25","75","in","1","1","","","","","","","","","","","","","","","","","","","","",""
"","","","","","canvas-keyboard-response","75","178479","0.0-12.0-3.12","2d_cat_multi_stim_exp1","2022-4-11","11:35:49","25","75","3","9","10","40","30","120","26","20","[""White""]","No","Male","1643862","null","null","learn_feedback","","","learn_feedback","25","75","in","","","","","","","","","","","","","","","","","","","","","","",""
"","","","","","canvas-keyboard-response","76","178541","0.0-12.0-4.12","2d_cat_multi_stim_exp1","2022-4-11","11:35:49","25","75","3","9","10","40","30","120","26","20","[""White""]","No","Male","1643862","null","null","","","","clear_screen","","","","","","","","","","","","","","","","","","","","","","","","","",""
"","","","","","canvas-keyboard-response","77","179050","0.0-12.0-0.13","2d_cat_multi_stim_exp1","2022-4-11","11:35:49","25","75","3","9","10","40","30","120","26","20","[""White""]","No","Male","1643862","null","null","","","","fixation","","","","","","","","","","","","","","","","","","","","","","","","","",""
"","","","","","canvas-keyboard-response","78","179560","0.0-12.0-1.13","2d_cat_multi_stim_exp1","2022-4-11","11:35:49","25","75","3","9","10","40","30","120","26","20","[""White""]","No","Male","1643862","null","null","","","","clear_screen","","","","","","","","","","","","","","","","","","","","","","","","","",""
"","","","","","canvas-keyboard-response","79","180119","0.0-12.0-2.13","2d_cat_multi_stim_exp1","2022-4-11","11:35:49","25","75","3","9","10","40","30","120","26","20","[""White""]","No","Male","1643862","545","u","learn","","","learn_trial","25","75","in","1","1","","","","","","","","","","","","","","","","","","","","",""
"","","","","","canvas-keyboard-response","80","180632","0.0-12.0-3.13","2d_cat_multi_stim_exp1","2022-4-11","11:35:49","25","75","3","9","10","40","30","120","26","20","[""White""]","No","Male","1643862","null","null","learn_feedback","","","learn_feedback","25","75","in","","","","","","","","","","","","","","","","","","","","","","",""
"","","","","","canvas-keyboard-response","81","180690","0.0-12.0-4.13","2d_cat_multi_stim_exp1","2022-4-11","11:35:49","25","75","3","9","10","40","30","120","26","20","[""White""]","No","Male","1643862","null","null","","","","clear_screen","","","","","","","","","","","","","","","","","","","","","","","","","",""
"","","","","","canvas-keyboard-response","82","181201","0.0-12.0-0.14","2d_cat_multi_stim_exp1","2022-4-11","11:35:49","25","75","3","9","10","40","30","120","26","20","[""White""]","No","Male","1643862","null","null","","","","fixation","","","","","","","","","","","","","","","","","","","","","","","","","",""
"","","","","","canvas-keyboard-response","83","181713","0.0-12.0-1.14","2d_cat_multi_stim_exp1","2022-4-11","11:35:49","25","75","3","9","10","40","30","120","26","20","[""White""]","No","Male","1643862","null","null","","","","clear_screen","","","","","","","","","","","","","","","","","","","","","","","","","",""
"","","","","","canvas-keyboard-response","84","182279","0.0-12.0-2.14","2d_cat_multi_stim_exp1","2022-4-11","11:35:49","25","75","3","9","10","40","30","120","26","20","[""White""]","No","Male","1643862","555","u","learn","","","learn_trial","25","75","in","1","1","","","","","","","","","","","","","","","","","","","","",""
"","","","","","canvas-keyboard-response","85","182791","0.0-12.0-3.14","2d_cat_multi_stim_exp1","2022-4-11","11:35:49","25","75","3","9","10","40","30","120","26","20","[""White""]","No","Male","1643862","null","null","learn_feedback","","","learn_feedback","25","75","in","","","","","","","","","","","","","","","","","","","","","","",""
"","","","","","canvas-keyboard-response","86","182855","0.0-12.0-4.14","2d_cat_multi_stim_exp1","2022-4-11","11:35:49","25","75","3","9","10","40","30","120","26","20","[""White""]","No","Male","1643862","null","null","","","","clear_screen","","","","","","","","","","","","","","","","","","","","","","","","","",""
"","","","","","canvas-keyboard-response","87","183364","0.0-12.0-0.15","2d_cat_multi_stim_exp1","2022-4-11","11:35:49","25","75","3","9","10","40","30","120","26","20","[""White""]","No","Male","1643862","null","null","","","","fixation","","","","","","","","","","","","","","","","","","","","","","","","","",""
"","","","","","canvas-keyboard-response","88","183875","0.0-12.0-1.15","2d_cat_multi_stim_exp1","2022-4-11","11:35:49","25","75","3","9","10","40","30","120","26","20","[""White""]","No","Male","1643862","null","null","","","","clear_screen","","","","","","","","","","","","","","","","","","","","","","","","","",""
"","","","","","canvas-keyboard-response","89","184487","0.0-12.0-2.15","2d_cat_multi_stim_exp1","2022-4-11","11:35:49","25","75","3","9","10","40","30","120","26","20","[""White""]","No","Male","1643862","603","u","learn","","","learn_trial","26.4216","82.9254","in","1","1","","","","","","","","","","","","","","","","","","","","",""
"","","","","","canvas-keyboard-response","90","184999","0.0-12.0-3.15","2d_cat_multi_stim_exp1","2022-4-11","11:35:49","25","75","3","9","10","40","30","120","26","20","[""White""]","No","Male","1643862","null","null","learn_feedback","","","learn_feedback","26.4216","82.9254","in","","","","","","","","","","","","","","","","","","","","","","",""
"","","","","","canvas-keyboard-response","91","185060","0.0-12.0-4.15","2d_cat_multi_stim_exp1","2022-4-11","11:35:49","25","75","3","9","10","40","30","120","26","20","[""White""]","No","Male","1643862","null","null","","","","clear_screen","","","","","","","","","","","","","","","","","","","","","","","","","",""
"","","","","","canvas-keyboard-response","92","185569","0.0-12.0-0.16","2d_cat_multi_stim_exp1","2022-4-11","11:35:49","25","75","3","9","10","40","30","120","26","20","[""White""]","No","Male","1643862","null","null","","","","fixation","","","","","","","","","","","","","","","","","","","","","","","","","",""
"","","","","","canvas-keyboard-response","93","186079","0.0-12.0-1.16","2d_cat_multi_stim_exp1","2022-4-11","11:35:49","25","75","3","9","10","40","30","120","26","20","[""White""]","No","Male","1643862","null","null","","","","clear_screen","","","","","","","","","","","","","","","","","","","","","","","","","",""
"","","","","","canvas-keyboard-response","94","187336","0.0-12.0-2.16","2d_cat_multi_stim_exp1","2022-4-11","11:35:49","25","75","3","9","10","40","30","120","26","20","[""White""]","No","Male","1643862","1247","i","learn","","","learn_trial","33.3333","60","out","0","1","","","","","","","","","","","","","","","","","","","","",""
"","","","","","canvas-keyboard-response","95","187847","0.0-12.0-3.16","2d_cat_multi_stim_exp1","2022-4-11","11:35:49","25","75","3","9","10","40","30","120","26","20","[""White""]","No","Male","1643862","null","null","learn_feedback","","","learn_feedback","33.3333","60","out","","","","","","","","","","","","","","","","","","","","","","",""
"","","","","","canvas-keyboard-response","96","187908","0.0-12.0-4.16","2d_cat_multi_stim_exp1","2022-4-11","11:35:49","25","75","3","9","10","40","30","120","26","20","[""White""]","No","Male","1643862","null","null","","","","clear_screen","","","","","","","","","","","","","","","","","","","","","","","","","",""
"","","","","","canvas-keyboard-response","97","188420","0.0-12.0-0.17","2d_cat_multi_stim_exp1","2022-4-11","11:35:49","25","75","3","9","10","40","30","120","26","20","[""White""]","No","Male","1643862","null","null","","","","fixation","","","","","","","","","","","","","","","","","","","","","","","","","",""
"","","","","","canvas-keyboard-response","98","188932","0.0-12.0-1.17","2d_cat_multi_stim_exp1","2022-4-11","11:35:49","25","75","3","9","10","40","30","120","26","20","[""White""]","No","Male","1643862","null","null","","","","clear_screen","","","","","","","","","","","","","","","","","","","","","","","","","",""
"","","","","","canvas-keyboard-response","99","189560","0.0-12.0-2.17","2d_cat_multi_stim_exp1","2022-4-11","11:35:49","25","75","3","9","10","40","30","120","26","20","[""White""]","No","Male","1643862","615","u","learn","","","learn_trial","24.8654","83.9909","in","1","1","","","","","","","","","","","","","","","","","","","","",""
"","","","","","canvas-keyboard-response","100","190069","0.0-12.0-3.17","2d_cat_multi_stim_exp1","2022-4-11","11:35:49","25","75","3","9","10","40","30","120","26","20","[""White""]","No","Male","1643862","null","null","learn_feedback","","","learn_feedback","24.8654","83.9909","in","","","","","","","","","","","","","","","","","","","","","","",""
"","","","","","canvas-keyboard-response","101","190132","0.0-12.0-4.17","2d_cat_multi_stim_exp1","2022-4-11","11:35:49","25","75","3","9","10","40","30","120","26","20","[""White""]","No","Male","1643862","null","null","","","","clear_screen","","","","","","","","","","","","","","","","","","","","","","","","","",""
"","","","","","canvas-keyboard-response","102","190642","0.0-12.0-0.18","2d_cat_multi_stim_exp1","2022-4-11","11:35:49","25","75","3","9","10","40","30","120","26","20","[""White""]","No","Male","1643862","null","null","","","","fixation","","","","","","","","","","","","","","","","","","","","","","","","","",""
"","","","","","canvas-keyboard-response","103","191152","0.0-12.0-1.18","2d_cat_multi_stim_exp1","2022-4-11","11:35:49","25","75","3","9","10","40","30","120","26","20","[""White""]","No","Male","1643862","null","null","","","","clear_screen","","","","","","","","","","","","","","","","","","","","","","","","","",""
"","","","","","canvas-keyboard-response","104","191903","0.0-12.0-2.18","2d_cat_multi_stim_exp1","2022-4-11","11:35:49","25","75","3","9","10","40","30","120","26","20","[""White""]","No","Male","1643862","743","i","learn","","","learn_trial","36.6667","50","out","0","1","","","","","","","","","","","","","","","","","","","","",""
"","","","","","canvas-keyboard-response","105","192416","0.0-12.0-3.18","2d_cat_multi_stim_exp1","2022-4-11","11:35:49","25","75","3","9","10","40","30","120","26","20","[""White""]","No","Male","1643862","null","null","learn_feedback","","","learn_feedback","36.6667","50","out","","","","","","","","","","","","","","","","","","","","","","",""
"","","","","","canvas-keyboard-response","106","192479","0.0-12.0-4.18","2d_cat_multi_stim_exp1","2022-4-11","11:35:49","25","75","3","9","10","40","30","120","26","20","[""White""]","No","Male","1643862","null","null","","","","clear_screen","","","","","","","","","","","","","","","","","","","","","","","","","",""
"","","","","","canvas-keyboard-response","107","192990","0.0-12.0-0.19","2d_cat_multi_stim_exp1","2022-4-11","11:35:49","25","75","3","9","10","40","30","120","26","20","[""White""]","No","Male","1643862","null","null","","","","fixation","","","","","","","","","","","","","","","","","","","","","","","","","",""
"","","","","","canvas-keyboard-response","108","193501","0.0-12.0-1.19","2d_cat_multi_stim_exp1","2022-4-11","11:35:49","25","75","3","9","10","40","30","120","26","20","[""White""]","No","Male","1643862","null","null","","","","clear_screen","","","","","","","","","","","","","","","","","","","","","","","","","",""
"","","","","","canvas-keyboard-response","109","194071","0.0-12.0-2.19","2d_cat_multi_stim_exp1","2022-4-11","11:35:49","25","75","3","9","10","40","30","120","26","20","[""White""]","No","Male","1643862","561","u","learn","","","learn_trial","22.2971","71.095","in","1","1","","","","","","","","","","","","","","","","","","","","",""
"","","","","","canvas-keyboard-response","110","194581","0.0-12.0-3.19","2d_cat_multi_stim_exp1","2022-4-11","11:35:49","25","75","3","9","10","40","30","120","26","20","[""White""]","No","Male","1643862","null","null","learn_feedback","","","learn_feedback","22.2971","71.095","in","","","","","","","","","","","","","","","","","","","","","","",""
"","","","","","canvas-keyboard-response","111","194644","0.0-12.0-4.19","2d_cat_multi_stim_exp1","2022-4-11","11:35:49","25","75","3","9","10","40","30","120","26","20","[""White""]","No","Male","1643862","null","null","","","","clear_screen","","","","","","","","","","","","","","","","","","","","","","","","","",""
"","","","","","canvas-keyboard-response","112","195154","0.0-12.0-0.20","2d_cat_multi_stim_exp1","2022-4-11","11:35:49","25","75","3","9","10","40","30","120","26","20","[""White""]","No","Male","1643862","null","null","","","","fixation","","","","","","","","","","","","","","","","","","","","","","","","","",""
"","","","","","canvas-keyboard-response","113","195667","0.0-12.0-1.20","2d_cat_multi_stim_exp1","2022-4-11","11:35:49","25","75","3","9","10","40","30","120","26","20","[""White""]","No","Male","1643862","null","null","","","","clear_screen","","","","","","","","","","","","","","","","","","","","","","","","","",""
"","","","","","canvas-keyboard-response","114","196807","0.0-12.0-2.20","2d_cat_multi_stim_exp1","2022-4-11","11:35:49","25","75","3","9","10","40","30","120","26","20","[""White""]","No","Male","1643862","1128","i","learn","","","learn_trial","40","120","out","0","1","","","","","","","","","","","","","","","","","","","","",""
"","","","","","canvas-keyboard-response","115","197319","0.0-12.0-3.20","2d_cat_multi_stim_exp1","2022-4-11","11:35:49","25","75","3","9","10","40","30","120","26","20","[""White""]","No","Male","1643862","null","null","learn_feedback","","","learn_feedback","40","120","out","","","","","","","","","","","","","","","","","","","","","","",""
"","","","","","canvas-keyboard-response","116","197383","0.0-12.0-4.20","2d_cat_multi_stim_exp1","2022-4-11","11:35:49","25","75","3","9","10","40","30","120","26","20","[""White""]","No","Male","1643862","null","null","","","","clear_screen","","","","","","","","","","","","","","","","","","","","","","","","","",""
"","","","","","canvas-keyboard-response","117","197893","0.0-12.0-0.21","2d_cat_multi_stim_exp1","2022-4-11","11:35:49","25","75","3","9","10","40","30","120","26","20","[""White""]","No","Male","1643862","null","null","","","","fixation","","","","","","","","","","","","","","","","","","","","","","","","","",""
"","","","","","canvas-keyboard-response","118","198408","0.0-12.0-1.21","2d_cat_multi_stim_exp1","2022-4-11","11:35:49","25","75","3","9","10","40","30","120","26","20","[""White""]","No","Male","1643862","null","null","","","","clear_screen","","","","","","","","","","","","","","","","","","","","","","","","","",""
"","","","","","canvas-keyboard-response","119","199112","0.0-12.0-2.21","2d_cat_multi_stim_exp1","2022-4-11","11:35:49","25","75","3","9","10","40","30","120","26","20","[""White""]","No","Male","1643862","694","u","learn","","","learn_trial","27.5753","70.3839","in","1","1","","","","","","","","","","","","","","","","","","","","",""
"","","","","","canvas-keyboard-response","120","199623","0.0-12.0-3.21","2d_cat_multi_stim_exp1","2022-4-11","11:35:49","25","75","3","9","10","40","30","120","26","20","[""White""]","No","Male","1643862","null","null","learn_feedback","","","learn_feedback","27.5753","70.3839","in","","","","","","","","","","","","","","","","","","","","","","",""
"","","","","","canvas-keyboard-response","121","199682","0.0-12.0-4.21","2d_cat_multi_stim_exp1","2022-4-11","11:35:49","25","75","3","9","10","40","30","120","26","20","[""White""]","No","Male","1643862","null","null","","","","clear_screen","","","","","","","","","","","","","","","","","","","","","","","","","",""
"","","","","","canvas-keyboard-response","122","200197","0.0-12.0-0.22","2d_cat_multi_stim_exp1","2022-4-11","11:35:49","25","75","3","9","10","40","30","120","26","20","[""White""]","No","Male","1643862","null","null","","","","fixation","","","","","","","","","","","","","","","","","","","","","","","","","",""
"","","","","","canvas-keyboard-response","123","200711","0.0-12.0-1.22","2d_cat_multi_stim_exp1","2022-4-11","11:35:49","25","75","3","9","10","40","30","120","26","20","[""White""]","No","Male","1643862","null","null","","","","clear_screen","","","","","","","","","","","","","","","","","","","","","","","","","",""
"","","","","","canvas-keyboard-response","124","201287","0.0-12.0-2.22","2d_cat_multi_stim_exp1","2022-4-11","11:35:49","25","75","3","9","10","40","30","120","26","20","[""White""]","No","Male","1643862","564","u","learn","","","learn_trial","25","75","in","1","1","","","","","","","","","","","","","","","","","","","","",""
"","","","","","canvas-keyboard-response","125","201799","0.0-12.0-3.22","2d_cat_multi_stim_exp1","2022-4-11","11:35:49","25","75","3","9","10","40","30","120","26","20","[""White""]","No","Male","1643862","null","null","learn_feedback","","","learn_feedback","25","75","in","","","","","","","","","","","","","","","","","","","","","","",""
"","","","","","canvas-keyboard-response","126","201858","0.0-12.0-4.22","2d_cat_multi_stim_exp1","2022-4-11","11:35:49","25","75","3","9","10","40","30","120","26","20","[""White""]","No","Male","1643862","null","null","","","","clear_screen","","","","","","","","","","","","","","","","","","","","","","","","","",""
"","","","","","canvas-keyboard-response","127","202369","0.0-12.0-0.23","2d_cat_multi_stim_exp1","2022-4-11","11:35:49","25","75","3","9","10","40","30","120","26","20","[""White""]","No","Male","1643862","null","null","","","","fixation","","","","","","","","","","","","","","","","","","","","","","","","","",""
"","","","","","canvas-keyboard-response","128","202883","0.0-12.0-1.23","2d_cat_multi_stim_exp1","2022-4-11","11:35:49","25","75","3","9","10","40","30","120","26","20","[""White""]","No","Male","1643862","null","null","","","","clear_screen","","","","","","","","","","","","","","","","","","","","","","","","","",""
"","","","","","canvas-keyboard-response","129","203399","0.0-12.0-2.23","2d_cat_multi_stim_exp1","2022-4-11","11:35:49","25","75","3","9","10","40","30","120","26","20","[""White""]","No","Male","1643862","506","u","learn","","","learn_trial","25","75","in","1","1","","","","","","","","","","","","","","","","","","","","",""
"","","","","","canvas-keyboard-response","130","203911","0.0-12.0-3.23","2d_cat_multi_stim_exp1","2022-4-11","11:35:49","25","75","3","9","10","40","30","120","26","20","[""White""]","No","Male","1643862","null","null","learn_feedback","","","learn_feedback","25","75","in","","","","","","","","","","","","","","","","","","","","","","",""
"","","","","","canvas-keyboard-response","131","203976","0.0-12.0-4.23","2d_cat_multi_stim_exp1","2022-4-11","11:35:49","25","75","3","9","10","40","30","120","26","20","[""White""]","No","Male","1643862","null","null","","","","clear_screen","","","","","","","","","","","","","","","","","","","","","","","","","",""
"","","","","","canvas-keyboard-response","132","204486","0.0-12.0-0.24","2d_cat_multi_stim_exp1","2022-4-11","11:35:49","25","75","3","9","10","40","30","120","26","20","[""White""]","No","Male","1643862","null","null","","","","fixation","","","","","","","","","","","","","","","","","","","","","","","","","",""
"","","","","","canvas-keyboard-response","133","205000","0.0-12.0-1.24","2d_cat_multi_stim_exp1","2022-4-11","11:35:49","25","75","3","9","10","40","30","120","26","20","[""White""]","No","Male","1643862","null","null","","","","clear_screen","","","","","","","","","","","","","","","","","","","","","","","","","",""
"","","","","","canvas-keyboard-response","134","205631","0.0-12.0-2.24","2d_cat_multi_stim_exp1","2022-4-11","11:35:49","25","75","3","9","10","40","30","120","26","20","[""White""]","No","Male","1643862","618","u","learn","","","learn_trial","25","75","in","1","1","","","","","","","","","","","","","","","","","","","","",""
"","","","","","canvas-keyboard-response","135","206142","0.0-12.0-3.24","2d_cat_multi_stim_exp1","2022-4-11","11:35:49","25","75","3","9","10","40","30","120","26","20","[""White""]","No","Male","1643862","null","null","learn_feedback","","","learn_feedback","25","75","in","","","","","","","","","","","","","","","","","","","","","","",""
"","","","","","canvas-keyboard-response","136","206200","0.0-12.0-4.24","2d_cat_multi_stim_exp1","2022-4-11","11:35:49","25","75","3","9","10","40","30","120","26","20","[""White""]","No","Male","1643862","null","null","","","","clear_screen","","","","","","","","","","","","","","","","","","","","","","","","","",""
"","","","","","canvas-keyboard-response","137","206713","0.0-12.0-0.25","2d_cat_multi_stim_exp1","2022-4-11","11:35:49","25","75","3","9","10","40","30","120","26","20","[""White""]","No","Male","1643862","null","null","","","","fixation","","","","","","","","","","","","","","","","","","","","","","","","","",""
"","","","","","canvas-keyboard-response","138","207228","0.0-12.0-1.25","2d_cat_multi_stim_exp1","2022-4-11","11:35:49","25","75","3","9","10","40","30","120","26","20","[""White""]","No","Male","1643862","null","null","","","","clear_screen","","","","","","","","","","","","","","","","","","","","","","","","","",""
"","","","","","canvas-keyboard-response","139","208343","0.0-12.0-2.25","2d_cat_multi_stim_exp1","2022-4-11","11:35:49","25","75","3","9","10","40","30","120","26","20","[""White""]","No","Male","1643862","1107","u","learn","","","learn_trial","27.8087","71.8376","in","1","1","","","","","","","","","","","","","","","","","","","","",""
"","","","","","canvas-keyboard-response","140","208856","0.0-12.0-3.25","2d_cat_multi_stim_exp1","2022-4-11","11:35:49","25","75","3","9","10","40","30","120","26","20","[""White""]","No","Male","1643862","null","null","learn_feedback","","","learn_feedback","27.8087","71.8376","in","","","","","","","","","","","","","","","","","","","","","","",""
"","","","","","canvas-keyboard-response","141","208917","0.0-12.0-4.25","2d_cat_multi_stim_exp1","2022-4-11","11:35:49","25","75","3","9","10","40","30","120","26","20","[""White""]","No","Male","1643862","null","null","","","","clear_screen","","","","","","","","","","","","","","","","","","","","","","","","","",""
"","","","","","canvas-keyboard-response","142","209429","0.0-12.0-0.26","2d_cat_multi_stim_exp1","2022-4-11","11:35:49","25","75","3","9","10","40","30","120","26","20","[""White""]","No","Male","1643862","null","null","","","","fixation","","","","","","","","","","","","","","","","","","","","","","","","","",""
"","","","","","canvas-keyboard-response","143","209940","0.0-12.0-1.26","2d_cat_multi_stim_exp1","2022-4-11","11:35:49","25","75","3","9","10","40","30","120","26","20","[""White""]","No","Male","1643862","null","null","","","","clear_screen","","","","","","","","","","","","","","","","","","","","","","","","","",""
"","","","","","canvas-keyboard-response","144","210479","0.0-12.0-2.26","2d_cat_multi_stim_exp1","2022-4-11","11:35:49","25","75","3","9","10","40","30","120","26","20","[""White""]","No","Male","1643862","527","u","learn","","","learn_trial","30","80","out","1","0","","","","","","","","","","","","","","","","","","","","",""
"","","","","","canvas-keyboard-response","145","211489","0.0-12.0-3.26","2d_cat_multi_stim_exp1","2022-4-11","11:35:49","25","75","3","9","10","40","30","120","26","20","[""White""]","No","Male","1643862","null","null","learn_feedback","","","learn_feedback","30","80","out","","","","","","","","","","","","","","","","","","","","","","",""
"","","","","","canvas-keyboard-response","146","211550","0.0-12.0-4.26","2d_cat_multi_stim_exp1","2022-4-11","11:35:49","25","75","3","9","10","40","30","120","26","20","[""White""]","No","Male","1643862","null","null","","","","clear_screen","","","","","","","","","","","","","","","","","","","","","","","","","",""
"","","","","","canvas-keyboard-response","147","212060","0.0-12.0-0.27","2d_cat_multi_stim_exp1","2022-4-11","11:35:49","25","75","3","9","10","40","30","120","26","20","[""White""]","No","Male","1643862","null","null","","","","fixation","","","","","","","","","","","","","","","","","","","","","","","","","",""
"","","","","","canvas-keyboard-response","148","212573","0.0-12.0-1.27","2d_cat_multi_stim_exp1","2022-4-11","11:35:49","25","75","3","9","10","40","30","120","26","20","[""White""]","No","Male","1643862","null","null","","","","clear_screen","","","","","","","","","","","","","","","","","","","","","","","","","",""
"","","","","","canvas-keyboard-response","149","213351","0.0-12.0-2.27","2d_cat_multi_stim_exp1","2022-4-11","11:35:49","25","75","3","9","10","40","30","120","26","20","[""White""]","No","Male","1643862","769","i","learn","","","learn_trial","26.6667","50","out","0","1","","","","","","","","","","","","","","","","","","","","",""
"","","","","","canvas-keyboard-response","150","213863","0.0-12.0-3.27","2d_cat_multi_stim_exp1","2022-4-11","11:35:49","25","75","3","9","10","40","30","120","26","20","[""White""]","No","Male","1643862","null","null","learn_feedback","","","learn_feedback","26.6667","50","out","","","","","","","","","","","","","","","","","","","","","","",""
"","","","","","canvas-keyboard-response","151","213924","0.0-12.0-4.27","2d_cat_multi_stim_exp1","2022-4-11","11:35:49","25","75","3","9","10","40","30","120","26","20","[""White""]","No","Male","1643862","null","null","","","","clear_screen","","","","","","","","","","","","","","","","","","","","","","","","","",""
"","","","","","canvas-keyboard-response","152","214437","0.0-12.0-0.28","2d_cat_multi_stim_exp1","2022-4-11","11:35:49","25","75","3","9","10","40","30","120","26","20","[""White""]","No","Male","1643862","null","null","","","","fixation","","","","","","","","","","","","","","","","","","","","","","","","","",""
"","","","","","canvas-keyboard-response","153","214949","0.0-12.0-1.28","2d_cat_multi_stim_exp1","2022-4-11","11:35:49","25","75","3","9","10","40","30","120","26","20","[""White""]","No","Male","1643862","null","null","","","","clear_screen","","","","","","","","","","","","","","","","","","","","","","","","","",""
"","","","","","canvas-keyboard-response","154","215719","0.0-12.0-2.28","2d_cat_multi_stim_exp1","2022-4-11","11:35:49","25","75","3","9","10","40","30","120","26","20","[""White""]","No","Male","1643862","760","u","learn","","","learn_trial","25","75","in","1","1","","","","","","","","","","","","","","","","","","","","",""
"","","","","","canvas-keyboard-response","155","216231","0.0-12.0-3.28","2d_cat_multi_stim_exp1","2022-4-11","11:35:49","25","75","3","9","10","40","30","120","26","20","[""White""]","No","Male","1643862","null","null","learn_feedback","","","learn_feedback","25","75","in","","","","","","","","","","","","","","","","","","","","","","",""
"","","","","","canvas-keyboard-response","156","216291","0.0-12.0-4.28","2d_cat_multi_stim_exp1","2022-4-11","11:35:49","25","75","3","9","10","40","30","120","26","20","[""White""]","No","Male","1643862","null","null","","","","clear_screen","","","","","","","","","","","","","","","","","","","","","","","","","",""
"","","","","","canvas-keyboard-response","157","216800","0.0-12.0-0.29","2d_cat_multi_stim_exp1","2022-4-11","11:35:49","25","75","3","9","10","40","30","120","26","20","[""White""]","No","Male","1643862","null","null","","","","fixation","","","","","","","","","","","","","","","","","","","","","","","","","",""
"","","","","","canvas-keyboard-response","158","217310","0.0-12.0-1.29","2d_cat_multi_stim_exp1","2022-4-11","11:35:49","25","75","3","9","10","40","30","120","26","20","[""White""]","No","Male","1643862","null","null","","","","clear_screen","","","","","","","","","","","","","","","","","","","","","","","","","",""
"","","","","","canvas-keyboard-response","159","218160","0.0-12.0-2.29","2d_cat_multi_stim_exp1","2022-4-11","11:35:49","25","75","3","9","10","40","30","120","26","20","[""White""]","No","Male","1643862","837","i","learn","","","learn_trial","26.6667","110","out","0","1","","","","","","","","","","","","","","","","","","","","",""
"","","","","","canvas-keyboard-response","160","218670","0.0-12.0-3.29","2d_cat_multi_stim_exp1","2022-4-11","11:35:49","25","75","3","9","10","40","30","120","26","20","[""White""]","No","Male","1643862","null","null","learn_feedback","","","learn_feedback","26.6667","110","out","","","","","","","","","","","","","","","","","","","","","","",""
"","","","","","canvas-keyboard-response","161","218731","0.0-12.0-4.29","2d_cat_multi_stim_exp1","2022-4-11","11:35:49","25","75","3","9","10","40","30","120","26","20","[""White""]","No","Male","1643862","null","null","","","","clear_screen","","","","","","","","","","","","","","","","","","","","","","","","","",""
"","","","","","canvas-keyboard-response","162","219241","0.0-12.0-0.30","2d_cat_multi_stim_exp1","2022-4-11","11:35:49","25","75","3","9","10","40","30","120","26","20","[""White""]","No","Male","1643862","null","null","","","","fixation","","","","","","","","","","","","","","","","","","","","","","","","","",""
"","","","","","canvas-keyboard-response","163","219756","0.0-12.0-1.30","2d_cat_multi_stim_exp1","2022-4-11","11:35:49","25","75","3","9","10","40","30","120","26","20","[""White""]","No","Male","1643862","null","null","","","","clear_screen","","","","","","","","","","","","","","","","","","","","","","","","","",""
"","","","","","canvas-keyboard-response","164","220495","0.0-12.0-2.30","2d_cat_multi_stim_exp1","2022-4-11","11:35:49","25","75","3","9","10","40","30","120","26","20","[""White""]","No","Male","1643862","727","u","learn","","","learn_trial","25","75","in","1","1","","","","","","","","","","","","","","","","","","","","",""
"","","","","","canvas-keyboard-response","165","221003","0.0-12.0-3.30","2d_cat_multi_stim_exp1","2022-4-11","11:35:49","25","75","3","9","10","40","30","120","26","20","[""White""]","No","Male","1643862","null","null","learn_feedback","","","learn_feedback","25","75","in","","","","","","","","","","","","","","","","","","","","","","",""
"","","","","","canvas-keyboard-response","166","221065","0.0-12.0-4.30","2d_cat_multi_stim_exp1","2022-4-11","11:35:49","25","75","3","9","10","40","30","120","26","20","[""White""]","No","Male","1643862","null","null","","","","clear_screen","","","","","","","","","","","","","","","","","","","","","","","","","",""
"","","","","","canvas-keyboard-response","167","221577","0.0-12.0-0.31","2d_cat_multi_stim_exp1","2022-4-11","11:35:49","25","75","3","9","10","40","30","120","26","20","[""White""]","No","Male","1643862","null","null","","","","fixation","","","","","","","","","","","","","","","","","","","","","","","","","",""
"","","","","","canvas-keyboard-response","168","222087","0.0-12.0-1.31","2d_cat_multi_stim_exp1","2022-4-11","11:35:49","25","75","3","9","10","40","30","120","26","20","[""White""]","No","Male","1643862","null","null","","","","clear_screen","","","","","","","","","","","","","","","","","","","","","","","","","",""
"","","","","","canvas-keyboard-response","169","222767","0.0-12.0-2.31","2d_cat_multi_stim_exp1","2022-4-11","11:35:49","25","75","3","9","10","40","30","120","26","20","[""White""]","No","Male","1643862","666","u","learn","","","learn_trial","25","75","in","1","1","","","","","","","","","","","","","","","","","","","","",""
"","","","","","canvas-keyboard-response","170","223280","0.0-12.0-3.31","2d_cat_multi_stim_exp1","2022-4-11","11:35:49","25","75","3","9","10","40","30","120","26","20","[""White""]","No","Male","1643862","null","null","learn_feedback","","","learn_feedback","25","75","in","","","","","","","","","","","","","","","","","","","","","","",""
"","","","","","canvas-keyboard-response","171","223344","0.0-12.0-4.31","2d_cat_multi_stim_exp1","2022-4-11","11:35:49","25","75","3","9","10","40","30","120","26","20","[""White""]","No","Male","1643862","null","null","","","","clear_screen","","","","","","","","","","","","","","","","","","","","","","","","","",""
"","","","","","canvas-keyboard-response","172","223857","0.0-12.0-0.32","2d_cat_multi_stim_exp1","2022-4-11","11:35:49","25","75","3","9","10","40","30","120","26","20","[""White""]","No","Male","1643862","null","null","","","","fixation","","","","","","","","","","","","","","","","","","","","","","","","","",""
"","","","","","canvas-keyboard-response","173","224372","0.0-12.0-1.32","2d_cat_multi_stim_exp1","2022-4-11","11:35:49","25","75","3","9","10","40","30","120","26","20","[""White""]","No","Male","1643862","null","null","","","","clear_screen","","","","","","","","","","","","","","","","","","","","","","","","","",""
"","","","","","canvas-keyboard-response","174","225135","0.0-12.0-2.32","2d_cat_multi_stim_exp1","2022-4-11","11:35:49","25","75","3","9","10","40","30","120","26","20","[""White""]","No","Male","1643862","751","u","learn","","","learn_trial","25","75","in","1","1","","","","","","","","","","","","","","","","","","","","",""
"","","","","","canvas-keyboard-response","175","225647","0.0-12.0-3.32","2d_cat_multi_stim_exp1","2022-4-11","11:35:49","25","75","3","9","10","40","30","120","26","20","[""White""]","No","Male","1643862","null","null","learn_feedback","","","learn_feedback","25","75","in","","","","","","","","","","","","","","","","","","","","","","",""
"","","","","","canvas-keyboard-response","176","225709","0.0-12.0-4.32","2d_cat_multi_stim_exp1","2022-4-11","11:35:49","25","75","3","9","10","40","30","120","26","20","[""White""]","No","Male","1643862","null","null","","","","clear_screen","","","","","","","","","","","","","","","","","","","","","","","","","",""
"","","","","","canvas-keyboard-response","177","226221","0.0-12.0-0.33","2d_cat_multi_stim_exp1","2022-4-11","11:35:49","25","75","3","9","10","40","30","120","26","20","[""White""]","No","Male","1643862","null","null","","","","fixation","","","","","","","","","","","","","","","","","","","","","","","","","",""
"","","","","","canvas-keyboard-response","178","226736","0.0-12.0-1.33","2d_cat_multi_stim_exp1","2022-4-11","11:35:49","25","75","3","9","10","40","30","120","26","20","[""White""]","No","Male","1643862","null","null","","","","clear_screen","","","","","","","","","","","","","","","","","","","","","","","","","",""
"","","","","","canvas-keyboard-response","179","228856","0.0-12.0-2.33","2d_cat_multi_stim_exp1","2022-4-11","11:35:49","25","75","3","9","10","40","30","120","26","20","[""White""]","No","Male","1643862","2112","i","learn","","","learn_trial","40","70","out","0","1","","","","","","","","","","","","","","","","","","","","",""
"","","","","","canvas-keyboard-response","180","229365","0.0-12.0-3.33","2d_cat_multi_stim_exp1","2022-4-11","11:35:49","25","75","3","9","10","40","30","120","26","20","[""White""]","No","Male","1643862","null","null","learn_feedback","","","learn_feedback","40","70","out","","","","","","","","","","","","","","","","","","","","","","",""
"","","","","","canvas-keyboard-response","181","229424","0.0-12.0-4.33","2d_cat_multi_stim_exp1","2022-4-11","11:35:49","25","75","3","9","10","40","30","120","26","20","[""White""]","No","Male","1643862","null","null","","","","clear_screen","","","","","","","","","","","","","","","","","","","","","","","","","",""
"","","","","","canvas-keyboard-response","182","229934","0.0-12.0-0.34","2d_cat_multi_stim_exp1","2022-4-11","11:35:49","25","75","3","9","10","40","30","120","26","20","[""White""]","No","Male","1643862","null","null","","","","fixation","","","","","","","","","","","","","","","","","","","","","","","","","",""
"","","","","","canvas-keyboard-response","183","230446","0.0-12.0-1.34","2d_cat_multi_stim_exp1","2022-4-11","11:35:49","25","75","3","9","10","40","30","120","26","20","[""White""]","No","Male","1643862","null","null","","","","clear_screen","","","","","","","","","","","","","","","","","","","","","","","","","",""
"","","","","","canvas-keyboard-response","184","232703","0.0-12.0-2.34","2d_cat_multi_stim_exp1","2022-4-11","11:35:49","25","75","3","9","10","40","30","120","26","20","[""White""]","No","Male","1643862","2245","u","learn","","","learn_trial","22.1081","72.6057","in","1","1","","","","","","","","","","","","","","","","","","","","",""
"","","","","","canvas-keyboard-response","185","233213","0.0-12.0-3.34","2d_cat_multi_stim_exp1","2022-4-11","11:35:49","25","75","3","9","10","40","30","120","26","20","[""White""]","No","Male","1643862","null","null","learn_feedback","","","learn_feedback","22.1081","72.6057","in","","","","","","","","","","","","","","","","","","","","","","",""
"","","","","","canvas-keyboard-response","186","233274","0.0-12.0-4.34","2d_cat_multi_stim_exp1","2022-4-11","11:35:49","25","75","3","9","10","40","30","120","26","20","[""White""]","No","Male","1643862","null","null","","","","clear_screen","","","","","","","","","","","","","","","","","","","","","","","","","",""
"","","","","","canvas-keyboard-response","187","233786","0.0-12.0-0.35","2d_cat_multi_stim_exp1","2022-4-11","11:35:49","25","75","3","9","10","40","30","120","26","20","[""White""]","No","Male","1643862","null","null","","","","fixation","","","","","","","","","","","","","","","","","","","","","","","","","",""
"","","","","","canvas-keyboard-response","188","234300","0.0-12.0-1.35","2d_cat_multi_stim_exp1","2022-4-11","11:35:49","25","75","3","9","10","40","30","120","26","20","[""White""]","No","Male","1643862","null","null","","","","clear_screen","","","","","","","","","","","","","","","","","","","","","","","","","",""
"","","","","","canvas-keyboard-response","189","235487","0.0-12.0-2.35","2d_cat_multi_stim_exp1","2022-4-11","11:35:49","25","75","3","9","10","40","30","120","26","20","[""White""]","No","Male","1643862","1174","u","learn","","","learn_trial","25.4027","66.0815","in","1","1","","","","","","","","","","","","","","","","","","","","",""
"","","","","","canvas-keyboard-response","190","235997","0.0-12.0-3.35","2d_cat_multi_stim_exp1","2022-4-11","11:35:49","25","75","3","9","10","40","30","120","26","20","[""White""]","No","Male","1643862","null","null","learn_feedback","","","learn_feedback","25.4027","66.0815","in","","","","","","","","","","","","","","","","","","","","","","",""
"","","","","","canvas-keyboard-response","191","236057","0.0-12.0-4.35","2d_cat_multi_stim_exp1","2022-4-11","11:35:49","25","75","3","9","10","40","30","120","26","20","[""White""]","No","Male","1643862","null","null","","","","clear_screen","","","","","","","","","","","","","","","","","","","","","","","","","",""
"","","","","","canvas-keyboard-response","192","236569","0.0-12.0-0.36","2d_cat_multi_stim_exp1","2022-4-11","11:35:49","25","75","3","9","10","40","30","120","26","20","[""White""]","No","Male","1643862","null","null","","","","fixation","","","","","","","","","","","","","","","","","","","","","","","","","",""
"","","","","","canvas-keyboard-response","193","237081","0.0-12.0-1.36","2d_cat_multi_stim_exp1","2022-4-11","11:35:49","25","75","3","9","10","40","30","120","26","20","[""White""]","No","Male","1643862","null","null","","","","clear_screen","","","","","","","","","","","","","","","","","","","","","","","","","",""
"","","","","","canvas-keyboard-response","194","237831","0.0-12.0-2.36","2d_cat_multi_stim_exp1","2022-4-11","11:35:49","25","75","3","9","10","40","30","120","26","20","[""White""]","No","Male","1643862","738","u","learn","","","learn_trial","22.0121","74.1932","in","1","1","","","","","","","","","","","","","","","","","","","","",""
"","","","","","canvas-keyboard-response","195","238343","0.0-12.0-3.36","2d_cat_multi_stim_exp1","2022-4-11","11:35:49","25","75","3","9","10","40","30","120","26","20","[""White""]","No","Male","1643862","null","null","learn_feedback","","","learn_feedback","22.0121","74.1932","in","","","","","","","","","","","","","","","","","","","","","","",""
"","","","","","canvas-keyboard-response","196","238407","0.0-12.0-4.36","2d_cat_multi_stim_exp1","2022-4-11","11:35:49","25","75","3","9","10","40","30","120","26","20","[""White""]","No","Male","1643862","null","null","","","","clear_screen","","","","","","","","","","","","","","","","","","","","","","","","","",""
"","","","","","canvas-keyboard-response","197","238918","0.0-12.0-0.37","2d_cat_multi_stim_exp1","2022-4-11","11:35:49","25","75","3","9","10","40","30","120","26","20","[""White""]","No","Male","1643862","null","null","","","","fixation","","","","","","","","","","","","","","","","","","","","","","","","","",""
"","","","","","canvas-keyboard-response","198","239433","0.0-12.0-1.37","2d_cat_multi_stim_exp1","2022-4-11","11:35:49","25","75","3","9","10","40","30","120","26","20","[""White""]","No","Male","1643862","null","null","","","","clear_screen","","","","","","","","","","","","","","","","","","","","","","","","","",""
"","","","","","canvas-keyboard-response","199","240191","0.0-12.0-2.37","2d_cat_multi_stim_exp1","2022-4-11","11:35:49","25","75","3","9","10","40","30","120","26","20","[""White""]","No","Male","1643862","747","u","learn","","","learn_trial","20","60","out","1","0","","","","","","","","","","","","","","","","","","","","",""
"","","","","","canvas-keyboard-response","200","241200","0.0-12.0-3.37","2d_cat_multi_stim_exp1","2022-4-11","11:35:49","25","75","3","9","10","40","30","120","26","20","[""White""]","No","Male","1643862","null","null","learn_feedback","","","learn_feedback","20","60","out","","","","","","","","","","","","","","","","","","","","","","",""
"","","","","","canvas-keyboard-response","201","241262","0.0-12.0-4.37","2d_cat_multi_stim_exp1","2022-4-11","11:35:49","25","75","3","9","10","40","30","120","26","20","[""White""]","No","Male","1643862","null","null","","","","clear_screen","","","","","","","","","","","","","","","","","","","","","","","","","",""
"","","","","","canvas-keyboard-response","202","241774","0.0-12.0-0.38","2d_cat_multi_stim_exp1","2022-4-11","11:35:49","25","75","3","9","10","40","30","120","26","20","[""White""]","No","Male","1643862","null","null","","","","fixation","","","","","","","","","","","","","","","","","","","","","","","","","",""
"","","","","","canvas-keyboard-response","203","242286","0.0-12.0-1.38","2d_cat_multi_stim_exp1","2022-4-11","11:35:49","25","75","3","9","10","40","30","120","26","20","[""White""]","No","Male","1643862","null","null","","","","clear_screen","","","","","","","","","","","","","","","","","","","","","","","","","",""
"","","","","","canvas-keyboard-response","204","243407","0.0-12.0-2.38","2d_cat_multi_stim_exp1","2022-4-11","11:35:49","25","75","3","9","10","40","30","120","26","20","[""White""]","No","Male","1643862","1110","i","learn","","","learn_trial","36.6667","110","out","0","1","","","","","","","","","","","","","","","","","","","","",""
"","","","","","canvas-keyboard-response","205","243919","0.0-12.0-3.38","2d_cat_multi_stim_exp1","2022-4-11","11:35:49","25","75","3","9","10","40","30","120","26","20","[""White""]","No","Male","1643862","null","null","learn_feedback","","","learn_feedback","36.6667","110","out","","","","","","","","","","","","","","","","","","","","","","",""
"","","","","","canvas-keyboard-response","206","243979","0.0-12.0-4.38","2d_cat_multi_stim_exp1","2022-4-11","11:35:49","25","75","3","9","10","40","30","120","26","20","[""White""]","No","Male","1643862","null","null","","","","clear_screen","","","","","","","","","","","","","","","","","","","","","","","","","",""
"","","","","","canvas-keyboard-response","207","244489","0.0-12.0-0.39","2d_cat_multi_stim_exp1","2022-4-11","11:35:49","25","75","3","9","10","40","30","120","26","20","[""White""]","No","Male","1643862","null","null","","","","fixation","","","","","","","","","","","","","","","","","","","","","","","","","",""
"","","","","","canvas-keyboard-response","208","245001","0.0-12.0-1.39","2d_cat_multi_stim_exp1","2022-4-11","11:35:49","25","75","3","9","10","40","30","120","26","20","[""White""]","No","Male","1643862","null","null","","","","clear_screen","","","","","","","","","","","","","","","","","","","","","","","","","",""
"","","","","","canvas-keyboard-response","209","247616","0.0-12.0-2.39","2d_cat_multi_stim_exp1","2022-4-11","11:35:49","25","75","3","9","10","40","30","120","26","20","[""White""]","No","Male","1643862","2602","i","learn","","","learn_trial","10","110","out","0","1","","","","","","","","","","","","","","","","","","","","",""
"","","","","","canvas-keyboard-response","210","248127","0.0-12.0-3.39","2d_cat_multi_stim_exp1","2022-4-11","11:35:49","25","75","3","9","10","40","30","120","26","20","[""White""]","No","Male","1643862","null","null","learn_feedback","","","learn_feedback","10","110","out","","","","","","","","","","","","","","","","","","","","","","",""
"","","","","","canvas-keyboard-response","211","248189","0.0-12.0-4.39","2d_cat_multi_stim_exp1","2022-4-11","11:35:49","25","75","3","9","10","40","30","120","26","20","[""White""]","No","Male","1643862","null","null","","","","clear_screen","","","","","","","","","","","","","","","","","","","","","","","","","",""
"","","","","","canvas-keyboard-response","212","248701","0.0-12.0-0.40","2d_cat_multi_stim_exp1","2022-4-11","11:35:49","25","75","3","9","10","40","30","120","26","20","[""White""]","No","Male","1643862","null","null","","","","fixation","","","","","","","","","","","","","","","","","","","","","","","","","",""
"","","","","","canvas-keyboard-response","213","249215","0.0-12.0-1.40","2d_cat_multi_stim_exp1","2022-4-11","11:35:49","25","75","3","9","10","40","30","120","26","20","[""White""]","No","Male","1643862","null","null","","","","clear_screen","","","","","","","","","","","","","","","","","","","","","","","","","",""
"","","","","","canvas-keyboard-response","214","250128","0.0-12.0-2.40","2d_cat_multi_stim_exp1","2022-4-11","11:35:49","25","75","3","9","10","40","30","120","26","20","[""White""]","No","Male","1643862","904","u","learn","","","learn_trial","25","75","in","1","1","","","","","","","","","","","","","","","","","","","","",""
"","","","","","canvas-keyboard-response","215","250639","0.0-12.0-3.40","2d_cat_multi_stim_exp1","2022-4-11","11:35:49","25","75","3","9","10","40","30","120","26","20","[""White""]","No","Male","1643862","null","null","learn_feedback","","","learn_feedback","25","75","in","","","","","","","","","","","","","","","","","","","","","","",""
"","","","","","canvas-keyboard-response","216","250701","0.0-12.0-4.40","2d_cat_multi_stim_exp1","2022-4-11","11:35:49","25","75","3","9","10","40","30","120","26","20","[""White""]","No","Male","1643862","null","null","","","","clear_screen","","","","","","","","","","","","","","","","","","","","","","","","","",""
"","","","","","canvas-keyboard-response","217","251209","0.0-12.0-0.41","2d_cat_multi_stim_exp1","2022-4-11","11:35:49","25","75","3","9","10","40","30","120","26","20","[""White""]","No","Male","1643862","null","null","","","","fixation","","","","","","","","","","","","","","","","","","","","","","","","","",""
"","","","","","canvas-keyboard-response","218","251723","0.0-12.0-1.41","2d_cat_multi_stim_exp1","2022-4-11","11:35:49","25","75","3","9","10","40","30","120","26","20","[""White""]","No","Male","1643862","null","null","","","","clear_screen","","","","","","","","","","","","","","","","","","","","","","","","","",""
"","","","","","canvas-keyboard-response","219","252456","0.0-12.0-2.41","2d_cat_multi_stim_exp1","2022-4-11","11:35:49","25","75","3","9","10","40","30","120","26","20","[""White""]","No","Male","1643862","723","u","learn","","","learn_trial","25","75","in","1","1","","","","","","","","","","","","","","","","","","","","",""
"","","","","","canvas-keyboard-response","220","252968","0.0-12.0-3.41","2d_cat_multi_stim_exp1","2022-4-11","11:35:49","25","75","3","9","10","40","30","120","26","20","[""White""]","No","Male","1643862","null","null","learn_feedback","","","learn_feedback","25","75","in","","","","","","","","","","","","","","","","","","","","","","",""
"","","","","","canvas-keyboard-response","221","253032","0.0-12.0-4.41","2d_cat_multi_stim_exp1","2022-4-11","11:35:49","25","75","3","9","10","40","30","120","26","20","[""White""]","No","Male","1643862","null","null","","","","clear_screen","","","","","","","","","","","","","","","","","","","","","","","","","",""
"","","","","","canvas-keyboard-response","222","253542","0.0-12.0-0.42","2d_cat_multi_stim_exp1","2022-4-11","11:35:49","25","75","3","9","10","40","30","120","26","20","[""White""]","No","Male","1643862","null","null","","","","fixation","","","","","","","","","","","","","","","","","","","","","","","","","",""
"","","","","","canvas-keyboard-response","223","254056","0.0-12.0-1.42","2d_cat_multi_stim_exp1","2022-4-11","11:35:49","25","75","3","9","10","40","30","120","26","20","[""White""]","No","Male","1643862","null","null","","","","clear_screen","","","","","","","","","","","","","","","","","","","","","","","","","",""
"","","","","","canvas-keyboard-response","224","254639","0.0-12.0-2.42","2d_cat_multi_stim_exp1","2022-4-11","11:35:49","25","75","3","9","10","40","30","120","26","20","[""White""]","No","Male","1643862","574","u","learn","","","learn_trial","25","75","in","1","1","","","","","","","","","","","","","","","","","","","","",""
"","","","","","canvas-keyboard-response","225","255151","0.0-12.0-3.42","2d_cat_multi_stim_exp1","2022-4-11","11:35:49","25","75","3","9","10","40","30","120","26","20","[""White""]","No","Male","1643862","null","null","learn_feedback","","","learn_feedback","25","75","in","","","","","","","","","","","","","","","","","","","","","","",""
"","","","","","canvas-keyboard-response","226","255212","0.0-12.0-4.42","2d_cat_multi_stim_exp1","2022-4-11","11:35:49","25","75","3","9","10","40","30","120","26","20","[""White""]","No","Male","1643862","null","null","","","","clear_screen","","","","","","","","","","","","","","","","","","","","","","","","","",""
"","","","","","canvas-keyboard-response","227","255726","0.0-12.0-0.43","2d_cat_multi_stim_exp1","2022-4-11","11:35:49","25","75","3","9","10","40","30","120","26","20","[""White""]","No","Male","1643862","null","null","","","","fixation","","","","","","","","","","","","","","","","","","","","","","","","","",""
"","","","","","canvas-keyboard-response","228","256237","0.0-12.0-1.43","2d_cat_multi_stim_exp1","2022-4-11","11:35:49","25","75","3","9","10","40","30","120","26","20","[""White""]","No","Male","1643862","null","null","","","","clear_screen","","","","","","","","","","","","","","","","","","","","","","","","","",""
"","","","","","canvas-keyboard-response","229","256919","0.0-12.0-2.43","2d_cat_multi_stim_exp1","2022-4-11","11:35:49","25","75","3","9","10","40","30","120","26","20","[""White""]","No","Male","1643862","672","i","learn","","","learn_trial","20","50","out","0","1","","","","","","","","","","","","","","","","","","","","",""
"","","","","","canvas-keyboard-response","230","257429","0.0-12.0-3.43","2d_cat_multi_stim_exp1","2022-4-11","11:35:49","25","75","3","9","10","40","30","120","26","20","[""White""]","No","Male","1643862","null","null","learn_feedback","","","learn_feedback","20","50","out","","","","","","","","","","","","","","","","","","","","","","",""
"","","","","","canvas-keyboard-response","231","257489","0.0-12.0-4.43","2d_cat_multi_stim_exp1","2022-4-11","11:35:49","25","75","3","9","10","40","30","120","26","20","[""White""]","No","Male","1643862","null","null","","","","clear_screen","","","","","","","","","","","","","","","","","","","","","","","","","",""
"","","","","","canvas-keyboard-response","232","257998","0.0-12.0-0.44","2d_cat_multi_stim_exp1","2022-4-11","11:35:49","25","75","3","9","10","40","30","120","26","20","[""White""]","No","Male","1643862","null","null","","","","fixation","","","","","","","","","","","","","","","","","","","","","","","","","",""
"","","","","","canvas-keyboard-response","233","258511","0.0-12.0-1.44","2d_cat_multi_stim_exp1","2022-4-11","11:35:49","25","75","3","9","10","40","30","120","26","20","[""White""]","No","Male","1643862","null","null","","","","clear_screen","","","","","","","","","","","","","","","","","","","","","","","","","",""
"","","","","","canvas-keyboard-response","234","259199","0.0-12.0-2.44","2d_cat_multi_stim_exp1","2022-4-11","11:35:49","25","75","3","9","10","40","30","120","26","20","[""White""]","No","Male","1643862","674","u","learn","","","learn_trial","25","75","in","1","1","","","","","","","","","","","","","","","","","","","","",""
"","","","","","canvas-keyboard-response","235","259714","0.0-12.0-3.44","2d_cat_multi_stim_exp1","2022-4-11","11:35:49","25","75","3","9","10","40","30","120","26","20","[""White""]","No","Male","1643862","null","null","learn_feedback","","","learn_feedback","25","75","in","","","","","","","","","","","","","","","","","","","","","","",""
"","","","","","canvas-keyboard-response","236","259774","0.0-12.0-4.44","2d_cat_multi_stim_exp1","2022-4-11","11:35:49","25","75","3","9","10","40","30","120","26","20","[""White""]","No","Male","1643862","null","null","","","","clear_screen","","","","","","","","","","","","","","","","","","","","","","","","","",""
"","","","","","canvas-keyboard-response","237","260281","0.0-12.0-0.45","2d_cat_multi_stim_exp1","2022-4-11","11:35:49","25","75","3","9","10","40","30","120","26","20","[""White""]","No","Male","1643862","null","null","","","","fixation","","","","","","","","","","","","","","","","","","","","","","","","","",""
"","","","","","canvas-keyboard-response","238","260793","0.0-12.0-1.45","2d_cat_multi_stim_exp1","2022-4-11","11:35:49","25","75","3","9","10","40","30","120","26","20","[""White""]","No","Male","1643862","null","null","","","","clear_screen","","","","","","","","","","","","","","","","","","","","","","","","","",""
"","","","","","canvas-keyboard-response","239","261255","0.0-12.0-2.45","2d_cat_multi_stim_exp1","2022-4-11","11:35:49","25","75","3","9","10","40","30","120","26","20","[""White""]","No","Male","1643862","458","u","learn","","","learn_trial","25","75","in","1","1","","","","","","","","","","","","","","","","","","","","",""
"","","","","","canvas-keyboard-response","240","261768","0.0-12.0-3.45","2d_cat_multi_stim_exp1","2022-4-11","11:35:49","25","75","3","9","10","40","30","120","26","20","[""White""]","No","Male","1643862","null","null","learn_feedback","","","learn_feedback","25","75","in","","","","","","","","","","","","","","","","","","","","","","",""
"","","","","","canvas-keyboard-response","241","261830","0.0-12.0-4.45","2d_cat_multi_stim_exp1","2022-4-11","11:35:49","25","75","3","9","10","40","30","120","26","20","[""White""]","No","Male","1643862","null","null","","","","clear_screen","","","","","","","","","","","","","","","","","","","","","","","","","",""
"","","","","","canvas-keyboard-response","242","262339","0.0-12.0-0.46","2d_cat_multi_stim_exp1","2022-4-11","11:35:49","25","75","3","9","10","40","30","120","26","20","[""White""]","No","Male","1643862","null","null","","","","fixation","","","","","","","","","","","","","","","","","","","","","","","","","",""
"","","","","","canvas-keyboard-response","243","262850","0.0-12.0-1.46","2d_cat_multi_stim_exp1","2022-4-11","11:35:49","25","75","3","9","10","40","30","120","26","20","[""White""]","No","Male","1643862","null","null","","","","clear_screen","","","","","","","","","","","","","","","","","","","","","","","","","",""
"","","","","","canvas-keyboard-response","244","263615","0.0-12.0-2.46","2d_cat_multi_stim_exp1","2022-4-11","11:35:49","25","75","3","9","10","40","30","120","26","20","[""White""]","No","Male","1643862","755","i","learn","","","learn_trial","36.6667","120","out","0","1","","","","","","","","","","","","","","","","","","","","",""
"","","","","","canvas-keyboard-response","245","264127","0.0-12.0-3.46","2d_cat_multi_stim_exp1","2022-4-11","11:35:49","25","75","3","9","10","40","30","120","26","20","[""White""]","No","Male","1643862","null","null","learn_feedback","","","learn_feedback","36.6667","120","out","","","","","","","","","","","","","","","","","","","","","","",""
"","","","","","canvas-keyboard-response","246","264188","0.0-12.0-4.46","2d_cat_multi_stim_exp1","2022-4-11","11:35:49","25","75","3","9","10","40","30","120","26","20","[""White""]","No","Male","1643862","null","null","","","","clear_screen","","","","","","","","","","","","","","","","","","","","","","","","","",""
"","","","","","canvas-keyboard-response","247","264700","0.0-12.0-0.47","2d_cat_multi_stim_exp1","2022-4-11","11:35:49","25","75","3","9","10","40","30","120","26","20","[""White""]","No","Male","1643862","null","null","","","","fixation","","","","","","","","","","","","","","","","","","","","","","","","","",""
"","","","","","canvas-keyboard-response","248","265212","0.0-12.0-1.47","2d_cat_multi_stim_exp1","2022-4-11","11:35:49","25","75","3","9","10","40","30","120","26","20","[""White""]","No","Male","1643862","null","null","","","","clear_screen","","","","","","","","","","","","","","","","","","","","","","","","","",""
"","","","","","canvas-keyboard-response","249","265864","0.0-12.0-2.47","2d_cat_multi_stim_exp1","2022-4-11","11:35:49","25","75","3","9","10","40","30","120","26","20","[""White""]","No","Male","1643862","640","u","learn","","","learn_trial","25","75","in","1","1","","","","","","","","","","","","","","","","","","","","",""
"","","","","","canvas-keyboard-response","250","266375","0.0-12.0-3.47","2d_cat_multi_stim_exp1","2022-4-11","11:35:49","25","75","3","9","10","40","30","120","26","20","[""White""]","No","Male","1643862","null","null","learn_feedback","","","learn_feedback","25","75","in","","","","","","","","","","","","","","","","","","","","","","",""
"","","","","","canvas-keyboard-response","251","266437","0.0-12.0-4.47","2d_cat_multi_stim_exp1","2022-4-11","11:35:49","25","75","3","9","10","40","30","120","26","20","[""White""]","No","Male","1643862","null","null","","","","clear_screen","","","","","","","","","","","","","","","","","","","","","","","","","",""
"","","","","","canvas-keyboard-response","252","266945","0.0-12.0-0.48","2d_cat_multi_stim_exp1","2022-4-11","11:35:49","25","75","3","9","10","40","30","120","26","20","[""White""]","No","Male","1643862","null","null","","","","fixation","","","","","","","","","","","","","","","","","","","","","","","","","",""
"","","","","","canvas-keyboard-response","253","267457","0.0-12.0-1.48","2d_cat_multi_stim_exp1","2022-4-11","11:35:49","25","75","3","9","10","40","30","120","26","20","[""White""]","No","Male","1643862","null","null","","","","clear_screen","","","","","","","","","","","","","","","","","","","","","","","","","",""
"","","","","","canvas-keyboard-response","254","268175","0.0-12.0-2.48","2d_cat_multi_stim_exp1","2022-4-11","11:35:49","25","75","3","9","10","40","30","120","26","20","[""White""]","No","Male","1643862","708","i","learn","","","learn_trial","30","30","out","0","1","","","","","","","","","","","","","","","","","","","","",""
"","","","","","canvas-keyboard-response","255","268687","0.0-12.0-3.48","2d_cat_multi_stim_exp1","2022-4-11","11:35:49","25","75","3","9","10","40","30","120","26","20","[""White""]","No","Male","1643862","null","null","learn_feedback","","","learn_feedback","30","30","out","","","","","","","","","","","","","","","","","","","","","","",""
"","","","","","canvas-keyboard-response","256","268750","0.0-12.0-4.48","2d_cat_multi_stim_exp1","2022-4-11","11:35:49","25","75","3","9","10","40","30","120","26","20","[""White""]","No","Male","1643862","null","null","","","","clear_screen","","","","","","","","","","","","","","","","","","","","","","","","","",""
"","","","","","canvas-keyboard-response","257","269259","0.0-12.0-0.49","2d_cat_multi_stim_exp1","2022-4-11","11:35:49","25","75","3","9","10","40","30","120","26","20","[""White""]","No","Male","1643862","null","null","","","","fixation","","","","","","","","","","","","","","","","","","","","","","","","","",""
"","","","","","canvas-keyboard-response","258","269770","0.0-12.0-1.49","2d_cat_multi_stim_exp1","2022-4-11","11:35:49","25","75","3","9","10","40","30","120","26","20","[""White""]","No","Male","1643862","null","null","","","","clear_screen","","","","","","","","","","","","","","","","","","","","","","","","","",""
"","","","","","canvas-keyboard-response","259","270568","0.0-12.0-2.49","2d_cat_multi_stim_exp1","2022-4-11","11:35:49","25","75","3","9","10","40","30","120","26","20","[""White""]","No","Male","1643862","785","i","learn","","","learn_trial","13.3333","100","out","0","1","","","","","","","","","","","","","","","","","","","","",""
"","","","","","canvas-keyboard-response","260","271078","0.0-12.0-3.49","2d_cat_multi_stim_exp1","2022-4-11","11:35:49","25","75","3","9","10","40","30","120","26","20","[""White""]","No","Male","1643862","null","null","learn_feedback","","","learn_feedback","13.3333","100","out","","","","","","","","","","","","","","","","","","","","","","",""
"","","","","","canvas-keyboard-response","261","271143","0.0-12.0-4.49","2d_cat_multi_stim_exp1","2022-4-11","11:35:49","25","75","3","9","10","40","30","120","26","20","[""White""]","No","Male","1643862","null","null","","","","clear_screen","","","","","","","","","","","","","","","","","","","","","","","","","",""
"","","","","","canvas-keyboard-response","262","271652","0.0-12.0-0.50","2d_cat_multi_stim_exp1","2022-4-11","11:35:49","25","75","3","9","10","40","30","120","26","20","[""White""]","No","Male","1643862","null","null","","","","fixation","","","","","","","","","","","","","","","","","","","","","","","","","",""
"","","","","","canvas-keyboard-response","263","272166","0.0-12.0-1.50","2d_cat_multi_stim_exp1","2022-4-11","11:35:49","25","75","3","9","10","40","30","120","26","20","[""White""]","No","Male","1643862","null","null","","","","clear_screen","","","","","","","","","","","","","","","","","","","","","","","","","",""
"","","","","","canvas-keyboard-response","264","272776","0.0-12.0-2.50","2d_cat_multi_stim_exp1","2022-4-11","11:35:49","25","75","3","9","10","40","30","120","26","20","[""White""]","No","Male","1643862","599","u","learn","","","learn_trial","25","57","in","1","1","","","","","","","","","","","","","","","","","","","","",""
"","","","","","canvas-keyboard-response","265","273285","0.0-12.0-3.50","2d_cat_multi_stim_exp1","2022-4-11","11:35:49","25","75","3","9","10","40","30","120","26","20","[""White""]","No","Male","1643862","null","null","learn_feedback","","","learn_feedback","25","57","in","","","","","","","","","","","","","","","","","","","","","","",""
"","","","","","canvas-keyboard-response","266","273346","0.0-12.0-4.50","2d_cat_multi_stim_exp1","2022-4-11","11:35:49","25","75","3","9","10","40","30","120","26","20","[""White""]","No","Male","1643862","null","null","","","","clear_screen","","","","","","","","","","","","","","","","","","","","","","","","","",""
"","","","","","canvas-keyboard-response","267","273856","0.0-12.0-0.51","2d_cat_multi_stim_exp1","2022-4-11","11:35:49","25","75","3","9","10","40","30","120","26","20","[""White""]","No","Male","1643862","null","null","","","","fixation","","","","","","","","","","","","","","","","","","","","","","","","","",""
"","","","","","canvas-keyboard-response","268","274371","0.0-12.0-1.51","2d_cat_multi_stim_exp1","2022-4-11","11:35:49","25","75","3","9","10","40","30","120","26","20","[""White""]","No","Male","1643862","null","null","","","","clear_screen","","","","","","","","","","","","","","","","","","","","","","","","","",""
"","","","","","canvas-keyboard-response","269","275159","0.0-12.0-2.51","2d_cat_multi_stim_exp1","2022-4-11","11:35:49","25","75","3","9","10","40","30","120","26","20","[""White""]","No","Male","1643862","778","u","learn","","","learn_trial","22.9268","81.5052","in","1","1","","","","","","","","","","","","","","","","","","","","",""
"","","","","","canvas-keyboard-response","270","275671","0.0-12.0-3.51","2d_cat_multi_stim_exp1","2022-4-11","11:35:49","25","75","3","9","10","40","30","120","26","20","[""White""]","No","Male","1643862","null","null","learn_feedback","","","learn_feedback","22.9268","81.5052","in","","","","","","","","","","","","","","","","","","","","","","",""
"","","","","","canvas-keyboard-response","271","275735","0.0-12.0-4.51","2d_cat_multi_stim_exp1","2022-4-11","11:35:49","25","75","3","9","10","40","30","120","26","20","[""White""]","No","Male","1643862","null","null","","","","clear_screen","","","","","","","","","","","","","","","","","","","","","","","","","",""
"","","","","","canvas-keyboard-response","272","276245","0.0-12.0-0.52","2d_cat_multi_stim_exp1","2022-4-11","11:35:49","25","75","3","9","10","40","30","120","26","20","[""White""]","No","Male","1643862","null","null","","","","fixation","","","","","","","","","","","","","","","","","","","","","","","","","",""
"","","","","","canvas-keyboard-response","273","276756","0.0-12.0-1.52","2d_cat_multi_stim_exp1","2022-4-11","11:35:49","25","75","3","9","10","40","30","120","26","20","[""White""]","No","Male","1643862","null","null","","","","clear_screen","","","","","","","","","","","","","","","","","","","","","","","","","",""
"","","","","","canvas-keyboard-response","274","277687","0.0-12.0-2.52","2d_cat_multi_stim_exp1","2022-4-11","11:35:49","25","75","3","9","10","40","30","120","26","20","[""White""]","No","Male","1643862","921","u","learn","","","learn_trial","25","75","in","1","1","","","","","","","","","","","","","","","","","","","","",""
"","","","","","canvas-keyboard-response","275","278197","0.0-12.0-3.52","2d_cat_multi_stim_exp1","2022-4-11","11:35:49","25","75","3","9","10","40","30","120","26","20","[""White""]","No","Male","1643862","null","null","learn_feedback","","","learn_feedback","25","75","in","","","","","","","","","","","","","","","","","","","","","","",""
"","","","","","canvas-keyboard-response","276","278257","0.0-12.0-4.52","2d_cat_multi_stim_exp1","2022-4-11","11:35:49","25","75","3","9","10","40","30","120","26","20","[""White""]","No","Male","1643862","null","null","","","","clear_screen","","","","","","","","","","","","","","","","","","","","","","","","","",""
"","","","","","canvas-keyboard-response","277","278766","0.0-12.0-0.53","2d_cat_multi_stim_exp1","2022-4-11","11:35:49","25","75","3","9","10","40","30","120","26","20","[""White""]","No","Male","1643862","null","null","","","","fixation","","","","","","","","","","","","","","","","","","","","","","","","","",""
"","","","","","canvas-keyboard-response","278","279278","0.0-12.0-1.53","2d_cat_multi_stim_exp1","2022-4-11","11:35:49","25","75","3","9","10","40","30","120","26","20","[""White""]","No","Male","1643862","null","null","","","","clear_screen","","","","","","","","","","","","","","","","","","","","","","","","","",""
"","","","","","canvas-keyboard-response","279","280431","0.0-12.0-2.53","2d_cat_multi_stim_exp1","2022-4-11","11:35:49","25","75","3","9","10","40","30","120","26","20","[""White""]","No","Male","1643862","1143","u","learn","","","learn_trial","25","75","in","1","1","","","","","","","","","","","","","","","","","","","","",""
"","","","","","canvas-keyboard-response","280","280943","0.0-12.0-3.53","2d_cat_multi_stim_exp1","2022-4-11","11:35:49","25","75","3","9","10","40","30","120","26","20","[""White""]","No","Male","1643862","null","null","learn_feedback","","","learn_feedback","25","75","in","","","","","","","","","","","","","","","","","","","","","","",""
"","","","","","canvas-keyboard-response","281","281005","0.0-12.0-4.53","2d_cat_multi_stim_exp1","2022-4-11","11:35:49","25","75","3","9","10","40","30","120","26","20","[""White""]","No","Male","1643862","null","null","","","","clear_screen","","","","","","","","","","","","","","","","","","","","","","","","","",""
"","","","","","canvas-keyboard-response","282","281515","0.0-12.0-0.54","2d_cat_multi_stim_exp1","2022-4-11","11:35:49","25","75","3","9","10","40","30","120","26","20","[""White""]","No","Male","1643862","null","null","","","","fixation","","","","","","","","","","","","","","","","","","","","","","","","","",""
"","","","","","canvas-keyboard-response","283","282025","0.0-12.0-1.54","2d_cat_multi_stim_exp1","2022-4-11","11:35:49","25","75","3","9","10","40","30","120","26","20","[""White""]","No","Male","1643862","null","null","","","","clear_screen","","","","","","","","","","","","","","","","","","","","","","","","","",""
"","","","","","canvas-keyboard-response","284","282639","0.0-12.0-2.54","2d_cat_multi_stim_exp1","2022-4-11","11:35:49","25","75","3","9","10","40","30","120","26","20","[""White""]","No","Male","1643862","603","u","learn","","","learn_trial","25","75","in","1","1","","","","","","","","","","","","","","","","","","","","",""
"","","","","","canvas-keyboard-response","285","283153","0.0-12.0-3.54","2d_cat_multi_stim_exp1","2022-4-11","11:35:49","25","75","3","9","10","40","30","120","26","20","[""White""]","No","Male","1643862","null","null","learn_feedback","","","learn_feedback","25","75","in","","","","","","","","","","","","","","","","","","","","","","",""
"","","","","","canvas-keyboard-response","286","283213","0.0-12.0-4.54","2d_cat_multi_stim_exp1","2022-4-11","11:35:49","25","75","3","9","10","40","30","120","26","20","[""White""]","No","Male","1643862","null","null","","","","clear_screen","","","","","","","","","","","","","","","","","","","","","","","","","",""
"","","","","","canvas-keyboard-response","287","283725","0.0-12.0-0.55","2d_cat_multi_stim_exp1","2022-4-11","11:35:49","25","75","3","9","10","40","30","120","26","20","[""White""]","No","Male","1643862","null","null","","","","fixation","","","","","","","","","","","","","","","","","","","","","","","","","",""
"","","","","","canvas-keyboard-response","288","284237","0.0-12.0-1.55","2d_cat_multi_stim_exp1","2022-4-11","11:35:49","25","75","3","9","10","40","30","120","26","20","[""White""]","No","Male","1643862","null","null","","","","clear_screen","","","","","","","","","","","","","","","","","","","","","","","","","",""
"","","","","","canvas-keyboard-response","289","284888","0.0-12.0-2.55","2d_cat_multi_stim_exp1","2022-4-11","11:35:49","25","75","3","9","10","40","30","120","26","20","[""White""]","No","Male","1643862","642","u","learn","","","learn_trial","25","75","in","1","1","","","","","","","","","","","","","","","","","","","","",""
"","","","","","canvas-keyboard-response","290","285398","0.0-12.0-3.55","2d_cat_multi_stim_exp1","2022-4-11","11:35:49","25","75","3","9","10","40","30","120","26","20","[""White""]","No","Male","1643862","null","null","learn_feedback","","","learn_feedback","25","75","in","","","","","","","","","","","","","","","","","","","","","","",""
"","","","","","canvas-keyboard-response","291","285460","0.0-12.0-4.55","2d_cat_multi_stim_exp1","2022-4-11","11:35:49","25","75","3","9","10","40","30","120","26","20","[""White""]","No","Male","1643862","null","null","","","","clear_screen","","","","","","","","","","","","","","","","","","","","","","","","","",""
"","","","","","canvas-keyboard-response","292","285973","0.0-12.0-0.56","2d_cat_multi_stim_exp1","2022-4-11","11:35:49","25","75","3","9","10","40","30","120","26","20","[""White""]","No","Male","1643862","null","null","","","","fixation","","","","","","","","","","","","","","","","","","","","","","","","","",""
"","","","","","canvas-keyboard-response","293","286485","0.0-12.0-1.56","2d_cat_multi_stim_exp1","2022-4-11","11:35:49","25","75","3","9","10","40","30","120","26","20","[""White""]","No","Male","1643862","null","null","","","","clear_screen","","","","","","","","","","","","","","","","","","","","","","","","","",""
"","","","","","canvas-keyboard-response","294","287367","0.0-12.0-2.56","2d_cat_multi_stim_exp1","2022-4-11","11:35:49","25","75","3","9","10","40","30","120","26","20","[""White""]","No","Male","1643862","874","i","learn","","","learn_trial","30","40","out","0","1","","","","","","","","","","","","","","","","","","","","",""
"","","","","","canvas-keyboard-response","295","287878","0.0-12.0-3.56","2d_cat_multi_stim_exp1","2022-4-11","11:35:49","25","75","3","9","10","40","30","120","26","20","[""White""]","No","Male","1643862","null","null","learn_feedback","","","learn_feedback","30","40","out","","","","","","","","","","","","","","","","","","","","","","",""
"","","","","","canvas-keyboard-response","296","287938","0.0-12.0-4.56","2d_cat_multi_stim_exp1","2022-4-11","11:35:49","25","75","3","9","10","40","30","120","26","20","[""White""]","No","Male","1643862","null","null","","","","clear_screen","","","","","","","","","","","","","","","","","","","","","","","","","",""
"","","","","","canvas-keyboard-response","297","288450","0.0-12.0-0.57","2d_cat_multi_stim_exp1","2022-4-11","11:35:49","25","75","3","9","10","40","30","120","26","20","[""White""]","No","Male","1643862","null","null","","","","fixation","","","","","","","","","","","","","","","","","","","","","","","","","",""
"","","","","","canvas-keyboard-response","298","288962","0.0-12.0-1.57","2d_cat_multi_stim_exp1","2022-4-11","11:35:49","25","75","3","9","10","40","30","120","26","20","[""White""]","No","Male","1643862","null","null","","","","clear_screen","","","","","","","","","","","","","","","","","","","","","","","","","",""
