"success","timeout","failed_images","failed_audio","failed_video","trial_type","trial_index","time_elapsed","internal_node_id","exp_name","date","time","angle_mean_in","radius_mean_in","angle_sd_in","radius_sd_in","angle_min_out","angle_max_out","radius_min_out","radius_max_out","sub_n","age","race","ethnicity","gender","exp_duration","rt","response","exp_trial_type","stimulus","view_history","screen_id","angle","radius","distribution","choice","correct","order","angle_a","radius_a","angle_b","radius_b","jkl_correct","transfer_trial_type","choice_set","abc_correct","tc_correct","tc_angle","tdc_a","tdc_b","tdc_c","pair","category_a","category_b","category_c","angle_c","radius_c","question_order"
"true","false","[]","[]","[]","preload","0","18","0.0-0.0","2d_cat_multi_stim_exp1","2022-4-14","15:1:38","25","75","3","9","10","40","30","120","31","20","[""White""]","No","Nonbinary/third gender","2106463","","","","","","","","","","","","","","","","","","","","","","","","","","","","","","","",""
"","","","","","survey-html-form","1","2819","0.0-1.0","2d_cat_multi_stim_exp1","2022-4-14","15:1:38","25","75","3","9","10","40","30","120","31","20","[""White""]","No","Nonbinary/third gender","2106463","2790","{""response"":""31""}","enter-sub-number","","","","","","","","","","","","","","","","","","","","","","","","","","","","",""
"true","","","","","fullscreen","2","5049","0.0-2.0","2d_cat_multi_stim_exp1","2022-4-14","15:1:38","25","75","3","9","10","40","30","120","31","20","[""White""]","No","Nonbinary/third gender","2106463","","","","","","","","","","","","","","","","","","","","","","","","","","","","","","","",""
"","","","","","image-button-response","3","40635","0.0-3.0","2d_cat_multi_stim_exp1","2022-4-14","15:1:38","25","75","3","9","10","40","30","120","31","20","[""White""]","No","Nonbinary/third gender","2106463","35577","0","","consent.png","","","","","","","","","","","","","","","","","","","","","","","","","","","",""
"","","","","","html-button-response","4","47945","0.0-4.0","2d_cat_multi_stim_exp1","2022-4-14","15:1:38","25","75","3","9","10","40","30","120","31","20","[""White""]","No","Nonbinary/third gender","2106463","7306","0","","<div style= ""font-size:25px;"" <p> <strong> Welcome to the experiment! </strong><br> <p style=""color:#8B0000; font-size:25px;""><strong> Please do NOT exit full screen until you are done with the experiment. </strong> </p><p style=""font-size:25px;color:#8B0000;""> <strong> The experiment will be canceled and your data will be lost <br> if you try to go back or refresh the page at any point during the experiment.</strong> </p><br><p> <strong> Thanks in advance for your contribution to our research! </strong></p>","","","","","","","","","","","","","","","","","","","","","","","","","","","",""
"","","","","","instructions","5","130153","0.0-5.0","2d_cat_multi_stim_exp1","2022-4-14","15:1:38","25","75","3","9","10","40","30","120","31","20","[""White""]","No","Nonbinary/third gender","2106463","82201","","","","[{""page_index"":0,""viewing_time"":8689},{""page_index"":1,""viewing_time"":3567},{""page_index"":2,""viewing_time"":19113},{""page_index"":3,""viewing_time"":50832}]","instructions_1","","","","","","","","","","","","","","","","","","","","","","","","","",""
"","","","","","instructions","6","132545","0.0-6.0","2d_cat_multi_stim_exp1","2022-4-14","15:1:38","25","75","3","9","10","40","30","120","31","20","[""White""]","No","Nonbinary/third gender","2106463","2387","","","","[{""page_index"":0,""viewing_time"":2387}]","Click to see the kinds of turtles that will appear in the study.","","","","","","","","","","","","","","","","","","","","","","","","","",""
"","","","","","canvas-keyboard-response","7","147563","0.0-7.0","2d_cat_multi_stim_exp1","2022-4-14","15:1:38","25","75","3","9","10","40","30","120","31","20","[""White""]","No","Nonbinary/third gender","2106463","null","null","","","","demo_range","","","","","","","","","","","","","","","","","","","","","","","","","",""
"","","","","","instructions","8","150586","0.0-8.0","2d_cat_multi_stim_exp1","2022-4-14","15:1:38","25","75","3","9","10","40","30","120","31","20","[""White""]","No","Nonbinary/third gender","2106463","2520","","","","[{""page_index"":0,""viewing_time"":2520}]","Click to see some turtles in the subspecies.","","","","","","","","","","","","","","","","","","","","","","","","","",""
"","","","","","canvas-keyboard-response","9","165602","0.0-9.0","2d_cat_multi_stim_exp1","2022-4-14","15:1:38","25","75","3","9","10","40","30","120","31","20","[""White""]","No","Nonbinary/third gender","2106463","null","null","","","","demo_in","","","","","","","","","","","","","","","","","","","","","","","","","",""
"","","","","","instructions","10","207936","0.0-10.0","2d_cat_multi_stim_exp1","2022-4-14","15:1:38","25","75","3","9","10","40","30","120","31","20","[""White""]","No","Nonbinary/third gender","2106463","41833","","","","[{""page_index"":0,""viewing_time"":6321},{""page_index"":1,""viewing_time"":26807},{""page_index"":2,""viewing_time"":8704}]","instructions_2","","","","","","","","","","","","","","","","","","","","","","","","","",""
"","","","","","instructions","11","210209","0.0-11.0","2d_cat_multi_stim_exp1","2022-4-14","15:1:38","25","75","3","9","10","40","30","120","31","20","[""White""]","No","Nonbinary/third gender","2106463","2270","","","","[{""page_index"":0,""viewing_time"":2269}]","Click to begin the first phase of the experiment.","","","","","","","","","","","","","","","","","","","","","","","","","",""
"","","","","","canvas-keyboard-response","12","210718","0.0-12.0-0.0","2d_cat_multi_stim_exp1","2022-4-14","15:1:38","25","75","3","9","10","40","30","120","31","20","[""White""]","No","Nonbinary/third gender","2106463","null","null","","","","fixation","","","","","","","","","","","","","","","","","","","","","","","","","",""
"","","","","","canvas-keyboard-response","13","211231","0.0-12.0-1.0","2d_cat_multi_stim_exp1","2022-4-14","15:1:38","25","75","3","9","10","40","30","120","31","20","[""White""]","No","Nonbinary/third gender","2106463","null","null","","","","clear_screen","","","","","","","","","","","","","","","","","","","","","","","","","",""
"","","","","","canvas-keyboard-response","14","214337","0.0-12.0-2.0","2d_cat_multi_stim_exp1","2022-4-14","15:1:38","25","75","3","9","10","40","30","120","31","20","[""White""]","No","Nonbinary/third gender","2106463","3096","u","learn","","","learn_trial","25","75","in","1","1","","","","","","","","","","","","","","","","","","","","",""
"","","","","","canvas-keyboard-response","15","214851","0.0-12.0-3.0","2d_cat_multi_stim_exp1","2022-4-14","15:1:38","25","75","3","9","10","40","30","120","31","20","[""White""]","No","Nonbinary/third gender","2106463","null","null","learn_feedback","","","learn_feedback","25","75","in","","","","","","","","","","","","","","","","","","","","","","",""
"","","","","","canvas-keyboard-response","16","214912","0.0-12.0-4.0","2d_cat_multi_stim_exp1","2022-4-14","15:1:38","25","75","3","9","10","40","30","120","31","20","[""White""]","No","Nonbinary/third gender","2106463","null","null","","","","clear_screen","","","","","","","","","","","","","","","","","","","","","","","","","",""
"","","","","","canvas-keyboard-response","17","215421","0.0-12.0-0.1","2d_cat_multi_stim_exp1","2022-4-14","15:1:38","25","75","3","9","10","40","30","120","31","20","[""White""]","No","Nonbinary/third gender","2106463","null","null","","","","fixation","","","","","","","","","","","","","","","","","","","","","","","","","",""
"","","","","","canvas-keyboard-response","18","215932","0.0-12.0-1.1","2d_cat_multi_stim_exp1","2022-4-14","15:1:38","25","75","3","9","10","40","30","120","31","20","[""White""]","No","Nonbinary/third gender","2106463","null","null","","","","clear_screen","","","","","","","","","","","","","","","","","","","","","","","","","",""
"","","","","","canvas-keyboard-response","19","218433","0.0-12.0-2.1","2d_cat_multi_stim_exp1","2022-4-14","15:1:38","25","75","3","9","10","40","30","120","31","20","[""White""]","No","Nonbinary/third gender","2106463","2490","i","learn","","","learn_trial","23.3333","120","out","0","1","","","","","","","","","","","","","","","","","","","","",""
"","","","","","canvas-keyboard-response","20","218945","0.0-12.0-3.1","2d_cat_multi_stim_exp1","2022-4-14","15:1:38","25","75","3","9","10","40","30","120","31","20","[""White""]","No","Nonbinary/third gender","2106463","null","null","learn_feedback","","","learn_feedback","23.3333","120","out","","","","","","","","","","","","","","","","","","","","","","",""
"","","","","","canvas-keyboard-response","21","219007","0.0-12.0-4.1","2d_cat_multi_stim_exp1","2022-4-14","15:1:38","25","75","3","9","10","40","30","120","31","20","[""White""]","No","Nonbinary/third gender","2106463","null","null","","","","clear_screen","","","","","","","","","","","","","","","","","","","","","","","","","",""
"","","","","","canvas-keyboard-response","22","219517","0.0-12.0-0.2","2d_cat_multi_stim_exp1","2022-4-14","15:1:38","25","75","3","9","10","40","30","120","31","20","[""White""]","No","Nonbinary/third gender","2106463","null","null","","","","fixation","","","","","","","","","","","","","","","","","","","","","","","","","",""
"","","","","","canvas-keyboard-response","23","220026","0.0-12.0-1.2","2d_cat_multi_stim_exp1","2022-4-14","15:1:38","25","75","3","9","10","40","30","120","31","20","[""White""]","No","Nonbinary/third gender","2106463","null","null","","","","clear_screen","","","","","","","","","","","","","","","","","","","","","","","","","",""
"","","","","","canvas-keyboard-response","24","222704","0.0-12.0-2.2","2d_cat_multi_stim_exp1","2022-4-14","15:1:38","25","75","3","9","10","40","30","120","31","20","[""White""]","No","Nonbinary/third gender","2106463","2668","i","learn","","","learn_trial","40","40","out","0","1","","","","","","","","","","","","","","","","","","","","",""
"","","","","","canvas-keyboard-response","25","223215","0.0-12.0-3.2","2d_cat_multi_stim_exp1","2022-4-14","15:1:38","25","75","3","9","10","40","30","120","31","20","[""White""]","No","Nonbinary/third gender","2106463","null","null","learn_feedback","","","learn_feedback","40","40","out","","","","","","","","","","","","","","","","","","","","","","",""
"","","","","","canvas-keyboard-response","26","223278","0.0-12.0-4.2","2d_cat_multi_stim_exp1","2022-4-14","15:1:38","25","75","3","9","10","40","30","120","31","20","[""White""]","No","Nonbinary/third gender","2106463","null","null","","","","clear_screen","","","","","","","","","","","","","","","","","","","","","","","","","",""
"","","","","","canvas-keyboard-response","27","223786","0.0-12.0-0.3","2d_cat_multi_stim_exp1","2022-4-14","15:1:38","25","75","3","9","10","40","30","120","31","20","[""White""]","No","Nonbinary/third gender","2106463","null","null","","","","fixation","","","","","","","","","","","","","","","","","","","","","","","","","",""
"","","","","","canvas-keyboard-response","28","224298","0.0-12.0-1.3","2d_cat_multi_stim_exp1","2022-4-14","15:1:38","25","75","3","9","10","40","30","120","31","20","[""White""]","No","Nonbinary/third gender","2106463","null","null","","","","clear_screen","","","","","","","","","","","","","","","","","","","","","","","","","",""
"","","","","","canvas-keyboard-response","29","228249","0.0-12.0-2.3","2d_cat_multi_stim_exp1","2022-4-14","15:1:38","25","75","3","9","10","40","30","120","31","20","[""White""]","No","Nonbinary/third gender","2106463","3939","u","learn","","","learn_trial","40","80","out","1","0","","","","","","","","","","","","","","","","","","","","",""
"","","","","","canvas-keyboard-response","30","229257","0.0-12.0-3.3","2d_cat_multi_stim_exp1","2022-4-14","15:1:38","25","75","3","9","10","40","30","120","31","20","[""White""]","No","Nonbinary/third gender","2106463","null","null","learn_feedback","","","learn_feedback","40","80","out","","","","","","","","","","","","","","","","","","","","","","",""
"","","","","","canvas-keyboard-response","31","229317","0.0-12.0-4.3","2d_cat_multi_stim_exp1","2022-4-14","15:1:38","25","75","3","9","10","40","30","120","31","20","[""White""]","No","Nonbinary/third gender","2106463","null","null","","","","clear_screen","","","","","","","","","","","","","","","","","","","","","","","","","",""
"","","","","","canvas-keyboard-response","32","229830","0.0-12.0-0.4","2d_cat_multi_stim_exp1","2022-4-14","15:1:38","25","75","3","9","10","40","30","120","31","20","[""White""]","No","Nonbinary/third gender","2106463","null","null","","","","fixation","","","","","","","","","","","","","","","","","","","","","","","","","",""
"","","","","","canvas-keyboard-response","33","230336","0.0-12.0-1.4","2d_cat_multi_stim_exp1","2022-4-14","15:1:38","25","75","3","9","10","40","30","120","31","20","[""White""]","No","Nonbinary/third gender","2106463","null","null","","","","clear_screen","","","","","","","","","","","","","","","","","","","","","","","","","",""
"","","","","","canvas-keyboard-response","34","232344","0.0-12.0-2.4","2d_cat_multi_stim_exp1","2022-4-14","15:1:38","25","75","3","9","10","40","30","120","31","20","[""White""]","No","Nonbinary/third gender","2106463","2000","u","learn","","","learn_trial","13.3333","40","out","1","0","","","","","","","","","","","","","","","","","","","","",""
"","","","","","canvas-keyboard-response","35","233356","0.0-12.0-3.4","2d_cat_multi_stim_exp1","2022-4-14","15:1:38","25","75","3","9","10","40","30","120","31","20","[""White""]","No","Nonbinary/third gender","2106463","null","null","learn_feedback","","","learn_feedback","13.3333","40","out","","","","","","","","","","","","","","","","","","","","","","",""
"","","","","","canvas-keyboard-response","36","233415","0.0-12.0-4.4","2d_cat_multi_stim_exp1","2022-4-14","15:1:38","25","75","3","9","10","40","30","120","31","20","[""White""]","No","Nonbinary/third gender","2106463","null","null","","","","clear_screen","","","","","","","","","","","","","","","","","","","","","","","","","",""
"","","","","","canvas-keyboard-response","37","233923","0.0-12.0-0.5","2d_cat_multi_stim_exp1","2022-4-14","15:1:38","25","75","3","9","10","40","30","120","31","20","[""White""]","No","Nonbinary/third gender","2106463","null","null","","","","fixation","","","","","","","","","","","","","","","","","","","","","","","","","",""
"","","","","","canvas-keyboard-response","38","234434","0.0-12.0-1.5","2d_cat_multi_stim_exp1","2022-4-14","15:1:38","25","75","3","9","10","40","30","120","31","20","[""White""]","No","Nonbinary/third gender","2106463","null","null","","","","clear_screen","","","","","","","","","","","","","","","","","","","","","","","","","",""
"","","","","","canvas-keyboard-response","39","236753","0.0-12.0-2.5","2d_cat_multi_stim_exp1","2022-4-14","15:1:38","25","75","3","9","10","40","30","120","31","20","[""White""]","No","Nonbinary/third gender","2106463","2310","i","learn","","","learn_trial","33.3333","110","out","0","1","","","","","","","","","","","","","","","","","","","","",""
"","","","","","canvas-keyboard-response","40","237263","0.0-12.0-3.5","2d_cat_multi_stim_exp1","2022-4-14","15:1:38","25","75","3","9","10","40","30","120","31","20","[""White""]","No","Nonbinary/third gender","2106463","null","null","learn_feedback","","","learn_feedback","33.3333","110","out","","","","","","","","","","","","","","","","","","","","","","",""
"","","","","","canvas-keyboard-response","41","237321","0.0-12.0-4.5","2d_cat_multi_stim_exp1","2022-4-14","15:1:38","25","75","3","9","10","40","30","120","31","20","[""White""]","No","Nonbinary/third gender","2106463","null","null","","","","clear_screen","","","","","","","","","","","","","","","","","","","","","","","","","",""
"","","","","","canvas-keyboard-response","42","237832","0.0-12.0-0.6","2d_cat_multi_stim_exp1","2022-4-14","15:1:38","25","75","3","9","10","40","30","120","31","20","[""White""]","No","Nonbinary/third gender","2106463","null","null","","","","fixation","","","","","","","","","","","","","","","","","","","","","","","","","",""
"","","","","","canvas-keyboard-response","43","238343","0.0-12.0-1.6","2d_cat_multi_stim_exp1","2022-4-14","15:1:38","25","75","3","9","10","40","30","120","31","20","[""White""]","No","Nonbinary/third gender","2106463","null","null","","","","clear_screen","","","","","","","","","","","","","","","","","","","","","","","","","",""
"","","","","","canvas-keyboard-response","44","240041","0.0-12.0-2.6","2d_cat_multi_stim_exp1","2022-4-14","15:1:38","25","75","3","9","10","40","30","120","31","20","[""White""]","No","Nonbinary/third gender","2106463","1692","u","learn","","","learn_trial","16.6667","30","out","1","0","","","","","","","","","","","","","","","","","","","","",""
"","","","","","canvas-keyboard-response","45","241050","0.0-12.0-3.6","2d_cat_multi_stim_exp1","2022-4-14","15:1:38","25","75","3","9","10","40","30","120","31","20","[""White""]","No","Nonbinary/third gender","2106463","null","null","learn_feedback","","","learn_feedback","16.6667","30","out","","","","","","","","","","","","","","","","","","","","","","",""
"","","","","","canvas-keyboard-response","46","241111","0.0-12.0-4.6","2d_cat_multi_stim_exp1","2022-4-14","15:1:38","25","75","3","9","10","40","30","120","31","20","[""White""]","No","Nonbinary/third gender","2106463","null","null","","","","clear_screen","","","","","","","","","","","","","","","","","","","","","","","","","",""
"","","","","","canvas-keyboard-response","47","241619","0.0-12.0-0.7","2d_cat_multi_stim_exp1","2022-4-14","15:1:38","25","75","3","9","10","40","30","120","31","20","[""White""]","No","Nonbinary/third gender","2106463","null","null","","","","fixation","","","","","","","","","","","","","","","","","","","","","","","","","",""
"","","","","","canvas-keyboard-response","48","242131","0.0-12.0-1.7","2d_cat_multi_stim_exp1","2022-4-14","15:1:38","25","75","3","9","10","40","30","120","31","20","[""White""]","No","Nonbinary/third gender","2106463","null","null","","","","clear_screen","","","","","","","","","","","","","","","","","","","","","","","","","",""
"","","","","","canvas-keyboard-response","49","244785","0.0-12.0-2.7","2d_cat_multi_stim_exp1","2022-4-14","15:1:38","25","75","3","9","10","40","30","120","31","20","[""White""]","No","Nonbinary/third gender","2106463","2645","u","learn","","","learn_trial","27.8087","71.8376","in","1","1","","","","","","","","","","","","","","","","","","","","",""
"","","","","","canvas-keyboard-response","50","245294","0.0-12.0-3.7","2d_cat_multi_stim_exp1","2022-4-14","15:1:38","25","75","3","9","10","40","30","120","31","20","[""White""]","No","Nonbinary/third gender","2106463","null","null","learn_feedback","","","learn_feedback","27.8087","71.8376","in","","","","","","","","","","","","","","","","","","","","","","",""
"","","","","","canvas-keyboard-response","51","245353","0.0-12.0-4.7","2d_cat_multi_stim_exp1","2022-4-14","15:1:38","25","75","3","9","10","40","30","120","31","20","[""White""]","No","Nonbinary/third gender","2106463","null","null","","","","clear_screen","","","","","","","","","","","","","","","","","","","","","","","","","",""
"","","","","","canvas-keyboard-response","52","245861","0.0-12.0-0.8","2d_cat_multi_stim_exp1","2022-4-14","15:1:38","25","75","3","9","10","40","30","120","31","20","[""White""]","No","Nonbinary/third gender","2106463","null","null","","","","fixation","","","","","","","","","","","","","","","","","","","","","","","","","",""
"","","","","","canvas-keyboard-response","53","246374","0.0-12.0-1.8","2d_cat_multi_stim_exp1","2022-4-14","15:1:38","25","75","3","9","10","40","30","120","31","20","[""White""]","No","Nonbinary/third gender","2106463","null","null","","","","clear_screen","","","","","","","","","","","","","","","","","","","","","","","","","",""
"","","","","","canvas-keyboard-response","54","247969","0.0-12.0-2.8","2d_cat_multi_stim_exp1","2022-4-14","15:1:38","25","75","3","9","10","40","30","120","31","20","[""White""]","No","Nonbinary/third gender","2106463","1587","u","learn","","","learn_trial","26.8705","67.9635","in","1","1","","","","","","","","","","","","","","","","","","","","",""
"","","","","","canvas-keyboard-response","55","248478","0.0-12.0-3.8","2d_cat_multi_stim_exp1","2022-4-14","15:1:38","25","75","3","9","10","40","30","120","31","20","[""White""]","No","Nonbinary/third gender","2106463","null","null","learn_feedback","","","learn_feedback","26.8705","67.9635","in","","","","","","","","","","","","","","","","","","","","","","",""
"","","","","","canvas-keyboard-response","56","248539","0.0-12.0-4.8","2d_cat_multi_stim_exp1","2022-4-14","15:1:38","25","75","3","9","10","40","30","120","31","20","[""White""]","No","Nonbinary/third gender","2106463","null","null","","","","clear_screen","","","","","","","","","","","","","","","","","","","","","","","","","",""
"","","","","","canvas-keyboard-response","57","249048","0.0-12.0-0.9","2d_cat_multi_stim_exp1","2022-4-14","15:1:38","25","75","3","9","10","40","30","120","31","20","[""White""]","No","Nonbinary/third gender","2106463","null","null","","","","fixation","","","","","","","","","","","","","","","","","","","","","","","","","",""
"","","","","","canvas-keyboard-response","58","249557","0.0-12.0-1.9","2d_cat_multi_stim_exp1","2022-4-14","15:1:38","25","75","3","9","10","40","30","120","31","20","[""White""]","No","Nonbinary/third gender","2106463","null","null","","","","clear_screen","","","","","","","","","","","","","","","","","","","","","","","","","",""
"","","","","","canvas-keyboard-response","59","256665","0.0-12.0-2.9","2d_cat_multi_stim_exp1","2022-4-14","15:1:38","25","75","3","9","10","40","30","120","31","20","[""White""]","No","Nonbinary/third gender","2106463","7098","i","learn","","","learn_trial","13.3333","80","out","0","1","","","","","","","","","","","","","","","","","","","","",""
"","","","","","canvas-keyboard-response","60","257176","0.0-12.0-3.9","2d_cat_multi_stim_exp1","2022-4-14","15:1:38","25","75","3","9","10","40","30","120","31","20","[""White""]","No","Nonbinary/third gender","2106463","null","null","learn_feedback","","","learn_feedback","13.3333","80","out","","","","","","","","","","","","","","","","","","","","","","",""
"","","","","","canvas-keyboard-response","61","257234","0.0-12.0-4.9","2d_cat_multi_stim_exp1","2022-4-14","15:1:38","25","75","3","9","10","40","30","120","31","20","[""White""]","No","Nonbinary/third gender","2106463","null","null","","","","clear_screen","","","","","","","","","","","","","","","","","","","","","","","","","",""
"","","","","","canvas-keyboard-response","62","257743","0.0-12.0-0.10","2d_cat_multi_stim_exp1","2022-4-14","15:1:38","25","75","3","9","10","40","30","120","31","20","[""White""]","No","Nonbinary/third gender","2106463","null","null","","","","fixation","","","","","","","","","","","","","","","","","","","","","","","","","",""
"","","","","","canvas-keyboard-response","63","258253","0.0-12.0-1.10","2d_cat_multi_stim_exp1","2022-4-14","15:1:38","25","75","3","9","10","40","30","120","31","20","[""White""]","No","Nonbinary/third gender","2106463","null","null","","","","clear_screen","","","","","","","","","","","","","","","","","","","","","","","","","",""
"","","","","","canvas-keyboard-response","64","259593","0.0-12.0-2.10","2d_cat_multi_stim_exp1","2022-4-14","15:1:38","25","75","3","9","10","40","30","120","31","20","[""White""]","No","Nonbinary/third gender","2106463","1330","i","learn","","","learn_trial","33.3333","30","out","0","1","","","","","","","","","","","","","","","","","","","","",""
"","","","","","canvas-keyboard-response","65","260102","0.0-12.0-3.10","2d_cat_multi_stim_exp1","2022-4-14","15:1:38","25","75","3","9","10","40","30","120","31","20","[""White""]","No","Nonbinary/third gender","2106463","null","null","learn_feedback","","","learn_feedback","33.3333","30","out","","","","","","","","","","","","","","","","","","","","","","",""
"","","","","","canvas-keyboard-response","66","260167","0.0-12.0-4.10","2d_cat_multi_stim_exp1","2022-4-14","15:1:38","25","75","3","9","10","40","30","120","31","20","[""White""]","No","Nonbinary/third gender","2106463","null","null","","","","clear_screen","","","","","","","","","","","","","","","","","","","","","","","","","",""
"","","","","","canvas-keyboard-response","67","260676","0.0-12.0-0.11","2d_cat_multi_stim_exp1","2022-4-14","15:1:38","25","75","3","9","10","40","30","120","31","20","[""White""]","No","Nonbinary/third gender","2106463","null","null","","","","fixation","","","","","","","","","","","","","","","","","","","","","","","","","",""
"","","","","","canvas-keyboard-response","68","261190","0.0-12.0-1.11","2d_cat_multi_stim_exp1","2022-4-14","15:1:38","25","75","3","9","10","40","30","120","31","20","[""White""]","No","Nonbinary/third gender","2106463","null","null","","","","clear_screen","","","","","","","","","","","","","","","","","","","","","","","","","",""
"","","","","","canvas-keyboard-response","69","262489","0.0-12.0-2.11","2d_cat_multi_stim_exp1","2022-4-14","15:1:38","25","75","3","9","10","40","30","120","31","20","[""White""]","No","Nonbinary/third gender","2106463","1288","u","learn","","","learn_trial","24.3324","66.2256","in","1","1","","","","","","","","","","","","","","","","","","","","",""
"","","","","","canvas-keyboard-response","70","262998","0.0-12.0-3.11","2d_cat_multi_stim_exp1","2022-4-14","15:1:38","25","75","3","9","10","40","30","120","31","20","[""White""]","No","Nonbinary/third gender","2106463","null","null","learn_feedback","","","learn_feedback","24.3324","66.2256","in","","","","","","","","","","","","","","","","","","","","","","",""
"","","","","","canvas-keyboard-response","71","263057","0.0-12.0-4.11","2d_cat_multi_stim_exp1","2022-4-14","15:1:38","25","75","3","9","10","40","30","120","31","20","[""White""]","No","Nonbinary/third gender","2106463","null","null","","","","clear_screen","","","","","","","","","","","","","","","","","","","","","","","","","",""
"","","","","","canvas-keyboard-response","72","263569","0.0-12.0-0.12","2d_cat_multi_stim_exp1","2022-4-14","15:1:38","25","75","3","9","10","40","30","120","31","20","[""White""]","No","Nonbinary/third gender","2106463","null","null","","","","fixation","","","","","","","","","","","","","","","","","","","","","","","","","",""
"","","","","","canvas-keyboard-response","73","264079","0.0-12.0-1.12","2d_cat_multi_stim_exp1","2022-4-14","15:1:38","25","75","3","9","10","40","30","120","31","20","[""White""]","No","Nonbinary/third gender","2106463","null","null","","","","clear_screen","","","","","","","","","","","","","","","","","","","","","","","","","",""
"","","","","","canvas-keyboard-response","74","264985","0.0-12.0-2.12","2d_cat_multi_stim_exp1","2022-4-14","15:1:38","25","75","3","9","10","40","30","120","31","20","[""White""]","No","Nonbinary/third gender","2106463","894","u","learn","","","learn_trial","23.3333","70","out","1","0","","","","","","","","","","","","","","","","","","","","",""
"","","","","","canvas-keyboard-response","75","265997","0.0-12.0-3.12","2d_cat_multi_stim_exp1","2022-4-14","15:1:38","25","75","3","9","10","40","30","120","31","20","[""White""]","No","Nonbinary/third gender","2106463","null","null","learn_feedback","","","learn_feedback","23.3333","70","out","","","","","","","","","","","","","","","","","","","","","","",""
"","","","","","canvas-keyboard-response","76","266059","0.0-12.0-4.12","2d_cat_multi_stim_exp1","2022-4-14","15:1:38","25","75","3","9","10","40","30","120","31","20","[""White""]","No","Nonbinary/third gender","2106463","null","null","","","","clear_screen","","","","","","","","","","","","","","","","","","","","","","","","","",""
"","","","","","canvas-keyboard-response","77","266569","0.0-12.0-0.13","2d_cat_multi_stim_exp1","2022-4-14","15:1:38","25","75","3","9","10","40","30","120","31","20","[""White""]","No","Nonbinary/third gender","2106463","null","null","","","","fixation","","","","","","","","","","","","","","","","","","","","","","","","","",""
"","","","","","canvas-keyboard-response","78","267082","0.0-12.0-1.13","2d_cat_multi_stim_exp1","2022-4-14","15:1:38","25","75","3","9","10","40","30","120","31","20","[""White""]","No","Nonbinary/third gender","2106463","null","null","","","","clear_screen","","","","","","","","","","","","","","","","","","","","","","","","","",""
"","","","","","canvas-keyboard-response","79","271345","0.0-12.0-2.13","2d_cat_multi_stim_exp1","2022-4-14","15:1:38","25","75","3","9","10","40","30","120","31","20","[""White""]","No","Nonbinary/third gender","2106463","4254","i","learn","","","learn_trial","25","75","in","0","0","","","","","","","","","","","","","","","","","","","","",""
"","","","","","canvas-keyboard-response","80","272356","0.0-12.0-3.13","2d_cat_multi_stim_exp1","2022-4-14","15:1:38","25","75","3","9","10","40","30","120","31","20","[""White""]","No","Nonbinary/third gender","2106463","null","null","learn_feedback","","","learn_feedback","25","75","in","","","","","","","","","","","","","","","","","","","","","","",""
"","","","","","canvas-keyboard-response","81","272418","0.0-12.0-4.13","2d_cat_multi_stim_exp1","2022-4-14","15:1:38","25","75","3","9","10","40","30","120","31","20","[""White""]","No","Nonbinary/third gender","2106463","null","null","","","","clear_screen","","","","","","","","","","","","","","","","","","","","","","","","","",""
"","","","","","canvas-keyboard-response","82","272928","0.0-12.0-0.14","2d_cat_multi_stim_exp1","2022-4-14","15:1:38","25","75","3","9","10","40","30","120","31","20","[""White""]","No","Nonbinary/third gender","2106463","null","null","","","","fixation","","","","","","","","","","","","","","","","","","","","","","","","","",""
"","","","","","canvas-keyboard-response","83","273439","0.0-12.0-1.14","2d_cat_multi_stim_exp1","2022-4-14","15:1:38","25","75","3","9","10","40","30","120","31","20","[""White""]","No","Nonbinary/third gender","2106463","null","null","","","","clear_screen","","","","","","","","","","","","","","","","","","","","","","","","","",""
"","","","","","canvas-keyboard-response","84","275434","0.0-12.0-2.14","2d_cat_multi_stim_exp1","2022-4-14","15:1:38","25","75","3","9","10","40","30","120","31","20","[""White""]","No","Nonbinary/third gender","2106463","1985","i","learn","","","learn_trial","10","30","out","0","1","","","","","","","","","","","","","","","","","","","","",""
"","","","","","canvas-keyboard-response","85","275945","0.0-12.0-3.14","2d_cat_multi_stim_exp1","2022-4-14","15:1:38","25","75","3","9","10","40","30","120","31","20","[""White""]","No","Nonbinary/third gender","2106463","null","null","learn_feedback","","","learn_feedback","10","30","out","","","","","","","","","","","","","","","","","","","","","","",""
"","","","","","canvas-keyboard-response","86","276006","0.0-12.0-4.14","2d_cat_multi_stim_exp1","2022-4-14","15:1:38","25","75","3","9","10","40","30","120","31","20","[""White""]","No","Nonbinary/third gender","2106463","null","null","","","","clear_screen","","","","","","","","","","","","","","","","","","","","","","","","","",""
"","","","","","canvas-keyboard-response","87","276519","0.0-12.0-0.15","2d_cat_multi_stim_exp1","2022-4-14","15:1:38","25","75","3","9","10","40","30","120","31","20","[""White""]","No","Nonbinary/third gender","2106463","null","null","","","","fixation","","","","","","","","","","","","","","","","","","","","","","","","","",""
"","","","","","canvas-keyboard-response","88","277031","0.0-12.0-1.15","2d_cat_multi_stim_exp1","2022-4-14","15:1:38","25","75","3","9","10","40","30","120","31","20","[""White""]","No","Nonbinary/third gender","2106463","null","null","","","","clear_screen","","","","","","","","","","","","","","","","","","","","","","","","","",""
"","","","","","canvas-keyboard-response","89","285834","0.0-12.0-2.15","2d_cat_multi_stim_exp1","2022-4-14","15:1:38","25","75","3","9","10","40","30","120","31","20","[""White""]","No","Nonbinary/third gender","2106463","8789","i","learn","","","learn_trial","33.3333","40","out","0","1","","","","","","","","","","","","","","","","","","","","",""
"","","","","","canvas-keyboard-response","90","286344","0.0-12.0-3.15","2d_cat_multi_stim_exp1","2022-4-14","15:1:38","25","75","3","9","10","40","30","120","31","20","[""White""]","No","Nonbinary/third gender","2106463","null","null","learn_feedback","","","learn_feedback","33.3333","40","out","","","","","","","","","","","","","","","","","","","","","","",""
"","","","","","canvas-keyboard-response","91","286410","0.0-12.0-4.15","2d_cat_multi_stim_exp1","2022-4-14","15:1:38","25","75","3","9","10","40","30","120","31","20","[""White""]","No","Nonbinary/third gender","2106463","null","null","","","","clear_screen","","","","","","","","","","","","","","","","","","","","","","","","","",""
"","","","","","canvas-keyboard-response","92","286919","0.0-12.0-0.16","2d_cat_multi_stim_exp1","2022-4-14","15:1:38","25","75","3","9","10","40","30","120","31","20","[""White""]","No","Nonbinary/third gender","2106463","null","null","","","","fixation","","","","","","","","","","","","","","","","","","","","","","","","","",""
"","","","","","canvas-keyboard-response","93","287431","0.0-12.0-1.16","2d_cat_multi_stim_exp1","2022-4-14","15:1:38","25","75","3","9","10","40","30","120","31","20","[""White""]","No","Nonbinary/third gender","2106463","null","null","","","","clear_screen","","","","","","","","","","","","","","","","","","","","","","","","","",""
"","","","","","canvas-keyboard-response","94","291081","0.0-12.0-2.16","2d_cat_multi_stim_exp1","2022-4-14","15:1:38","25","75","3","9","10","40","30","120","31","20","[""White""]","No","Nonbinary/third gender","2106463","3639","u","learn","","","learn_trial","22.0121","75.8068","in","1","1","","","","","","","","","","","","","","","","","","","","",""
"","","","","","canvas-keyboard-response","95","291592","0.0-12.0-3.16","2d_cat_multi_stim_exp1","2022-4-14","15:1:38","25","75","3","9","10","40","30","120","31","20","[""White""]","No","Nonbinary/third gender","2106463","null","null","learn_feedback","","","learn_feedback","22.0121","75.8068","in","","","","","","","","","","","","","","","","","","","","","","",""
"","","","","","canvas-keyboard-response","96","291654","0.0-12.0-4.16","2d_cat_multi_stim_exp1","2022-4-14","15:1:38","25","75","3","9","10","40","30","120","31","20","[""White""]","No","Nonbinary/third gender","2106463","null","null","","","","clear_screen","","","","","","","","","","","","","","","","","","","","","","","","","",""
"","","","","","canvas-keyboard-response","97","292166","0.0-12.0-0.17","2d_cat_multi_stim_exp1","2022-4-14","15:1:38","25","75","3","9","10","40","30","120","31","20","[""White""]","No","Nonbinary/third gender","2106463","null","null","","","","fixation","","","","","","","","","","","","","","","","","","","","","","","","","",""
"","","","","","canvas-keyboard-response","98","292678","0.0-12.0-1.17","2d_cat_multi_stim_exp1","2022-4-14","15:1:38","25","75","3","9","10","40","30","120","31","20","[""White""]","No","Nonbinary/third gender","2106463","null","null","","","","clear_screen","","","","","","","","","","","","","","","","","","","","","","","","","",""
"","","","","","canvas-keyboard-response","99","294281","0.0-12.0-2.17","2d_cat_multi_stim_exp1","2022-4-14","15:1:38","25","75","3","9","10","40","30","120","31","20","[""White""]","No","Nonbinary/third gender","2106463","1593","i","learn","","","learn_trial","23.3333","110","out","0","1","","","","","","","","","","","","","","","","","","","","",""
"","","","","","canvas-keyboard-response","100","294793","0.0-12.0-3.17","2d_cat_multi_stim_exp1","2022-4-14","15:1:38","25","75","3","9","10","40","30","120","31","20","[""White""]","No","Nonbinary/third gender","2106463","null","null","learn_feedback","","","learn_feedback","23.3333","110","out","","","","","","","","","","","","","","","","","","","","","","",""
"","","","","","canvas-keyboard-response","101","294853","0.0-12.0-4.17","2d_cat_multi_stim_exp1","2022-4-14","15:1:38","25","75","3","9","10","40","30","120","31","20","[""White""]","No","Nonbinary/third gender","2106463","null","null","","","","clear_screen","","","","","","","","","","","","","","","","","","","","","","","","","",""
"","","","","","canvas-keyboard-response","102","295363","0.0-12.0-0.18","2d_cat_multi_stim_exp1","2022-4-14","15:1:38","25","75","3","9","10","40","30","120","31","20","[""White""]","No","Nonbinary/third gender","2106463","null","null","","","","fixation","","","","","","","","","","","","","","","","","","","","","","","","","",""
"","","","","","canvas-keyboard-response","103","295876","0.0-12.0-1.18","2d_cat_multi_stim_exp1","2022-4-14","15:1:38","25","75","3","9","10","40","30","120","31","20","[""White""]","No","Nonbinary/third gender","2106463","null","null","","","","clear_screen","","","","","","","","","","","","","","","","","","","","","","","","","",""
"","","","","","canvas-keyboard-response","104","297033","0.0-12.0-2.18","2d_cat_multi_stim_exp1","2022-4-14","15:1:38","25","75","3","9","10","40","30","120","31","20","[""White""]","No","Nonbinary/third gender","2106463","1148","u","learn","","","learn_trial","20","80","out","1","0","","","","","","","","","","","","","","","","","","","","",""
"","","","","","canvas-keyboard-response","105","298041","0.0-12.0-3.18","2d_cat_multi_stim_exp1","2022-4-14","15:1:38","25","75","3","9","10","40","30","120","31","20","[""White""]","No","Nonbinary/third gender","2106463","null","null","learn_feedback","","","learn_feedback","20","80","out","","","","","","","","","","","","","","","","","","","","","","",""
"","","","","","canvas-keyboard-response","106","298100","0.0-12.0-4.18","2d_cat_multi_stim_exp1","2022-4-14","15:1:38","25","75","3","9","10","40","30","120","31","20","[""White""]","No","Nonbinary/third gender","2106463","null","null","","","","clear_screen","","","","","","","","","","","","","","","","","","","","","","","","","",""
"","","","","","canvas-keyboard-response","107","298612","0.0-12.0-0.19","2d_cat_multi_stim_exp1","2022-4-14","15:1:38","25","75","3","9","10","40","30","120","31","20","[""White""]","No","Nonbinary/third gender","2106463","null","null","","","","fixation","","","","","","","","","","","","","","","","","","","","","","","","","",""
"","","","","","canvas-keyboard-response","108","299126","0.0-12.0-1.19","2d_cat_multi_stim_exp1","2022-4-14","15:1:38","25","75","3","9","10","40","30","120","31","20","[""White""]","No","Nonbinary/third gender","2106463","null","null","","","","clear_screen","","","","","","","","","","","","","","","","","","","","","","","","","",""
"","","","","","canvas-keyboard-response","109","301696","0.0-12.0-2.19","2d_cat_multi_stim_exp1","2022-4-14","15:1:38","25","75","3","9","10","40","30","120","31","20","[""White""]","No","Nonbinary/third gender","2106463","2560","u","learn","","","learn_trial","25","75","in","1","1","","","","","","","","","","","","","","","","","","","","",""
"","","","","","canvas-keyboard-response","110","302207","0.0-12.0-3.19","2d_cat_multi_stim_exp1","2022-4-14","15:1:38","25","75","3","9","10","40","30","120","31","20","[""White""]","No","Nonbinary/third gender","2106463","null","null","learn_feedback","","","learn_feedback","25","75","in","","","","","","","","","","","","","","","","","","","","","","",""
"","","","","","canvas-keyboard-response","111","302265","0.0-12.0-4.19","2d_cat_multi_stim_exp1","2022-4-14","15:1:38","25","75","3","9","10","40","30","120","31","20","[""White""]","No","Nonbinary/third gender","2106463","null","null","","","","clear_screen","","","","","","","","","","","","","","","","","","","","","","","","","",""
"","","","","","canvas-keyboard-response","112","302774","0.0-12.0-0.20","2d_cat_multi_stim_exp1","2022-4-14","15:1:38","25","75","3","9","10","40","30","120","31","20","[""White""]","No","Nonbinary/third gender","2106463","null","null","","","","fixation","","","","","","","","","","","","","","","","","","","","","","","","","",""
"","","","","","canvas-keyboard-response","113","303285","0.0-12.0-1.20","2d_cat_multi_stim_exp1","2022-4-14","15:1:38","25","75","3","9","10","40","30","120","31","20","[""White""]","No","Nonbinary/third gender","2106463","null","null","","","","clear_screen","","","","","","","","","","","","","","","","","","","","","","","","","",""
"","","","","","canvas-keyboard-response","114","308273","0.0-12.0-2.20","2d_cat_multi_stim_exp1","2022-4-14","15:1:38","25","75","3","9","10","40","30","120","31","20","[""White""]","No","Nonbinary/third gender","2106463","4979","u","learn","","","learn_trial","25","75","in","1","1","","","","","","","","","","","","","","","","","","","","",""
"","","","","","canvas-keyboard-response","115","308785","0.0-12.0-3.20","2d_cat_multi_stim_exp1","2022-4-14","15:1:38","25","75","3","9","10","40","30","120","31","20","[""White""]","No","Nonbinary/third gender","2106463","null","null","learn_feedback","","","learn_feedback","25","75","in","","","","","","","","","","","","","","","","","","","","","","",""
"","","","","","canvas-keyboard-response","116","308845","0.0-12.0-4.20","2d_cat_multi_stim_exp1","2022-4-14","15:1:38","25","75","3","9","10","40","30","120","31","20","[""White""]","No","Nonbinary/third gender","2106463","null","null","","","","clear_screen","","","","","","","","","","","","","","","","","","","","","","","","","",""
"","","","","","canvas-keyboard-response","117","309356","0.0-12.0-0.21","2d_cat_multi_stim_exp1","2022-4-14","15:1:38","25","75","3","9","10","40","30","120","31","20","[""White""]","No","Nonbinary/third gender","2106463","null","null","","","","fixation","","","","","","","","","","","","","","","","","","","","","","","","","",""
"","","","","","canvas-keyboard-response","118","309871","0.0-12.0-1.21","2d_cat_multi_stim_exp1","2022-4-14","15:1:38","25","75","3","9","10","40","30","120","31","20","[""White""]","No","Nonbinary/third gender","2106463","null","null","","","","clear_screen","","","","","","","","","","","","","","","","","","","","","","","","","",""
"","","","","","canvas-keyboard-response","119","311089","0.0-12.0-2.21","2d_cat_multi_stim_exp1","2022-4-14","15:1:38","25","75","3","9","10","40","30","120","31","20","[""White""]","No","Nonbinary/third gender","2106463","1209","u","learn","","","learn_trial","25","75","in","1","1","","","","","","","","","","","","","","","","","","","","",""
"","","","","","canvas-keyboard-response","120","311600","0.0-12.0-3.21","2d_cat_multi_stim_exp1","2022-4-14","15:1:38","25","75","3","9","10","40","30","120","31","20","[""White""]","No","Nonbinary/third gender","2106463","null","null","learn_feedback","","","learn_feedback","25","75","in","","","","","","","","","","","","","","","","","","","","","","",""
"","","","","","canvas-keyboard-response","121","311659","0.0-12.0-4.21","2d_cat_multi_stim_exp1","2022-4-14","15:1:38","25","75","3","9","10","40","30","120","31","20","[""White""]","No","Nonbinary/third gender","2106463","null","null","","","","clear_screen","","","","","","","","","","","","","","","","","","","","","","","","","",""
"","","","","","canvas-keyboard-response","122","312171","0.0-12.0-0.22","2d_cat_multi_stim_exp1","2022-4-14","15:1:38","25","75","3","9","10","40","30","120","31","20","[""White""]","No","Nonbinary/third gender","2106463","null","null","","","","fixation","","","","","","","","","","","","","","","","","","","","","","","","","",""
"","","","","","canvas-keyboard-response","123","312686","0.0-12.0-1.22","2d_cat_multi_stim_exp1","2022-4-14","15:1:38","25","75","3","9","10","40","30","120","31","20","[""White""]","No","Nonbinary/third gender","2106463","null","null","","","","clear_screen","","","","","","","","","","","","","","","","","","","","","","","","","",""
"","","","","","canvas-keyboard-response","124","314505","0.0-12.0-2.22","2d_cat_multi_stim_exp1","2022-4-14","15:1:38","25","75","3","9","10","40","30","120","31","20","[""White""]","No","Nonbinary/third gender","2106463","1808","u","learn","","","learn_trial","27.9518","73.393","in","1","1","","","","","","","","","","","","","","","","","","","","",""
"","","","","","canvas-keyboard-response","125","315015","0.0-12.0-3.22","2d_cat_multi_stim_exp1","2022-4-14","15:1:38","25","75","3","9","10","40","30","120","31","20","[""White""]","No","Nonbinary/third gender","2106463","null","null","learn_feedback","","","learn_feedback","27.9518","73.393","in","","","","","","","","","","","","","","","","","","","","","","",""
"","","","","","canvas-keyboard-response","126","315075","0.0-12.0-4.22","2d_cat_multi_stim_exp1","2022-4-14","15:1:38","25","75","3","9","10","40","30","120","31","20","[""White""]","No","Nonbinary/third gender","2106463","null","null","","","","clear_screen","","","","","","","","","","","","","","","","","","","","","","","","","",""
"","","","","","canvas-keyboard-response","127","315585","0.0-12.0-0.23","2d_cat_multi_stim_exp1","2022-4-14","15:1:38","25","75","3","9","10","40","30","120","31","20","[""White""]","No","Nonbinary/third gender","2106463","null","null","","","","fixation","","","","","","","","","","","","","","","","","","","","","","","","","",""
"","","","","","canvas-keyboard-response","128","316098","0.0-12.0-1.23","2d_cat_multi_stim_exp1","2022-4-14","15:1:38","25","75","3","9","10","40","30","120","31","20","[""White""]","No","Nonbinary/third gender","2106463","null","null","","","","clear_screen","","","","","","","","","","","","","","","","","","","","","","","","","",""
"","","","","","canvas-keyboard-response","129","317624","0.0-12.0-2.23","2d_cat_multi_stim_exp1","2022-4-14","15:1:38","25","75","3","9","10","40","30","120","31","20","[""White""]","No","Nonbinary/third gender","2106463","1517","i","learn","","","learn_trial","26.6667","30","out","0","1","","","","","","","","","","","","","","","","","","","","",""
"","","","","","canvas-keyboard-response","130","318139","0.0-12.0-3.23","2d_cat_multi_stim_exp1","2022-4-14","15:1:38","25","75","3","9","10","40","30","120","31","20","[""White""]","No","Nonbinary/third gender","2106463","null","null","learn_feedback","","","learn_feedback","26.6667","30","out","","","","","","","","","","","","","","","","","","","","","","",""
"","","","","","canvas-keyboard-response","131","318201","0.0-12.0-4.23","2d_cat_multi_stim_exp1","2022-4-14","15:1:38","25","75","3","9","10","40","30","120","31","20","[""White""]","No","Nonbinary/third gender","2106463","null","null","","","","clear_screen","","","","","","","","","","","","","","","","","","","","","","","","","",""
"","","","","","canvas-keyboard-response","132","318709","0.0-12.0-0.24","2d_cat_multi_stim_exp1","2022-4-14","15:1:38","25","75","3","9","10","40","30","120","31","20","[""White""]","No","Nonbinary/third gender","2106463","null","null","","","","fixation","","","","","","","","","","","","","","","","","","","","","","","","","",""
"","","","","","canvas-keyboard-response","133","319219","0.0-12.0-1.24","2d_cat_multi_stim_exp1","2022-4-14","15:1:38","25","75","3","9","10","40","30","120","31","20","[""White""]","No","Nonbinary/third gender","2106463","null","null","","","","clear_screen","","","","","","","","","","","","","","","","","","","","","","","","","",""
"","","","","","canvas-keyboard-response","134","320393","0.0-12.0-2.24","2d_cat_multi_stim_exp1","2022-4-14","15:1:38","25","75","3","9","10","40","30","120","31","20","[""White""]","No","Nonbinary/third gender","2106463","1163","u","learn","","","learn_trial","25","75","in","1","1","","","","","","","","","","","","","","","","","","","","",""
"","","","","","canvas-keyboard-response","135","320905","0.0-12.0-3.24","2d_cat_multi_stim_exp1","2022-4-14","15:1:38","25","75","3","9","10","40","30","120","31","20","[""White""]","No","Nonbinary/third gender","2106463","null","null","learn_feedback","","","learn_feedback","25","75","in","","","","","","","","","","","","","","","","","","","","","","",""
"","","","","","canvas-keyboard-response","136","320966","0.0-12.0-4.24","2d_cat_multi_stim_exp1","2022-4-14","15:1:38","25","75","3","9","10","40","30","120","31","20","[""White""]","No","Nonbinary/third gender","2106463","null","null","","","","clear_screen","","","","","","","","","","","","","","","","","","","","","","","","","",""
"","","","","","canvas-keyboard-response","137","321474","0.0-12.0-0.25","2d_cat_multi_stim_exp1","2022-4-14","15:1:38","25","75","3","9","10","40","30","120","31","20","[""White""]","No","Nonbinary/third gender","2106463","null","null","","","","fixation","","","","","","","","","","","","","","","","","","","","","","","","","",""
"","","","","","canvas-keyboard-response","138","321984","0.0-12.0-1.25","2d_cat_multi_stim_exp1","2022-4-14","15:1:38","25","75","3","9","10","40","30","120","31","20","[""White""]","No","Nonbinary/third gender","2106463","null","null","","","","clear_screen","","","","","","","","","","","","","","","","","","","","","","","","","",""
"","","","","","canvas-keyboard-response","139","323175","0.0-12.0-2.25","2d_cat_multi_stim_exp1","2022-4-14","15:1:38","25","75","3","9","10","40","30","120","31","20","[""White""]","No","Nonbinary/third gender","2106463","1184","u","learn","","","learn_trial","25","75","in","1","1","","","","","","","","","","","","","","","","","","","","",""
"","","","","","canvas-keyboard-response","140","323688","0.0-12.0-3.25","2d_cat_multi_stim_exp1","2022-4-14","15:1:38","25","75","3","9","10","40","30","120","31","20","[""White""]","No","Nonbinary/third gender","2106463","null","null","learn_feedback","","","learn_feedback","25","75","in","","","","","","","","","","","","","","","","","","","","","","",""
"","","","","","canvas-keyboard-response","141","323749","0.0-12.0-4.25","2d_cat_multi_stim_exp1","2022-4-14","15:1:38","25","75","3","9","10","40","30","120","31","20","[""White""]","No","Nonbinary/third gender","2106463","null","null","","","","clear_screen","","","","","","","","","","","","","","","","","","","","","","","","","",""
"","","","","","canvas-keyboard-response","142","324258","0.0-12.0-0.26","2d_cat_multi_stim_exp1","2022-4-14","15:1:38","25","75","3","9","10","40","30","120","31","20","[""White""]","No","Nonbinary/third gender","2106463","null","null","","","","fixation","","","","","","","","","","","","","","","","","","","","","","","","","",""
"","","","","","canvas-keyboard-response","143","324767","0.0-12.0-1.26","2d_cat_multi_stim_exp1","2022-4-14","15:1:38","25","75","3","9","10","40","30","120","31","20","[""White""]","No","Nonbinary/third gender","2106463","null","null","","","","clear_screen","","","","","","","","","","","","","","","","","","","","","","","","","",""
"","","","","","canvas-keyboard-response","144","325704","0.0-12.0-2.26","2d_cat_multi_stim_exp1","2022-4-14","15:1:38","25","75","3","9","10","40","30","120","31","20","[""White""]","No","Nonbinary/third gender","2106463","929","u","learn","","","learn_trial","25","75","in","1","1","","","","","","","","","","","","","","","","","","","","",""
"","","","","","canvas-keyboard-response","145","326215","0.0-12.0-3.26","2d_cat_multi_stim_exp1","2022-4-14","15:1:38","25","75","3","9","10","40","30","120","31","20","[""White""]","No","Nonbinary/third gender","2106463","null","null","learn_feedback","","","learn_feedback","25","75","in","","","","","","","","","","","","","","","","","","","","","","",""
"","","","","","canvas-keyboard-response","146","326279","0.0-12.0-4.26","2d_cat_multi_stim_exp1","2022-4-14","15:1:38","25","75","3","9","10","40","30","120","31","20","[""White""]","No","Nonbinary/third gender","2106463","null","null","","","","clear_screen","","","","","","","","","","","","","","","","","","","","","","","","","",""
"","","","","","canvas-keyboard-response","147","326789","0.0-12.0-0.27","2d_cat_multi_stim_exp1","2022-4-14","15:1:38","25","75","3","9","10","40","30","120","31","20","[""White""]","No","Nonbinary/third gender","2106463","null","null","","","","fixation","","","","","","","","","","","","","","","","","","","","","","","","","",""
"","","","","","canvas-keyboard-response","148","327299","0.0-12.0-1.27","2d_cat_multi_stim_exp1","2022-4-14","15:1:38","25","75","3","9","10","40","30","120","31","20","[""White""]","No","Nonbinary/third gender","2106463","null","null","","","","clear_screen","","","","","","","","","","","","","","","","","","","","","","","","","",""
"","","","","","canvas-keyboard-response","149","329264","0.0-12.0-2.27","2d_cat_multi_stim_exp1","2022-4-14","15:1:38","25","75","3","9","10","40","30","120","31","20","[""White""]","No","Nonbinary/third gender","2106463","1956","i","learn","","","learn_trial","40","100","out","0","1","","","","","","","","","","","","","","","","","","","","",""
"","","","","","canvas-keyboard-response","150","329775","0.0-12.0-3.27","2d_cat_multi_stim_exp1","2022-4-14","15:1:38","25","75","3","9","10","40","30","120","31","20","[""White""]","No","Nonbinary/third gender","2106463","null","null","learn_feedback","","","learn_feedback","40","100","out","","","","","","","","","","","","","","","","","","","","","","",""
"","","","","","canvas-keyboard-response","151","329834","0.0-12.0-4.27","2d_cat_multi_stim_exp1","2022-4-14","15:1:38","25","75","3","9","10","40","30","120","31","20","[""White""]","No","Nonbinary/third gender","2106463","null","null","","","","clear_screen","","","","","","","","","","","","","","","","","","","","","","","","","",""
"","","","","","canvas-keyboard-response","152","330343","0.0-12.0-0.28","2d_cat_multi_stim_exp1","2022-4-14","15:1:38","25","75","3","9","10","40","30","120","31","20","[""White""]","No","Nonbinary/third gender","2106463","null","null","","","","fixation","","","","","","","","","","","","","","","","","","","","","","","","","",""
"","","","","","canvas-keyboard-response","153","330852","0.0-12.0-1.28","2d_cat_multi_stim_exp1","2022-4-14","15:1:38","25","75","3","9","10","40","30","120","31","20","[""White""]","No","Nonbinary/third gender","2106463","null","null","","","","clear_screen","","","","","","","","","","","","","","","","","","","","","","","","","",""
"","","","","","canvas-keyboard-response","154","332048","0.0-12.0-2.28","2d_cat_multi_stim_exp1","2022-4-14","15:1:38","25","75","3","9","10","40","30","120","31","20","[""White""]","No","Nonbinary/third gender","2106463","1184","u","learn","","","learn_trial","25","75","in","1","1","","","","","","","","","","","","","","","","","","","","",""
"","","","","","canvas-keyboard-response","155","332557","0.0-12.0-3.28","2d_cat_multi_stim_exp1","2022-4-14","15:1:38","25","75","3","9","10","40","30","120","31","20","[""White""]","No","Nonbinary/third gender","2106463","null","null","learn_feedback","","","learn_feedback","25","75","in","","","","","","","","","","","","","","","","","","","","","","",""
"","","","","","canvas-keyboard-response","156","332616","0.0-12.0-4.28","2d_cat_multi_stim_exp1","2022-4-14","15:1:38","25","75","3","9","10","40","30","120","31","20","[""White""]","No","Nonbinary/third gender","2106463","null","null","","","","clear_screen","","","","","","","","","","","","","","","","","","","","","","","","","",""
"","","","","","canvas-keyboard-response","157","333124","0.0-12.0-0.29","2d_cat_multi_stim_exp1","2022-4-14","15:1:38","25","75","3","9","10","40","30","120","31","20","[""White""]","No","Nonbinary/third gender","2106463","null","null","","","","fixation","","","","","","","","","","","","","","","","","","","","","","","","","",""
"","","","","","canvas-keyboard-response","158","333636","0.0-12.0-1.29","2d_cat_multi_stim_exp1","2022-4-14","15:1:38","25","75","3","9","10","40","30","120","31","20","[""White""]","No","Nonbinary/third gender","2106463","null","null","","","","clear_screen","","","","","","","","","","","","","","","","","","","","","","","","","",""
"","","","","","canvas-keyboard-response","159","335168","0.0-12.0-2.29","2d_cat_multi_stim_exp1","2022-4-14","15:1:38","25","75","3","9","10","40","30","120","31","20","[""White""]","No","Nonbinary/third gender","2106463","1524","i","learn","","","learn_trial","20.7574","87.7279","in","0","0","","","","","","","","","","","","","","","","","","","","",""
"","","","","","canvas-keyboard-response","160","336181","0.0-12.0-3.29","2d_cat_multi_stim_exp1","2022-4-14","15:1:38","25","75","3","9","10","40","30","120","31","20","[""White""]","No","Nonbinary/third gender","2106463","null","null","learn_feedback","","","learn_feedback","20.7574","87.7279","in","","","","","","","","","","","","","","","","","","","","","","",""
"","","","","","canvas-keyboard-response","161","336242","0.0-12.0-4.29","2d_cat_multi_stim_exp1","2022-4-14","15:1:38","25","75","3","9","10","40","30","120","31","20","[""White""]","No","Nonbinary/third gender","2106463","null","null","","","","clear_screen","","","","","","","","","","","","","","","","","","","","","","","","","",""
"","","","","","canvas-keyboard-response","162","336751","0.0-12.0-0.30","2d_cat_multi_stim_exp1","2022-4-14","15:1:38","25","75","3","9","10","40","30","120","31","20","[""White""]","No","Nonbinary/third gender","2106463","null","null","","","","fixation","","","","","","","","","","","","","","","","","","","","","","","","","",""
"","","","","","canvas-keyboard-response","163","337262","0.0-12.0-1.30","2d_cat_multi_stim_exp1","2022-4-14","15:1:38","25","75","3","9","10","40","30","120","31","20","[""White""]","No","Nonbinary/third gender","2106463","null","null","","","","clear_screen","","","","","","","","","","","","","","","","","","","","","","","","","",""
"","","","","","canvas-keyboard-response","164","338759","0.0-12.0-2.30","2d_cat_multi_stim_exp1","2022-4-14","15:1:38","25","75","3","9","10","40","30","120","31","20","[""White""]","No","Nonbinary/third gender","2106463","1486","i","learn","","","learn_trial","13.3333","50","out","0","1","","","","","","","","","","","","","","","","","","","","",""
"","","","","","canvas-keyboard-response","165","339268","0.0-12.0-3.30","2d_cat_multi_stim_exp1","2022-4-14","15:1:38","25","75","3","9","10","40","30","120","31","20","[""White""]","No","Nonbinary/third gender","2106463","null","null","learn_feedback","","","learn_feedback","13.3333","50","out","","","","","","","","","","","","","","","","","","","","","","",""
"","","","","","canvas-keyboard-response","166","339329","0.0-12.0-4.30","2d_cat_multi_stim_exp1","2022-4-14","15:1:38","25","75","3","9","10","40","30","120","31","20","[""White""]","No","Nonbinary/third gender","2106463","null","null","","","","clear_screen","","","","","","","","","","","","","","","","","","","","","","","","","",""
"","","","","","canvas-keyboard-response","167","339840","0.0-12.0-0.31","2d_cat_multi_stim_exp1","2022-4-14","15:1:38","25","75","3","9","10","40","30","120","31","20","[""White""]","No","Nonbinary/third gender","2106463","null","null","","","","fixation","","","","","","","","","","","","","","","","","","","","","","","","","",""
"","","","","","canvas-keyboard-response","168","340352","0.0-12.0-1.31","2d_cat_multi_stim_exp1","2022-4-14","15:1:38","25","75","3","9","10","40","30","120","31","20","[""White""]","No","Nonbinary/third gender","2106463","null","null","","","","clear_screen","","","","","","","","","","","","","","","","","","","","","","","","","",""
"","","","","","canvas-keyboard-response","169","341657","0.0-12.0-2.31","2d_cat_multi_stim_exp1","2022-4-14","15:1:38","25","75","3","9","10","40","30","120","31","20","[""White""]","No","Nonbinary/third gender","2106463","1300","u","learn","","","learn_trial","25","75","in","1","1","","","","","","","","","","","","","","","","","","","","",""
"","","","","","canvas-keyboard-response","170","342168","0.0-12.0-3.31","2d_cat_multi_stim_exp1","2022-4-14","15:1:38","25","75","3","9","10","40","30","120","31","20","[""White""]","No","Nonbinary/third gender","2106463","null","null","learn_feedback","","","learn_feedback","25","75","in","","","","","","","","","","","","","","","","","","","","","","",""
"","","","","","canvas-keyboard-response","171","342228","0.0-12.0-4.31","2d_cat_multi_stim_exp1","2022-4-14","15:1:38","25","75","3","9","10","40","30","120","31","20","[""White""]","No","Nonbinary/third gender","2106463","null","null","","","","clear_screen","","","","","","","","","","","","","","","","","","","","","","","","","",""
"","","","","","canvas-keyboard-response","172","342739","0.0-12.0-0.32","2d_cat_multi_stim_exp1","2022-4-14","15:1:38","25","75","3","9","10","40","30","120","31","20","[""White""]","No","Nonbinary/third gender","2106463","null","null","","","","fixation","","","","","","","","","","","","","","","","","","","","","","","","","",""
"","","","","","canvas-keyboard-response","173","343253","0.0-12.0-1.32","2d_cat_multi_stim_exp1","2022-4-14","15:1:38","25","75","3","9","10","40","30","120","31","20","[""White""]","No","Nonbinary/third gender","2106463","null","null","","","","clear_screen","","","","","","","","","","","","","","","","","","","","","","","","","",""
"","","","","","canvas-keyboard-response","174","344328","0.0-12.0-2.32","2d_cat_multi_stim_exp1","2022-4-14","15:1:38","25","75","3","9","10","40","30","120","31","20","[""White""]","No","Nonbinary/third gender","2106463","1063","i","learn","","","learn_trial","30","120","out","0","1","","","","","","","","","","","","","","","","","","","","",""
"","","","","","canvas-keyboard-response","175","344836","0.0-12.0-3.32","2d_cat_multi_stim_exp1","2022-4-14","15:1:38","25","75","3","9","10","40","30","120","31","20","[""White""]","No","Nonbinary/third gender","2106463","null","null","learn_feedback","","","learn_feedback","30","120","out","","","","","","","","","","","","","","","","","","","","","","",""
"","","","","","canvas-keyboard-response","176","344898","0.0-12.0-4.32","2d_cat_multi_stim_exp1","2022-4-14","15:1:38","25","75","3","9","10","40","30","120","31","20","[""White""]","No","Nonbinary/third gender","2106463","null","null","","","","clear_screen","","","","","","","","","","","","","","","","","","","","","","","","","",""
"","","","","","canvas-keyboard-response","177","345408","0.0-12.0-0.33","2d_cat_multi_stim_exp1","2022-4-14","15:1:38","25","75","3","9","10","40","30","120","31","20","[""White""]","No","Nonbinary/third gender","2106463","null","null","","","","fixation","","","","","","","","","","","","","","","","","","","","","","","","","",""
"","","","","","canvas-keyboard-response","178","345918","0.0-12.0-1.33","2d_cat_multi_stim_exp1","2022-4-14","15:1:38","25","75","3","9","10","40","30","120","31","20","[""White""]","No","Nonbinary/third gender","2106463","null","null","","","","clear_screen","","","","","","","","","","","","","","","","","","","","","","","","","",""
"","","","","","canvas-keyboard-response","179","347089","0.0-12.0-2.33","2d_cat_multi_stim_exp1","2022-4-14","15:1:38","25","75","3","9","10","40","30","120","31","20","[""White""]","No","Nonbinary/third gender","2106463","1160","i","learn","","","learn_trial","30","30","out","0","1","","","","","","","","","","","","","","","","","","","","",""
"","","","","","canvas-keyboard-response","180","347598","0.0-12.0-3.33","2d_cat_multi_stim_exp1","2022-4-14","15:1:38","25","75","3","9","10","40","30","120","31","20","[""White""]","No","Nonbinary/third gender","2106463","null","null","learn_feedback","","","learn_feedback","30","30","out","","","","","","","","","","","","","","","","","","","","","","",""
"","","","","","canvas-keyboard-response","181","347660","0.0-12.0-4.33","2d_cat_multi_stim_exp1","2022-4-14","15:1:38","25","75","3","9","10","40","30","120","31","20","[""White""]","No","Nonbinary/third gender","2106463","null","null","","","","clear_screen","","","","","","","","","","","","","","","","","","","","","","","","","",""
"","","","","","canvas-keyboard-response","182","348169","0.0-12.0-0.34","2d_cat_multi_stim_exp1","2022-4-14","15:1:38","25","75","3","9","10","40","30","120","31","20","[""White""]","No","Nonbinary/third gender","2106463","null","null","","","","fixation","","","","","","","","","","","","","","","","","","","","","","","","","",""
"","","","","","canvas-keyboard-response","183","348679","0.0-12.0-1.34","2d_cat_multi_stim_exp1","2022-4-14","15:1:38","25","75","3","9","10","40","30","120","31","20","[""White""]","No","Nonbinary/third gender","2106463","null","null","","","","clear_screen","","","","","","","","","","","","","","","","","","","","","","","","","",""
"","","","","","canvas-keyboard-response","184","351512","0.0-12.0-2.34","2d_cat_multi_stim_exp1","2022-4-14","15:1:38","25","75","3","9","10","40","30","120","31","20","[""White""]","No","Nonbinary/third gender","2106463","2824","u","learn","","","learn_trial","25","75","in","1","1","","","","","","","","","","","","","","","","","","","","",""
"","","","","","canvas-keyboard-response","185","352021","0.0-12.0-3.34","2d_cat_multi_stim_exp1","2022-4-14","15:1:38","25","75","3","9","10","40","30","120","31","20","[""White""]","No","Nonbinary/third gender","2106463","null","null","learn_feedback","","","learn_feedback","25","75","in","","","","","","","","","","","","","","","","","","","","","","",""
"","","","","","canvas-keyboard-response","186","352080","0.0-12.0-4.34","2d_cat_multi_stim_exp1","2022-4-14","15:1:38","25","75","3","9","10","40","30","120","31","20","[""White""]","No","Nonbinary/third gender","2106463","null","null","","","","clear_screen","","","","","","","","","","","","","","","","","","","","","","","","","",""
"","","","","","canvas-keyboard-response","187","352589","0.0-12.0-0.35","2d_cat_multi_stim_exp1","2022-4-14","15:1:38","25","75","3","9","10","40","30","120","31","20","[""White""]","No","Nonbinary/third gender","2106463","null","null","","","","fixation","","","","","","","","","","","","","","","","","","","","","","","","","",""
"","","","","","canvas-keyboard-response","188","353099","0.0-12.0-1.35","2d_cat_multi_stim_exp1","2022-4-14","15:1:38","25","75","3","9","10","40","30","120","31","20","[""White""]","No","Nonbinary/third gender","2106463","null","null","","","","clear_screen","","","","","","","","","","","","","","","","","","","","","","","","","",""
"","","","","","canvas-keyboard-response","189","359608","0.0-12.0-2.35","2d_cat_multi_stim_exp1","2022-4-14","15:1:38","25","75","3","9","10","40","30","120","31","20","[""White""]","No","Nonbinary/third gender","2106463","6498","u","learn","","","learn_trial","24.8654","83.9909","in","1","1","","","","","","","","","","","","","","","","","","","","",""
"","","","","","canvas-keyboard-response","190","360120","0.0-12.0-3.35","2d_cat_multi_stim_exp1","2022-4-14","15:1:38","25","75","3","9","10","40","30","120","31","20","[""White""]","No","Nonbinary/third gender","2106463","null","null","learn_feedback","","","learn_feedback","24.8654","83.9909","in","","","","","","","","","","","","","","","","","","","","","","",""
"","","","","","canvas-keyboard-response","191","360182","0.0-12.0-4.35","2d_cat_multi_stim_exp1","2022-4-14","15:1:38","25","75","3","9","10","40","30","120","31","20","[""White""]","No","Nonbinary/third gender","2106463","null","null","","","","clear_screen","","","","","","","","","","","","","","","","","","","","","","","","","",""
"","","","","","canvas-keyboard-response","192","360693","0.0-12.0-0.36","2d_cat_multi_stim_exp1","2022-4-14","15:1:38","25","75","3","9","10","40","30","120","31","20","[""White""]","No","Nonbinary/third gender","2106463","null","null","","","","fixation","","","","","","","","","","","","","","","","","","","","","","","","","",""
"","","","","","canvas-keyboard-response","193","361205","0.0-12.0-1.36","2d_cat_multi_stim_exp1","2022-4-14","15:1:38","25","75","3","9","10","40","30","120","31","20","[""White""]","No","Nonbinary/third gender","2106463","null","null","","","","clear_screen","","","","","","","","","","","","","","","","","","","","","","","","","",""
"","","","","","canvas-keyboard-response","194","363408","0.0-12.0-2.36","2d_cat_multi_stim_exp1","2022-4-14","15:1:38","25","75","3","9","10","40","30","120","31","20","[""White""]","No","Nonbinary/third gender","2106463","2192","u","learn","","","learn_trial","25","75","in","1","1","","","","","","","","","","","","","","","","","","","","",""
"","","","","","canvas-keyboard-response","195","363918","0.0-12.0-3.36","2d_cat_multi_stim_exp1","2022-4-14","15:1:38","25","75","3","9","10","40","30","120","31","20","[""White""]","No","Nonbinary/third gender","2106463","null","null","learn_feedback","","","learn_feedback","25","75","in","","","","","","","","","","","","","","","","","","","","","","",""
"","","","","","canvas-keyboard-response","196","363976","0.0-12.0-4.36","2d_cat_multi_stim_exp1","2022-4-14","15:1:38","25","75","3","9","10","40","30","120","31","20","[""White""]","No","Nonbinary/third gender","2106463","null","null","","","","clear_screen","","","","","","","","","","","","","","","","","","","","","","","","","",""
"","","","","","canvas-keyboard-response","197","364485","0.0-12.0-0.37","2d_cat_multi_stim_exp1","2022-4-14","15:1:38","25","75","3","9","10","40","30","120","31","20","[""White""]","No","Nonbinary/third gender","2106463","null","null","","","","fixation","","","","","","","","","","","","","","","","","","","","","","","","","",""
"","","","","","canvas-keyboard-response","198","364997","0.0-12.0-1.37","2d_cat_multi_stim_exp1","2022-4-14","15:1:38","25","75","3","9","10","40","30","120","31","20","[""White""]","No","Nonbinary/third gender","2106463","null","null","","","","clear_screen","","","","","","","","","","","","","","","","","","","","","","","","","",""
"","","","","","canvas-keyboard-response","199","366456","0.0-12.0-2.37","2d_cat_multi_stim_exp1","2022-4-14","15:1:38","25","75","3","9","10","40","30","120","31","20","[""White""]","No","Nonbinary/third gender","2106463","1452","i","learn","","","learn_trial","22.1081","77.3943","in","0","0","","","","","","","","","","","","","","","","","","","","",""
"","","","","","canvas-keyboard-response","200","367466","0.0-12.0-3.37","2d_cat_multi_stim_exp1","2022-4-14","15:1:38","25","75","3","9","10","40","30","120","31","20","[""White""]","No","Nonbinary/third gender","2106463","null","null","learn_feedback","","","learn_feedback","22.1081","77.3943","in","","","","","","","","","","","","","","","","","","","","","","",""
"","","","","","canvas-keyboard-response","201","367530","0.0-12.0-4.37","2d_cat_multi_stim_exp1","2022-4-14","15:1:38","25","75","3","9","10","40","30","120","31","20","[""White""]","No","Nonbinary/third gender","2106463","null","null","","","","clear_screen","","","","","","","","","","","","","","","","","","","","","","","","","",""
"","","","","","canvas-keyboard-response","202","368039","0.0-12.0-0.38","2d_cat_multi_stim_exp1","2022-4-14","15:1:38","25","75","3","9","10","40","30","120","31","20","[""White""]","No","Nonbinary/third gender","2106463","null","null","","","","fixation","","","","","","","","","","","","","","","","","","","","","","","","","",""
"","","","","","canvas-keyboard-response","203","368549","0.0-12.0-1.38","2d_cat_multi_stim_exp1","2022-4-14","15:1:38","25","75","3","9","10","40","30","120","31","20","[""White""]","No","Nonbinary/third gender","2106463","null","null","","","","clear_screen","","","","","","","","","","","","","","","","","","","","","","","","","",""
"","","","","","canvas-keyboard-response","204","369744","0.0-12.0-2.38","2d_cat_multi_stim_exp1","2022-4-14","15:1:38","25","75","3","9","10","40","30","120","31","20","[""White""]","No","Nonbinary/third gender","2106463","1180","i","learn","","","learn_trial","13.3333","100","out","0","1","","","","","","","","","","","","","","","","","","","","",""
"","","","","","canvas-keyboard-response","205","370254","0.0-12.0-3.38","2d_cat_multi_stim_exp1","2022-4-14","15:1:38","25","75","3","9","10","40","30","120","31","20","[""White""]","No","Nonbinary/third gender","2106463","null","null","learn_feedback","","","learn_feedback","13.3333","100","out","","","","","","","","","","","","","","","","","","","","","","",""
"","","","","","canvas-keyboard-response","206","370314","0.0-12.0-4.38","2d_cat_multi_stim_exp1","2022-4-14","15:1:38","25","75","3","9","10","40","30","120","31","20","[""White""]","No","Nonbinary/third gender","2106463","null","null","","","","clear_screen","","","","","","","","","","","","","","","","","","","","","","","","","",""
"","","","","","canvas-keyboard-response","207","370824","0.0-12.0-0.39","2d_cat_multi_stim_exp1","2022-4-14","15:1:38","25","75","3","9","10","40","30","120","31","20","[""White""]","No","Nonbinary/third gender","2106463","null","null","","","","fixation","","","","","","","","","","","","","","","","","","","","","","","","","",""
"","","","","","canvas-keyboard-response","208","371334","0.0-12.0-1.39","2d_cat_multi_stim_exp1","2022-4-14","15:1:38","25","75","3","9","10","40","30","120","31","20","[""White""]","No","Nonbinary/third gender","2106463","null","null","","","","clear_screen","","","","","","","","","","","","","","","","","","","","","","","","","",""
"","","","","","canvas-keyboard-response","209","380593","0.0-12.0-2.39","2d_cat_multi_stim_exp1","2022-4-14","15:1:38","25","75","3","9","10","40","30","120","31","20","[""White""]","No","Nonbinary/third gender","2106463","9248","i","learn","","","learn_trial","20","120","out","0","1","","","","","","","","","","","","","","","","","","","","",""
"","","","","","canvas-keyboard-response","210","381101","0.0-12.0-3.39","2d_cat_multi_stim_exp1","2022-4-14","15:1:38","25","75","3","9","10","40","30","120","31","20","[""White""]","No","Nonbinary/third gender","2106463","null","null","learn_feedback","","","learn_feedback","20","120","out","","","","","","","","","","","","","","","","","","","","","","",""
"","","","","","canvas-keyboard-response","211","381164","0.0-12.0-4.39","2d_cat_multi_stim_exp1","2022-4-14","15:1:38","25","75","3","9","10","40","30","120","31","20","[""White""]","No","Nonbinary/third gender","2106463","null","null","","","","clear_screen","","","","","","","","","","","","","","","","","","","","","","","","","",""
"","","","","","canvas-keyboard-response","212","381673","0.0-12.0-0.40","2d_cat_multi_stim_exp1","2022-4-14","15:1:38","25","75","3","9","10","40","30","120","31","20","[""White""]","No","Nonbinary/third gender","2106463","null","null","","","","fixation","","","","","","","","","","","","","","","","","","","","","","","","","",""
"","","","","","canvas-keyboard-response","213","382186","0.0-12.0-1.40","2d_cat_multi_stim_exp1","2022-4-14","15:1:38","25","75","3","9","10","40","30","120","31","20","[""White""]","No","Nonbinary/third gender","2106463","null","null","","","","clear_screen","","","","","","","","","","","","","","","","","","","","","","","","","",""
"","","","","","canvas-keyboard-response","214","383736","0.0-12.0-2.40","2d_cat_multi_stim_exp1","2022-4-14","15:1:38","25","75","3","9","10","40","30","120","31","20","[""White""]","No","Nonbinary/third gender","2106463","1542","u","learn","","","learn_trial","28","75","in","1","1","","","","","","","","","","","","","","","","","","","","",""
"","","","","","canvas-keyboard-response","215","384246","0.0-12.0-3.40","2d_cat_multi_stim_exp1","2022-4-14","15:1:38","25","75","3","9","10","40","30","120","31","20","[""White""]","No","Nonbinary/third gender","2106463","null","null","learn_feedback","","","learn_feedback","28","75","in","","","","","","","","","","","","","","","","","","","","","","",""
"","","","","","canvas-keyboard-response","216","384308","0.0-12.0-4.40","2d_cat_multi_stim_exp1","2022-4-14","15:1:38","25","75","3","9","10","40","30","120","31","20","[""White""]","No","Nonbinary/third gender","2106463","null","null","","","","clear_screen","","","","","","","","","","","","","","","","","","","","","","","","","",""
"","","","","","canvas-keyboard-response","217","384816","0.0-12.0-0.41","2d_cat_multi_stim_exp1","2022-4-14","15:1:38","25","75","3","9","10","40","30","120","31","20","[""White""]","No","Nonbinary/third gender","2106463","null","null","","","","fixation","","","","","","","","","","","","","","","","","","","","","","","","","",""
"","","","","","canvas-keyboard-response","218","385326","0.0-12.0-1.41","2d_cat_multi_stim_exp1","2022-4-14","15:1:38","25","75","3","9","10","40","30","120","31","20","[""White""]","No","Nonbinary/third gender","2106463","null","null","","","","clear_screen","","","","","","","","","","","","","","","","","","","","","","","","","",""
"","","","","","canvas-keyboard-response","219","388345","0.0-12.0-2.41","2d_cat_multi_stim_exp1","2022-4-14","15:1:38","25","75","3","9","10","40","30","120","31","20","[""White""]","No","Nonbinary/third gender","2106463","3006","i","learn","","","learn_trial","36.6667","100","out","0","1","","","","","","","","","","","","","","","","","","","","",""
"","","","","","canvas-keyboard-response","220","388858","0.0-12.0-3.41","2d_cat_multi_stim_exp1","2022-4-14","15:1:38","25","75","3","9","10","40","30","120","31","20","[""White""]","No","Nonbinary/third gender","2106463","null","null","learn_feedback","","","learn_feedback","36.6667","100","out","","","","","","","","","","","","","","","","","","","","","","",""
"","","","","","canvas-keyboard-response","221","388921","0.0-12.0-4.41","2d_cat_multi_stim_exp1","2022-4-14","15:1:38","25","75","3","9","10","40","30","120","31","20","[""White""]","No","Nonbinary/third gender","2106463","null","null","","","","clear_screen","","","","","","","","","","","","","","","","","","","","","","","","","",""
"","","","","","canvas-keyboard-response","222","389432","0.0-12.0-0.42","2d_cat_multi_stim_exp1","2022-4-14","15:1:38","25","75","3","9","10","40","30","120","31","20","[""White""]","No","Nonbinary/third gender","2106463","null","null","","","","fixation","","","","","","","","","","","","","","","","","","","","","","","","","",""
"","","","","","canvas-keyboard-response","223","389944","0.0-12.0-1.42","2d_cat_multi_stim_exp1","2022-4-14","15:1:38","25","75","3","9","10","40","30","120","31","20","[""White""]","No","Nonbinary/third gender","2106463","null","null","","","","clear_screen","","","","","","","","","","","","","","","","","","","","","","","","","",""
"","","","","","canvas-keyboard-response","224","390656","0.0-12.0-2.42","2d_cat_multi_stim_exp1","2022-4-14","15:1:38","25","75","3","9","10","40","30","120","31","20","[""White""]","No","Nonbinary/third gender","2106463","704","i","learn","","","learn_trial","40","90","out","0","1","","","","","","","","","","","","","","","","","","","","",""
"","","","","","canvas-keyboard-response","225","391169","0.0-12.0-3.42","2d_cat_multi_stim_exp1","2022-4-14","15:1:38","25","75","3","9","10","40","30","120","31","20","[""White""]","No","Nonbinary/third gender","2106463","null","null","learn_feedback","","","learn_feedback","40","90","out","","","","","","","","","","","","","","","","","","","","","","",""
"","","","","","canvas-keyboard-response","226","391228","0.0-12.0-4.42","2d_cat_multi_stim_exp1","2022-4-14","15:1:38","25","75","3","9","10","40","30","120","31","20","[""White""]","No","Nonbinary/third gender","2106463","null","null","","","","clear_screen","","","","","","","","","","","","","","","","","","","","","","","","","",""
"","","","","","canvas-keyboard-response","227","391739","0.0-12.0-0.43","2d_cat_multi_stim_exp1","2022-4-14","15:1:38","25","75","3","9","10","40","30","120","31","20","[""White""]","No","Nonbinary/third gender","2106463","null","null","","","","fixation","","","","","","","","","","","","","","","","","","","","","","","","","",""
"","","","","","canvas-keyboard-response","228","392249","0.0-12.0-1.43","2d_cat_multi_stim_exp1","2022-4-14","15:1:38","25","75","3","9","10","40","30","120","31","20","[""White""]","No","Nonbinary/third gender","2106463","null","null","","","","clear_screen","","","","","","","","","","","","","","","","","","","","","","","","","",""
"","","","","","canvas-keyboard-response","229","393314","0.0-12.0-2.43","2d_cat_multi_stim_exp1","2022-4-14","15:1:38","25","75","3","9","10","40","30","120","31","20","[""White""]","No","Nonbinary/third gender","2106463","1055","u","learn","","","learn_trial","26.4216","67.0746","in","1","1","","","","","","","","","","","","","","","","","","","","",""
"","","","","","canvas-keyboard-response","230","393824","0.0-12.0-3.43","2d_cat_multi_stim_exp1","2022-4-14","15:1:38","25","75","3","9","10","40","30","120","31","20","[""White""]","No","Nonbinary/third gender","2106463","null","null","learn_feedback","","","learn_feedback","26.4216","67.0746","in","","","","","","","","","","","","","","","","","","","","","","",""
"","","","","","canvas-keyboard-response","231","393888","0.0-12.0-4.43","2d_cat_multi_stim_exp1","2022-4-14","15:1:38","25","75","3","9","10","40","30","120","31","20","[""White""]","No","Nonbinary/third gender","2106463","null","null","","","","clear_screen","","","","","","","","","","","","","","","","","","","","","","","","","",""
"","","","","","canvas-keyboard-response","232","394399","0.0-12.0-0.44","2d_cat_multi_stim_exp1","2022-4-14","15:1:38","25","75","3","9","10","40","30","120","31","20","[""White""]","No","Nonbinary/third gender","2106463","null","null","","","","fixation","","","","","","","","","","","","","","","","","","","","","","","","","",""
"","","","","","canvas-keyboard-response","233","394908","0.0-12.0-1.44","2d_cat_multi_stim_exp1","2022-4-14","15:1:38","25","75","3","9","10","40","30","120","31","20","[""White""]","No","Nonbinary/third gender","2106463","null","null","","","","clear_screen","","","","","","","","","","","","","","","","","","","","","","","","","",""
"","","","","","canvas-keyboard-response","234","396072","0.0-12.0-2.44","2d_cat_multi_stim_exp1","2022-4-14","15:1:38","25","75","3","9","10","40","30","120","31","20","[""White""]","No","Nonbinary/third gender","2106463","1152","i","learn","","","learn_trial","10","80","out","0","1","","","","","","","","","","","","","","","","","","","","",""
"","","","","","canvas-keyboard-response","235","396582","0.0-12.0-3.44","2d_cat_multi_stim_exp1","2022-4-14","15:1:38","25","75","3","9","10","40","30","120","31","20","[""White""]","No","Nonbinary/third gender","2106463","null","null","learn_feedback","","","learn_feedback","10","80","out","","","","","","","","","","","","","","","","","","","","","","",""
"","","","","","canvas-keyboard-response","236","396640","0.0-12.0-4.44","2d_cat_multi_stim_exp1","2022-4-14","15:1:38","25","75","3","9","10","40","30","120","31","20","[""White""]","No","Nonbinary/third gender","2106463","null","null","","","","clear_screen","","","","","","","","","","","","","","","","","","","","","","","","","",""
"","","","","","canvas-keyboard-response","237","397148","0.0-12.0-0.45","2d_cat_multi_stim_exp1","2022-4-14","15:1:38","25","75","3","9","10","40","30","120","31","20","[""White""]","No","Nonbinary/third gender","2106463","null","null","","","","fixation","","","","","","","","","","","","","","","","","","","","","","","","","",""
"","","","","","canvas-keyboard-response","238","397661","0.0-12.0-1.45","2d_cat_multi_stim_exp1","2022-4-14","15:1:38","25","75","3","9","10","40","30","120","31","20","[""White""]","No","Nonbinary/third gender","2106463","null","null","","","","clear_screen","","","","","","","","","","","","","","","","","","","","","","","","","",""
"","","","","","canvas-keyboard-response","239","398673","0.0-12.0-2.45","2d_cat_multi_stim_exp1","2022-4-14","15:1:38","25","75","3","9","10","40","30","120","31","20","[""White""]","No","Nonbinary/third gender","2106463","1001","u","learn","","","learn_trial","25","75","in","1","1","","","","","","","","","","","","","","","","","","","","",""
"","","","","","canvas-keyboard-response","240","399185","0.0-12.0-3.45","2d_cat_multi_stim_exp1","2022-4-14","15:1:38","25","75","3","9","10","40","30","120","31","20","[""White""]","No","Nonbinary/third gender","2106463","null","null","learn_feedback","","","learn_feedback","25","75","in","","","","","","","","","","","","","","","","","","","","","","",""
"","","","","","canvas-keyboard-response","241","399243","0.0-12.0-4.45","2d_cat_multi_stim_exp1","2022-4-14","15:1:38","25","75","3","9","10","40","30","120","31","20","[""White""]","No","Nonbinary/third gender","2106463","null","null","","","","clear_screen","","","","","","","","","","","","","","","","","","","","","","","","","",""
"","","","","","canvas-keyboard-response","242","399752","0.0-12.0-0.46","2d_cat_multi_stim_exp1","2022-4-14","15:1:38","25","75","3","9","10","40","30","120","31","20","[""White""]","No","Nonbinary/third gender","2106463","null","null","","","","fixation","","","","","","","","","","","","","","","","","","","","","","","","","",""
"","","","","","canvas-keyboard-response","243","400265","0.0-12.0-1.46","2d_cat_multi_stim_exp1","2022-4-14","15:1:38","25","75","3","9","10","40","30","120","31","20","[""White""]","No","Nonbinary/third gender","2106463","null","null","","","","clear_screen","","","","","","","","","","","","","","","","","","","","","","","","","",""
"","","","","","canvas-keyboard-response","244","401672","0.0-12.0-2.46","2d_cat_multi_stim_exp1","2022-4-14","15:1:38","25","75","3","9","10","40","30","120","31","20","[""White""]","No","Nonbinary/third gender","2106463","1398","i","learn","","","learn_trial","36.6667","50","out","0","1","","","","","","","","","","","","","","","","","","","","",""
"","","","","","canvas-keyboard-response","245","402183","0.0-12.0-3.46","2d_cat_multi_stim_exp1","2022-4-14","15:1:38","25","75","3","9","10","40","30","120","31","20","[""White""]","No","Nonbinary/third gender","2106463","null","null","learn_feedback","","","learn_feedback","36.6667","50","out","","","","","","","","","","","","","","","","","","","","","","",""
"","","","","","canvas-keyboard-response","246","402243","0.0-12.0-4.46","2d_cat_multi_stim_exp1","2022-4-14","15:1:38","25","75","3","9","10","40","30","120","31","20","[""White""]","No","Nonbinary/third gender","2106463","null","null","","","","clear_screen","","","","","","","","","","","","","","","","","","","","","","","","","",""
"","","","","","canvas-keyboard-response","247","402750","0.0-12.0-0.47","2d_cat_multi_stim_exp1","2022-4-14","15:1:38","25","75","3","9","10","40","30","120","31","20","[""White""]","No","Nonbinary/third gender","2106463","null","null","","","","fixation","","","","","","","","","","","","","","","","","","","","","","","","","",""
"","","","","","canvas-keyboard-response","248","403262","0.0-12.0-1.47","2d_cat_multi_stim_exp1","2022-4-14","15:1:38","25","75","3","9","10","40","30","120","31","20","[""White""]","No","Nonbinary/third gender","2106463","null","null","","","","clear_screen","","","","","","","","","","","","","","","","","","","","","","","","","",""
"","","","","","canvas-keyboard-response","249","404848","0.0-12.0-2.47","2d_cat_multi_stim_exp1","2022-4-14","15:1:38","25","75","3","9","10","40","30","120","31","20","[""White""]","No","Nonbinary/third gender","2106463","1574","i","learn","","","learn_trial","10","50","out","0","1","","","","","","","","","","","","","","","","","","","","",""
"","","","","","canvas-keyboard-response","250","405359","0.0-12.0-3.47","2d_cat_multi_stim_exp1","2022-4-14","15:1:38","25","75","3","9","10","40","30","120","31","20","[""White""]","No","Nonbinary/third gender","2106463","null","null","learn_feedback","","","learn_feedback","10","50","out","","","","","","","","","","","","","","","","","","","","","","",""
"","","","","","canvas-keyboard-response","251","405422","0.0-12.0-4.47","2d_cat_multi_stim_exp1","2022-4-14","15:1:38","25","75","3","9","10","40","30","120","31","20","[""White""]","No","Nonbinary/third gender","2106463","null","null","","","","clear_screen","","","","","","","","","","","","","","","","","","","","","","","","","",""
"","","","","","canvas-keyboard-response","252","405931","0.0-12.0-0.48","2d_cat_multi_stim_exp1","2022-4-14","15:1:38","25","75","3","9","10","40","30","120","31","20","[""White""]","No","Nonbinary/third gender","2106463","null","null","","","","fixation","","","","","","","","","","","","","","","","","","","","","","","","","",""
"","","","","","canvas-keyboard-response","253","406441","0.0-12.0-1.48","2d_cat_multi_stim_exp1","2022-4-14","15:1:38","25","75","3","9","10","40","30","120","31","20","[""White""]","No","Nonbinary/third gender","2106463","null","null","","","","clear_screen","","","","","","","","","","","","","","","","","","","","","","","","","",""
"","","","","","canvas-keyboard-response","254","407457","0.0-12.0-2.48","2d_cat_multi_stim_exp1","2022-4-14","15:1:38","25","75","3","9","10","40","30","120","31","20","[""White""]","No","Nonbinary/third gender","2106463","1005","u","learn","","","learn_trial","25","75","in","1","1","","","","","","","","","","","","","","","","","","","","",""
"","","","","","canvas-keyboard-response","255","407966","0.0-12.0-3.48","2d_cat_multi_stim_exp1","2022-4-14","15:1:38","25","75","3","9","10","40","30","120","31","20","[""White""]","No","Nonbinary/third gender","2106463","null","null","learn_feedback","","","learn_feedback","25","75","in","","","","","","","","","","","","","","","","","","","","","","",""
"","","","","","canvas-keyboard-response","256","408025","0.0-12.0-4.48","2d_cat_multi_stim_exp1","2022-4-14","15:1:38","25","75","3","9","10","40","30","120","31","20","[""White""]","No","Nonbinary/third gender","2106463","null","null","","","","clear_screen","","","","","","","","","","","","","","","","","","","","","","","","","",""
"","","","","","canvas-keyboard-response","257","408533","0.0-12.0-0.49","2d_cat_multi_stim_exp1","2022-4-14","15:1:38","25","75","3","9","10","40","30","120","31","20","[""White""]","No","Nonbinary/third gender","2106463","null","null","","","","fixation","","","","","","","","","","","","","","","","","","","","","","","","","",""
"","","","","","canvas-keyboard-response","258","409043","0.0-12.0-1.49","2d_cat_multi_stim_exp1","2022-4-14","15:1:38","25","75","3","9","10","40","30","120","31","20","[""White""]","No","Nonbinary/third gender","2106463","null","null","","","","clear_screen","","","","","","","","","","","","","","","","","","","","","","","","","",""
"","","","","","canvas-keyboard-response","259","411120","0.0-12.0-2.49","2d_cat_multi_stim_exp1","2022-4-14","15:1:38","25","75","3","9","10","40","30","120","31","20","[""White""]","No","Nonbinary/third gender","2106463","2068","i","learn","","","learn_trial","36.6667","30","out","0","1","","","","","","","","","","","","","","","","","","","","",""
"","","","","","canvas-keyboard-response","260","411629","0.0-12.0-3.49","2d_cat_multi_stim_exp1","2022-4-14","15:1:38","25","75","3","9","10","40","30","120","31","20","[""White""]","No","Nonbinary/third gender","2106463","null","null","learn_feedback","","","learn_feedback","36.6667","30","out","","","","","","","","","","","","","","","","","","","","","","",""
"","","","","","canvas-keyboard-response","261","411688","0.0-12.0-4.49","2d_cat_multi_stim_exp1","2022-4-14","15:1:38","25","75","3","9","10","40","30","120","31","20","[""White""]","No","Nonbinary/third gender","2106463","null","null","","","","clear_screen","","","","","","","","","","","","","","","","","","","","","","","","","",""
"","","","","","canvas-keyboard-response","262","412199","0.0-12.0-0.50","2d_cat_multi_stim_exp1","2022-4-14","15:1:38","25","75","3","9","10","40","30","120","31","20","[""White""]","No","Nonbinary/third gender","2106463","null","null","","","","fixation","","","","","","","","","","","","","","","","","","","","","","","","","",""
"","","","","","canvas-keyboard-response","263","412709","0.0-12.0-1.50","2d_cat_multi_stim_exp1","2022-4-14","15:1:38","25","75","3","9","10","40","30","120","31","20","[""White""]","No","Nonbinary/third gender","2106463","null","null","","","","clear_screen","","","","","","","","","","","","","","","","","","","","","","","","","",""
"","","","","","canvas-keyboard-response","264","421040","0.0-12.0-2.50","2d_cat_multi_stim_exp1","2022-4-14","15:1:38","25","75","3","9","10","40","30","120","31","20","[""White""]","No","Nonbinary/third gender","2106463","8320","u","learn","","","learn_trial","27.5753","70.3839","in","1","1","","","","","","","","","","","","","","","","","","","","",""
"","","","","","canvas-keyboard-response","265","421549","0.0-12.0-3.50","2d_cat_multi_stim_exp1","2022-4-14","15:1:38","25","75","3","9","10","40","30","120","31","20","[""White""]","No","Nonbinary/third gender","2106463","null","null","learn_feedback","","","learn_feedback","27.5753","70.3839","in","","","","","","","","","","","","","","","","","","","","","","",""
"","","","","","canvas-keyboard-response","266","421609","0.0-12.0-4.50","2d_cat_multi_stim_exp1","2022-4-14","15:1:38","25","75","3","9","10","40","30","120","31","20","[""White""]","No","Nonbinary/third gender","2106463","null","null","","","","clear_screen","","","","","","","","","","","","","","","","","","","","","","","","","",""
"","","","","","canvas-keyboard-response","267","422119","0.0-12.0-0.51","2d_cat_multi_stim_exp1","2022-4-14","15:1:38","25","75","3","9","10","40","30","120","31","20","[""White""]","No","Nonbinary/third gender","2106463","null","null","","","","fixation","","","","","","","","","","","","","","","","","","","","","","","","","",""
"","","","","","canvas-keyboard-response","268","422627","0.0-12.0-1.51","2d_cat_multi_stim_exp1","2022-4-14","15:1:38","25","75","3","9","10","40","30","120","31","20","[""White""]","No","Nonbinary/third gender","2106463","null","null","","","","clear_screen","","","","","","","","","","","","","","","","","","","","","","","","","",""
"","","","","","canvas-keyboard-response","269","423857","0.0-12.0-2.51","2d_cat_multi_stim_exp1","2022-4-14","15:1:38","25","75","3","9","10","40","30","120","31","20","[""White""]","No","Nonbinary/third gender","2106463","1221","i","learn","","","learn_trial","25","93","in","0","0","","","","","","","","","","","","","","","","","","","","",""
"","","","","","canvas-keyboard-response","270","424868","0.0-12.0-3.51","2d_cat_multi_stim_exp1","2022-4-14","15:1:38","25","75","3","9","10","40","30","120","31","20","[""White""]","No","Nonbinary/third gender","2106463","null","null","learn_feedback","","","learn_feedback","25","93","in","","","","","","","","","","","","","","","","","","","","","","",""
"","","","","","canvas-keyboard-response","271","424931","0.0-12.0-4.51","2d_cat_multi_stim_exp1","2022-4-14","15:1:38","25","75","3","9","10","40","30","120","31","20","[""White""]","No","Nonbinary/third gender","2106463","null","null","","","","clear_screen","","","","","","","","","","","","","","","","","","","","","","","","","",""
"","","","","","canvas-keyboard-response","272","425442","0.0-12.0-0.52","2d_cat_multi_stim_exp1","2022-4-14","15:1:38","25","75","3","9","10","40","30","120","31","20","[""White""]","No","Nonbinary/third gender","2106463","null","null","","","","fixation","","","","","","","","","","","","","","","","","","","","","","","","","",""
"","","","","","canvas-keyboard-response","273","425958","0.0-12.0-1.52","2d_cat_multi_stim_exp1","2022-4-14","15:1:38","25","75","3","9","10","40","30","120","31","20","[""White""]","No","Nonbinary/third gender","2106463","null","null","","","","clear_screen","","","","","","","","","","","","","","","","","","","","","","","","","",""
"","","","","","canvas-keyboard-response","274","429698","0.0-12.0-2.52","2d_cat_multi_stim_exp1","2022-4-14","15:1:38","25","75","3","9","10","40","30","120","31","20","[""White""]","No","Nonbinary/third gender","2106463","3725","u","learn","","","learn_trial","27.2592","80.9214","in","1","1","","","","","","","","","","","","","","","","","","","","",""
"","","","","","canvas-keyboard-response","275","430209","0.0-12.0-3.52","2d_cat_multi_stim_exp1","2022-4-14","15:1:38","25","75","3","9","10","40","30","120","31","20","[""White""]","No","Nonbinary/third gender","2106463","null","null","learn_feedback","","","learn_feedback","27.2592","80.9214","in","","","","","","","","","","","","","","","","","","","","","","",""
"","","","","","canvas-keyboard-response","276","430270","0.0-12.0-4.52","2d_cat_multi_stim_exp1","2022-4-14","15:1:38","25","75","3","9","10","40","30","120","31","20","[""White""]","No","Nonbinary/third gender","2106463","null","null","","","","clear_screen","","","","","","","","","","","","","","","","","","","","","","","","","",""
"","","","","","canvas-keyboard-response","277","430780","0.0-12.0-0.53","2d_cat_multi_stim_exp1","2022-4-14","15:1:38","25","75","3","9","10","40","30","120","31","20","[""White""]","No","Nonbinary/third gender","2106463","null","null","","","","fixation","","","","","","","","","","","","","","","","","","","","","","","","","",""
"","","","","","canvas-keyboard-response","278","431292","0.0-12.0-1.53","2d_cat_multi_stim_exp1","2022-4-14","15:1:38","25","75","3","9","10","40","30","120","31","20","[""White""]","No","Nonbinary/third gender","2106463","null","null","","","","clear_screen","","","","","","","","","","","","","","","","","","","","","","","","","",""
"","","","","","canvas-keyboard-response","279","432504","0.0-12.0-2.53","2d_cat_multi_stim_exp1","2022-4-14","15:1:38","25","75","3","9","10","40","30","120","31","20","[""White""]","No","Nonbinary/third gender","2106463","1203","i","learn","","","learn_trial","33.3333","50","out","0","1","","","","","","","","","","","","","","","","","","","","",""
"","","","","","canvas-keyboard-response","280","433017","0.0-12.0-3.53","2d_cat_multi_stim_exp1","2022-4-14","15:1:38","25","75","3","9","10","40","30","120","31","20","[""White""]","No","Nonbinary/third gender","2106463","null","null","learn_feedback","","","learn_feedback","33.3333","50","out","","","","","","","","","","","","","","","","","","","","","","",""
"","","","","","canvas-keyboard-response","281","433075","0.0-12.0-4.53","2d_cat_multi_stim_exp1","2022-4-14","15:1:38","25","75","3","9","10","40","30","120","31","20","[""White""]","No","Nonbinary/third gender","2106463","null","null","","","","clear_screen","","","","","","","","","","","","","","","","","","","","","","","","","",""
"","","","","","canvas-keyboard-response","282","433592","0.0-12.0-0.54","2d_cat_multi_stim_exp1","2022-4-14","15:1:38","25","75","3","9","10","40","30","120","31","20","[""White""]","No","Nonbinary/third gender","2106463","null","null","","","","fixation","","","","","","","","","","","","","","","","","","","","","","","","","",""
"","","","","","canvas-keyboard-response","283","434103","0.0-12.0-1.54","2d_cat_multi_stim_exp1","2022-4-14","15:1:38","25","75","3","9","10","40","30","120","31","20","[""White""]","No","Nonbinary/third gender","2106463","null","null","","","","clear_screen","","","","","","","","","","","","","","","","","","","","","","","","","",""
