"success","timeout","failed_images","failed_audio","failed_video","trial_type","trial_index","time_elapsed","internal_node_id","exp_name","date","time","angle_mean_in","radius_mean_in","angle_sd_in","radius_sd_in","angle_min_out","angle_max_out","radius_min_out","radius_max_out","sub_n","age","race","ethnicity","gender","exp_duration","rt","response","exp_trial_type","stimulus","view_history","screen_id","angle","radius","distribution","choice","correct","order","angle_a","radius_a","angle_b","radius_b","angle_c","radius_c","jkl_correct","transfer_trial_type","choice_set","abc_correct","tc_correct","tc_angle","tdc_a","tdc_b","tdc_c","pair","category_a","category_b","category_c","question_order"
"true","false","[]","[]","[]","preload","0","16","0.0-0.0","2d_cat_multi_stim_exp1","2022-4-25","15:47:5","25","75","3","9","10","40","30","120","57","20","[""White""]","No","Female","2231433","","","","","","","","","","","","","","","","","","","","","","","","","","","","","","","",""
"","","","","","survey-html-form","1","4347","0.0-1.0","2d_cat_multi_stim_exp1","2022-4-25","15:47:5","25","75","3","9","10","40","30","120","57","20","[""White""]","No","Female","2231433","4320","{""response"":""57""}","enter-sub-number","","","","","","","","","","","","","","","","","","","","","","","","","","","","",""
"true","","","","","fullscreen","2","6290","0.0-2.0","2d_cat_multi_stim_exp1","2022-4-25","15:47:5","25","75","3","9","10","40","30","120","57","20","[""White""]","No","Female","2231433","","","","","","","","","","","","","","","","","","","","","","","","","","","","","","","",""
"","","","","","image-button-response","3","82186","0.0-3.0","2d_cat_multi_stim_exp1","2022-4-25","15:47:5","25","75","3","9","10","40","30","120","57","20","[""White""]","No","Female","2231433","75887","0","","consent.png","","","","","","","","","","","","","","","","","","","","","","","","","","","",""
"","","","","","html-button-response","4","88931","0.0-4.0","2d_cat_multi_stim_exp1","2022-4-25","15:47:5","25","75","3","9","10","40","30","120","57","20","[""White""]","No","Female","2231433","6740","0","","<div style= ""font-size:25px;"" <p> <strong> Welcome to the experiment! </strong><br> <p style=""color:#8B0000; font-size:25px;""><strong> Please do NOT exit full screen until you are done with the experiment. </strong> </p><p style=""font-size:25px;color:#8B0000;""> <strong> The experiment will be canceled and your data will be lost <br> if you try to go back or refresh the page at any point during the experiment.</strong> </p><br><p> <strong> Thanks in advance for your contribution to our research! </strong></p>","","","","","","","","","","","","","","","","","","","","","","","","","","","",""
"","","","","","instructions","5","161299","0.0-5.0","2d_cat_multi_stim_exp1","2022-4-25","15:47:5","25","75","3","9","10","40","30","120","57","20","[""White""]","No","Female","2231433","72361","","","","[{""page_index"":0,""viewing_time"":9871},{""page_index"":1,""viewing_time"":4113},{""page_index"":2,""viewing_time"":16343},{""page_index"":3,""viewing_time"":42033}]","instructions_1","","","","","","","","","","","","","","","","","","","","","","","","","",""
"","","","","","instructions","6","164617","0.0-6.0","2d_cat_multi_stim_exp1","2022-4-25","15:47:5","25","75","3","9","10","40","30","120","57","20","[""White""]","No","Female","2231433","3316","","","","[{""page_index"":0,""viewing_time"":3316}]","Click to see the kinds of turtles that will appear in the study.","","","","","","","","","","","","","","","","","","","","","","","","","",""
"","","","","","canvas-keyboard-response","7","179635","0.0-7.0","2d_cat_multi_stim_exp1","2022-4-25","15:47:5","25","75","3","9","10","40","30","120","57","20","[""White""]","No","Female","2231433","null","null","","","","demo_range","","","","","","","","","","","","","","","","","","","","","","","","","",""
"","","","","","instructions","8","184042","0.0-8.0","2d_cat_multi_stim_exp1","2022-4-25","15:47:5","25","75","3","9","10","40","30","120","57","20","[""White""]","No","Female","2231433","3906","","","","[{""page_index"":0,""viewing_time"":3906}]","Click to see some turtles in the subspecies.","","","","","","","","","","","","","","","","","","","","","","","","","",""
"","","","","","canvas-keyboard-response","9","199056","0.0-9.0","2d_cat_multi_stim_exp1","2022-4-25","15:47:5","25","75","3","9","10","40","30","120","57","20","[""White""]","No","Female","2231433","null","null","","","","demo_in","","","","","","","","","","","","","","","","","","","","","","","","","",""
"","","","","","instructions","10","255802","0.0-10.0","2d_cat_multi_stim_exp1","2022-4-25","15:47:5","25","75","3","9","10","40","30","120","57","20","[""White""]","No","Female","2231433","56244","","","","[{""page_index"":0,""viewing_time"":7875},{""page_index"":1,""viewing_time"":39135},{""page_index"":2,""viewing_time"":9233}]","instructions_2","","","","","","","","","","","","","","","","","","","","","","","","","",""
"","","","","","instructions","11","259113","0.0-11.0","2d_cat_multi_stim_exp1","2022-4-25","15:47:5","25","75","3","9","10","40","30","120","57","20","[""White""]","No","Female","2231433","3308","","","","[{""page_index"":0,""viewing_time"":3308}]","Click to begin the first phase of the experiment.","","","","","","","","","","","","","","","","","","","","","","","","","",""
"","","","","","canvas-keyboard-response","12","259624","0.0-12.0-0.0","2d_cat_multi_stim_exp1","2022-4-25","15:47:5","25","75","3","9","10","40","30","120","57","20","[""White""]","No","Female","2231433","null","null","","","","fixation","","","","","","","","","","","","","","","","","","","","","","","","","",""
"","","","","","canvas-keyboard-response","13","260135","0.0-12.0-1.0","2d_cat_multi_stim_exp1","2022-4-25","15:47:5","25","75","3","9","10","40","30","120","57","20","[""White""]","No","Female","2231433","null","null","","","","clear_screen","","","","","","","","","","","","","","","","","","","","","","","","","",""
"","","","","","canvas-keyboard-response","14","264482","0.0-12.0-2.0","2d_cat_multi_stim_exp1","2022-4-25","15:47:5","25","75","3","9","10","40","30","120","57","20","[""White""]","No","Female","2231433","4338","u","learn","","","learn_trial","25","75","in","1","1","","","","","","","","","","","","","","","","","","","","",""
"","","","","","canvas-keyboard-response","15","264995","0.0-12.0-3.0","2d_cat_multi_stim_exp1","2022-4-25","15:47:5","25","75","3","9","10","40","30","120","57","20","[""White""]","No","Female","2231433","null","null","learn_feedback","","","learn_feedback","25","75","in","","","","","","","","","","","","","","","","","","","","","","",""
"","","","","","canvas-keyboard-response","16","265058","0.0-12.0-4.0","2d_cat_multi_stim_exp1","2022-4-25","15:47:5","25","75","3","9","10","40","30","120","57","20","[""White""]","No","Female","2231433","null","null","","","","clear_screen","","","","","","","","","","","","","","","","","","","","","","","","","",""
"","","","","","canvas-keyboard-response","17","265569","0.0-12.0-0.1","2d_cat_multi_stim_exp1","2022-4-25","15:47:5","25","75","3","9","10","40","30","120","57","20","[""White""]","No","Female","2231433","null","null","","","","fixation","","","","","","","","","","","","","","","","","","","","","","","","","",""
"","","","","","canvas-keyboard-response","18","266080","0.0-12.0-1.1","2d_cat_multi_stim_exp1","2022-4-25","15:47:5","25","75","3","9","10","40","30","120","57","20","[""White""]","No","Female","2231433","null","null","","","","clear_screen","","","","","","","","","","","","","","","","","","","","","","","","","",""
"","","","","","canvas-keyboard-response","19","269082","0.0-12.0-2.1","2d_cat_multi_stim_exp1","2022-4-25","15:47:5","25","75","3","9","10","40","30","120","57","20","[""White""]","No","Female","2231433","2992","u","learn","","","learn_trial","29.2426","87.7279","in","1","1","","","","","","","","","","","","","","","","","","","","",""
"","","","","","canvas-keyboard-response","20","269593","0.0-12.0-3.1","2d_cat_multi_stim_exp1","2022-4-25","15:47:5","25","75","3","9","10","40","30","120","57","20","[""White""]","No","Female","2231433","null","null","learn_feedback","","","learn_feedback","29.2426","87.7279","in","","","","","","","","","","","","","","","","","","","","","","",""
"","","","","","canvas-keyboard-response","21","269656","0.0-12.0-4.1","2d_cat_multi_stim_exp1","2022-4-25","15:47:5","25","75","3","9","10","40","30","120","57","20","[""White""]","No","Female","2231433","null","null","","","","clear_screen","","","","","","","","","","","","","","","","","","","","","","","","","",""
"","","","","","canvas-keyboard-response","22","270167","0.0-12.0-0.2","2d_cat_multi_stim_exp1","2022-4-25","15:47:5","25","75","3","9","10","40","30","120","57","20","[""White""]","No","Female","2231433","null","null","","","","fixation","","","","","","","","","","","","","","","","","","","","","","","","","",""
"","","","","","canvas-keyboard-response","23","270681","0.0-12.0-1.2","2d_cat_multi_stim_exp1","2022-4-25","15:47:5","25","75","3","9","10","40","30","120","57","20","[""White""]","No","Female","2231433","null","null","","","","clear_screen","","","","","","","","","","","","","","","","","","","","","","","","","",""
"","","","","","canvas-keyboard-response","24","273290","0.0-12.0-2.2","2d_cat_multi_stim_exp1","2022-4-25","15:47:5","25","75","3","9","10","40","30","120","57","20","[""White""]","No","Female","2231433","2601","u","learn","","","learn_trial","25","75","in","1","1","","","","","","","","","","","","","","","","","","","","",""
"","","","","","canvas-keyboard-response","25","273799","0.0-12.0-3.2","2d_cat_multi_stim_exp1","2022-4-25","15:47:5","25","75","3","9","10","40","30","120","57","20","[""White""]","No","Female","2231433","null","null","learn_feedback","","","learn_feedback","25","75","in","","","","","","","","","","","","","","","","","","","","","","",""
"","","","","","canvas-keyboard-response","26","273860","0.0-12.0-4.2","2d_cat_multi_stim_exp1","2022-4-25","15:47:5","25","75","3","9","10","40","30","120","57","20","[""White""]","No","Female","2231433","null","null","","","","clear_screen","","","","","","","","","","","","","","","","","","","","","","","","","",""
"","","","","","canvas-keyboard-response","27","274369","0.0-12.0-0.3","2d_cat_multi_stim_exp1","2022-4-25","15:47:5","25","75","3","9","10","40","30","120","57","20","[""White""]","No","Female","2231433","null","null","","","","fixation","","","","","","","","","","","","","","","","","","","","","","","","","",""
"","","","","","canvas-keyboard-response","28","274876","0.0-12.0-1.3","2d_cat_multi_stim_exp1","2022-4-25","15:47:5","25","75","3","9","10","40","30","120","57","20","[""White""]","No","Female","2231433","null","null","","","","clear_screen","","","","","","","","","","","","","","","","","","","","","","","","","",""
"","","","","","canvas-keyboard-response","29","277545","0.0-12.0-2.3","2d_cat_multi_stim_exp1","2022-4-25","15:47:5","25","75","3","9","10","40","30","120","57","20","[""White""]","No","Female","2231433","2658","u","learn","","","learn_trial","27.2592","80.9214","in","1","1","","","","","","","","","","","","","","","","","","","","",""
"","","","","","canvas-keyboard-response","30","278056","0.0-12.0-3.3","2d_cat_multi_stim_exp1","2022-4-25","15:47:5","25","75","3","9","10","40","30","120","57","20","[""White""]","No","Female","2231433","null","null","learn_feedback","","","learn_feedback","27.2592","80.9214","in","","","","","","","","","","","","","","","","","","","","","","",""
"","","","","","canvas-keyboard-response","31","278115","0.0-12.0-4.3","2d_cat_multi_stim_exp1","2022-4-25","15:47:5","25","75","3","9","10","40","30","120","57","20","[""White""]","No","Female","2231433","null","null","","","","clear_screen","","","","","","","","","","","","","","","","","","","","","","","","","",""
"","","","","","canvas-keyboard-response","32","278624","0.0-12.0-0.4","2d_cat_multi_stim_exp1","2022-4-25","15:47:5","25","75","3","9","10","40","30","120","57","20","[""White""]","No","Female","2231433","null","null","","","","fixation","","","","","","","","","","","","","","","","","","","","","","","","","",""
"","","","","","canvas-keyboard-response","33","279137","0.0-12.0-1.4","2d_cat_multi_stim_exp1","2022-4-25","15:47:5","25","75","3","9","10","40","30","120","57","20","[""White""]","No","Female","2231433","null","null","","","","clear_screen","","","","","","","","","","","","","","","","","","","","","","","","","",""
"","","","","","canvas-keyboard-response","34","281218","0.0-12.0-2.4","2d_cat_multi_stim_exp1","2022-4-25","15:47:5","25","75","3","9","10","40","30","120","57","20","[""White""]","No","Female","2231433","2073","u","learn","","","learn_trial","25","75","in","1","1","","","","","","","","","","","","","","","","","","","","",""
"","","","","","canvas-keyboard-response","35","281726","0.0-12.0-3.4","2d_cat_multi_stim_exp1","2022-4-25","15:47:5","25","75","3","9","10","40","30","120","57","20","[""White""]","No","Female","2231433","null","null","learn_feedback","","","learn_feedback","25","75","in","","","","","","","","","","","","","","","","","","","","","","",""
"","","","","","canvas-keyboard-response","36","281787","0.0-12.0-4.4","2d_cat_multi_stim_exp1","2022-4-25","15:47:5","25","75","3","9","10","40","30","120","57","20","[""White""]","No","Female","2231433","null","null","","","","clear_screen","","","","","","","","","","","","","","","","","","","","","","","","","",""
"","","","","","canvas-keyboard-response","37","282295","0.0-12.0-0.5","2d_cat_multi_stim_exp1","2022-4-25","15:47:5","25","75","3","9","10","40","30","120","57","20","[""White""]","No","Female","2231433","null","null","","","","fixation","","","","","","","","","","","","","","","","","","","","","","","","","",""
"","","","","","canvas-keyboard-response","38","282806","0.0-12.0-1.5","2d_cat_multi_stim_exp1","2022-4-25","15:47:5","25","75","3","9","10","40","30","120","57","20","[""White""]","No","Female","2231433","null","null","","","","clear_screen","","","","","","","","","","","","","","","","","","","","","","","","","",""
"","","","","","canvas-keyboard-response","39","284856","0.0-12.0-2.5","2d_cat_multi_stim_exp1","2022-4-25","15:47:5","25","75","3","9","10","40","30","120","57","20","[""White""]","No","Female","2231433","2037","u","learn","","","learn_trial","25","75","in","1","1","","","","","","","","","","","","","","","","","","","","",""
"","","","","","canvas-keyboard-response","40","285363","0.0-12.0-3.5","2d_cat_multi_stim_exp1","2022-4-25","15:47:5","25","75","3","9","10","40","30","120","57","20","[""White""]","No","Female","2231433","null","null","learn_feedback","","","learn_feedback","25","75","in","","","","","","","","","","","","","","","","","","","","","","",""
"","","","","","canvas-keyboard-response","41","285422","0.0-12.0-4.5","2d_cat_multi_stim_exp1","2022-4-25","15:47:5","25","75","3","9","10","40","30","120","57","20","[""White""]","No","Female","2231433","null","null","","","","clear_screen","","","","","","","","","","","","","","","","","","","","","","","","","",""
"","","","","","canvas-keyboard-response","42","285931","0.0-12.0-0.6","2d_cat_multi_stim_exp1","2022-4-25","15:47:5","25","75","3","9","10","40","30","120","57","20","[""White""]","No","Female","2231433","null","null","","","","fixation","","","","","","","","","","","","","","","","","","","","","","","","","",""
"","","","","","canvas-keyboard-response","43","286444","0.0-12.0-1.6","2d_cat_multi_stim_exp1","2022-4-25","15:47:5","25","75","3","9","10","40","30","120","57","20","[""White""]","No","Female","2231433","null","null","","","","clear_screen","","","","","","","","","","","","","","","","","","","","","","","","","",""
"","","","","","canvas-keyboard-response","44","288010","0.0-12.0-2.6","2d_cat_multi_stim_exp1","2022-4-25","15:47:5","25","75","3","9","10","40","30","120","57","20","[""White""]","No","Female","2231433","1557","i","learn","","","learn_trial","20","120","out","0","1","","","","","","","","","","","","","","","","","","","","",""
"","","","","","canvas-keyboard-response","45","288521","0.0-12.0-3.6","2d_cat_multi_stim_exp1","2022-4-25","15:47:5","25","75","3","9","10","40","30","120","57","20","[""White""]","No","Female","2231433","null","null","learn_feedback","","","learn_feedback","20","120","out","","","","","","","","","","","","","","","","","","","","","","",""
"","","","","","canvas-keyboard-response","46","288582","0.0-12.0-4.6","2d_cat_multi_stim_exp1","2022-4-25","15:47:5","25","75","3","9","10","40","30","120","57","20","[""White""]","No","Female","2231433","null","null","","","","clear_screen","","","","","","","","","","","","","","","","","","","","","","","","","",""
"","","","","","canvas-keyboard-response","47","289092","0.0-12.0-0.7","2d_cat_multi_stim_exp1","2022-4-25","15:47:5","25","75","3","9","10","40","30","120","57","20","[""White""]","No","Female","2231433","null","null","","","","fixation","","","","","","","","","","","","","","","","","","","","","","","","","",""
"","","","","","canvas-keyboard-response","48","289602","0.0-12.0-1.7","2d_cat_multi_stim_exp1","2022-4-25","15:47:5","25","75","3","9","10","40","30","120","57","20","[""White""]","No","Female","2231433","null","null","","","","clear_screen","","","","","","","","","","","","","","","","","","","","","","","","","",""
"","","","","","canvas-keyboard-response","49","290761","0.0-12.0-2.7","2d_cat_multi_stim_exp1","2022-4-25","15:47:5","25","75","3","9","10","40","30","120","57","20","[""White""]","No","Female","2231433","1151","u","learn","","","learn_trial","22.5729","69.7099","in","1","1","","","","","","","","","","","","","","","","","","","","",""
"","","","","","canvas-keyboard-response","50","291269","0.0-12.0-3.7","2d_cat_multi_stim_exp1","2022-4-25","15:47:5","25","75","3","9","10","40","30","120","57","20","[""White""]","No","Female","2231433","null","null","learn_feedback","","","learn_feedback","22.5729","69.7099","in","","","","","","","","","","","","","","","","","","","","","","",""
"","","","","","canvas-keyboard-response","51","291327","0.0-12.0-4.7","2d_cat_multi_stim_exp1","2022-4-25","15:47:5","25","75","3","9","10","40","30","120","57","20","[""White""]","No","Female","2231433","null","null","","","","clear_screen","","","","","","","","","","","","","","","","","","","","","","","","","",""
"","","","","","canvas-keyboard-response","52","291836","0.0-12.0-0.8","2d_cat_multi_stim_exp1","2022-4-25","15:47:5","25","75","3","9","10","40","30","120","57","20","[""White""]","No","Female","2231433","null","null","","","","fixation","","","","","","","","","","","","","","","","","","","","","","","","","",""
"","","","","","canvas-keyboard-response","53","292349","0.0-12.0-1.8","2d_cat_multi_stim_exp1","2022-4-25","15:47:5","25","75","3","9","10","40","30","120","57","20","[""White""]","No","Female","2231433","null","null","","","","clear_screen","","","","","","","","","","","","","","","","","","","","","","","","","",""
"","","","","","canvas-keyboard-response","54","293690","0.0-12.0-2.8","2d_cat_multi_stim_exp1","2022-4-25","15:47:5","25","75","3","9","10","40","30","120","57","20","[""White""]","No","Female","2231433","1332","i","learn","","","learn_trial","16.6667","60","out","0","1","","","","","","","","","","","","","","","","","","","","",""
"","","","","","canvas-keyboard-response","55","294200","0.0-12.0-3.8","2d_cat_multi_stim_exp1","2022-4-25","15:47:5","25","75","3","9","10","40","30","120","57","20","[""White""]","No","Female","2231433","null","null","learn_feedback","","","learn_feedback","16.6667","60","out","","","","","","","","","","","","","","","","","","","","","","",""
"","","","","","canvas-keyboard-response","56","294261","0.0-12.0-4.8","2d_cat_multi_stim_exp1","2022-4-25","15:47:5","25","75","3","9","10","40","30","120","57","20","[""White""]","No","Female","2231433","null","null","","","","clear_screen","","","","","","","","","","","","","","","","","","","","","","","","","",""
"","","","","","canvas-keyboard-response","57","294770","0.0-12.0-0.9","2d_cat_multi_stim_exp1","2022-4-25","15:47:5","25","75","3","9","10","40","30","120","57","20","[""White""]","No","Female","2231433","null","null","","","","fixation","","","","","","","","","","","","","","","","","","","","","","","","","",""
"","","","","","canvas-keyboard-response","58","295284","0.0-12.0-1.9","2d_cat_multi_stim_exp1","2022-4-25","15:47:5","25","75","3","9","10","40","30","120","57","20","[""White""]","No","Female","2231433","null","null","","","","clear_screen","","","","","","","","","","","","","","","","","","","","","","","","","",""
"","","","","","canvas-keyboard-response","59","296393","0.0-12.0-2.9","2d_cat_multi_stim_exp1","2022-4-25","15:47:5","25","75","3","9","10","40","30","120","57","20","[""White""]","No","Female","2231433","1100","i","learn","","","learn_trial","16.6667","30","out","0","1","","","","","","","","","","","","","","","","","","","","",""
"","","","","","canvas-keyboard-response","60","296904","0.0-12.0-3.9","2d_cat_multi_stim_exp1","2022-4-25","15:47:5","25","75","3","9","10","40","30","120","57","20","[""White""]","No","Female","2231433","null","null","learn_feedback","","","learn_feedback","16.6667","30","out","","","","","","","","","","","","","","","","","","","","","","",""
"","","","","","canvas-keyboard-response","61","296960","0.0-12.0-4.9","2d_cat_multi_stim_exp1","2022-4-25","15:47:5","25","75","3","9","10","40","30","120","57","20","[""White""]","No","Female","2231433","null","null","","","","clear_screen","","","","","","","","","","","","","","","","","","","","","","","","","",""
"","","","","","canvas-keyboard-response","62","297470","0.0-12.0-0.10","2d_cat_multi_stim_exp1","2022-4-25","15:47:5","25","75","3","9","10","40","30","120","57","20","[""White""]","No","Female","2231433","null","null","","","","fixation","","","","","","","","","","","","","","","","","","","","","","","","","",""
"","","","","","canvas-keyboard-response","63","297982","0.0-12.0-1.10","2d_cat_multi_stim_exp1","2022-4-25","15:47:5","25","75","3","9","10","40","30","120","57","20","[""White""]","No","Female","2231433","null","null","","","","clear_screen","","","","","","","","","","","","","","","","","","","","","","","","","",""
"","","","","","canvas-keyboard-response","64","299097","0.0-12.0-2.10","2d_cat_multi_stim_exp1","2022-4-25","15:47:5","25","75","3","9","10","40","30","120","57","20","[""White""]","No","Female","2231433","1105","u","learn","","","learn_trial","27.8087","78.1624","in","1","1","","","","","","","","","","","","","","","","","","","","",""
"","","","","","canvas-keyboard-response","65","299608","0.0-12.0-3.10","2d_cat_multi_stim_exp1","2022-4-25","15:47:5","25","75","3","9","10","40","30","120","57","20","[""White""]","No","Female","2231433","null","null","learn_feedback","","","learn_feedback","27.8087","78.1624","in","","","","","","","","","","","","","","","","","","","","","","",""
"","","","","","canvas-keyboard-response","66","299667","0.0-12.0-4.10","2d_cat_multi_stim_exp1","2022-4-25","15:47:5","25","75","3","9","10","40","30","120","57","20","[""White""]","No","Female","2231433","null","null","","","","clear_screen","","","","","","","","","","","","","","","","","","","","","","","","","",""
"","","","","","canvas-keyboard-response","67","300178","0.0-12.0-0.11","2d_cat_multi_stim_exp1","2022-4-25","15:47:5","25","75","3","9","10","40","30","120","57","20","[""White""]","No","Female","2231433","null","null","","","","fixation","","","","","","","","","","","","","","","","","","","","","","","","","",""
"","","","","","canvas-keyboard-response","68","300689","0.0-12.0-1.11","2d_cat_multi_stim_exp1","2022-4-25","15:47:5","25","75","3","9","10","40","30","120","57","20","[""White""]","No","Female","2231433","null","null","","","","clear_screen","","","","","","","","","","","","","","","","","","","","","","","","","",""
"","","","","","canvas-keyboard-response","69","302057","0.0-12.0-2.11","2d_cat_multi_stim_exp1","2022-4-25","15:47:5","25","75","3","9","10","40","30","120","57","20","[""White""]","No","Female","2231433","1358","u","learn","","","learn_trial","25","75","in","1","1","","","","","","","","","","","","","","","","","","","","",""
"","","","","","canvas-keyboard-response","70","302569","0.0-12.0-3.11","2d_cat_multi_stim_exp1","2022-4-25","15:47:5","25","75","3","9","10","40","30","120","57","20","[""White""]","No","Female","2231433","null","null","learn_feedback","","","learn_feedback","25","75","in","","","","","","","","","","","","","","","","","","","","","","",""
"","","","","","canvas-keyboard-response","71","302628","0.0-12.0-4.11","2d_cat_multi_stim_exp1","2022-4-25","15:47:5","25","75","3","9","10","40","30","120","57","20","[""White""]","No","Female","2231433","null","null","","","","clear_screen","","","","","","","","","","","","","","","","","","","","","","","","","",""
"","","","","","canvas-keyboard-response","72","303138","0.0-12.0-0.12","2d_cat_multi_stim_exp1","2022-4-25","15:47:5","25","75","3","9","10","40","30","120","57","20","[""White""]","No","Female","2231433","null","null","","","","fixation","","","","","","","","","","","","","","","","","","","","","","","","","",""
"","","","","","canvas-keyboard-response","73","303651","0.0-12.0-1.12","2d_cat_multi_stim_exp1","2022-4-25","15:47:5","25","75","3","9","10","40","30","120","57","20","[""White""]","No","Female","2231433","null","null","","","","clear_screen","","","","","","","","","","","","","","","","","","","","","","","","","",""
"","","","","","canvas-keyboard-response","74","304474","0.0-12.0-2.12","2d_cat_multi_stim_exp1","2022-4-25","15:47:5","25","75","3","9","10","40","30","120","57","20","[""White""]","No","Female","2231433","811","i","learn","","","learn_trial","10","30","out","0","1","","","","","","","","","","","","","","","","","","","","",""
"","","","","","canvas-keyboard-response","75","304982","0.0-12.0-3.12","2d_cat_multi_stim_exp1","2022-4-25","15:47:5","25","75","3","9","10","40","30","120","57","20","[""White""]","No","Female","2231433","null","null","learn_feedback","","","learn_feedback","10","30","out","","","","","","","","","","","","","","","","","","","","","","",""
"","","","","","canvas-keyboard-response","76","305038","0.0-12.0-4.12","2d_cat_multi_stim_exp1","2022-4-25","15:47:5","25","75","3","9","10","40","30","120","57","20","[""White""]","No","Female","2231433","null","null","","","","clear_screen","","","","","","","","","","","","","","","","","","","","","","","","","",""
"","","","","","canvas-keyboard-response","77","305546","0.0-12.0-0.13","2d_cat_multi_stim_exp1","2022-4-25","15:47:5","25","75","3","9","10","40","30","120","57","20","[""White""]","No","Female","2231433","null","null","","","","fixation","","","","","","","","","","","","","","","","","","","","","","","","","",""
"","","","","","canvas-keyboard-response","78","306058","0.0-12.0-1.13","2d_cat_multi_stim_exp1","2022-4-25","15:47:5","25","75","3","9","10","40","30","120","57","20","[""White""]","No","Female","2231433","null","null","","","","clear_screen","","","","","","","","","","","","","","","","","","","","","","","","","",""
"","","","","","canvas-keyboard-response","79","307016","0.0-12.0-2.13","2d_cat_multi_stim_exp1","2022-4-25","15:47:5","25","75","3","9","10","40","30","120","57","20","[""White""]","No","Female","2231433","950","u","learn","","","learn_trial","25","75","in","1","1","","","","","","","","","","","","","","","","","","","","",""
"","","","","","canvas-keyboard-response","80","307530","0.0-12.0-3.13","2d_cat_multi_stim_exp1","2022-4-25","15:47:5","25","75","3","9","10","40","30","120","57","20","[""White""]","No","Female","2231433","null","null","learn_feedback","","","learn_feedback","25","75","in","","","","","","","","","","","","","","","","","","","","","","",""
"","","","","","canvas-keyboard-response","81","307590","0.0-12.0-4.13","2d_cat_multi_stim_exp1","2022-4-25","15:47:5","25","75","3","9","10","40","30","120","57","20","[""White""]","No","Female","2231433","null","null","","","","clear_screen","","","","","","","","","","","","","","","","","","","","","","","","","",""
"","","","","","canvas-keyboard-response","82","308099","0.0-12.0-0.14","2d_cat_multi_stim_exp1","2022-4-25","15:47:5","25","75","3","9","10","40","30","120","57","20","[""White""]","No","Female","2231433","null","null","","","","fixation","","","","","","","","","","","","","","","","","","","","","","","","","",""
"","","","","","canvas-keyboard-response","83","308612","0.0-12.0-1.14","2d_cat_multi_stim_exp1","2022-4-25","15:47:5","25","75","3","9","10","40","30","120","57","20","[""White""]","No","Female","2231433","null","null","","","","clear_screen","","","","","","","","","","","","","","","","","","","","","","","","","",""
"","","","","","canvas-keyboard-response","84","310441","0.0-12.0-2.14","2d_cat_multi_stim_exp1","2022-4-25","15:47:5","25","75","3","9","10","40","30","120","57","20","[""White""]","No","Female","2231433","1820","i","learn","","","learn_trial","33.3333","100","out","0","1","","","","","","","","","","","","","","","","","","","","",""
"","","","","","canvas-keyboard-response","85","310952","0.0-12.0-3.14","2d_cat_multi_stim_exp1","2022-4-25","15:47:5","25","75","3","9","10","40","30","120","57","20","[""White""]","No","Female","2231433","null","null","learn_feedback","","","learn_feedback","33.3333","100","out","","","","","","","","","","","","","","","","","","","","","","",""
"","","","","","canvas-keyboard-response","86","311007","0.0-12.0-4.14","2d_cat_multi_stim_exp1","2022-4-25","15:47:5","25","75","3","9","10","40","30","120","57","20","[""White""]","No","Female","2231433","null","null","","","","clear_screen","","","","","","","","","","","","","","","","","","","","","","","","","",""
"","","","","","canvas-keyboard-response","87","311515","0.0-12.0-0.15","2d_cat_multi_stim_exp1","2022-4-25","15:47:5","25","75","3","9","10","40","30","120","57","20","[""White""]","No","Female","2231433","null","null","","","","fixation","","","","","","","","","","","","","","","","","","","","","","","","","",""
"","","","","","canvas-keyboard-response","88","312023","0.0-12.0-1.15","2d_cat_multi_stim_exp1","2022-4-25","15:47:5","25","75","3","9","10","40","30","120","57","20","[""White""]","No","Female","2231433","null","null","","","","clear_screen","","","","","","","","","","","","","","","","","","","","","","","","","",""
"","","","","","canvas-keyboard-response","89","312889","0.0-12.0-2.15","2d_cat_multi_stim_exp1","2022-4-25","15:47:5","25","75","3","9","10","40","30","120","57","20","[""White""]","No","Female","2231433","855","u","learn","","","learn_trial","25","75","in","1","1","","","","","","","","","","","","","","","","","","","","",""
"","","","","","canvas-keyboard-response","90","313398","0.0-12.0-3.15","2d_cat_multi_stim_exp1","2022-4-25","15:47:5","25","75","3","9","10","40","30","120","57","20","[""White""]","No","Female","2231433","null","null","learn_feedback","","","learn_feedback","25","75","in","","","","","","","","","","","","","","","","","","","","","","",""
"","","","","","canvas-keyboard-response","91","313462","0.0-12.0-4.15","2d_cat_multi_stim_exp1","2022-4-25","15:47:5","25","75","3","9","10","40","30","120","57","20","[""White""]","No","Female","2231433","null","null","","","","clear_screen","","","","","","","","","","","","","","","","","","","","","","","","","",""
"","","","","","canvas-keyboard-response","92","313969","0.0-12.0-0.16","2d_cat_multi_stim_exp1","2022-4-25","15:47:5","25","75","3","9","10","40","30","120","57","20","[""White""]","No","Female","2231433","null","null","","","","fixation","","","","","","","","","","","","","","","","","","","","","","","","","",""
"","","","","","canvas-keyboard-response","93","314478","0.0-12.0-1.16","2d_cat_multi_stim_exp1","2022-4-25","15:47:5","25","75","3","9","10","40","30","120","57","20","[""White""]","No","Female","2231433","null","null","","","","clear_screen","","","","","","","","","","","","","","","","","","","","","","","","","",""
"","","","","","canvas-keyboard-response","94","315657","0.0-12.0-2.16","2d_cat_multi_stim_exp1","2022-4-25","15:47:5","25","75","3","9","10","40","30","120","57","20","[""White""]","No","Female","2231433","1168","i","learn","","","learn_trial","40","70","out","0","1","","","","","","","","","","","","","","","","","","","","",""
"","","","","","canvas-keyboard-response","95","316167","0.0-12.0-3.16","2d_cat_multi_stim_exp1","2022-4-25","15:47:5","25","75","3","9","10","40","30","120","57","20","[""White""]","No","Female","2231433","null","null","learn_feedback","","","learn_feedback","40","70","out","","","","","","","","","","","","","","","","","","","","","","",""
"","","","","","canvas-keyboard-response","96","316227","0.0-12.0-4.16","2d_cat_multi_stim_exp1","2022-4-25","15:47:5","25","75","3","9","10","40","30","120","57","20","[""White""]","No","Female","2231433","null","null","","","","clear_screen","","","","","","","","","","","","","","","","","","","","","","","","","",""
"","","","","","canvas-keyboard-response","97","316737","0.0-12.0-0.17","2d_cat_multi_stim_exp1","2022-4-25","15:47:5","25","75","3","9","10","40","30","120","57","20","[""White""]","No","Female","2231433","null","null","","","","fixation","","","","","","","","","","","","","","","","","","","","","","","","","",""
"","","","","","canvas-keyboard-response","98","317250","0.0-12.0-1.17","2d_cat_multi_stim_exp1","2022-4-25","15:47:5","25","75","3","9","10","40","30","120","57","20","[""White""]","No","Female","2231433","null","null","","","","clear_screen","","","","","","","","","","","","","","","","","","","","","","","","","",""
"","","","","","canvas-keyboard-response","99","318353","0.0-12.0-2.17","2d_cat_multi_stim_exp1","2022-4-25","15:47:5","25","75","3","9","10","40","30","120","57","20","[""White""]","No","Female","2231433","1094","u","learn","","","learn_trial","25","75","in","1","1","","","","","","","","","","","","","","","","","","","","",""
"","","","","","canvas-keyboard-response","100","318864","0.0-12.0-3.17","2d_cat_multi_stim_exp1","2022-4-25","15:47:5","25","75","3","9","10","40","30","120","57","20","[""White""]","No","Female","2231433","null","null","learn_feedback","","","learn_feedback","25","75","in","","","","","","","","","","","","","","","","","","","","","","",""
"","","","","","canvas-keyboard-response","101","318926","0.0-12.0-4.17","2d_cat_multi_stim_exp1","2022-4-25","15:47:5","25","75","3","9","10","40","30","120","57","20","[""White""]","No","Female","2231433","null","null","","","","clear_screen","","","","","","","","","","","","","","","","","","","","","","","","","",""
"","","","","","canvas-keyboard-response","102","319434","0.0-12.0-0.18","2d_cat_multi_stim_exp1","2022-4-25","15:47:5","25","75","3","9","10","40","30","120","57","20","[""White""]","No","Female","2231433","null","null","","","","fixation","","","","","","","","","","","","","","","","","","","","","","","","","",""
"","","","","","canvas-keyboard-response","103","319943","0.0-12.0-1.18","2d_cat_multi_stim_exp1","2022-4-25","15:47:5","25","75","3","9","10","40","30","120","57","20","[""White""]","No","Female","2231433","null","null","","","","clear_screen","","","","","","","","","","","","","","","","","","","","","","","","","",""
"","","","","","canvas-keyboard-response","104","320817","0.0-12.0-2.18","2d_cat_multi_stim_exp1","2022-4-25","15:47:5","25","75","3","9","10","40","30","120","57","20","[""White""]","No","Female","2231433","865","i","learn","","","learn_trial","13.3333","40","out","0","1","","","","","","","","","","","","","","","","","","","","",""
"","","","","","canvas-keyboard-response","105","321326","0.0-12.0-3.18","2d_cat_multi_stim_exp1","2022-4-25","15:47:5","25","75","3","9","10","40","30","120","57","20","[""White""]","No","Female","2231433","null","null","learn_feedback","","","learn_feedback","13.3333","40","out","","","","","","","","","","","","","","","","","","","","","","",""
"","","","","","canvas-keyboard-response","106","321389","0.0-12.0-4.18","2d_cat_multi_stim_exp1","2022-4-25","15:47:5","25","75","3","9","10","40","30","120","57","20","[""White""]","No","Female","2231433","null","null","","","","clear_screen","","","","","","","","","","","","","","","","","","","","","","","","","",""
"","","","","","canvas-keyboard-response","107","321898","0.0-12.0-0.19","2d_cat_multi_stim_exp1","2022-4-25","15:47:5","25","75","3","9","10","40","30","120","57","20","[""White""]","No","Female","2231433","null","null","","","","fixation","","","","","","","","","","","","","","","","","","","","","","","","","",""
"","","","","","canvas-keyboard-response","108","322411","0.0-12.0-1.19","2d_cat_multi_stim_exp1","2022-4-25","15:47:5","25","75","3","9","10","40","30","120","57","20","[""White""]","No","Female","2231433","null","null","","","","clear_screen","","","","","","","","","","","","","","","","","","","","","","","","","",""
"","","","","","canvas-keyboard-response","109","324048","0.0-12.0-2.19","2d_cat_multi_stim_exp1","2022-4-25","15:47:5","25","75","3","9","10","40","30","120","57","20","[""White""]","No","Female","2231433","1633","i","learn","","","learn_trial","10","110","out","0","1","","","","","","","","","","","","","","","","","","","","",""
"","","","","","canvas-keyboard-response","110","324560","0.0-12.0-3.19","2d_cat_multi_stim_exp1","2022-4-25","15:47:5","25","75","3","9","10","40","30","120","57","20","[""White""]","No","Female","2231433","null","null","learn_feedback","","","learn_feedback","10","110","out","","","","","","","","","","","","","","","","","","","","","","",""
"","","","","","canvas-keyboard-response","111","324624","0.0-12.0-4.19","2d_cat_multi_stim_exp1","2022-4-25","15:47:5","25","75","3","9","10","40","30","120","57","20","[""White""]","No","Female","2231433","null","null","","","","clear_screen","","","","","","","","","","","","","","","","","","","","","","","","","",""
"","","","","","canvas-keyboard-response","112","325132","0.0-12.0-0.20","2d_cat_multi_stim_exp1","2022-4-25","15:47:5","25","75","3","9","10","40","30","120","57","20","[""White""]","No","Female","2231433","null","null","","","","fixation","","","","","","","","","","","","","","","","","","","","","","","","","",""
"","","","","","canvas-keyboard-response","113","325640","0.0-12.0-1.20","2d_cat_multi_stim_exp1","2022-4-25","15:47:5","25","75","3","9","10","40","30","120","57","20","[""White""]","No","Female","2231433","null","null","","","","clear_screen","","","","","","","","","","","","","","","","","","","","","","","","","",""
"","","","","","canvas-keyboard-response","114","326841","0.0-12.0-2.20","2d_cat_multi_stim_exp1","2022-4-25","15:47:5","25","75","3","9","10","40","30","120","57","20","[""White""]","No","Female","2231433","1192","u","learn","","","learn_trial","25","75","in","1","1","","","","","","","","","","","","","","","","","","","","",""
"","","","","","canvas-keyboard-response","115","327350","0.0-12.0-3.20","2d_cat_multi_stim_exp1","2022-4-25","15:47:5","25","75","3","9","10","40","30","120","57","20","[""White""]","No","Female","2231433","null","null","learn_feedback","","","learn_feedback","25","75","in","","","","","","","","","","","","","","","","","","","","","","",""
"","","","","","canvas-keyboard-response","116","327413","0.0-12.0-4.20","2d_cat_multi_stim_exp1","2022-4-25","15:47:5","25","75","3","9","10","40","30","120","57","20","[""White""]","No","Female","2231433","null","null","","","","clear_screen","","","","","","","","","","","","","","","","","","","","","","","","","",""
"","","","","","canvas-keyboard-response","117","327921","0.0-12.0-0.21","2d_cat_multi_stim_exp1","2022-4-25","15:47:5","25","75","3","9","10","40","30","120","57","20","[""White""]","No","Female","2231433","null","null","","","","fixation","","","","","","","","","","","","","","","","","","","","","","","","","",""
"","","","","","canvas-keyboard-response","118","328430","0.0-12.0-1.21","2d_cat_multi_stim_exp1","2022-4-25","15:47:5","25","75","3","9","10","40","30","120","57","20","[""White""]","No","Female","2231433","null","null","","","","clear_screen","","","","","","","","","","","","","","","","","","","","","","","","","",""
"","","","","","canvas-keyboard-response","119","329730","0.0-12.0-2.21","2d_cat_multi_stim_exp1","2022-4-25","15:47:5","25","75","3","9","10","40","30","120","57","20","[""White""]","No","Female","2231433","1288","i","learn","","","learn_trial","23.3333","60","out","0","1","","","","","","","","","","","","","","","","","","","","",""
"","","","","","canvas-keyboard-response","120","330243","0.0-12.0-3.21","2d_cat_multi_stim_exp1","2022-4-25","15:47:5","25","75","3","9","10","40","30","120","57","20","[""White""]","No","Female","2231433","null","null","learn_feedback","","","learn_feedback","23.3333","60","out","","","","","","","","","","","","","","","","","","","","","","",""
"","","","","","canvas-keyboard-response","121","330304","0.0-12.0-4.21","2d_cat_multi_stim_exp1","2022-4-25","15:47:5","25","75","3","9","10","40","30","120","57","20","[""White""]","No","Female","2231433","null","null","","","","clear_screen","","","","","","","","","","","","","","","","","","","","","","","","","",""
"","","","","","canvas-keyboard-response","122","330813","0.0-12.0-0.22","2d_cat_multi_stim_exp1","2022-4-25","15:47:5","25","75","3","9","10","40","30","120","57","20","[""White""]","No","Female","2231433","null","null","","","","fixation","","","","","","","","","","","","","","","","","","","","","","","","","",""
"","","","","","canvas-keyboard-response","123","331328","0.0-12.0-1.22","2d_cat_multi_stim_exp1","2022-4-25","15:47:5","25","75","3","9","10","40","30","120","57","20","[""White""]","No","Female","2231433","null","null","","","","clear_screen","","","","","","","","","","","","","","","","","","","","","","","","","",""
"","","","","","canvas-keyboard-response","124","332434","0.0-12.0-2.22","2d_cat_multi_stim_exp1","2022-4-25","15:47:5","25","75","3","9","10","40","30","120","57","20","[""White""]","No","Female","2231433","1098","i","learn","","","learn_trial","20","60","out","0","1","","","","","","","","","","","","","","","","","","","","",""
"","","","","","canvas-keyboard-response","125","332945","0.0-12.0-3.22","2d_cat_multi_stim_exp1","2022-4-25","15:47:5","25","75","3","9","10","40","30","120","57","20","[""White""]","No","Female","2231433","null","null","learn_feedback","","","learn_feedback","20","60","out","","","","","","","","","","","","","","","","","","","","","","",""
"","","","","","canvas-keyboard-response","126","333004","0.0-12.0-4.22","2d_cat_multi_stim_exp1","2022-4-25","15:47:5","25","75","3","9","10","40","30","120","57","20","[""White""]","No","Female","2231433","null","null","","","","clear_screen","","","","","","","","","","","","","","","","","","","","","","","","","",""
"","","","","","canvas-keyboard-response","127","333513","0.0-12.0-0.23","2d_cat_multi_stim_exp1","2022-4-25","15:47:5","25","75","3","9","10","40","30","120","57","20","[""White""]","No","Female","2231433","null","null","","","","fixation","","","","","","","","","","","","","","","","","","","","","","","","","",""
"","","","","","canvas-keyboard-response","128","334026","0.0-12.0-1.23","2d_cat_multi_stim_exp1","2022-4-25","15:47:5","25","75","3","9","10","40","30","120","57","20","[""White""]","No","Female","2231433","null","null","","","","clear_screen","","","","","","","","","","","","","","","","","","","","","","","","","",""
"","","","","","canvas-keyboard-response","129","335064","0.0-12.0-2.23","2d_cat_multi_stim_exp1","2022-4-25","15:47:5","25","75","3","9","10","40","30","120","57","20","[""White""]","No","Female","2231433","1024","i","learn","","","learn_trial","13.3333","120","out","0","1","","","","","","","","","","","","","","","","","","","","",""
"","","","","","canvas-keyboard-response","130","335573","0.0-12.0-3.23","2d_cat_multi_stim_exp1","2022-4-25","15:47:5","25","75","3","9","10","40","30","120","57","20","[""White""]","No","Female","2231433","null","null","learn_feedback","","","learn_feedback","13.3333","120","out","","","","","","","","","","","","","","","","","","","","","","",""
"","","","","","canvas-keyboard-response","131","335636","0.0-12.0-4.23","2d_cat_multi_stim_exp1","2022-4-25","15:47:5","25","75","3","9","10","40","30","120","57","20","[""White""]","No","Female","2231433","null","null","","","","clear_screen","","","","","","","","","","","","","","","","","","","","","","","","","",""
"","","","","","canvas-keyboard-response","132","336147","0.0-12.0-0.24","2d_cat_multi_stim_exp1","2022-4-25","15:47:5","25","75","3","9","10","40","30","120","57","20","[""White""]","No","Female","2231433","null","null","","","","fixation","","","","","","","","","","","","","","","","","","","","","","","","","",""
"","","","","","canvas-keyboard-response","133","336661","0.0-12.0-1.24","2d_cat_multi_stim_exp1","2022-4-25","15:47:5","25","75","3","9","10","40","30","120","57","20","[""White""]","No","Female","2231433","null","null","","","","clear_screen","","","","","","","","","","","","","","","","","","","","","","","","","",""
"","","","","","canvas-keyboard-response","134","337562","0.0-12.0-2.24","2d_cat_multi_stim_exp1","2022-4-25","15:47:5","25","75","3","9","10","40","30","120","57","20","[""White""]","No","Female","2231433","893","i","learn","","","learn_trial","36.6667","120","out","0","1","","","","","","","","","","","","","","","","","","","","",""
"","","","","","canvas-keyboard-response","135","338072","0.0-12.0-3.24","2d_cat_multi_stim_exp1","2022-4-25","15:47:5","25","75","3","9","10","40","30","120","57","20","[""White""]","No","Female","2231433","null","null","learn_feedback","","","learn_feedback","36.6667","120","out","","","","","","","","","","","","","","","","","","","","","","",""
"","","","","","canvas-keyboard-response","136","338131","0.0-12.0-4.24","2d_cat_multi_stim_exp1","2022-4-25","15:47:5","25","75","3","9","10","40","30","120","57","20","[""White""]","No","Female","2231433","null","null","","","","clear_screen","","","","","","","","","","","","","","","","","","","","","","","","","",""
"","","","","","canvas-keyboard-response","137","338644","0.0-12.0-0.25","2d_cat_multi_stim_exp1","2022-4-25","15:47:5","25","75","3","9","10","40","30","120","57","20","[""White""]","No","Female","2231433","null","null","","","","fixation","","","","","","","","","","","","","","","","","","","","","","","","","",""
"","","","","","canvas-keyboard-response","138","339154","0.0-12.0-1.25","2d_cat_multi_stim_exp1","2022-4-25","15:47:5","25","75","3","9","10","40","30","120","57","20","[""White""]","No","Female","2231433","null","null","","","","clear_screen","","","","","","","","","","","","","","","","","","","","","","","","","",""
"","","","","","canvas-keyboard-response","139","340290","0.0-12.0-2.25","2d_cat_multi_stim_exp1","2022-4-25","15:47:5","25","75","3","9","10","40","30","120","57","20","[""White""]","No","Female","2231433","1125","i","learn","","","learn_trial","13.3333","70","out","0","1","","","","","","","","","","","","","","","","","","","","",""
"","","","","","canvas-keyboard-response","140","340799","0.0-12.0-3.25","2d_cat_multi_stim_exp1","2022-4-25","15:47:5","25","75","3","9","10","40","30","120","57","20","[""White""]","No","Female","2231433","null","null","learn_feedback","","","learn_feedback","13.3333","70","out","","","","","","","","","","","","","","","","","","","","","","",""
"","","","","","canvas-keyboard-response","141","340858","0.0-12.0-4.25","2d_cat_multi_stim_exp1","2022-4-25","15:47:5","25","75","3","9","10","40","30","120","57","20","[""White""]","No","Female","2231433","null","null","","","","clear_screen","","","","","","","","","","","","","","","","","","","","","","","","","",""
"","","","","","canvas-keyboard-response","142","341370","0.0-12.0-0.26","2d_cat_multi_stim_exp1","2022-4-25","15:47:5","25","75","3","9","10","40","30","120","57","20","[""White""]","No","Female","2231433","null","null","","","","fixation","","","","","","","","","","","","","","","","","","","","","","","","","",""
"","","","","","canvas-keyboard-response","143","341882","0.0-12.0-1.26","2d_cat_multi_stim_exp1","2022-4-25","15:47:5","25","75","3","9","10","40","30","120","57","20","[""White""]","No","Female","2231433","null","null","","","","clear_screen","","","","","","","","","","","","","","","","","","","","","","","","","",""
"","","","","","canvas-keyboard-response","144","344409","0.0-12.0-2.26","2d_cat_multi_stim_exp1","2022-4-25","15:47:5","25","75","3","9","10","40","30","120","57","20","[""White""]","No","Female","2231433","2516","i","learn","","","learn_trial","16.6667","80","out","0","1","","","","","","","","","","","","","","","","","","","","",""
"","","","","","canvas-keyboard-response","145","344918","0.0-12.0-3.26","2d_cat_multi_stim_exp1","2022-4-25","15:47:5","25","75","3","9","10","40","30","120","57","20","[""White""]","No","Female","2231433","null","null","learn_feedback","","","learn_feedback","16.6667","80","out","","","","","","","","","","","","","","","","","","","","","","",""
"","","","","","canvas-keyboard-response","146","344979","0.0-12.0-4.26","2d_cat_multi_stim_exp1","2022-4-25","15:47:5","25","75","3","9","10","40","30","120","57","20","[""White""]","No","Female","2231433","null","null","","","","clear_screen","","","","","","","","","","","","","","","","","","","","","","","","","",""
"","","","","","canvas-keyboard-response","147","345487","0.0-12.0-0.27","2d_cat_multi_stim_exp1","2022-4-25","15:47:5","25","75","3","9","10","40","30","120","57","20","[""White""]","No","Female","2231433","null","null","","","","fixation","","","","","","","","","","","","","","","","","","","","","","","","","",""
"","","","","","canvas-keyboard-response","148","346001","0.0-12.0-1.27","2d_cat_multi_stim_exp1","2022-4-25","15:47:5","25","75","3","9","10","40","30","120","57","20","[""White""]","No","Female","2231433","null","null","","","","clear_screen","","","","","","","","","","","","","","","","","","","","","","","","","",""
"","","","","","canvas-keyboard-response","149","351305","0.0-12.0-2.27","2d_cat_multi_stim_exp1","2022-4-25","15:47:5","25","75","3","9","10","40","30","120","57","20","[""White""]","No","Female","2231433","5297","i","learn","","","learn_trial","40","110","out","0","1","","","","","","","","","","","","","","","","","","","","",""
"","","","","","canvas-keyboard-response","150","351817","0.0-12.0-3.27","2d_cat_multi_stim_exp1","2022-4-25","15:47:5","25","75","3","9","10","40","30","120","57","20","[""White""]","No","Female","2231433","null","null","learn_feedback","","","learn_feedback","40","110","out","","","","","","","","","","","","","","","","","","","","","","",""
"","","","","","canvas-keyboard-response","151","351878","0.0-12.0-4.27","2d_cat_multi_stim_exp1","2022-4-25","15:47:5","25","75","3","9","10","40","30","120","57","20","[""White""]","No","Female","2231433","null","null","","","","clear_screen","","","","","","","","","","","","","","","","","","","","","","","","","",""
"","","","","","canvas-keyboard-response","152","352388","0.0-12.0-0.28","2d_cat_multi_stim_exp1","2022-4-25","15:47:5","25","75","3","9","10","40","30","120","57","20","[""White""]","No","Female","2231433","null","null","","","","fixation","","","","","","","","","","","","","","","","","","","","","","","","","",""
"","","","","","canvas-keyboard-response","153","352898","0.0-12.0-1.28","2d_cat_multi_stim_exp1","2022-4-25","15:47:5","25","75","3","9","10","40","30","120","57","20","[""White""]","No","Female","2231433","null","null","","","","clear_screen","","","","","","","","","","","","","","","","","","","","","","","","","",""
"","","","","","canvas-keyboard-response","154","357554","0.0-12.0-2.28","2d_cat_multi_stim_exp1","2022-4-25","15:47:5","25","75","3","9","10","40","30","120","57","20","[""White""]","No","Female","2231433","4645","i","learn","","","learn_trial","20","90","out","0","1","","","","","","","","","","","","","","","","","","","","",""
"","","","","","canvas-keyboard-response","155","358064","0.0-12.0-3.28","2d_cat_multi_stim_exp1","2022-4-25","15:47:5","25","75","3","9","10","40","30","120","57","20","[""White""]","No","Female","2231433","null","null","learn_feedback","","","learn_feedback","20","90","out","","","","","","","","","","","","","","","","","","","","","","",""
"","","","","","canvas-keyboard-response","156","358123","0.0-12.0-4.28","2d_cat_multi_stim_exp1","2022-4-25","15:47:5","25","75","3","9","10","40","30","120","57","20","[""White""]","No","Female","2231433","null","null","","","","clear_screen","","","","","","","","","","","","","","","","","","","","","","","","","",""
"","","","","","canvas-keyboard-response","157","358634","0.0-12.0-0.29","2d_cat_multi_stim_exp1","2022-4-25","15:47:5","25","75","3","9","10","40","30","120","57","20","[""White""]","No","Female","2231433","null","null","","","","fixation","","","","","","","","","","","","","","","","","","","","","","","","","",""
"","","","","","canvas-keyboard-response","158","359146","0.0-12.0-1.29","2d_cat_multi_stim_exp1","2022-4-25","15:47:5","25","75","3","9","10","40","30","120","57","20","[""White""]","No","Female","2231433","null","null","","","","clear_screen","","","","","","","","","","","","","","","","","","","","","","","","","",""
"","","","","","canvas-keyboard-response","159","361489","0.0-12.0-2.29","2d_cat_multi_stim_exp1","2022-4-25","15:47:5","25","75","3","9","10","40","30","120","57","20","[""White""]","No","Female","2231433","2336","u","learn","","","learn_trial","25","75","in","1","1","","","","","","","","","","","","","","","","","","","","",""
"","","","","","canvas-keyboard-response","160","361997","0.0-12.0-3.29","2d_cat_multi_stim_exp1","2022-4-25","15:47:5","25","75","3","9","10","40","30","120","57","20","[""White""]","No","Female","2231433","null","null","learn_feedback","","","learn_feedback","25","75","in","","","","","","","","","","","","","","","","","","","","","","",""
"","","","","","canvas-keyboard-response","161","362059","0.0-12.0-4.29","2d_cat_multi_stim_exp1","2022-4-25","15:47:5","25","75","3","9","10","40","30","120","57","20","[""White""]","No","Female","2231433","null","null","","","","clear_screen","","","","","","","","","","","","","","","","","","","","","","","","","",""
"","","","","","canvas-keyboard-response","162","362568","0.0-12.0-0.30","2d_cat_multi_stim_exp1","2022-4-25","15:47:5","25","75","3","9","10","40","30","120","57","20","[""White""]","No","Female","2231433","null","null","","","","fixation","","","","","","","","","","","","","","","","","","","","","","","","","",""
"","","","","","canvas-keyboard-response","163","363079","0.0-12.0-1.30","2d_cat_multi_stim_exp1","2022-4-25","15:47:5","25","75","3","9","10","40","30","120","57","20","[""White""]","No","Female","2231433","null","null","","","","clear_screen","","","","","","","","","","","","","","","","","","","","","","","","","",""
"","","","","","canvas-keyboard-response","164","364648","0.0-12.0-2.30","2d_cat_multi_stim_exp1","2022-4-25","15:47:5","25","75","3","9","10","40","30","120","57","20","[""White""]","No","Female","2231433","1561","u","learn","","","learn_trial","25","75","in","1","1","","","","","","","","","","","","","","","","","","","","",""
"","","","","","canvas-keyboard-response","165","365158","0.0-12.0-3.30","2d_cat_multi_stim_exp1","2022-4-25","15:47:5","25","75","3","9","10","40","30","120","57","20","[""White""]","No","Female","2231433","null","null","learn_feedback","","","learn_feedback","25","75","in","","","","","","","","","","","","","","","","","","","","","","",""
"","","","","","canvas-keyboard-response","166","365222","0.0-12.0-4.30","2d_cat_multi_stim_exp1","2022-4-25","15:47:5","25","75","3","9","10","40","30","120","57","20","[""White""]","No","Female","2231433","null","null","","","","clear_screen","","","","","","","","","","","","","","","","","","","","","","","","","",""
"","","","","","canvas-keyboard-response","167","365731","0.0-12.0-0.31","2d_cat_multi_stim_exp1","2022-4-25","15:47:5","25","75","3","9","10","40","30","120","57","20","[""White""]","No","Female","2231433","null","null","","","","fixation","","","","","","","","","","","","","","","","","","","","","","","","","",""
"","","","","","canvas-keyboard-response","168","366238","0.0-12.0-1.31","2d_cat_multi_stim_exp1","2022-4-25","15:47:5","25","75","3","9","10","40","30","120","57","20","[""White""]","No","Female","2231433","null","null","","","","clear_screen","","","","","","","","","","","","","","","","","","","","","","","","","",""
"","","","","","canvas-keyboard-response","169","368474","0.0-12.0-2.31","2d_cat_multi_stim_exp1","2022-4-25","15:47:5","25","75","3","9","10","40","30","120","57","20","[""White""]","No","Female","2231433","2221","i","learn","","","learn_trial","22.1081","72.6057","in","0","0","","","","","","","","","","","","","","","","","","","","",""
"","","","","","canvas-keyboard-response","170","369484","0.0-12.0-3.31","2d_cat_multi_stim_exp1","2022-4-25","15:47:5","25","75","3","9","10","40","30","120","57","20","[""White""]","No","Female","2231433","null","null","learn_feedback","","","learn_feedback","22.1081","72.6057","in","","","","","","","","","","","","","","","","","","","","","","",""
"","","","","","canvas-keyboard-response","171","369543","0.0-12.0-4.31","2d_cat_multi_stim_exp1","2022-4-25","15:47:5","25","75","3","9","10","40","30","120","57","20","[""White""]","No","Female","2231433","null","null","","","","clear_screen","","","","","","","","","","","","","","","","","","","","","","","","","",""
"","","","","","canvas-keyboard-response","172","370053","0.0-12.0-0.32","2d_cat_multi_stim_exp1","2022-4-25","15:47:5","25","75","3","9","10","40","30","120","57","20","[""White""]","No","Female","2231433","null","null","","","","fixation","","","","","","","","","","","","","","","","","","","","","","","","","",""
"","","","","","canvas-keyboard-response","173","370569","0.0-12.0-1.32","2d_cat_multi_stim_exp1","2022-4-25","15:47:5","25","75","3","9","10","40","30","120","57","20","[""White""]","No","Female","2231433","null","null","","","","clear_screen","","","","","","","","","","","","","","","","","","","","","","","","","",""
"","","","","","canvas-keyboard-response","174","371481","0.0-12.0-2.32","2d_cat_multi_stim_exp1","2022-4-25","15:47:5","25","75","3","9","10","40","30","120","57","20","[""White""]","No","Female","2231433","904","u","learn","","","learn_trial","22.5729","80.2901","in","1","1","","","","","","","","","","","","","","","","","","","","",""
"","","","","","canvas-keyboard-response","175","371993","0.0-12.0-3.32","2d_cat_multi_stim_exp1","2022-4-25","15:47:5","25","75","3","9","10","40","30","120","57","20","[""White""]","No","Female","2231433","null","null","learn_feedback","","","learn_feedback","22.5729","80.2901","in","","","","","","","","","","","","","","","","","","","","","","",""
"","","","","","canvas-keyboard-response","176","372054","0.0-12.0-4.32","2d_cat_multi_stim_exp1","2022-4-25","15:47:5","25","75","3","9","10","40","30","120","57","20","[""White""]","No","Female","2231433","null","null","","","","clear_screen","","","","","","","","","","","","","","","","","","","","","","","","","",""
"","","","","","canvas-keyboard-response","177","372563","0.0-12.0-0.33","2d_cat_multi_stim_exp1","2022-4-25","15:47:5","25","75","3","9","10","40","30","120","57","20","[""White""]","No","Female","2231433","null","null","","","","fixation","","","","","","","","","","","","","","","","","","","","","","","","","",""
"","","","","","canvas-keyboard-response","178","373075","0.0-12.0-1.33","2d_cat_multi_stim_exp1","2022-4-25","15:47:5","25","75","3","9","10","40","30","120","57","20","[""White""]","No","Female","2231433","null","null","","","","clear_screen","","","","","","","","","","","","","","","","","","","","","","","","","",""
"","","","","","canvas-keyboard-response","179","374098","0.0-12.0-2.33","2d_cat_multi_stim_exp1","2022-4-25","15:47:5","25","75","3","9","10","40","30","120","57","20","[""White""]","No","Female","2231433","1012","u","learn","","","learn_trial","23.3333","70","out","1","0","","","","","","","","","","","","","","","","","","","","",""
"","","","","","canvas-keyboard-response","180","375108","0.0-12.0-3.33","2d_cat_multi_stim_exp1","2022-4-25","15:47:5","25","75","3","9","10","40","30","120","57","20","[""White""]","No","Female","2231433","null","null","learn_feedback","","","learn_feedback","23.3333","70","out","","","","","","","","","","","","","","","","","","","","","","",""
"","","","","","canvas-keyboard-response","181","375168","0.0-12.0-4.33","2d_cat_multi_stim_exp1","2022-4-25","15:47:5","25","75","3","9","10","40","30","120","57","20","[""White""]","No","Female","2231433","null","null","","","","clear_screen","","","","","","","","","","","","","","","","","","","","","","","","","",""
"","","","","","canvas-keyboard-response","182","375676","0.0-12.0-0.34","2d_cat_multi_stim_exp1","2022-4-25","15:47:5","25","75","3","9","10","40","30","120","57","20","[""White""]","No","Female","2231433","null","null","","","","fixation","","","","","","","","","","","","","","","","","","","","","","","","","",""
"","","","","","canvas-keyboard-response","183","376190","0.0-12.0-1.34","2d_cat_multi_stim_exp1","2022-4-25","15:47:5","25","75","3","9","10","40","30","120","57","20","[""White""]","No","Female","2231433","null","null","","","","clear_screen","","","","","","","","","","","","","","","","","","","","","","","","","",""
"","","","","","canvas-keyboard-response","184","377144","0.0-12.0-2.34","2d_cat_multi_stim_exp1","2022-4-25","15:47:5","25","75","3","9","10","40","30","120","57","20","[""White""]","No","Female","2231433","942","i","learn","","","learn_trial","20.7574","62.2721","in","0","0","","","","","","","","","","","","","","","","","","","","",""
"","","","","","canvas-keyboard-response","185","378153","0.0-12.0-3.34","2d_cat_multi_stim_exp1","2022-4-25","15:47:5","25","75","3","9","10","40","30","120","57","20","[""White""]","No","Female","2231433","null","null","learn_feedback","","","learn_feedback","20.7574","62.2721","in","","","","","","","","","","","","","","","","","","","","","","",""
"","","","","","canvas-keyboard-response","186","378217","0.0-12.0-4.34","2d_cat_multi_stim_exp1","2022-4-25","15:47:5","25","75","3","9","10","40","30","120","57","20","[""White""]","No","Female","2231433","null","null","","","","clear_screen","","","","","","","","","","","","","","","","","","","","","","","","","",""
"","","","","","canvas-keyboard-response","187","378725","0.0-12.0-0.35","2d_cat_multi_stim_exp1","2022-4-25","15:47:5","25","75","3","9","10","40","30","120","57","20","[""White""]","No","Female","2231433","null","null","","","","fixation","","","","","","","","","","","","","","","","","","","","","","","","","",""
"","","","","","canvas-keyboard-response","188","379235","0.0-12.0-1.35","2d_cat_multi_stim_exp1","2022-4-25","15:47:5","25","75","3","9","10","40","30","120","57","20","[""White""]","No","Female","2231433","null","null","","","","clear_screen","","","","","","","","","","","","","","","","","","","","","","","","","",""
"","","","","","canvas-keyboard-response","189","380433","0.0-12.0-2.35","2d_cat_multi_stim_exp1","2022-4-25","15:47:5","25","75","3","9","10","40","30","120","57","20","[""White""]","No","Female","2231433","1187","u","learn","","","learn_trial","25.9271","66.4405","in","1","1","","","","","","","","","","","","","","","","","","","","",""
"","","","","","canvas-keyboard-response","190","380942","0.0-12.0-3.35","2d_cat_multi_stim_exp1","2022-4-25","15:47:5","25","75","3","9","10","40","30","120","57","20","[""White""]","No","Female","2231433","null","null","learn_feedback","","","learn_feedback","25.9271","66.4405","in","","","","","","","","","","","","","","","","","","","","","","",""
"","","","","","canvas-keyboard-response","191","381005","0.0-12.0-4.35","2d_cat_multi_stim_exp1","2022-4-25","15:47:5","25","75","3","9","10","40","30","120","57","20","[""White""]","No","Female","2231433","null","null","","","","clear_screen","","","","","","","","","","","","","","","","","","","","","","","","","",""
"","","","","","canvas-keyboard-response","192","381513","0.0-12.0-0.36","2d_cat_multi_stim_exp1","2022-4-25","15:47:5","25","75","3","9","10","40","30","120","57","20","[""White""]","No","Female","2231433","null","null","","","","fixation","","","","","","","","","","","","","","","","","","","","","","","","","",""
"","","","","","canvas-keyboard-response","193","382023","0.0-12.0-1.36","2d_cat_multi_stim_exp1","2022-4-25","15:47:5","25","75","3","9","10","40","30","120","57","20","[""White""]","No","Female","2231433","null","null","","","","clear_screen","","","","","","","","","","","","","","","","","","","","","","","","","",""
"","","","","","canvas-keyboard-response","194","382777","0.0-12.0-2.36","2d_cat_multi_stim_exp1","2022-4-25","15:47:5","25","75","3","9","10","40","30","120","57","20","[""White""]","No","Female","2231433","741","u","learn","","","learn_trial","25","75","in","1","1","","","","","","","","","","","","","","","","","","","","",""
"","","","","","canvas-keyboard-response","195","383286","0.0-12.0-3.36","2d_cat_multi_stim_exp1","2022-4-25","15:47:5","25","75","3","9","10","40","30","120","57","20","[""White""]","No","Female","2231433","null","null","learn_feedback","","","learn_feedback","25","75","in","","","","","","","","","","","","","","","","","","","","","","",""
"","","","","","canvas-keyboard-response","196","383345","0.0-12.0-4.36","2d_cat_multi_stim_exp1","2022-4-25","15:47:5","25","75","3","9","10","40","30","120","57","20","[""White""]","No","Female","2231433","null","null","","","","clear_screen","","","","","","","","","","","","","","","","","","","","","","","","","",""
"","","","","","canvas-keyboard-response","197","383853","0.0-12.0-0.37","2d_cat_multi_stim_exp1","2022-4-25","15:47:5","25","75","3","9","10","40","30","120","57","20","[""White""]","No","Female","2231433","null","null","","","","fixation","","","","","","","","","","","","","","","","","","","","","","","","","",""
"","","","","","canvas-keyboard-response","198","384363","0.0-12.0-1.37","2d_cat_multi_stim_exp1","2022-4-25","15:47:5","25","75","3","9","10","40","30","120","57","20","[""White""]","No","Female","2231433","null","null","","","","clear_screen","","","","","","","","","","","","","","","","","","","","","","","","","",""
"","","","","","canvas-keyboard-response","199","385569","0.0-12.0-2.37","2d_cat_multi_stim_exp1","2022-4-25","15:47:5","25","75","3","9","10","40","30","120","57","20","[""White""]","No","Female","2231433","1197","u","learn","","","learn_trial","26.6667","60","out","1","0","","","","","","","","","","","","","","","","","","","","",""
"","","","","","canvas-keyboard-response","200","386580","0.0-12.0-3.37","2d_cat_multi_stim_exp1","2022-4-25","15:47:5","25","75","3","9","10","40","30","120","57","20","[""White""]","No","Female","2231433","null","null","learn_feedback","","","learn_feedback","26.6667","60","out","","","","","","","","","","","","","","","","","","","","","","",""
"","","","","","canvas-keyboard-response","201","386642","0.0-12.0-4.37","2d_cat_multi_stim_exp1","2022-4-25","15:47:5","25","75","3","9","10","40","30","120","57","20","[""White""]","No","Female","2231433","null","null","","","","clear_screen","","","","","","","","","","","","","","","","","","","","","","","","","",""
"","","","","","canvas-keyboard-response","202","387151","0.0-12.0-0.38","2d_cat_multi_stim_exp1","2022-4-25","15:47:5","25","75","3","9","10","40","30","120","57","20","[""White""]","No","Female","2231433","null","null","","","","fixation","","","","","","","","","","","","","","","","","","","","","","","","","",""
"","","","","","canvas-keyboard-response","203","387665","0.0-12.0-1.38","2d_cat_multi_stim_exp1","2022-4-25","15:47:5","25","75","3","9","10","40","30","120","57","20","[""White""]","No","Female","2231433","null","null","","","","clear_screen","","","","","","","","","","","","","","","","","","","","","","","","","",""
"","","","","","canvas-keyboard-response","204","388377","0.0-12.0-2.38","2d_cat_multi_stim_exp1","2022-4-25","15:47:5","25","75","3","9","10","40","30","120","57","20","[""White""]","No","Female","2231433","704","i","learn","","","learn_trial","10","40","out","0","1","","","","","","","","","","","","","","","","","","","","",""
"","","","","","canvas-keyboard-response","205","388888","0.0-12.0-3.38","2d_cat_multi_stim_exp1","2022-4-25","15:47:5","25","75","3","9","10","40","30","120","57","20","[""White""]","No","Female","2231433","null","null","learn_feedback","","","learn_feedback","10","40","out","","","","","","","","","","","","","","","","","","","","","","",""
"","","","","","canvas-keyboard-response","206","388948","0.0-12.0-4.38","2d_cat_multi_stim_exp1","2022-4-25","15:47:5","25","75","3","9","10","40","30","120","57","20","[""White""]","No","Female","2231433","null","null","","","","clear_screen","","","","","","","","","","","","","","","","","","","","","","","","","",""
"","","","","","canvas-keyboard-response","207","389456","0.0-12.0-0.39","2d_cat_multi_stim_exp1","2022-4-25","15:47:5","25","75","3","9","10","40","30","120","57","20","[""White""]","No","Female","2231433","null","null","","","","fixation","","","","","","","","","","","","","","","","","","","","","","","","","",""
"","","","","","canvas-keyboard-response","208","389967","0.0-12.0-1.39","2d_cat_multi_stim_exp1","2022-4-25","15:47:5","25","75","3","9","10","40","30","120","57","20","[""White""]","No","Female","2231433","null","null","","","","clear_screen","","","","","","","","","","","","","","","","","","","","","","","","","",""
"","","","","","canvas-keyboard-response","209","391081","0.0-12.0-2.39","2d_cat_multi_stim_exp1","2022-4-25","15:47:5","25","75","3","9","10","40","30","120","57","20","[""White""]","No","Female","2231433","1104","u","learn","","","learn_trial","25","75","in","1","1","","","","","","","","","","","","","","","","","","","","",""
"","","","","","canvas-keyboard-response","210","391591","0.0-12.0-3.39","2d_cat_multi_stim_exp1","2022-4-25","15:47:5","25","75","3","9","10","40","30","120","57","20","[""White""]","No","Female","2231433","null","null","learn_feedback","","","learn_feedback","25","75","in","","","","","","","","","","","","","","","","","","","","","","",""
"","","","","","canvas-keyboard-response","211","391650","0.0-12.0-4.39","2d_cat_multi_stim_exp1","2022-4-25","15:47:5","25","75","3","9","10","40","30","120","57","20","[""White""]","No","Female","2231433","null","null","","","","clear_screen","","","","","","","","","","","","","","","","","","","","","","","","","",""
"","","","","","canvas-keyboard-response","212","392160","0.0-12.0-0.40","2d_cat_multi_stim_exp1","2022-4-25","15:47:5","25","75","3","9","10","40","30","120","57","20","[""White""]","No","Female","2231433","null","null","","","","fixation","","","","","","","","","","","","","","","","","","","","","","","","","",""
"","","","","","canvas-keyboard-response","213","392670","0.0-12.0-1.40","2d_cat_multi_stim_exp1","2022-4-25","15:47:5","25","75","3","9","10","40","30","120","57","20","[""White""]","No","Female","2231433","null","null","","","","clear_screen","","","","","","","","","","","","","","","","","","","","","","","","","",""
"","","","","","canvas-keyboard-response","214","393441","0.0-12.0-2.40","2d_cat_multi_stim_exp1","2022-4-25","15:47:5","25","75","3","9","10","40","30","120","57","20","[""White""]","No","Female","2231433","762","u","learn","","","learn_trial","25","75","in","1","1","","","","","","","","","","","","","","","","","","","","",""
"","","","","","canvas-keyboard-response","215","393949","0.0-12.0-3.40","2d_cat_multi_stim_exp1","2022-4-25","15:47:5","25","75","3","9","10","40","30","120","57","20","[""White""]","No","Female","2231433","null","null","learn_feedback","","","learn_feedback","25","75","in","","","","","","","","","","","","","","","","","","","","","","",""
"","","","","","canvas-keyboard-response","216","394010","0.0-12.0-4.40","2d_cat_multi_stim_exp1","2022-4-25","15:47:5","25","75","3","9","10","40","30","120","57","20","[""White""]","No","Female","2231433","null","null","","","","clear_screen","","","","","","","","","","","","","","","","","","","","","","","","","",""
"","","","","","canvas-keyboard-response","217","394519","0.0-12.0-0.41","2d_cat_multi_stim_exp1","2022-4-25","15:47:5","25","75","3","9","10","40","30","120","57","20","[""White""]","No","Female","2231433","null","null","","","","fixation","","","","","","","","","","","","","","","","","","","","","","","","","",""
"","","","","","canvas-keyboard-response","218","395028","0.0-12.0-1.41","2d_cat_multi_stim_exp1","2022-4-25","15:47:5","25","75","3","9","10","40","30","120","57","20","[""White""]","No","Female","2231433","null","null","","","","clear_screen","","","","","","","","","","","","","","","","","","","","","","","","","",""
"","","","","","canvas-keyboard-response","219","395922","0.0-12.0-2.41","2d_cat_multi_stim_exp1","2022-4-25","15:47:5","25","75","3","9","10","40","30","120","57","20","[""White""]","No","Female","2231433","886","i","learn","","","learn_trial","40","90","out","0","1","","","","","","","","","","","","","","","","","","","","",""
"","","","","","canvas-keyboard-response","220","396431","0.0-12.0-3.41","2d_cat_multi_stim_exp1","2022-4-25","15:47:5","25","75","3","9","10","40","30","120","57","20","[""White""]","No","Female","2231433","null","null","learn_feedback","","","learn_feedback","40","90","out","","","","","","","","","","","","","","","","","","","","","","",""
"","","","","","canvas-keyboard-response","221","396493","0.0-12.0-4.41","2d_cat_multi_stim_exp1","2022-4-25","15:47:5","25","75","3","9","10","40","30","120","57","20","[""White""]","No","Female","2231433","null","null","","","","clear_screen","","","","","","","","","","","","","","","","","","","","","","","","","",""
"","","","","","canvas-keyboard-response","222","397002","0.0-12.0-0.42","2d_cat_multi_stim_exp1","2022-4-25","15:47:5","25","75","3","9","10","40","30","120","57","20","[""White""]","No","Female","2231433","null","null","","","","fixation","","","","","","","","","","","","","","","","","","","","","","","","","",""
"","","","","","canvas-keyboard-response","223","397514","0.0-12.0-1.42","2d_cat_multi_stim_exp1","2022-4-25","15:47:5","25","75","3","9","10","40","30","120","57","20","[""White""]","No","Female","2231433","null","null","","","","clear_screen","","","","","","","","","","","","","","","","","","","","","","","","","",""
"","","","","","canvas-keyboard-response","224","399898","0.0-12.0-2.42","2d_cat_multi_stim_exp1","2022-4-25","15:47:5","25","75","3","9","10","40","30","120","57","20","[""White""]","No","Female","2231433","2372","u","learn","","","learn_trial","33.3333","80","out","1","0","","","","","","","","","","","","","","","","","","","","",""
"","","","","","canvas-keyboard-response","225","400907","0.0-12.0-3.42","2d_cat_multi_stim_exp1","2022-4-25","15:47:5","25","75","3","9","10","40","30","120","57","20","[""White""]","No","Female","2231433","null","null","learn_feedback","","","learn_feedback","33.3333","80","out","","","","","","","","","","","","","","","","","","","","","","",""
"","","","","","canvas-keyboard-response","226","400970","0.0-12.0-4.42","2d_cat_multi_stim_exp1","2022-4-25","15:47:5","25","75","3","9","10","40","30","120","57","20","[""White""]","No","Female","2231433","null","null","","","","clear_screen","","","","","","","","","","","","","","","","","","","","","","","","","",""
"","","","","","canvas-keyboard-response","227","401480","0.0-12.0-0.43","2d_cat_multi_stim_exp1","2022-4-25","15:47:5","25","75","3","9","10","40","30","120","57","20","[""White""]","No","Female","2231433","null","null","","","","fixation","","","","","","","","","","","","","","","","","","","","","","","","","",""
"","","","","","canvas-keyboard-response","228","401991","0.0-12.0-1.43","2d_cat_multi_stim_exp1","2022-4-25","15:47:5","25","75","3","9","10","40","30","120","57","20","[""White""]","No","Female","2231433","null","null","","","","clear_screen","","","","","","","","","","","","","","","","","","","","","","","","","",""
"","","","","","canvas-keyboard-response","229","402666","0.0-12.0-2.43","2d_cat_multi_stim_exp1","2022-4-25","15:47:5","25","75","3","9","10","40","30","120","57","20","[""White""]","No","Female","2231433","660","i","learn","","","learn_trial","20","40","out","0","1","","","","","","","","","","","","","","","","","","","","",""
"","","","","","canvas-keyboard-response","230","403176","0.0-12.0-3.43","2d_cat_multi_stim_exp1","2022-4-25","15:47:5","25","75","3","9","10","40","30","120","57","20","[""White""]","No","Female","2231433","null","null","learn_feedback","","","learn_feedback","20","40","out","","","","","","","","","","","","","","","","","","","","","","",""
"","","","","","canvas-keyboard-response","231","403236","0.0-12.0-4.43","2d_cat_multi_stim_exp1","2022-4-25","15:47:5","25","75","3","9","10","40","30","120","57","20","[""White""]","No","Female","2231433","null","null","","","","clear_screen","","","","","","","","","","","","","","","","","","","","","","","","","",""
"","","","","","canvas-keyboard-response","232","403746","0.0-12.0-0.44","2d_cat_multi_stim_exp1","2022-4-25","15:47:5","25","75","3","9","10","40","30","120","57","20","[""White""]","No","Female","2231433","null","null","","","","fixation","","","","","","","","","","","","","","","","","","","","","","","","","",""
"","","","","","canvas-keyboard-response","233","404255","0.0-12.0-1.44","2d_cat_multi_stim_exp1","2022-4-25","15:47:5","25","75","3","9","10","40","30","120","57","20","[""White""]","No","Female","2231433","null","null","","","","clear_screen","","","","","","","","","","","","","","","","","","","","","","","","","",""
"","","","","","canvas-keyboard-response","234","405057","0.0-12.0-2.44","2d_cat_multi_stim_exp1","2022-4-25","15:47:5","25","75","3","9","10","40","30","120","57","20","[""White""]","No","Female","2231433","791","i","learn","","","learn_trial","13.3333","60","out","0","1","","","","","","","","","","","","","","","","","","","","",""
"","","","","","canvas-keyboard-response","235","405567","0.0-12.0-3.44","2d_cat_multi_stim_exp1","2022-4-25","15:47:5","25","75","3","9","10","40","30","120","57","20","[""White""]","No","Female","2231433","null","null","learn_feedback","","","learn_feedback","13.3333","60","out","","","","","","","","","","","","","","","","","","","","","","",""
"","","","","","canvas-keyboard-response","236","405628","0.0-12.0-4.44","2d_cat_multi_stim_exp1","2022-4-25","15:47:5","25","75","3","9","10","40","30","120","57","20","[""White""]","No","Female","2231433","null","null","","","","clear_screen","","","","","","","","","","","","","","","","","","","","","","","","","",""
"","","","","","canvas-keyboard-response","237","406139","0.0-12.0-0.45","2d_cat_multi_stim_exp1","2022-4-25","15:47:5","25","75","3","9","10","40","30","120","57","20","[""White""]","No","Female","2231433","null","null","","","","fixation","","","","","","","","","","","","","","","","","","","","","","","","","",""
"","","","","","canvas-keyboard-response","238","406652","0.0-12.0-1.45","2d_cat_multi_stim_exp1","2022-4-25","15:47:5","25","75","3","9","10","40","30","120","57","20","[""White""]","No","Female","2231433","null","null","","","","clear_screen","","","","","","","","","","","","","","","","","","","","","","","","","",""
"","","","","","canvas-keyboard-response","239","407441","0.0-12.0-2.45","2d_cat_multi_stim_exp1","2022-4-25","15:47:5","25","75","3","9","10","40","30","120","57","20","[""White""]","No","Female","2231433","780","u","learn","","","learn_trial","26.4216","67.0746","in","1","1","","","","","","","","","","","","","","","","","","","","",""
"","","","","","canvas-keyboard-response","240","407950","0.0-12.0-3.45","2d_cat_multi_stim_exp1","2022-4-25","15:47:5","25","75","3","9","10","40","30","120","57","20","[""White""]","No","Female","2231433","null","null","learn_feedback","","","learn_feedback","26.4216","67.0746","in","","","","","","","","","","","","","","","","","","","","","","",""
"","","","","","canvas-keyboard-response","241","408010","0.0-12.0-4.45","2d_cat_multi_stim_exp1","2022-4-25","15:47:5","25","75","3","9","10","40","30","120","57","20","[""White""]","No","Female","2231433","null","null","","","","clear_screen","","","","","","","","","","","","","","","","","","","","","","","","","",""
"","","","","","canvas-keyboard-response","242","408518","0.0-12.0-0.46","2d_cat_multi_stim_exp1","2022-4-25","15:47:5","25","75","3","9","10","40","30","120","57","20","[""White""]","No","Female","2231433","null","null","","","","fixation","","","","","","","","","","","","","","","","","","","","","","","","","",""
"","","","","","canvas-keyboard-response","243","409033","0.0-12.0-1.46","2d_cat_multi_stim_exp1","2022-4-25","15:47:5","25","75","3","9","10","40","30","120","57","20","[""White""]","No","Female","2231433","null","null","","","","clear_screen","","","","","","","","","","","","","","","","","","","","","","","","","",""
"","","","","","canvas-keyboard-response","244","409722","0.0-12.0-2.46","2d_cat_multi_stim_exp1","2022-4-25","15:47:5","25","75","3","9","10","40","30","120","57","20","[""White""]","No","Female","2231433","678","i","learn","","","learn_trial","10","100","out","0","1","","","","","","","","","","","","","","","","","","","","",""
"","","","","","canvas-keyboard-response","245","410233","0.0-12.0-3.46","2d_cat_multi_stim_exp1","2022-4-25","15:47:5","25","75","3","9","10","40","30","120","57","20","[""White""]","No","Female","2231433","null","null","learn_feedback","","","learn_feedback","10","100","out","","","","","","","","","","","","","","","","","","","","","","",""
"","","","","","canvas-keyboard-response","246","410295","0.0-12.0-4.46","2d_cat_multi_stim_exp1","2022-4-25","15:47:5","25","75","3","9","10","40","30","120","57","20","[""White""]","No","Female","2231433","null","null","","","","clear_screen","","","","","","","","","","","","","","","","","","","","","","","","","",""
"","","","","","canvas-keyboard-response","247","410804","0.0-12.0-0.47","2d_cat_multi_stim_exp1","2022-4-25","15:47:5","25","75","3","9","10","40","30","120","57","20","[""White""]","No","Female","2231433","null","null","","","","fixation","","","","","","","","","","","","","","","","","","","","","","","","","",""
"","","","","","canvas-keyboard-response","248","411317","0.0-12.0-1.47","2d_cat_multi_stim_exp1","2022-4-25","15:47:5","25","75","3","9","10","40","30","120","57","20","[""White""]","No","Female","2231433","null","null","","","","clear_screen","","","","","","","","","","","","","","","","","","","","","","","","","",""
"","","","","","canvas-keyboard-response","249","412185","0.0-12.0-2.47","2d_cat_multi_stim_exp1","2022-4-25","15:47:5","25","75","3","9","10","40","30","120","57","20","[""White""]","No","Female","2231433","859","u","learn","","","learn_trial","25.4027","83.9185","in","1","1","","","","","","","","","","","","","","","","","","","","",""
"","","","","","canvas-keyboard-response","250","412696","0.0-12.0-3.47","2d_cat_multi_stim_exp1","2022-4-25","15:47:5","25","75","3","9","10","40","30","120","57","20","[""White""]","No","Female","2231433","null","null","learn_feedback","","","learn_feedback","25.4027","83.9185","in","","","","","","","","","","","","","","","","","","","","","","",""
"","","","","","canvas-keyboard-response","251","412756","0.0-12.0-4.47","2d_cat_multi_stim_exp1","2022-4-25","15:47:5","25","75","3","9","10","40","30","120","57","20","[""White""]","No","Female","2231433","null","null","","","","clear_screen","","","","","","","","","","","","","","","","","","","","","","","","","",""
"","","","","","canvas-keyboard-response","252","413265","0.0-12.0-0.48","2d_cat_multi_stim_exp1","2022-4-25","15:47:5","25","75","3","9","10","40","30","120","57","20","[""White""]","No","Female","2231433","null","null","","","","fixation","","","","","","","","","","","","","","","","","","","","","","","","","",""
"","","","","","canvas-keyboard-response","253","413779","0.0-12.0-1.48","2d_cat_multi_stim_exp1","2022-4-25","15:47:5","25","75","3","9","10","40","30","120","57","20","[""White""]","No","Female","2231433","null","null","","","","clear_screen","","","","","","","","","","","","","","","","","","","","","","","","","",""
"","","","","","canvas-keyboard-response","254","414456","0.0-12.0-2.48","2d_cat_multi_stim_exp1","2022-4-25","15:47:5","25","75","3","9","10","40","30","120","57","20","[""White""]","No","Female","2231433","669","u","learn","","","learn_trial","25","75","in","1","1","","","","","","","","","","","","","","","","","","","","",""
"","","","","","canvas-keyboard-response","255","414969","0.0-12.0-3.48","2d_cat_multi_stim_exp1","2022-4-25","15:47:5","25","75","3","9","10","40","30","120","57","20","[""White""]","No","Female","2231433","null","null","learn_feedback","","","learn_feedback","25","75","in","","","","","","","","","","","","","","","","","","","","","","",""
"","","","","","canvas-keyboard-response","256","415031","0.0-12.0-4.48","2d_cat_multi_stim_exp1","2022-4-25","15:47:5","25","75","3","9","10","40","30","120","57","20","[""White""]","No","Female","2231433","null","null","","","","clear_screen","","","","","","","","","","","","","","","","","","","","","","","","","",""
"","","","","","canvas-keyboard-response","257","415540","0.0-12.0-0.49","2d_cat_multi_stim_exp1","2022-4-25","15:47:5","25","75","3","9","10","40","30","120","57","20","[""White""]","No","Female","2231433","null","null","","","","fixation","","","","","","","","","","","","","","","","","","","","","","","","","",""
"","","","","","canvas-keyboard-response","258","416049","0.0-12.0-1.49","2d_cat_multi_stim_exp1","2022-4-25","15:47:5","25","75","3","9","10","40","30","120","57","20","[""White""]","No","Female","2231433","null","null","","","","clear_screen","","","","","","","","","","","","","","","","","","","","","","","","","",""
"","","","","","canvas-keyboard-response","259","416801","0.0-12.0-2.49","2d_cat_multi_stim_exp1","2022-4-25","15:47:5","25","75","3","9","10","40","30","120","57","20","[""White""]","No","Female","2231433","740","i","learn","","","learn_trial","33.3333","30","out","0","1","","","","","","","","","","","","","","","","","","","","",""
"","","","","","canvas-keyboard-response","260","417313","0.0-12.0-3.49","2d_cat_multi_stim_exp1","2022-4-25","15:47:5","25","75","3","9","10","40","30","120","57","20","[""White""]","No","Female","2231433","null","null","learn_feedback","","","learn_feedback","33.3333","30","out","","","","","","","","","","","","","","","","","","","","","","",""
"","","","","","canvas-keyboard-response","261","417371","0.0-12.0-4.49","2d_cat_multi_stim_exp1","2022-4-25","15:47:5","25","75","3","9","10","40","30","120","57","20","[""White""]","No","Female","2231433","null","null","","","","clear_screen","","","","","","","","","","","","","","","","","","","","","","","","","",""
"","","","","","canvas-keyboard-response","262","417881","0.0-12.0-0.50","2d_cat_multi_stim_exp1","2022-4-25","15:47:5","25","75","3","9","10","40","30","120","57","20","[""White""]","No","Female","2231433","null","null","","","","fixation","","","","","","","","","","","","","","","","","","","","","","","","","",""
"","","","","","canvas-keyboard-response","263","418391","0.0-12.0-1.50","2d_cat_multi_stim_exp1","2022-4-25","15:47:5","25","75","3","9","10","40","30","120","57","20","[""White""]","No","Female","2231433","null","null","","","","clear_screen","","","","","","","","","","","","","","","","","","","","","","","","","",""
"","","","","","canvas-keyboard-response","264","419474","0.0-12.0-2.50","2d_cat_multi_stim_exp1","2022-4-25","15:47:5","25","75","3","9","10","40","30","120","57","20","[""White""]","No","Female","2231433","1073","u","learn","","","learn_trial","25","75","in","1","1","","","","","","","","","","","","","","","","","","","","",""
"","","","","","canvas-keyboard-response","265","419984","0.0-12.0-3.50","2d_cat_multi_stim_exp1","2022-4-25","15:47:5","25","75","3","9","10","40","30","120","57","20","[""White""]","No","Female","2231433","null","null","learn_feedback","","","learn_feedback","25","75","in","","","","","","","","","","","","","","","","","","","","","","",""
"","","","","","canvas-keyboard-response","266","420047","0.0-12.0-4.50","2d_cat_multi_stim_exp1","2022-4-25","15:47:5","25","75","3","9","10","40","30","120","57","20","[""White""]","No","Female","2231433","null","null","","","","clear_screen","","","","","","","","","","","","","","","","","","","","","","","","","",""
"","","","","","canvas-keyboard-response","267","420555","0.0-12.0-0.51","2d_cat_multi_stim_exp1","2022-4-25","15:47:5","25","75","3","9","10","40","30","120","57","20","[""White""]","No","Female","2231433","null","null","","","","fixation","","","","","","","","","","","","","","","","","","","","","","","","","",""
"","","","","","canvas-keyboard-response","268","421066","0.0-12.0-1.51","2d_cat_multi_stim_exp1","2022-4-25","15:47:5","25","75","3","9","10","40","30","120","57","20","[""White""]","No","Female","2231433","null","null","","","","clear_screen","","","","","","","","","","","","","","","","","","","","","","","","","",""
"","","","","","canvas-keyboard-response","269","421905","0.0-12.0-2.51","2d_cat_multi_stim_exp1","2022-4-25","15:47:5","25","75","3","9","10","40","30","120","57","20","[""White""]","No","Female","2231433","832","u","learn","","","learn_trial","25","75","in","1","1","","","","","","","","","","","","","","","","","","","","",""
"","","","","","canvas-keyboard-response","270","422414","0.0-12.0-3.51","2d_cat_multi_stim_exp1","2022-4-25","15:47:5","25","75","3","9","10","40","30","120","57","20","[""White""]","No","Female","2231433","null","null","learn_feedback","","","learn_feedback","25","75","in","","","","","","","","","","","","","","","","","","","","","","",""
"","","","","","canvas-keyboard-response","271","422473","0.0-12.0-4.51","2d_cat_multi_stim_exp1","2022-4-25","15:47:5","25","75","3","9","10","40","30","120","57","20","[""White""]","No","Female","2231433","null","null","","","","clear_screen","","","","","","","","","","","","","","","","","","","","","","","","","",""
"","","","","","canvas-keyboard-response","272","422982","0.0-12.0-0.52","2d_cat_multi_stim_exp1","2022-4-25","15:47:5","25","75","3","9","10","40","30","120","57","20","[""White""]","No","Female","2231433","null","null","","","","fixation","","","","","","","","","","","","","","","","","","","","","","","","","",""
"","","","","","canvas-keyboard-response","273","423494","0.0-12.0-1.52","2d_cat_multi_stim_exp1","2022-4-25","15:47:5","25","75","3","9","10","40","30","120","57","20","[""White""]","No","Female","2231433","null","null","","","","clear_screen","","","","","","","","","","","","","","","","","","","","","","","","","",""
"","","","","","canvas-keyboard-response","274","424577","0.0-12.0-2.52","2d_cat_multi_stim_exp1","2022-4-25","15:47:5","25","75","3","9","10","40","30","120","57","20","[""White""]","No","Female","2231433","1075","i","learn","","","learn_trial","36.6667","100","out","0","1","","","","","","","","","","","","","","","","","","","","",""
"","","","","","canvas-keyboard-response","275","425087","0.0-12.0-3.52","2d_cat_multi_stim_exp1","2022-4-25","15:47:5","25","75","3","9","10","40","30","120","57","20","[""White""]","No","Female","2231433","null","null","learn_feedback","","","learn_feedback","36.6667","100","out","","","","","","","","","","","","","","","","","","","","","","",""
"","","","","","canvas-keyboard-response","276","425150","0.0-12.0-4.52","2d_cat_multi_stim_exp1","2022-4-25","15:47:5","25","75","3","9","10","40","30","120","57","20","[""White""]","No","Female","2231433","null","null","","","","clear_screen","","","","","","","","","","","","","","","","","","","","","","","","","",""
"","","","","","canvas-keyboard-response","277","425657","0.0-12.0-0.53","2d_cat_multi_stim_exp1","2022-4-25","15:47:5","25","75","3","9","10","40","30","120","57","20","[""White""]","No","Female","2231433","null","null","","","","fixation","","","","","","","","","","","","","","","","","","","","","","","","","",""
"","","","","","canvas-keyboard-response","278","426167","0.0-12.0-1.53","2d_cat_multi_stim_exp1","2022-4-25","15:47:5","25","75","3","9","10","40","30","120","57","20","[""White""]","No","Female","2231433","null","null","","","","clear_screen","","","","","","","","","","","","","","","","","","","","","","","","","",""
"","","","","","canvas-keyboard-response","279","427386","0.0-12.0-2.53","2d_cat_multi_stim_exp1","2022-4-25","15:47:5","25","75","3","9","10","40","30","120","57","20","[""White""]","No","Female","2231433","1209","u","learn","","","learn_trial","25.4027","66.0815","in","1","1","","","","","","","","","","","","","","","","","","","","",""
"","","","","","canvas-keyboard-response","280","427895","0.0-12.0-3.53","2d_cat_multi_stim_exp1","2022-4-25","15:47:5","25","75","3","9","10","40","30","120","57","20","[""White""]","No","Female","2231433","null","null","learn_feedback","","","learn_feedback","25.4027","66.0815","in","","","","","","","","","","","","","","","","","","","","","","",""
"","","","","","canvas-keyboard-response","281","427958","0.0-12.0-4.53","2d_cat_multi_stim_exp1","2022-4-25","15:47:5","25","75","3","9","10","40","30","120","57","20","[""White""]","No","Female","2231433","null","null","","","","clear_screen","","","","","","","","","","","","","","","","","","","","","","","","","",""
"","","","","","canvas-keyboard-response","282","428468","0.0-12.0-0.54","2d_cat_multi_stim_exp1","2022-4-25","15:47:5","25","75","3","9","10","40","30","120","57","20","[""White""]","No","Female","2231433","null","null","","","","fixation","","","","","","","","","","","","","","","","","","","","","","","","","",""
"","","","","","canvas-keyboard-response","283","428982","0.0-12.0-1.54","2d_cat_multi_stim_exp1","2022-4-25","15:47:5","25","75","3","9","10","40","30","120","57","20","[""White""]","No","Female","2231433","null","null","","","","clear_screen","","","","","","","","","","","","","","","","","","","","","","","","","",""
"","","","","","canvas-keyboard-response","284","430001","0.0-12.0-2.54","2d_cat_multi_stim_exp1","2022-4-25","15:47:5","25","75","3","9","10","40","30","120","57","20","[""White""]","No","Female","2231433","1011","u","learn","","","learn_trial","25","75","in","1","1","","","","","","","","","","","","","","","","","","","","",""
"","","","","","canvas-keyboard-response","285","430512","0.0-12.0-3.54","2d_cat_multi_stim_exp1","2022-4-25","15:47:5","25","75","3","9","10","40","30","120","57","20","[""White""]","No","Female","2231433","null","null","learn_feedback","","","learn_feedback","25","75","in","","","","","","","","","","","","","","","","","","","","","","",""
"","","","","","canvas-keyboard-response","286","430571","0.0-12.0-4.54","2d_cat_multi_stim_exp1","2022-4-25","15:47:5","25","75","3","9","10","40","30","120","57","20","[""White""]","No","Female","2231433","null","null","","","","clear_screen","","","","","","","","","","","","","","","","","","","","","","","","","",""
"","","","","","canvas-keyboard-response","287","431080","0.0-12.0-0.55","2d_cat_multi_stim_exp1","2022-4-25","15:47:5","25","75","3","9","10","40","30","120","57","20","[""White""]","No","Female","2231433","null","null","","","","fixation","","","","","","","","","","","","","","","","","","","","","","","","","",""
"","","","","","canvas-keyboard-response","288","431593","0.0-12.0-1.55","2d_cat_multi_stim_exp1","2022-4-25","15:47:5","25","75","3","9","10","40","30","120","57","20","[""White""]","No","Female","2231433","null","null","","","","clear_screen","","","","","","","","","","","","","","","","","","","","","","","","","",""
"","","","","","canvas-keyboard-response","289","434705","0.0-12.0-2.55","2d_cat_multi_stim_exp1","2022-4-25","15:47:5","25","75","3","9","10","40","30","120","57","20","[""White""]","No","Female","2231433","3104","i","learn","","","learn_trial","40","40","out","0","1","","","","","","","","","","","","","","","","","","","","",""
"","","","","","canvas-keyboard-response","290","435217","0.0-12.0-3.55","2d_cat_multi_stim_exp1","2022-4-25","15:47:5","25","75","3","9","10","40","30","120","57","20","[""White""]","No","Female","2231433","null","null","learn_feedback","","","learn_feedback","40","40","out","","","","","","","","","","","","","","","","","","","","","","",""
"","","","","","canvas-keyboard-response","291","435277","0.0-12.0-4.55","2d_cat_multi_stim_exp1","2022-4-25","15:47:5","25","75","3","9","10","40","30","120","57","20","[""White""]","No","Female","2231433","null","null","","","","clear_screen","","","","","","","","","","","","","","","","","","","","","","","","","",""
"","","","","","canvas-keyboard-response","292","435786","0.0-12.0-0.56","2d_cat_multi_stim_exp1","2022-4-25","15:47:5","25","75","3","9","10","40","30","120","57","20","[""White""]","No","Female","2231433","null","null","","","","fixation","","","","","","","","","","","","","","","","","","","","","","","","","",""
"","","","","","canvas-keyboard-response","293","436300","0.0-12.0-1.56","2d_cat_multi_stim_exp1","2022-4-25","15:47:5","25","75","3","9","10","40","30","120","57","20","[""White""]","No","Female","2231433","null","null","","","","clear_screen","","","","","","","","","","","","","","","","","","","","","","","","","",""
"","","","","","canvas-keyboard-response","294","437984","0.0-12.0-2.56","2d_cat_multi_stim_exp1","2022-4-25","15:47:5","25","75","3","9","10","40","30","120","57","20","[""White""]","No","Female","2231433","1673","u","learn","","","learn_trial","25","75","in","1","1","","","","","","","","","","","","","","","","","","","","",""
"","","","","","canvas-keyboard-response","295","438495","0.0-12.0-3.56","2d_cat_multi_stim_exp1","2022-4-25","15:47:5","25","75","3","9","10","40","30","120","57","20","[""White""]","No","Female","2231433","null","null","learn_feedback","","","learn_feedback","25","75","in","","","","","","","","","","","","","","","","","","","","","","",""
"","","","","","canvas-keyboard-response","296","438555","0.0-12.0-4.56","2d_cat_multi_stim_exp1","2022-4-25","15:47:5","25","75","3","9","10","40","30","120","57","20","[""White""]","No","Female","2231433","null","null","","","","clear_screen","","","","","","","","","","","","","","","","","","","","","","","","","",""
"","","","","","canvas-keyboard-response","297","439063","0.0-12.0-0.57","2d_cat_multi_stim_exp1","2022-4-25","15:47:5","25","75","3","9","10","40","30","120","57","20","[""White""]","No","Female","2231433","null","null","","","","fixation","","","","","","","","","","","","","","","","","","","","","","","","","",""
