"success","timeout","failed_images","failed_audio","failed_video","trial_type","trial_index","time_elapsed","internal_node_id","exp_name","date","time","angle_mean_in","radius_mean_in","angle_sd_in","radius_sd_in","angle_min_out","angle_max_out","radius_min_out","radius_max_out","sub_n","age","race","ethnicity","gender","exp_duration","rt","response","exp_trial_type","stimulus","view_history","screen_id","angle","radius","distribution","choice","correct","order","angle_a","radius_a","angle_b","radius_b","angle_c","radius_c","jkl_correct","transfer_trial_type","choice_set","abc_correct","tc_correct","tc_angle","tdc_a","tdc_b","tdc_c","pair","category_a","category_b","category_c","question_order"
"true","false","[]","[]","[]","preload","0","34","0.0-0.0","2d_cat_multi_stim_exp1","2022-5-4","13:55:53","25","75","3","9","10","40","30","120","91","20","[""Prefer not to say""]","No","Female","3005186","","","","","","","","","","","","","","","","","","","","","","","","","","","","","","","",""
"","","","","","survey-html-form","1","1797","0.0-1.0","2d_cat_multi_stim_exp1","2022-5-4","13:55:53","25","75","3","9","10","40","30","120","91","20","[""Prefer not to say""]","No","Female","3005186","1748","{""response"":""91""}","enter-sub-number","","","","","","","","","","","","","","","","","","","","","","","","","","","","",""
"true","","","","","fullscreen","2","3466","0.0-2.0","2d_cat_multi_stim_exp1","2022-5-4","13:55:53","25","75","3","9","10","40","30","120","91","20","[""Prefer not to say""]","No","Female","3005186","","","","","","","","","","","","","","","","","","","","","","","","","","","","","","","",""
"","","","","","image-button-response","3","1226335","0.0-3.0","2d_cat_multi_stim_exp1","2022-5-4","13:55:53","25","75","3","9","10","40","30","120","91","20","[""Prefer not to say""]","No","Female","3005186","1222862","0","","consent.png","","","","","","","","","","","","","","","","","","","","","","","","","","","",""
"","","","","","html-button-response","4","1236360","0.0-4.0","2d_cat_multi_stim_exp1","2022-5-4","13:55:53","25","75","3","9","10","40","30","120","91","20","[""Prefer not to say""]","No","Female","3005186","10021","0","","<div style= ""font-size:25px;"" <p> <strong> Welcome to the experiment! </strong><br> <p style=""color:#8B0000; font-size:25px;""><strong> Please do NOT exit full screen until you are done with the experiment. </strong> </p><p style=""font-size:25px;color:#8B0000;""> <strong> The experiment will be canceled and your data will be lost <br> if you try to go back or refresh the page at any point during the experiment.</strong> </p><br><p> <strong> Thanks in advance for your contribution to our research! </strong></p>","","","","","","","","","","","","","","","","","","","","","","","","","","","",""
"","","","","","instructions","5","1282473","0.0-5.0","2d_cat_multi_stim_exp1","2022-5-4","13:55:53","25","75","3","9","10","40","30","120","91","20","[""Prefer not to say""]","No","Female","3005186","46109","","","","[{""page_index"":0,""viewing_time"":6540},{""page_index"":1,""viewing_time"":2176},{""page_index"":2,""viewing_time"":10447},{""page_index"":3,""viewing_time"":26945}]","instructions_1","","","","","","","","","","","","","","","","","","","","","","","","","",""
"","","","","","instructions","6","1285457","0.0-6.0","2d_cat_multi_stim_exp1","2022-5-4","13:55:53","25","75","3","9","10","40","30","120","91","20","[""Prefer not to say""]","No","Female","3005186","2981","","","","[{""page_index"":0,""viewing_time"":2980}]","Click to see the kinds of turtles that will appear in the study.","","","","","","","","","","","","","","","","","","","","","","","","","",""
"","","","","","canvas-keyboard-response","7","1300475","0.0-7.0","2d_cat_multi_stim_exp1","2022-5-4","13:55:53","25","75","3","9","10","40","30","120","91","20","[""Prefer not to say""]","No","Female","3005186","null","null","","","","demo_range","","","","","","","","","","","","","","","","","","","","","","","","","",""
"","","","","","instructions","8","1303224","0.0-8.0","2d_cat_multi_stim_exp1","2022-5-4","13:55:53","25","75","3","9","10","40","30","120","91","20","[""Prefer not to say""]","No","Female","3005186","2248","","","","[{""page_index"":0,""viewing_time"":2248}]","Click to see some turtles in the subspecies.","","","","","","","","","","","","","","","","","","","","","","","","","",""
"","","","","","canvas-keyboard-response","9","1318239","0.0-9.0","2d_cat_multi_stim_exp1","2022-5-4","13:55:53","25","75","3","9","10","40","30","120","91","20","[""Prefer not to say""]","No","Female","3005186","null","null","","","","demo_in","","","","","","","","","","","","","","","","","","","","","","","","","",""
"","","","","","instructions","10","1358688","0.0-10.0","2d_cat_multi_stim_exp1","2022-5-4","13:55:53","25","75","3","9","10","40","30","120","91","20","[""Prefer not to say""]","No","Female","3005186","39947","","","","[{""page_index"":0,""viewing_time"":7549},{""page_index"":1,""viewing_time"":17374},{""page_index"":2,""viewing_time"":15024}]","instructions_2","","","","","","","","","","","","","","","","","","","","","","","","","",""
"","","","","","instructions","11","1359736","0.0-11.0","2d_cat_multi_stim_exp1","2022-5-4","13:55:53","25","75","3","9","10","40","30","120","91","20","[""Prefer not to say""]","No","Female","3005186","1046","","","","[{""page_index"":0,""viewing_time"":1046}]","Click to begin the first phase of the experiment.","","","","","","","","","","","","","","","","","","","","","","","","","",""
"","","","","","canvas-keyboard-response","12","1360247","0.0-12.0-0.0","2d_cat_multi_stim_exp1","2022-5-4","13:55:53","25","75","3","9","10","40","30","120","91","20","[""Prefer not to say""]","No","Female","3005186","null","null","","","","fixation","","","","","","","","","","","","","","","","","","","","","","","","","",""
"","","","","","canvas-keyboard-response","13","1360761","0.0-12.0-1.0","2d_cat_multi_stim_exp1","2022-5-4","13:55:53","25","75","3","9","10","40","30","120","91","20","[""Prefer not to say""]","No","Female","3005186","null","null","","","","clear_screen","","","","","","","","","","","","","","","","","","","","","","","","","",""
"","","","","","canvas-keyboard-response","14","1364113","0.0-12.0-2.0","2d_cat_multi_stim_exp1","2022-5-4","13:55:53","25","75","3","9","10","40","30","120","91","20","[""Prefer not to say""]","No","Female","3005186","3341","u","learn","","","learn_trial","25","75","in","1","1","","","","","","","","","","","","","","","","","","","","",""
"","","","","","canvas-keyboard-response","15","1364623","0.0-12.0-3.0","2d_cat_multi_stim_exp1","2022-5-4","13:55:53","25","75","3","9","10","40","30","120","91","20","[""Prefer not to say""]","No","Female","3005186","null","null","learn_feedback","","","learn_feedback","25","75","in","","","","","","","","","","","","","","","","","","","","","","",""
"","","","","","canvas-keyboard-response","16","1364683","0.0-12.0-4.0","2d_cat_multi_stim_exp1","2022-5-4","13:55:53","25","75","3","9","10","40","30","120","91","20","[""Prefer not to say""]","No","Female","3005186","null","null","","","","clear_screen","","","","","","","","","","","","","","","","","","","","","","","","","",""
"","","","","","canvas-keyboard-response","17","1365192","0.0-12.0-0.1","2d_cat_multi_stim_exp1","2022-5-4","13:55:53","25","75","3","9","10","40","30","120","91","20","[""Prefer not to say""]","No","Female","3005186","null","null","","","","fixation","","","","","","","","","","","","","","","","","","","","","","","","","",""
"","","","","","canvas-keyboard-response","18","1365706","0.0-12.0-1.1","2d_cat_multi_stim_exp1","2022-5-4","13:55:53","25","75","3","9","10","40","30","120","91","20","[""Prefer not to say""]","No","Female","3005186","null","null","","","","clear_screen","","","","","","","","","","","","","","","","","","","","","","","","","",""
"","","","","","canvas-keyboard-response","19","1367657","0.0-12.0-2.1","2d_cat_multi_stim_exp1","2022-5-4","13:55:53","25","75","3","9","10","40","30","120","91","20","[""Prefer not to say""]","No","Female","3005186","1942","u","learn","","","learn_trial","20","110","out","1","0","","","","","","","","","","","","","","","","","","","","",""
"","","","","","canvas-keyboard-response","20","1368668","0.0-12.0-3.1","2d_cat_multi_stim_exp1","2022-5-4","13:55:53","25","75","3","9","10","40","30","120","91","20","[""Prefer not to say""]","No","Female","3005186","null","null","learn_feedback","","","learn_feedback","20","110","out","","","","","","","","","","","","","","","","","","","","","","",""
"","","","","","canvas-keyboard-response","21","1368730","0.0-12.0-4.1","2d_cat_multi_stim_exp1","2022-5-4","13:55:53","25","75","3","9","10","40","30","120","91","20","[""Prefer not to say""]","No","Female","3005186","null","null","","","","clear_screen","","","","","","","","","","","","","","","","","","","","","","","","","",""
"","","","","","canvas-keyboard-response","22","1369239","0.0-12.0-0.2","2d_cat_multi_stim_exp1","2022-5-4","13:55:53","25","75","3","9","10","40","30","120","91","20","[""Prefer not to say""]","No","Female","3005186","null","null","","","","fixation","","","","","","","","","","","","","","","","","","","","","","","","","",""
"","","","","","canvas-keyboard-response","23","1369751","0.0-12.0-1.2","2d_cat_multi_stim_exp1","2022-5-4","13:55:53","25","75","3","9","10","40","30","120","91","20","[""Prefer not to say""]","No","Female","3005186","null","null","","","","clear_screen","","","","","","","","","","","","","","","","","","","","","","","","","",""
"","","","","","canvas-keyboard-response","24","1370721","0.0-12.0-2.2","2d_cat_multi_stim_exp1","2022-5-4","13:55:53","25","75","3","9","10","40","30","120","91","20","[""Prefer not to say""]","No","Female","3005186","959","u","learn","","","learn_trial","22.9268","68.4948","in","1","1","","","","","","","","","","","","","","","","","","","","",""
"","","","","","canvas-keyboard-response","25","1371230","0.0-12.0-3.2","2d_cat_multi_stim_exp1","2022-5-4","13:55:53","25","75","3","9","10","40","30","120","91","20","[""Prefer not to say""]","No","Female","3005186","null","null","learn_feedback","","","learn_feedback","22.9268","68.4948","in","","","","","","","","","","","","","","","","","","","","","","",""
"","","","","","canvas-keyboard-response","26","1371285","0.0-12.0-4.2","2d_cat_multi_stim_exp1","2022-5-4","13:55:53","25","75","3","9","10","40","30","120","91","20","[""Prefer not to say""]","No","Female","3005186","null","null","","","","clear_screen","","","","","","","","","","","","","","","","","","","","","","","","","",""
"","","","","","canvas-keyboard-response","27","1371793","0.0-12.0-0.3","2d_cat_multi_stim_exp1","2022-5-4","13:55:53","25","75","3","9","10","40","30","120","91","20","[""Prefer not to say""]","No","Female","3005186","null","null","","","","fixation","","","","","","","","","","","","","","","","","","","","","","","","","",""
"","","","","","canvas-keyboard-response","28","1372302","0.0-12.0-1.3","2d_cat_multi_stim_exp1","2022-5-4","13:55:53","25","75","3","9","10","40","30","120","91","20","[""Prefer not to say""]","No","Female","3005186","null","null","","","","clear_screen","","","","","","","","","","","","","","","","","","","","","","","","","",""
"","","","","","canvas-keyboard-response","29","1373144","0.0-12.0-2.3","2d_cat_multi_stim_exp1","2022-5-4","13:55:53","25","75","3","9","10","40","30","120","91","20","[""Prefer not to say""]","No","Female","3005186","831","u","learn","","","learn_trial","10","80","out","1","0","","","","","","","","","","","","","","","","","","","","",""
"","","","","","canvas-keyboard-response","30","1374154","0.0-12.0-3.3","2d_cat_multi_stim_exp1","2022-5-4","13:55:53","25","75","3","9","10","40","30","120","91","20","[""Prefer not to say""]","No","Female","3005186","null","null","learn_feedback","","","learn_feedback","10","80","out","","","","","","","","","","","","","","","","","","","","","","",""
"","","","","","canvas-keyboard-response","31","1374217","0.0-12.0-4.3","2d_cat_multi_stim_exp1","2022-5-4","13:55:53","25","75","3","9","10","40","30","120","91","20","[""Prefer not to say""]","No","Female","3005186","null","null","","","","clear_screen","","","","","","","","","","","","","","","","","","","","","","","","","",""
"","","","","","canvas-keyboard-response","32","1374726","0.0-12.0-0.4","2d_cat_multi_stim_exp1","2022-5-4","13:55:53","25","75","3","9","10","40","30","120","91","20","[""Prefer not to say""]","No","Female","3005186","null","null","","","","fixation","","","","","","","","","","","","","","","","","","","","","","","","","",""
"","","","","","canvas-keyboard-response","33","1375238","0.0-12.0-1.4","2d_cat_multi_stim_exp1","2022-5-4","13:55:53","25","75","3","9","10","40","30","120","91","20","[""Prefer not to say""]","No","Female","3005186","null","null","","","","clear_screen","","","","","","","","","","","","","","","","","","","","","","","","","",""
"","","","","","canvas-keyboard-response","34","1376673","0.0-12.0-2.4","2d_cat_multi_stim_exp1","2022-5-4","13:55:53","25","75","3","9","10","40","30","120","91","20","[""Prefer not to say""]","No","Female","3005186","1427","i","learn","","","learn_trial","30","40","out","0","1","","","","","","","","","","","","","","","","","","","","",""
"","","","","","canvas-keyboard-response","35","1377184","0.0-12.0-3.4","2d_cat_multi_stim_exp1","2022-5-4","13:55:53","25","75","3","9","10","40","30","120","91","20","[""Prefer not to say""]","No","Female","3005186","null","null","learn_feedback","","","learn_feedback","30","40","out","","","","","","","","","","","","","","","","","","","","","","",""
"","","","","","canvas-keyboard-response","36","1377244","0.0-12.0-4.4","2d_cat_multi_stim_exp1","2022-5-4","13:55:53","25","75","3","9","10","40","30","120","91","20","[""Prefer not to say""]","No","Female","3005186","null","null","","","","clear_screen","","","","","","","","","","","","","","","","","","","","","","","","","",""
"","","","","","canvas-keyboard-response","37","1377751","0.0-12.0-0.5","2d_cat_multi_stim_exp1","2022-5-4","13:55:53","25","75","3","9","10","40","30","120","91","20","[""Prefer not to say""]","No","Female","3005186","null","null","","","","fixation","","","","","","","","","","","","","","","","","","","","","","","","","",""
"","","","","","canvas-keyboard-response","38","1378261","0.0-12.0-1.5","2d_cat_multi_stim_exp1","2022-5-4","13:55:53","25","75","3","9","10","40","30","120","91","20","[""Prefer not to say""]","No","Female","3005186","null","null","","","","clear_screen","","","","","","","","","","","","","","","","","","","","","","","","","",""
"","","","","","canvas-keyboard-response","39","1379992","0.0-12.0-2.5","2d_cat_multi_stim_exp1","2022-5-4","13:55:53","25","75","3","9","10","40","30","120","91","20","[""Prefer not to say""]","No","Female","3005186","1721","u","learn","","","learn_trial","25","75","in","1","1","","","","","","","","","","","","","","","","","","","","",""
"","","","","","canvas-keyboard-response","40","1380503","0.0-12.0-3.5","2d_cat_multi_stim_exp1","2022-5-4","13:55:53","25","75","3","9","10","40","30","120","91","20","[""Prefer not to say""]","No","Female","3005186","null","null","learn_feedback","","","learn_feedback","25","75","in","","","","","","","","","","","","","","","","","","","","","","",""
"","","","","","canvas-keyboard-response","41","1380563","0.0-12.0-4.5","2d_cat_multi_stim_exp1","2022-5-4","13:55:53","25","75","3","9","10","40","30","120","91","20","[""Prefer not to say""]","No","Female","3005186","null","null","","","","clear_screen","","","","","","","","","","","","","","","","","","","","","","","","","",""
"","","","","","canvas-keyboard-response","42","1381073","0.0-12.0-0.6","2d_cat_multi_stim_exp1","2022-5-4","13:55:53","25","75","3","9","10","40","30","120","91","20","[""Prefer not to say""]","No","Female","3005186","null","null","","","","fixation","","","","","","","","","","","","","","","","","","","","","","","","","",""
"","","","","","canvas-keyboard-response","43","1381585","0.0-12.0-1.6","2d_cat_multi_stim_exp1","2022-5-4","13:55:53","25","75","3","9","10","40","30","120","91","20","[""Prefer not to say""]","No","Female","3005186","null","null","","","","clear_screen","","","","","","","","","","","","","","","","","","","","","","","","","",""
"","","","","","canvas-keyboard-response","44","1382432","0.0-12.0-2.6","2d_cat_multi_stim_exp1","2022-5-4","13:55:53","25","75","3","9","10","40","30","120","91","20","[""Prefer not to say""]","No","Female","3005186","838","u","learn","","","learn_trial","26.8705","67.9635","in","1","1","","","","","","","","","","","","","","","","","","","","",""
"","","","","","canvas-keyboard-response","45","1382943","0.0-12.0-3.6","2d_cat_multi_stim_exp1","2022-5-4","13:55:53","25","75","3","9","10","40","30","120","91","20","[""Prefer not to say""]","No","Female","3005186","null","null","learn_feedback","","","learn_feedback","26.8705","67.9635","in","","","","","","","","","","","","","","","","","","","","","","",""
"","","","","","canvas-keyboard-response","46","1383002","0.0-12.0-4.6","2d_cat_multi_stim_exp1","2022-5-4","13:55:53","25","75","3","9","10","40","30","120","91","20","[""Prefer not to say""]","No","Female","3005186","null","null","","","","clear_screen","","","","","","","","","","","","","","","","","","","","","","","","","",""
"","","","","","canvas-keyboard-response","47","1383513","0.0-12.0-0.7","2d_cat_multi_stim_exp1","2022-5-4","13:55:53","25","75","3","9","10","40","30","120","91","20","[""Prefer not to say""]","No","Female","3005186","null","null","","","","fixation","","","","","","","","","","","","","","","","","","","","","","","","","",""
"","","","","","canvas-keyboard-response","48","1384024","0.0-12.0-1.7","2d_cat_multi_stim_exp1","2022-5-4","13:55:53","25","75","3","9","10","40","30","120","91","20","[""Prefer not to say""]","No","Female","3005186","null","null","","","","clear_screen","","","","","","","","","","","","","","","","","","","","","","","","","",""
"","","","","","canvas-keyboard-response","49","1384904","0.0-12.0-2.7","2d_cat_multi_stim_exp1","2022-5-4","13:55:53","25","75","3","9","10","40","30","120","91","20","[""Prefer not to say""]","No","Female","3005186","870","u","learn","","","learn_trial","25.9271","66.4405","in","1","1","","","","","","","","","","","","","","","","","","","","",""
"","","","","","canvas-keyboard-response","50","1385415","0.0-12.0-3.7","2d_cat_multi_stim_exp1","2022-5-4","13:55:53","25","75","3","9","10","40","30","120","91","20","[""Prefer not to say""]","No","Female","3005186","null","null","learn_feedback","","","learn_feedback","25.9271","66.4405","in","","","","","","","","","","","","","","","","","","","","","","",""
"","","","","","canvas-keyboard-response","51","1385477","0.0-12.0-4.7","2d_cat_multi_stim_exp1","2022-5-4","13:55:53","25","75","3","9","10","40","30","120","91","20","[""Prefer not to say""]","No","Female","3005186","null","null","","","","clear_screen","","","","","","","","","","","","","","","","","","","","","","","","","",""
"","","","","","canvas-keyboard-response","52","1385986","0.0-12.0-0.8","2d_cat_multi_stim_exp1","2022-5-4","13:55:53","25","75","3","9","10","40","30","120","91","20","[""Prefer not to say""]","No","Female","3005186","null","null","","","","fixation","","","","","","","","","","","","","","","","","","","","","","","","","",""
"","","","","","canvas-keyboard-response","53","1386499","0.0-12.0-1.8","2d_cat_multi_stim_exp1","2022-5-4","13:55:53","25","75","3","9","10","40","30","120","91","20","[""Prefer not to say""]","No","Female","3005186","null","null","","","","clear_screen","","","","","","","","","","","","","","","","","","","","","","","","","",""
"","","","","","canvas-keyboard-response","54","1387560","0.0-12.0-2.8","2d_cat_multi_stim_exp1","2022-5-4","13:55:53","25","75","3","9","10","40","30","120","91","20","[""Prefer not to say""]","No","Female","3005186","1053","i","learn","","","learn_trial","10","50","out","0","1","","","","","","","","","","","","","","","","","","","","",""
"","","","","","canvas-keyboard-response","55","1388071","0.0-12.0-3.8","2d_cat_multi_stim_exp1","2022-5-4","13:55:53","25","75","3","9","10","40","30","120","91","20","[""Prefer not to say""]","No","Female","3005186","null","null","learn_feedback","","","learn_feedback","10","50","out","","","","","","","","","","","","","","","","","","","","","","",""
"","","","","","canvas-keyboard-response","56","1388128","0.0-12.0-4.8","2d_cat_multi_stim_exp1","2022-5-4","13:55:53","25","75","3","9","10","40","30","120","91","20","[""Prefer not to say""]","No","Female","3005186","null","null","","","","clear_screen","","","","","","","","","","","","","","","","","","","","","","","","","",""
"","","","","","canvas-keyboard-response","57","1388635","0.0-12.0-0.9","2d_cat_multi_stim_exp1","2022-5-4","13:55:53","25","75","3","9","10","40","30","120","91","20","[""Prefer not to say""]","No","Female","3005186","null","null","","","","fixation","","","","","","","","","","","","","","","","","","","","","","","","","",""
"","","","","","canvas-keyboard-response","58","1389144","0.0-12.0-1.9","2d_cat_multi_stim_exp1","2022-5-4","13:55:53","25","75","3","9","10","40","30","120","91","20","[""Prefer not to say""]","No","Female","3005186","null","null","","","","clear_screen","","","","","","","","","","","","","","","","","","","","","","","","","",""
"","","","","","canvas-keyboard-response","59","1389968","0.0-12.0-2.9","2d_cat_multi_stim_exp1","2022-5-4","13:55:53","25","75","3","9","10","40","30","120","91","20","[""Prefer not to say""]","No","Female","3005186","813","i","learn","","","learn_trial","20","40","out","0","1","","","","","","","","","","","","","","","","","","","","",""
"","","","","","canvas-keyboard-response","60","1390480","0.0-12.0-3.9","2d_cat_multi_stim_exp1","2022-5-4","13:55:53","25","75","3","9","10","40","30","120","91","20","[""Prefer not to say""]","No","Female","3005186","null","null","learn_feedback","","","learn_feedback","20","40","out","","","","","","","","","","","","","","","","","","","","","","",""
"","","","","","canvas-keyboard-response","61","1390541","0.0-12.0-4.9","2d_cat_multi_stim_exp1","2022-5-4","13:55:53","25","75","3","9","10","40","30","120","91","20","[""Prefer not to say""]","No","Female","3005186","null","null","","","","clear_screen","","","","","","","","","","","","","","","","","","","","","","","","","",""
"","","","","","canvas-keyboard-response","62","1391048","0.0-12.0-0.10","2d_cat_multi_stim_exp1","2022-5-4","13:55:53","25","75","3","9","10","40","30","120","91","20","[""Prefer not to say""]","No","Female","3005186","null","null","","","","fixation","","","","","","","","","","","","","","","","","","","","","","","","","",""
"","","","","","canvas-keyboard-response","63","1391562","0.0-12.0-1.10","2d_cat_multi_stim_exp1","2022-5-4","13:55:53","25","75","3","9","10","40","30","120","91","20","[""Prefer not to say""]","No","Female","3005186","null","null","","","","clear_screen","","","","","","","","","","","","","","","","","","","","","","","","","",""
"","","","","","canvas-keyboard-response","64","1392249","0.0-12.0-2.10","2d_cat_multi_stim_exp1","2022-5-4","13:55:53","25","75","3","9","10","40","30","120","91","20","[""Prefer not to say""]","No","Female","3005186","678","u","learn","","","learn_trial","25","75","in","1","1","","","","","","","","","","","","","","","","","","","","",""
"","","","","","canvas-keyboard-response","65","1392760","0.0-12.0-3.10","2d_cat_multi_stim_exp1","2022-5-4","13:55:53","25","75","3","9","10","40","30","120","91","20","[""Prefer not to say""]","No","Female","3005186","null","null","learn_feedback","","","learn_feedback","25","75","in","","","","","","","","","","","","","","","","","","","","","","",""
"","","","","","canvas-keyboard-response","66","1392823","0.0-12.0-4.10","2d_cat_multi_stim_exp1","2022-5-4","13:55:53","25","75","3","9","10","40","30","120","91","20","[""Prefer not to say""]","No","Female","3005186","null","null","","","","clear_screen","","","","","","","","","","","","","","","","","","","","","","","","","",""
"","","","","","canvas-keyboard-response","67","1393332","0.0-12.0-0.11","2d_cat_multi_stim_exp1","2022-5-4","13:55:53","25","75","3","9","10","40","30","120","91","20","[""Prefer not to say""]","No","Female","3005186","null","null","","","","fixation","","","","","","","","","","","","","","","","","","","","","","","","","",""
"","","","","","canvas-keyboard-response","68","1393844","0.0-12.0-1.11","2d_cat_multi_stim_exp1","2022-5-4","13:55:53","25","75","3","9","10","40","30","120","91","20","[""Prefer not to say""]","No","Female","3005186","null","null","","","","clear_screen","","","","","","","","","","","","","","","","","","","","","","","","","",""
"","","","","","canvas-keyboard-response","69","1394592","0.0-12.0-2.11","2d_cat_multi_stim_exp1","2022-5-4","13:55:53","25","75","3","9","10","40","30","120","91","20","[""Prefer not to say""]","No","Female","3005186","737","u","learn","","","learn_trial","25","75","in","1","1","","","","","","","","","","","","","","","","","","","","",""
"","","","","","canvas-keyboard-response","70","1395103","0.0-12.0-3.11","2d_cat_multi_stim_exp1","2022-5-4","13:55:53","25","75","3","9","10","40","30","120","91","20","[""Prefer not to say""]","No","Female","3005186","null","null","learn_feedback","","","learn_feedback","25","75","in","","","","","","","","","","","","","","","","","","","","","","",""
"","","","","","canvas-keyboard-response","71","1395163","0.0-12.0-4.11","2d_cat_multi_stim_exp1","2022-5-4","13:55:53","25","75","3","9","10","40","30","120","91","20","[""Prefer not to say""]","No","Female","3005186","null","null","","","","clear_screen","","","","","","","","","","","","","","","","","","","","","","","","","",""
"","","","","","canvas-keyboard-response","72","1395673","0.0-12.0-0.12","2d_cat_multi_stim_exp1","2022-5-4","13:55:53","25","75","3","9","10","40","30","120","91","20","[""Prefer not to say""]","No","Female","3005186","null","null","","","","fixation","","","","","","","","","","","","","","","","","","","","","","","","","",""
"","","","","","canvas-keyboard-response","73","1396185","0.0-12.0-1.12","2d_cat_multi_stim_exp1","2022-5-4","13:55:53","25","75","3","9","10","40","30","120","91","20","[""Prefer not to say""]","No","Female","3005186","null","null","","","","clear_screen","","","","","","","","","","","","","","","","","","","","","","","","","",""
"","","","","","canvas-keyboard-response","74","1397880","0.0-12.0-2.12","2d_cat_multi_stim_exp1","2022-5-4","13:55:53","25","75","3","9","10","40","30","120","91","20","[""Prefer not to say""]","No","Female","3005186","1684","u","learn","","","learn_trial","16.6667","90","out","1","0","","","","","","","","","","","","","","","","","","","","",""
"","","","","","canvas-keyboard-response","75","1398893","0.0-12.0-3.12","2d_cat_multi_stim_exp1","2022-5-4","13:55:53","25","75","3","9","10","40","30","120","91","20","[""Prefer not to say""]","No","Female","3005186","null","null","learn_feedback","","","learn_feedback","16.6667","90","out","","","","","","","","","","","","","","","","","","","","","","",""
"","","","","","canvas-keyboard-response","76","1398954","0.0-12.0-4.12","2d_cat_multi_stim_exp1","2022-5-4","13:55:53","25","75","3","9","10","40","30","120","91","20","[""Prefer not to say""]","No","Female","3005186","null","null","","","","clear_screen","","","","","","","","","","","","","","","","","","","","","","","","","",""
"","","","","","canvas-keyboard-response","77","1399463","0.0-12.0-0.13","2d_cat_multi_stim_exp1","2022-5-4","13:55:53","25","75","3","9","10","40","30","120","91","20","[""Prefer not to say""]","No","Female","3005186","null","null","","","","fixation","","","","","","","","","","","","","","","","","","","","","","","","","",""
"","","","","","canvas-keyboard-response","78","1399976","0.0-12.0-1.13","2d_cat_multi_stim_exp1","2022-5-4","13:55:53","25","75","3","9","10","40","30","120","91","20","[""Prefer not to say""]","No","Female","3005186","null","null","","","","clear_screen","","","","","","","","","","","","","","","","","","","","","","","","","",""
"","","","","","canvas-keyboard-response","79","1401128","0.0-12.0-2.13","2d_cat_multi_stim_exp1","2022-5-4","13:55:53","25","75","3","9","10","40","30","120","91","20","[""Prefer not to say""]","No","Female","3005186","1141","i","learn","","","learn_trial","33.3333","60","out","0","1","","","","","","","","","","","","","","","","","","","","",""
"","","","","","canvas-keyboard-response","80","1401636","0.0-12.0-3.13","2d_cat_multi_stim_exp1","2022-5-4","13:55:53","25","75","3","9","10","40","30","120","91","20","[""Prefer not to say""]","No","Female","3005186","null","null","learn_feedback","","","learn_feedback","33.3333","60","out","","","","","","","","","","","","","","","","","","","","","","",""
"","","","","","canvas-keyboard-response","81","1401698","0.0-12.0-4.13","2d_cat_multi_stim_exp1","2022-5-4","13:55:53","25","75","3","9","10","40","30","120","91","20","[""Prefer not to say""]","No","Female","3005186","null","null","","","","clear_screen","","","","","","","","","","","","","","","","","","","","","","","","","",""
"","","","","","canvas-keyboard-response","82","1402207","0.0-12.0-0.14","2d_cat_multi_stim_exp1","2022-5-4","13:55:53","25","75","3","9","10","40","30","120","91","20","[""Prefer not to say""]","No","Female","3005186","null","null","","","","fixation","","","","","","","","","","","","","","","","","","","","","","","","","",""
"","","","","","canvas-keyboard-response","83","1402721","0.0-12.0-1.14","2d_cat_multi_stim_exp1","2022-5-4","13:55:53","25","75","3","9","10","40","30","120","91","20","[""Prefer not to say""]","No","Female","3005186","null","null","","","","clear_screen","","","","","","","","","","","","","","","","","","","","","","","","","",""
"","","","","","canvas-keyboard-response","84","1404161","0.0-12.0-2.14","2d_cat_multi_stim_exp1","2022-5-4","13:55:53","25","75","3","9","10","40","30","120","91","20","[""Prefer not to say""]","No","Female","3005186","1427","u","learn","","","learn_trial","25","75","in","1","1","","","","","","","","","","","","","","","","","","","","",""
"","","","","","canvas-keyboard-response","85","1404670","0.0-12.0-3.14","2d_cat_multi_stim_exp1","2022-5-4","13:55:53","25","75","3","9","10","40","30","120","91","20","[""Prefer not to say""]","No","Female","3005186","null","null","learn_feedback","","","learn_feedback","25","75","in","","","","","","","","","","","","","","","","","","","","","","",""
"","","","","","canvas-keyboard-response","86","1404733","0.0-12.0-4.14","2d_cat_multi_stim_exp1","2022-5-4","13:55:53","25","75","3","9","10","40","30","120","91","20","[""Prefer not to say""]","No","Female","3005186","null","null","","","","clear_screen","","","","","","","","","","","","","","","","","","","","","","","","","",""
"","","","","","canvas-keyboard-response","87","1405243","0.0-12.0-0.15","2d_cat_multi_stim_exp1","2022-5-4","13:55:53","25","75","3","9","10","40","30","120","91","20","[""Prefer not to say""]","No","Female","3005186","null","null","","","","fixation","","","","","","","","","","","","","","","","","","","","","","","","","",""
"","","","","","canvas-keyboard-response","88","1405753","0.0-12.0-1.15","2d_cat_multi_stim_exp1","2022-5-4","13:55:53","25","75","3","9","10","40","30","120","91","20","[""Prefer not to say""]","No","Female","3005186","null","null","","","","clear_screen","","","","","","","","","","","","","","","","","","","","","","","","","",""
"","","","","","canvas-keyboard-response","89","1406832","0.0-12.0-2.15","2d_cat_multi_stim_exp1","2022-5-4","13:55:53","25","75","3","9","10","40","30","120","91","20","[""Prefer not to say""]","No","Female","3005186","1069","i","learn","","","learn_trial","36.6667","100","out","0","1","","","","","","","","","","","","","","","","","","","","",""
"","","","","","canvas-keyboard-response","90","1407344","0.0-12.0-3.15","2d_cat_multi_stim_exp1","2022-5-4","13:55:53","25","75","3","9","10","40","30","120","91","20","[""Prefer not to say""]","No","Female","3005186","null","null","learn_feedback","","","learn_feedback","36.6667","100","out","","","","","","","","","","","","","","","","","","","","","","",""
"","","","","","canvas-keyboard-response","91","1407403","0.0-12.0-4.15","2d_cat_multi_stim_exp1","2022-5-4","13:55:53","25","75","3","9","10","40","30","120","91","20","[""Prefer not to say""]","No","Female","3005186","null","null","","","","clear_screen","","","","","","","","","","","","","","","","","","","","","","","","","",""
"","","","","","canvas-keyboard-response","92","1407910","0.0-12.0-0.16","2d_cat_multi_stim_exp1","2022-5-4","13:55:53","25","75","3","9","10","40","30","120","91","20","[""Prefer not to say""]","No","Female","3005186","null","null","","","","fixation","","","","","","","","","","","","","","","","","","","","","","","","","",""
"","","","","","canvas-keyboard-response","93","1408418","0.0-12.0-1.16","2d_cat_multi_stim_exp1","2022-5-4","13:55:53","25","75","3","9","10","40","30","120","91","20","[""Prefer not to say""]","No","Female","3005186","null","null","","","","clear_screen","","","","","","","","","","","","","","","","","","","","","","","","","",""
"","","","","","canvas-keyboard-response","94","1409256","0.0-12.0-2.16","2d_cat_multi_stim_exp1","2022-5-4","13:55:53","25","75","3","9","10","40","30","120","91","20","[""Prefer not to say""]","No","Female","3005186","833","i","learn","","","learn_trial","10","30","out","0","1","","","","","","","","","","","","","","","","","","","","",""
"","","","","","canvas-keyboard-response","95","1409767","0.0-12.0-3.16","2d_cat_multi_stim_exp1","2022-5-4","13:55:53","25","75","3","9","10","40","30","120","91","20","[""Prefer not to say""]","No","Female","3005186","null","null","learn_feedback","","","learn_feedback","10","30","out","","","","","","","","","","","","","","","","","","","","","","",""
"","","","","","canvas-keyboard-response","96","1409826","0.0-12.0-4.16","2d_cat_multi_stim_exp1","2022-5-4","13:55:53","25","75","3","9","10","40","30","120","91","20","[""Prefer not to say""]","No","Female","3005186","null","null","","","","clear_screen","","","","","","","","","","","","","","","","","","","","","","","","","",""
"","","","","","canvas-keyboard-response","97","1410335","0.0-12.0-0.17","2d_cat_multi_stim_exp1","2022-5-4","13:55:53","25","75","3","9","10","40","30","120","91","20","[""Prefer not to say""]","No","Female","3005186","null","null","","","","fixation","","","","","","","","","","","","","","","","","","","","","","","","","",""
"","","","","","canvas-keyboard-response","98","1410846","0.0-12.0-1.17","2d_cat_multi_stim_exp1","2022-5-4","13:55:53","25","75","3","9","10","40","30","120","91","20","[""Prefer not to say""]","No","Female","3005186","null","null","","","","clear_screen","","","","","","","","","","","","","","","","","","","","","","","","","",""
"","","","","","canvas-keyboard-response","99","1411561","0.0-12.0-2.17","2d_cat_multi_stim_exp1","2022-5-4","13:55:53","25","75","3","9","10","40","30","120","91","20","[""Prefer not to say""]","No","Female","3005186","705","u","learn","","","learn_trial","25","75","in","1","1","","","","","","","","","","","","","","","","","","","","",""
"","","","","","canvas-keyboard-response","100","1412071","0.0-12.0-3.17","2d_cat_multi_stim_exp1","2022-5-4","13:55:53","25","75","3","9","10","40","30","120","91","20","[""Prefer not to say""]","No","Female","3005186","null","null","learn_feedback","","","learn_feedback","25","75","in","","","","","","","","","","","","","","","","","","","","","","",""
"","","","","","canvas-keyboard-response","101","1412131","0.0-12.0-4.17","2d_cat_multi_stim_exp1","2022-5-4","13:55:53","25","75","3","9","10","40","30","120","91","20","[""Prefer not to say""]","No","Female","3005186","null","null","","","","clear_screen","","","","","","","","","","","","","","","","","","","","","","","","","",""
"","","","","","canvas-keyboard-response","102","1412639","0.0-12.0-0.18","2d_cat_multi_stim_exp1","2022-5-4","13:55:53","25","75","3","9","10","40","30","120","91","20","[""Prefer not to say""]","No","Female","3005186","null","null","","","","fixation","","","","","","","","","","","","","","","","","","","","","","","","","",""
"","","","","","canvas-keyboard-response","103","1413148","0.0-12.0-1.18","2d_cat_multi_stim_exp1","2022-5-4","13:55:53","25","75","3","9","10","40","30","120","91","20","[""Prefer not to say""]","No","Female","3005186","null","null","","","","clear_screen","","","","","","","","","","","","","","","","","","","","","","","","","",""
"","","","","","canvas-keyboard-response","104","1414792","0.0-12.0-2.18","2d_cat_multi_stim_exp1","2022-5-4","13:55:53","25","75","3","9","10","40","30","120","91","20","[""Prefer not to say""]","No","Female","3005186","1632","u","learn","","","learn_trial","25","75","in","1","1","","","","","","","","","","","","","","","","","","","","",""
"","","","","","canvas-keyboard-response","105","1415302","0.0-12.0-3.18","2d_cat_multi_stim_exp1","2022-5-4","13:55:53","25","75","3","9","10","40","30","120","91","20","[""Prefer not to say""]","No","Female","3005186","null","null","learn_feedback","","","learn_feedback","25","75","in","","","","","","","","","","","","","","","","","","","","","","",""
"","","","","","canvas-keyboard-response","106","1415361","0.0-12.0-4.18","2d_cat_multi_stim_exp1","2022-5-4","13:55:53","25","75","3","9","10","40","30","120","91","20","[""Prefer not to say""]","No","Female","3005186","null","null","","","","clear_screen","","","","","","","","","","","","","","","","","","","","","","","","","",""
"","","","","","canvas-keyboard-response","107","1415869","0.0-12.0-0.19","2d_cat_multi_stim_exp1","2022-5-4","13:55:53","25","75","3","9","10","40","30","120","91","20","[""Prefer not to say""]","No","Female","3005186","null","null","","","","fixation","","","","","","","","","","","","","","","","","","","","","","","","","",""
"","","","","","canvas-keyboard-response","108","1416379","0.0-12.0-1.19","2d_cat_multi_stim_exp1","2022-5-4","13:55:53","25","75","3","9","10","40","30","120","91","20","[""Prefer not to say""]","No","Female","3005186","null","null","","","","clear_screen","","","","","","","","","","","","","","","","","","","","","","","","","",""
"","","","","","canvas-keyboard-response","109","1417377","0.0-12.0-2.19","2d_cat_multi_stim_exp1","2022-5-4","13:55:53","25","75","3","9","10","40","30","120","91","20","[""Prefer not to say""]","No","Female","3005186","986","i","learn","","","learn_trial","33.3333","50","out","0","1","","","","","","","","","","","","","","","","","","","","",""
"","","","","","canvas-keyboard-response","110","1417889","0.0-12.0-3.19","2d_cat_multi_stim_exp1","2022-5-4","13:55:53","25","75","3","9","10","40","30","120","91","20","[""Prefer not to say""]","No","Female","3005186","null","null","learn_feedback","","","learn_feedback","33.3333","50","out","","","","","","","","","","","","","","","","","","","","","","",""
"","","","","","canvas-keyboard-response","111","1417951","0.0-12.0-4.19","2d_cat_multi_stim_exp1","2022-5-4","13:55:53","25","75","3","9","10","40","30","120","91","20","[""Prefer not to say""]","No","Female","3005186","null","null","","","","clear_screen","","","","","","","","","","","","","","","","","","","","","","","","","",""
"","","","","","canvas-keyboard-response","112","1418459","0.0-12.0-0.20","2d_cat_multi_stim_exp1","2022-5-4","13:55:53","25","75","3","9","10","40","30","120","91","20","[""Prefer not to say""]","No","Female","3005186","null","null","","","","fixation","","","","","","","","","","","","","","","","","","","","","","","","","",""
"","","","","","canvas-keyboard-response","113","1418970","0.0-12.0-1.20","2d_cat_multi_stim_exp1","2022-5-4","13:55:53","25","75","3","9","10","40","30","120","91","20","[""Prefer not to say""]","No","Female","3005186","null","null","","","","clear_screen","","","","","","","","","","","","","","","","","","","","","","","","","",""
"","","","","","canvas-keyboard-response","114","1419929","0.0-12.0-2.20","2d_cat_multi_stim_exp1","2022-5-4","13:55:53","25","75","3","9","10","40","30","120","91","20","[""Prefer not to say""]","No","Female","3005186","949","u","learn","","","learn_trial","16.6667","80","out","1","0","","","","","","","","","","","","","","","","","","","","",""
"","","","","","canvas-keyboard-response","115","1420938","0.0-12.0-3.20","2d_cat_multi_stim_exp1","2022-5-4","13:55:53","25","75","3","9","10","40","30","120","91","20","[""Prefer not to say""]","No","Female","3005186","null","null","learn_feedback","","","learn_feedback","16.6667","80","out","","","","","","","","","","","","","","","","","","","","","","",""
"","","","","","canvas-keyboard-response","116","1420996","0.0-12.0-4.20","2d_cat_multi_stim_exp1","2022-5-4","13:55:53","25","75","3","9","10","40","30","120","91","20","[""Prefer not to say""]","No","Female","3005186","null","null","","","","clear_screen","","","","","","","","","","","","","","","","","","","","","","","","","",""
"","","","","","canvas-keyboard-response","117","1421507","0.0-12.0-0.21","2d_cat_multi_stim_exp1","2022-5-4","13:55:53","25","75","3","9","10","40","30","120","91","20","[""Prefer not to say""]","No","Female","3005186","null","null","","","","fixation","","","","","","","","","","","","","","","","","","","","","","","","","",""
"","","","","","canvas-keyboard-response","118","1422018","0.0-12.0-1.21","2d_cat_multi_stim_exp1","2022-5-4","13:55:53","25","75","3","9","10","40","30","120","91","20","[""Prefer not to say""]","No","Female","3005186","null","null","","","","clear_screen","","","","","","","","","","","","","","","","","","","","","","","","","",""
"","","","","","canvas-keyboard-response","119","1423535","0.0-12.0-2.21","2d_cat_multi_stim_exp1","2022-5-4","13:55:53","25","75","3","9","10","40","30","120","91","20","[""Prefer not to say""]","No","Female","3005186","1509","u","learn","","","learn_trial","25","75","in","1","1","","","","","","","","","","","","","","","","","","","","",""
"","","","","","canvas-keyboard-response","120","1424046","0.0-12.0-3.21","2d_cat_multi_stim_exp1","2022-5-4","13:55:53","25","75","3","9","10","40","30","120","91","20","[""Prefer not to say""]","No","Female","3005186","null","null","learn_feedback","","","learn_feedback","25","75","in","","","","","","","","","","","","","","","","","","","","","","",""
"","","","","","canvas-keyboard-response","121","1424106","0.0-12.0-4.21","2d_cat_multi_stim_exp1","2022-5-4","13:55:53","25","75","3","9","10","40","30","120","91","20","[""Prefer not to say""]","No","Female","3005186","null","null","","","","clear_screen","","","","","","","","","","","","","","","","","","","","","","","","","",""
"","","","","","canvas-keyboard-response","122","1424615","0.0-12.0-0.22","2d_cat_multi_stim_exp1","2022-5-4","13:55:53","25","75","3","9","10","40","30","120","91","20","[""Prefer not to say""]","No","Female","3005186","null","null","","","","fixation","","","","","","","","","","","","","","","","","","","","","","","","","",""
"","","","","","canvas-keyboard-response","123","1425129","0.0-12.0-1.22","2d_cat_multi_stim_exp1","2022-5-4","13:55:53","25","75","3","9","10","40","30","120","91","20","[""Prefer not to say""]","No","Female","3005186","null","null","","","","clear_screen","","","","","","","","","","","","","","","","","","","","","","","","","",""
"","","","","","canvas-keyboard-response","124","1425936","0.0-12.0-2.22","2d_cat_multi_stim_exp1","2022-5-4","13:55:53","25","75","3","9","10","40","30","120","91","20","[""Prefer not to say""]","No","Female","3005186","798","u","learn","","","learn_trial","25","75","in","1","1","","","","","","","","","","","","","","","","","","","","",""
"","","","","","canvas-keyboard-response","125","1426448","0.0-12.0-3.22","2d_cat_multi_stim_exp1","2022-5-4","13:55:53","25","75","3","9","10","40","30","120","91","20","[""Prefer not to say""]","No","Female","3005186","null","null","learn_feedback","","","learn_feedback","25","75","in","","","","","","","","","","","","","","","","","","","","","","",""
"","","","","","canvas-keyboard-response","126","1426504","0.0-12.0-4.22","2d_cat_multi_stim_exp1","2022-5-4","13:55:53","25","75","3","9","10","40","30","120","91","20","[""Prefer not to say""]","No","Female","3005186","null","null","","","","clear_screen","","","","","","","","","","","","","","","","","","","","","","","","","",""
"","","","","","canvas-keyboard-response","127","1427016","0.0-12.0-0.23","2d_cat_multi_stim_exp1","2022-5-4","13:55:53","25","75","3","9","10","40","30","120","91","20","[""Prefer not to say""]","No","Female","3005186","null","null","","","","fixation","","","","","","","","","","","","","","","","","","","","","","","","","",""
"","","","","","canvas-keyboard-response","128","1427523","0.0-12.0-1.23","2d_cat_multi_stim_exp1","2022-5-4","13:55:53","25","75","3","9","10","40","30","120","91","20","[""Prefer not to say""]","No","Female","3005186","null","null","","","","clear_screen","","","","","","","","","","","","","","","","","","","","","","","","","",""
"","","","","","canvas-keyboard-response","129","1428376","0.0-12.0-2.23","2d_cat_multi_stim_exp1","2022-5-4","13:55:53","25","75","3","9","10","40","30","120","91","20","[""Prefer not to say""]","No","Female","3005186","837","i","learn","","","learn_trial","16.6667","110","out","0","1","","","","","","","","","","","","","","","","","","","","",""
"","","","","","canvas-keyboard-response","130","1428885","0.0-12.0-3.23","2d_cat_multi_stim_exp1","2022-5-4","13:55:53","25","75","3","9","10","40","30","120","91","20","[""Prefer not to say""]","No","Female","3005186","null","null","learn_feedback","","","learn_feedback","16.6667","110","out","","","","","","","","","","","","","","","","","","","","","","",""
"","","","","","canvas-keyboard-response","131","1428948","0.0-12.0-4.23","2d_cat_multi_stim_exp1","2022-5-4","13:55:53","25","75","3","9","10","40","30","120","91","20","[""Prefer not to say""]","No","Female","3005186","null","null","","","","clear_screen","","","","","","","","","","","","","","","","","","","","","","","","","",""
"","","","","","canvas-keyboard-response","132","1429458","0.0-12.0-0.24","2d_cat_multi_stim_exp1","2022-5-4","13:55:53","25","75","3","9","10","40","30","120","91","20","[""Prefer not to say""]","No","Female","3005186","null","null","","","","fixation","","","","","","","","","","","","","","","","","","","","","","","","","",""
"","","","","","canvas-keyboard-response","133","1429967","0.0-12.0-1.24","2d_cat_multi_stim_exp1","2022-5-4","13:55:53","25","75","3","9","10","40","30","120","91","20","[""Prefer not to say""]","No","Female","3005186","null","null","","","","clear_screen","","","","","","","","","","","","","","","","","","","","","","","","","",""
"","","","","","canvas-keyboard-response","134","1430728","0.0-12.0-2.24","2d_cat_multi_stim_exp1","2022-5-4","13:55:53","25","75","3","9","10","40","30","120","91","20","[""Prefer not to say""]","No","Female","3005186","752","u","learn","","","learn_trial","25","75","in","1","1","","","","","","","","","","","","","","","","","","","","",""
"","","","","","canvas-keyboard-response","135","1431237","0.0-12.0-3.24","2d_cat_multi_stim_exp1","2022-5-4","13:55:53","25","75","3","9","10","40","30","120","91","20","[""Prefer not to say""]","No","Female","3005186","null","null","learn_feedback","","","learn_feedback","25","75","in","","","","","","","","","","","","","","","","","","","","","","",""
"","","","","","canvas-keyboard-response","136","1431297","0.0-12.0-4.24","2d_cat_multi_stim_exp1","2022-5-4","13:55:53","25","75","3","9","10","40","30","120","91","20","[""Prefer not to say""]","No","Female","3005186","null","null","","","","clear_screen","","","","","","","","","","","","","","","","","","","","","","","","","",""
"","","","","","canvas-keyboard-response","137","1431806","0.0-12.0-0.25","2d_cat_multi_stim_exp1","2022-5-4","13:55:53","25","75","3","9","10","40","30","120","91","20","[""Prefer not to say""]","No","Female","3005186","null","null","","","","fixation","","","","","","","","","","","","","","","","","","","","","","","","","",""
"","","","","","canvas-keyboard-response","138","1432321","0.0-12.0-1.25","2d_cat_multi_stim_exp1","2022-5-4","13:55:53","25","75","3","9","10","40","30","120","91","20","[""Prefer not to say""]","No","Female","3005186","null","null","","","","clear_screen","","","","","","","","","","","","","","","","","","","","","","","","","",""
"","","","","","canvas-keyboard-response","139","1433528","0.0-12.0-2.25","2d_cat_multi_stim_exp1","2022-5-4","13:55:53","25","75","3","9","10","40","30","120","91","20","[""Prefer not to say""]","No","Female","3005186","1196","u","learn","","","learn_trial","33.3333","90","out","1","0","","","","","","","","","","","","","","","","","","","","",""
"","","","","","canvas-keyboard-response","140","1434539","0.0-12.0-3.25","2d_cat_multi_stim_exp1","2022-5-4","13:55:53","25","75","3","9","10","40","30","120","91","20","[""Prefer not to say""]","No","Female","3005186","null","null","learn_feedback","","","learn_feedback","33.3333","90","out","","","","","","","","","","","","","","","","","","","","","","",""
"","","","","","canvas-keyboard-response","141","1434598","0.0-12.0-4.25","2d_cat_multi_stim_exp1","2022-5-4","13:55:53","25","75","3","9","10","40","30","120","91","20","[""Prefer not to say""]","No","Female","3005186","null","null","","","","clear_screen","","","","","","","","","","","","","","","","","","","","","","","","","",""
"","","","","","canvas-keyboard-response","142","1435107","0.0-12.0-0.26","2d_cat_multi_stim_exp1","2022-5-4","13:55:53","25","75","3","9","10","40","30","120","91","20","[""Prefer not to say""]","No","Female","3005186","null","null","","","","fixation","","","","","","","","","","","","","","","","","","","","","","","","","",""
"","","","","","canvas-keyboard-response","143","1435620","0.0-12.0-1.26","2d_cat_multi_stim_exp1","2022-5-4","13:55:53","25","75","3","9","10","40","30","120","91","20","[""Prefer not to say""]","No","Female","3005186","null","null","","","","clear_screen","","","","","","","","","","","","","","","","","","","","","","","","","",""
"","","","","","canvas-keyboard-response","144","1436369","0.0-12.0-2.26","2d_cat_multi_stim_exp1","2022-5-4","13:55:53","25","75","3","9","10","40","30","120","91","20","[""Prefer not to say""]","No","Female","3005186","740","u","learn","","","learn_trial","25","75","in","1","1","","","","","","","","","","","","","","","","","","","","",""
"","","","","","canvas-keyboard-response","145","1436880","0.0-12.0-3.26","2d_cat_multi_stim_exp1","2022-5-4","13:55:53","25","75","3","9","10","40","30","120","91","20","[""Prefer not to say""]","No","Female","3005186","null","null","learn_feedback","","","learn_feedback","25","75","in","","","","","","","","","","","","","","","","","","","","","","",""
"","","","","","canvas-keyboard-response","146","1436941","0.0-12.0-4.26","2d_cat_multi_stim_exp1","2022-5-4","13:55:53","25","75","3","9","10","40","30","120","91","20","[""Prefer not to say""]","No","Female","3005186","null","null","","","","clear_screen","","","","","","","","","","","","","","","","","","","","","","","","","",""
"","","","","","canvas-keyboard-response","147","1437454","0.0-12.0-0.27","2d_cat_multi_stim_exp1","2022-5-4","13:55:53","25","75","3","9","10","40","30","120","91","20","[""Prefer not to say""]","No","Female","3005186","null","null","","","","fixation","","","","","","","","","","","","","","","","","","","","","","","","","",""
"","","","","","canvas-keyboard-response","148","1437968","0.0-12.0-1.27","2d_cat_multi_stim_exp1","2022-5-4","13:55:53","25","75","3","9","10","40","30","120","91","20","[""Prefer not to say""]","No","Female","3005186","null","null","","","","clear_screen","","","","","","","","","","","","","","","","","","","","","","","","","",""
"","","","","","canvas-keyboard-response","149","1438704","0.0-12.0-2.27","2d_cat_multi_stim_exp1","2022-5-4","13:55:53","25","75","3","9","10","40","30","120","91","20","[""Prefer not to say""]","No","Female","3005186","726","i","learn","","","learn_trial","13.3333","30","out","0","1","","","","","","","","","","","","","","","","","","","","",""
"","","","","","canvas-keyboard-response","150","1439214","0.0-12.0-3.27","2d_cat_multi_stim_exp1","2022-5-4","13:55:53","25","75","3","9","10","40","30","120","91","20","[""Prefer not to say""]","No","Female","3005186","null","null","learn_feedback","","","learn_feedback","13.3333","30","out","","","","","","","","","","","","","","","","","","","","","","",""
"","","","","","canvas-keyboard-response","151","1439275","0.0-12.0-4.27","2d_cat_multi_stim_exp1","2022-5-4","13:55:53","25","75","3","9","10","40","30","120","91","20","[""Prefer not to say""]","No","Female","3005186","null","null","","","","clear_screen","","","","","","","","","","","","","","","","","","","","","","","","","",""
"","","","","","canvas-keyboard-response","152","1439787","0.0-12.0-0.28","2d_cat_multi_stim_exp1","2022-5-4","13:55:53","25","75","3","9","10","40","30","120","91","20","[""Prefer not to say""]","No","Female","3005186","null","null","","","","fixation","","","","","","","","","","","","","","","","","","","","","","","","","",""
"","","","","","canvas-keyboard-response","153","1440302","0.0-12.0-1.28","2d_cat_multi_stim_exp1","2022-5-4","13:55:53","25","75","3","9","10","40","30","120","91","20","[""Prefer not to say""]","No","Female","3005186","null","null","","","","clear_screen","","","","","","","","","","","","","","","","","","","","","","","","","",""
"","","","","","canvas-keyboard-response","154","1440881","0.0-12.0-2.28","2d_cat_multi_stim_exp1","2022-5-4","13:55:53","25","75","3","9","10","40","30","120","91","20","[""Prefer not to say""]","No","Female","3005186","571","u","learn","","","learn_trial","22.9268","81.5052","in","1","1","","","","","","","","","","","","","","","","","","","","",""
"","","","","","canvas-keyboard-response","155","1441390","0.0-12.0-3.28","2d_cat_multi_stim_exp1","2022-5-4","13:55:53","25","75","3","9","10","40","30","120","91","20","[""Prefer not to say""]","No","Female","3005186","null","null","learn_feedback","","","learn_feedback","22.9268","81.5052","in","","","","","","","","","","","","","","","","","","","","","","",""
"","","","","","canvas-keyboard-response","156","1441450","0.0-12.0-4.28","2d_cat_multi_stim_exp1","2022-5-4","13:55:53","25","75","3","9","10","40","30","120","91","20","[""Prefer not to say""]","No","Female","3005186","null","null","","","","clear_screen","","","","","","","","","","","","","","","","","","","","","","","","","",""
"","","","","","canvas-keyboard-response","157","1441961","0.0-12.0-0.29","2d_cat_multi_stim_exp1","2022-5-4","13:55:53","25","75","3","9","10","40","30","120","91","20","[""Prefer not to say""]","No","Female","3005186","null","null","","","","fixation","","","","","","","","","","","","","","","","","","","","","","","","","",""
"","","","","","canvas-keyboard-response","158","1442475","0.0-12.0-1.29","2d_cat_multi_stim_exp1","2022-5-4","13:55:53","25","75","3","9","10","40","30","120","91","20","[""Prefer not to say""]","No","Female","3005186","null","null","","","","clear_screen","","","","","","","","","","","","","","","","","","","","","","","","","",""
"","","","","","canvas-keyboard-response","159","1443033","0.0-12.0-2.29","2d_cat_multi_stim_exp1","2022-5-4","13:55:53","25","75","3","9","10","40","30","120","91","20","[""Prefer not to say""]","No","Female","3005186","548","u","learn","","","learn_trial","25","75","in","1","1","","","","","","","","","","","","","","","","","","","","",""
"","","","","","canvas-keyboard-response","160","1443542","0.0-12.0-3.29","2d_cat_multi_stim_exp1","2022-5-4","13:55:53","25","75","3","9","10","40","30","120","91","20","[""Prefer not to say""]","No","Female","3005186","null","null","learn_feedback","","","learn_feedback","25","75","in","","","","","","","","","","","","","","","","","","","","","","",""
"","","","","","canvas-keyboard-response","161","1443602","0.0-12.0-4.29","2d_cat_multi_stim_exp1","2022-5-4","13:55:53","25","75","3","9","10","40","30","120","91","20","[""Prefer not to say""]","No","Female","3005186","null","null","","","","clear_screen","","","","","","","","","","","","","","","","","","","","","","","","","",""
"","","","","","canvas-keyboard-response","162","1444108","0.0-12.0-0.30","2d_cat_multi_stim_exp1","2022-5-4","13:55:53","25","75","3","9","10","40","30","120","91","20","[""Prefer not to say""]","No","Female","3005186","null","null","","","","fixation","","","","","","","","","","","","","","","","","","","","","","","","","",""
"","","","","","canvas-keyboard-response","163","1444620","0.0-12.0-1.30","2d_cat_multi_stim_exp1","2022-5-4","13:55:53","25","75","3","9","10","40","30","120","91","20","[""Prefer not to say""]","No","Female","3005186","null","null","","","","clear_screen","","","","","","","","","","","","","","","","","","","","","","","","","",""
"","","","","","canvas-keyboard-response","164","1445353","0.0-12.0-2.30","2d_cat_multi_stim_exp1","2022-5-4","13:55:53","25","75","3","9","10","40","30","120","91","20","[""Prefer not to say""]","No","Female","3005186","723","i","learn","","","learn_trial","20","100","out","0","1","","","","","","","","","","","","","","","","","","","","",""
"","","","","","canvas-keyboard-response","165","1445861","0.0-12.0-3.30","2d_cat_multi_stim_exp1","2022-5-4","13:55:53","25","75","3","9","10","40","30","120","91","20","[""Prefer not to say""]","No","Female","3005186","null","null","learn_feedback","","","learn_feedback","20","100","out","","","","","","","","","","","","","","","","","","","","","","",""
"","","","","","canvas-keyboard-response","166","1445924","0.0-12.0-4.30","2d_cat_multi_stim_exp1","2022-5-4","13:55:53","25","75","3","9","10","40","30","120","91","20","[""Prefer not to say""]","No","Female","3005186","null","null","","","","clear_screen","","","","","","","","","","","","","","","","","","","","","","","","","",""
"","","","","","canvas-keyboard-response","167","1446435","0.0-12.0-0.31","2d_cat_multi_stim_exp1","2022-5-4","13:55:53","25","75","3","9","10","40","30","120","91","20","[""Prefer not to say""]","No","Female","3005186","null","null","","","","fixation","","","","","","","","","","","","","","","","","","","","","","","","","",""
"","","","","","canvas-keyboard-response","168","1446949","0.0-12.0-1.31","2d_cat_multi_stim_exp1","2022-5-4","13:55:53","25","75","3","9","10","40","30","120","91","20","[""Prefer not to say""]","No","Female","3005186","null","null","","","","clear_screen","","","","","","","","","","","","","","","","","","","","","","","","","",""
"","","","","","canvas-keyboard-response","169","1448249","0.0-12.0-2.31","2d_cat_multi_stim_exp1","2022-5-4","13:55:53","25","75","3","9","10","40","30","120","91","20","[""Prefer not to say""]","No","Female","3005186","1291","u","learn","","","learn_trial","25","75","in","1","1","","","","","","","","","","","","","","","","","","","","",""
"","","","","","canvas-keyboard-response","170","1448759","0.0-12.0-3.31","2d_cat_multi_stim_exp1","2022-5-4","13:55:53","25","75","3","9","10","40","30","120","91","20","[""Prefer not to say""]","No","Female","3005186","null","null","learn_feedback","","","learn_feedback","25","75","in","","","","","","","","","","","","","","","","","","","","","","",""
"","","","","","canvas-keyboard-response","171","1448817","0.0-12.0-4.31","2d_cat_multi_stim_exp1","2022-5-4","13:55:53","25","75","3","9","10","40","30","120","91","20","[""Prefer not to say""]","No","Female","3005186","null","null","","","","clear_screen","","","","","","","","","","","","","","","","","","","","","","","","","",""
"","","","","","canvas-keyboard-response","172","1449326","0.0-12.0-0.32","2d_cat_multi_stim_exp1","2022-5-4","13:55:53","25","75","3","9","10","40","30","120","91","20","[""Prefer not to say""]","No","Female","3005186","null","null","","","","fixation","","","","","","","","","","","","","","","","","","","","","","","","","",""
"","","","","","canvas-keyboard-response","173","1449834","0.0-12.0-1.32","2d_cat_multi_stim_exp1","2022-5-4","13:55:53","25","75","3","9","10","40","30","120","91","20","[""Prefer not to say""]","No","Female","3005186","null","null","","","","clear_screen","","","","","","","","","","","","","","","","","","","","","","","","","",""
"","","","","","canvas-keyboard-response","174","1450737","0.0-12.0-2.32","2d_cat_multi_stim_exp1","2022-5-4","13:55:53","25","75","3","9","10","40","30","120","91","20","[""Prefer not to say""]","No","Female","3005186","893","u","learn","","","learn_trial","20","80","out","1","0","","","","","","","","","","","","","","","","","","","","",""
"","","","","","canvas-keyboard-response","175","1451746","0.0-12.0-3.32","2d_cat_multi_stim_exp1","2022-5-4","13:55:53","25","75","3","9","10","40","30","120","91","20","[""Prefer not to say""]","No","Female","3005186","null","null","learn_feedback","","","learn_feedback","20","80","out","","","","","","","","","","","","","","","","","","","","","","",""
"","","","","","canvas-keyboard-response","176","1451806","0.0-12.0-4.32","2d_cat_multi_stim_exp1","2022-5-4","13:55:53","25","75","3","9","10","40","30","120","91","20","[""Prefer not to say""]","No","Female","3005186","null","null","","","","clear_screen","","","","","","","","","","","","","","","","","","","","","","","","","",""
"","","","","","canvas-keyboard-response","177","1452314","0.0-12.0-0.33","2d_cat_multi_stim_exp1","2022-5-4","13:55:53","25","75","3","9","10","40","30","120","91","20","[""Prefer not to say""]","No","Female","3005186","null","null","","","","fixation","","","","","","","","","","","","","","","","","","","","","","","","","",""
"","","","","","canvas-keyboard-response","178","1452826","0.0-12.0-1.33","2d_cat_multi_stim_exp1","2022-5-4","13:55:53","25","75","3","9","10","40","30","120","91","20","[""Prefer not to say""]","No","Female","3005186","null","null","","","","clear_screen","","","","","","","","","","","","","","","","","","","","","","","","","",""
"","","","","","canvas-keyboard-response","179","1453608","0.0-12.0-2.33","2d_cat_multi_stim_exp1","2022-5-4","13:55:53","25","75","3","9","10","40","30","120","91","20","[""Prefer not to say""]","No","Female","3005186","773","u","learn","","","learn_trial","22.5729","69.7099","in","1","1","","","","","","","","","","","","","","","","","","","","",""
"","","","","","canvas-keyboard-response","180","1454115","0.0-12.0-3.33","2d_cat_multi_stim_exp1","2022-5-4","13:55:53","25","75","3","9","10","40","30","120","91","20","[""Prefer not to say""]","No","Female","3005186","null","null","learn_feedback","","","learn_feedback","22.5729","69.7099","in","","","","","","","","","","","","","","","","","","","","","","",""
"","","","","","canvas-keyboard-response","181","1454179","0.0-12.0-4.33","2d_cat_multi_stim_exp1","2022-5-4","13:55:53","25","75","3","9","10","40","30","120","91","20","[""Prefer not to say""]","No","Female","3005186","null","null","","","","clear_screen","","","","","","","","","","","","","","","","","","","","","","","","","",""
"","","","","","canvas-keyboard-response","182","1454688","0.0-12.0-0.34","2d_cat_multi_stim_exp1","2022-5-4","13:55:53","25","75","3","9","10","40","30","120","91","20","[""Prefer not to say""]","No","Female","3005186","null","null","","","","fixation","","","","","","","","","","","","","","","","","","","","","","","","","",""
"","","","","","canvas-keyboard-response","183","1455198","0.0-12.0-1.34","2d_cat_multi_stim_exp1","2022-5-4","13:55:53","25","75","3","9","10","40","30","120","91","20","[""Prefer not to say""]","No","Female","3005186","null","null","","","","clear_screen","","","","","","","","","","","","","","","","","","","","","","","","","",""
"","","","","","canvas-keyboard-response","184","1456032","0.0-12.0-2.34","2d_cat_multi_stim_exp1","2022-5-4","13:55:53","25","75","3","9","10","40","30","120","91","20","[""Prefer not to say""]","No","Female","3005186","824","i","learn","","","learn_trial","36.6667","40","out","0","1","","","","","","","","","","","","","","","","","","","","",""
"","","","","","canvas-keyboard-response","185","1456543","0.0-12.0-3.34","2d_cat_multi_stim_exp1","2022-5-4","13:55:53","25","75","3","9","10","40","30","120","91","20","[""Prefer not to say""]","No","Female","3005186","null","null","learn_feedback","","","learn_feedback","36.6667","40","out","","","","","","","","","","","","","","","","","","","","","","",""
"","","","","","canvas-keyboard-response","186","1456603","0.0-12.0-4.34","2d_cat_multi_stim_exp1","2022-5-4","13:55:53","25","75","3","9","10","40","30","120","91","20","[""Prefer not to say""]","No","Female","3005186","null","null","","","","clear_screen","","","","","","","","","","","","","","","","","","","","","","","","","",""
"","","","","","canvas-keyboard-response","187","1457112","0.0-12.0-0.35","2d_cat_multi_stim_exp1","2022-5-4","13:55:53","25","75","3","9","10","40","30","120","91","20","[""Prefer not to say""]","No","Female","3005186","null","null","","","","fixation","","","","","","","","","","","","","","","","","","","","","","","","","",""
"","","","","","canvas-keyboard-response","188","1457616","0.0-12.0-1.35","2d_cat_multi_stim_exp1","2022-5-4","13:55:53","25","75","3","9","10","40","30","120","91","20","[""Prefer not to say""]","No","Female","3005186","null","null","","","","clear_screen","","","","","","","","","","","","","","","","","","","","","","","","","",""
"","","","","","canvas-keyboard-response","189","1458520","0.0-12.0-2.35","2d_cat_multi_stim_exp1","2022-5-4","13:55:53","25","75","3","9","10","40","30","120","91","20","[""Prefer not to say""]","No","Female","3005186","894","i","learn","","","learn_trial","13.3333","110","out","0","1","","","","","","","","","","","","","","","","","","","","",""
"","","","","","canvas-keyboard-response","190","1459031","0.0-12.0-3.35","2d_cat_multi_stim_exp1","2022-5-4","13:55:53","25","75","3","9","10","40","30","120","91","20","[""Prefer not to say""]","No","Female","3005186","null","null","learn_feedback","","","learn_feedback","13.3333","110","out","","","","","","","","","","","","","","","","","","","","","","",""
"","","","","","canvas-keyboard-response","191","1459093","0.0-12.0-4.35","2d_cat_multi_stim_exp1","2022-5-4","13:55:53","25","75","3","9","10","40","30","120","91","20","[""Prefer not to say""]","No","Female","3005186","null","null","","","","clear_screen","","","","","","","","","","","","","","","","","","","","","","","","","",""
"","","","","","canvas-keyboard-response","192","1459603","0.0-12.0-0.36","2d_cat_multi_stim_exp1","2022-5-4","13:55:53","25","75","3","9","10","40","30","120","91","20","[""Prefer not to say""]","No","Female","3005186","null","null","","","","fixation","","","","","","","","","","","","","","","","","","","","","","","","","",""
"","","","","","canvas-keyboard-response","193","1460113","0.0-12.0-1.36","2d_cat_multi_stim_exp1","2022-5-4","13:55:53","25","75","3","9","10","40","30","120","91","20","[""Prefer not to say""]","No","Female","3005186","null","null","","","","clear_screen","","","","","","","","","","","","","","","","","","","","","","","","","",""
"","","","","","canvas-keyboard-response","194","1460881","0.0-12.0-2.36","2d_cat_multi_stim_exp1","2022-5-4","13:55:53","25","75","3","9","10","40","30","120","91","20","[""Prefer not to say""]","No","Female","3005186","756","i","learn","","","learn_trial","23.3333","40","out","0","1","","","","","","","","","","","","","","","","","","","","",""
"","","","","","canvas-keyboard-response","195","1461388","0.0-12.0-3.36","2d_cat_multi_stim_exp1","2022-5-4","13:55:53","25","75","3","9","10","40","30","120","91","20","[""Prefer not to say""]","No","Female","3005186","null","null","learn_feedback","","","learn_feedback","23.3333","40","out","","","","","","","","","","","","","","","","","","","","","","",""
"","","","","","canvas-keyboard-response","196","1461450","0.0-12.0-4.36","2d_cat_multi_stim_exp1","2022-5-4","13:55:53","25","75","3","9","10","40","30","120","91","20","[""Prefer not to say""]","No","Female","3005186","null","null","","","","clear_screen","","","","","","","","","","","","","","","","","","","","","","","","","",""
"","","","","","canvas-keyboard-response","197","1461961","0.0-12.0-0.37","2d_cat_multi_stim_exp1","2022-5-4","13:55:53","25","75","3","9","10","40","30","120","91","20","[""Prefer not to say""]","No","Female","3005186","null","null","","","","fixation","","","","","","","","","","","","","","","","","","","","","","","","","",""
"","","","","","canvas-keyboard-response","198","1462472","0.0-12.0-1.37","2d_cat_multi_stim_exp1","2022-5-4","13:55:53","25","75","3","9","10","40","30","120","91","20","[""Prefer not to say""]","No","Female","3005186","null","null","","","","clear_screen","","","","","","","","","","","","","","","","","","","","","","","","","",""
"","","","","","canvas-keyboard-response","199","1463072","0.0-12.0-2.37","2d_cat_multi_stim_exp1","2022-5-4","13:55:53","25","75","3","9","10","40","30","120","91","20","[""Prefer not to say""]","No","Female","3005186","588","u","learn","","","learn_trial","25","75","in","1","1","","","","","","","","","","","","","","","","","","","","",""
"","","","","","canvas-keyboard-response","200","1463583","0.0-12.0-3.37","2d_cat_multi_stim_exp1","2022-5-4","13:55:53","25","75","3","9","10","40","30","120","91","20","[""Prefer not to say""]","No","Female","3005186","null","null","learn_feedback","","","learn_feedback","25","75","in","","","","","","","","","","","","","","","","","","","","","","",""
"","","","","","canvas-keyboard-response","201","1463639","0.0-12.0-4.37","2d_cat_multi_stim_exp1","2022-5-4","13:55:53","25","75","3","9","10","40","30","120","91","20","[""Prefer not to say""]","No","Female","3005186","null","null","","","","clear_screen","","","","","","","","","","","","","","","","","","","","","","","","","",""
"","","","","","canvas-keyboard-response","202","1464145","0.0-12.0-0.38","2d_cat_multi_stim_exp1","2022-5-4","13:55:53","25","75","3","9","10","40","30","120","91","20","[""Prefer not to say""]","No","Female","3005186","null","null","","","","fixation","","","","","","","","","","","","","","","","","","","","","","","","","",""
"","","","","","canvas-keyboard-response","203","1464653","0.0-12.0-1.38","2d_cat_multi_stim_exp1","2022-5-4","13:55:53","25","75","3","9","10","40","30","120","91","20","[""Prefer not to say""]","No","Female","3005186","null","null","","","","clear_screen","","","","","","","","","","","","","","","","","","","","","","","","","",""
"","","","","","canvas-keyboard-response","204","1465648","0.0-12.0-2.38","2d_cat_multi_stim_exp1","2022-5-4","13:55:53","25","75","3","9","10","40","30","120","91","20","[""Prefer not to say""]","No","Female","3005186","986","i","learn","","","learn_trial","25","75","in","0","0","","","","","","","","","","","","","","","","","","","","",""
"","","","","","canvas-keyboard-response","205","1466659","0.0-12.0-3.38","2d_cat_multi_stim_exp1","2022-5-4","13:55:53","25","75","3","9","10","40","30","120","91","20","[""Prefer not to say""]","No","Female","3005186","null","null","learn_feedback","","","learn_feedback","25","75","in","","","","","","","","","","","","","","","","","","","","","","",""
"","","","","","canvas-keyboard-response","206","1466718","0.0-12.0-4.38","2d_cat_multi_stim_exp1","2022-5-4","13:55:53","25","75","3","9","10","40","30","120","91","20","[""Prefer not to say""]","No","Female","3005186","null","null","","","","clear_screen","","","","","","","","","","","","","","","","","","","","","","","","","",""
"","","","","","canvas-keyboard-response","207","1467231","0.0-12.0-0.39","2d_cat_multi_stim_exp1","2022-5-4","13:55:53","25","75","3","9","10","40","30","120","91","20","[""Prefer not to say""]","No","Female","3005186","null","null","","","","fixation","","","","","","","","","","","","","","","","","","","","","","","","","",""
"","","","","","canvas-keyboard-response","208","1467743","0.0-12.0-1.39","2d_cat_multi_stim_exp1","2022-5-4","13:55:53","25","75","3","9","10","40","30","120","91","20","[""Prefer not to say""]","No","Female","3005186","null","null","","","","clear_screen","","","","","","","","","","","","","","","","","","","","","","","","","",""
"","","","","","canvas-keyboard-response","209","1468655","0.0-12.0-2.39","2d_cat_multi_stim_exp1","2022-5-4","13:55:53","25","75","3","9","10","40","30","120","91","20","[""Prefer not to say""]","No","Female","3005186","902","i","learn","","","learn_trial","26.6667","120","out","0","1","","","","","","","","","","","","","","","","","","","","",""
"","","","","","canvas-keyboard-response","210","1469164","0.0-12.0-3.39","2d_cat_multi_stim_exp1","2022-5-4","13:55:53","25","75","3","9","10","40","30","120","91","20","[""Prefer not to say""]","No","Female","3005186","null","null","learn_feedback","","","learn_feedback","26.6667","120","out","","","","","","","","","","","","","","","","","","","","","","",""
"","","","","","canvas-keyboard-response","211","1469227","0.0-12.0-4.39","2d_cat_multi_stim_exp1","2022-5-4","13:55:53","25","75","3","9","10","40","30","120","91","20","[""Prefer not to say""]","No","Female","3005186","null","null","","","","clear_screen","","","","","","","","","","","","","","","","","","","","","","","","","",""
"","","","","","canvas-keyboard-response","212","1469734","0.0-12.0-0.40","2d_cat_multi_stim_exp1","2022-5-4","13:55:53","25","75","3","9","10","40","30","120","91","20","[""Prefer not to say""]","No","Female","3005186","null","null","","","","fixation","","","","","","","","","","","","","","","","","","","","","","","","","",""
"","","","","","canvas-keyboard-response","213","1470248","0.0-12.0-1.40","2d_cat_multi_stim_exp1","2022-5-4","13:55:53","25","75","3","9","10","40","30","120","91","20","[""Prefer not to say""]","No","Female","3005186","null","null","","","","clear_screen","","","","","","","","","","","","","","","","","","","","","","","","","",""
"","","","","","canvas-keyboard-response","214","1470880","0.0-12.0-2.40","2d_cat_multi_stim_exp1","2022-5-4","13:55:53","25","75","3","9","10","40","30","120","91","20","[""Prefer not to say""]","No","Female","3005186","622","i","learn","","","learn_trial","26.6667","40","out","0","1","","","","","","","","","","","","","","","","","","","","",""
"","","","","","canvas-keyboard-response","215","1471391","0.0-12.0-3.40","2d_cat_multi_stim_exp1","2022-5-4","13:55:53","25","75","3","9","10","40","30","120","91","20","[""Prefer not to say""]","No","Female","3005186","null","null","learn_feedback","","","learn_feedback","26.6667","40","out","","","","","","","","","","","","","","","","","","","","","","",""
"","","","","","canvas-keyboard-response","216","1471454","0.0-12.0-4.40","2d_cat_multi_stim_exp1","2022-5-4","13:55:53","25","75","3","9","10","40","30","120","91","20","[""Prefer not to say""]","No","Female","3005186","null","null","","","","clear_screen","","","","","","","","","","","","","","","","","","","","","","","","","",""
"","","","","","canvas-keyboard-response","217","1471964","0.0-12.0-0.41","2d_cat_multi_stim_exp1","2022-5-4","13:55:53","25","75","3","9","10","40","30","120","91","20","[""Prefer not to say""]","No","Female","3005186","null","null","","","","fixation","","","","","","","","","","","","","","","","","","","","","","","","","",""
"","","","","","canvas-keyboard-response","218","1472475","0.0-12.0-1.41","2d_cat_multi_stim_exp1","2022-5-4","13:55:53","25","75","3","9","10","40","30","120","91","20","[""Prefer not to say""]","No","Female","3005186","null","null","","","","clear_screen","","","","","","","","","","","","","","","","","","","","","","","","","",""
"","","","","","canvas-keyboard-response","219","1473423","0.0-12.0-2.41","2d_cat_multi_stim_exp1","2022-5-4","13:55:53","25","75","3","9","10","40","30","120","91","20","[""Prefer not to say""]","No","Female","3005186","937","i","learn","","","learn_trial","25.4027","83.9185","in","0","0","","","","","","","","","","","","","","","","","","","","",""
"","","","","","canvas-keyboard-response","220","1474436","0.0-12.0-3.41","2d_cat_multi_stim_exp1","2022-5-4","13:55:53","25","75","3","9","10","40","30","120","91","20","[""Prefer not to say""]","No","Female","3005186","null","null","learn_feedback","","","learn_feedback","25.4027","83.9185","in","","","","","","","","","","","","","","","","","","","","","","",""
"","","","","","canvas-keyboard-response","221","1474497","0.0-12.0-4.41","2d_cat_multi_stim_exp1","2022-5-4","13:55:53","25","75","3","9","10","40","30","120","91","20","[""Prefer not to say""]","No","Female","3005186","null","null","","","","clear_screen","","","","","","","","","","","","","","","","","","","","","","","","","",""
"","","","","","canvas-keyboard-response","222","1475006","0.0-12.0-0.42","2d_cat_multi_stim_exp1","2022-5-4","13:55:53","25","75","3","9","10","40","30","120","91","20","[""Prefer not to say""]","No","Female","3005186","null","null","","","","fixation","","","","","","","","","","","","","","","","","","","","","","","","","",""
"","","","","","canvas-keyboard-response","223","1475517","0.0-12.0-1.42","2d_cat_multi_stim_exp1","2022-5-4","13:55:53","25","75","3","9","10","40","30","120","91","20","[""Prefer not to say""]","No","Female","3005186","null","null","","","","clear_screen","","","","","","","","","","","","","","","","","","","","","","","","","",""
"","","","","","canvas-keyboard-response","224","1476113","0.0-12.0-2.42","2d_cat_multi_stim_exp1","2022-5-4","13:55:53","25","75","3","9","10","40","30","120","91","20","[""Prefer not to say""]","No","Female","3005186","584","u","learn","","","learn_trial","20.7574","62.2721","in","1","1","","","","","","","","","","","","","","","","","","","","",""
"","","","","","canvas-keyboard-response","225","1476623","0.0-12.0-3.42","2d_cat_multi_stim_exp1","2022-5-4","13:55:53","25","75","3","9","10","40","30","120","91","20","[""Prefer not to say""]","No","Female","3005186","null","null","learn_feedback","","","learn_feedback","20.7574","62.2721","in","","","","","","","","","","","","","","","","","","","","","","",""
"","","","","","canvas-keyboard-response","226","1476685","0.0-12.0-4.42","2d_cat_multi_stim_exp1","2022-5-4","13:55:53","25","75","3","9","10","40","30","120","91","20","[""Prefer not to say""]","No","Female","3005186","null","null","","","","clear_screen","","","","","","","","","","","","","","","","","","","","","","","","","",""
"","","","","","canvas-keyboard-response","227","1477197","0.0-12.0-0.43","2d_cat_multi_stim_exp1","2022-5-4","13:55:53","25","75","3","9","10","40","30","120","91","20","[""Prefer not to say""]","No","Female","3005186","null","null","","","","fixation","","","","","","","","","","","","","","","","","","","","","","","","","",""
"","","","","","canvas-keyboard-response","228","1477706","0.0-12.0-1.43","2d_cat_multi_stim_exp1","2022-5-4","13:55:53","25","75","3","9","10","40","30","120","91","20","[""Prefer not to say""]","No","Female","3005186","null","null","","","","clear_screen","","","","","","","","","","","","","","","","","","","","","","","","","",""
"","","","","","canvas-keyboard-response","229","1479168","0.0-12.0-2.43","2d_cat_multi_stim_exp1","2022-5-4","13:55:53","25","75","3","9","10","40","30","120","91","20","[""Prefer not to say""]","No","Female","3005186","1454","u","learn","","","learn_trial","25.4027","66.0815","in","1","1","","","","","","","","","","","","","","","","","","","","",""
"","","","","","canvas-keyboard-response","230","1479679","0.0-12.0-3.43","2d_cat_multi_stim_exp1","2022-5-4","13:55:53","25","75","3","9","10","40","30","120","91","20","[""Prefer not to say""]","No","Female","3005186","null","null","learn_feedback","","","learn_feedback","25.4027","66.0815","in","","","","","","","","","","","","","","","","","","","","","","",""
"","","","","","canvas-keyboard-response","231","1479739","0.0-12.0-4.43","2d_cat_multi_stim_exp1","2022-5-4","13:55:53","25","75","3","9","10","40","30","120","91","20","[""Prefer not to say""]","No","Female","3005186","null","null","","","","clear_screen","","","","","","","","","","","","","","","","","","","","","","","","","",""
"","","","","","canvas-keyboard-response","232","1480248","0.0-12.0-0.44","2d_cat_multi_stim_exp1","2022-5-4","13:55:53","25","75","3","9","10","40","30","120","91","20","[""Prefer not to say""]","No","Female","3005186","null","null","","","","fixation","","","","","","","","","","","","","","","","","","","","","","","","","",""
"","","","","","canvas-keyboard-response","233","1480758","0.0-12.0-1.44","2d_cat_multi_stim_exp1","2022-5-4","13:55:53","25","75","3","9","10","40","30","120","91","20","[""Prefer not to say""]","No","Female","3005186","null","null","","","","clear_screen","","","","","","","","","","","","","","","","","","","","","","","","","",""
"","","","","","canvas-keyboard-response","234","1481825","0.0-12.0-2.44","2d_cat_multi_stim_exp1","2022-5-4","13:55:53","25","75","3","9","10","40","30","120","91","20","[""Prefer not to say""]","No","Female","3005186","1056","u","learn","","","learn_trial","25","75","in","1","1","","","","","","","","","","","","","","","","","","","","",""
"","","","","","canvas-keyboard-response","235","1482339","0.0-12.0-3.44","2d_cat_multi_stim_exp1","2022-5-4","13:55:53","25","75","3","9","10","40","30","120","91","20","[""Prefer not to say""]","No","Female","3005186","null","null","learn_feedback","","","learn_feedback","25","75","in","","","","","","","","","","","","","","","","","","","","","","",""
"","","","","","canvas-keyboard-response","236","1482398","0.0-12.0-4.44","2d_cat_multi_stim_exp1","2022-5-4","13:55:53","25","75","3","9","10","40","30","120","91","20","[""Prefer not to say""]","No","Female","3005186","null","null","","","","clear_screen","","","","","","","","","","","","","","","","","","","","","","","","","",""
"","","","","","canvas-keyboard-response","237","1482907","0.0-12.0-0.45","2d_cat_multi_stim_exp1","2022-5-4","13:55:53","25","75","3","9","10","40","30","120","91","20","[""Prefer not to say""]","No","Female","3005186","null","null","","","","fixation","","","","","","","","","","","","","","","","","","","","","","","","","",""
"","","","","","canvas-keyboard-response","238","1483420","0.0-12.0-1.45","2d_cat_multi_stim_exp1","2022-5-4","13:55:53","25","75","3","9","10","40","30","120","91","20","[""Prefer not to say""]","No","Female","3005186","null","null","","","","clear_screen","","","","","","","","","","","","","","","","","","","","","","","","","",""
"","","","","","canvas-keyboard-response","239","1484088","0.0-12.0-2.45","2d_cat_multi_stim_exp1","2022-5-4","13:55:53","25","75","3","9","10","40","30","120","91","20","[""Prefer not to say""]","No","Female","3005186","659","u","learn","","","learn_trial","25","75","in","1","1","","","","","","","","","","","","","","","","","","","","",""
"","","","","","canvas-keyboard-response","240","1484598","0.0-12.0-3.45","2d_cat_multi_stim_exp1","2022-5-4","13:55:53","25","75","3","9","10","40","30","120","91","20","[""Prefer not to say""]","No","Female","3005186","null","null","learn_feedback","","","learn_feedback","25","75","in","","","","","","","","","","","","","","","","","","","","","","",""
"","","","","","canvas-keyboard-response","241","1484657","0.0-12.0-4.45","2d_cat_multi_stim_exp1","2022-5-4","13:55:53","25","75","3","9","10","40","30","120","91","20","[""Prefer not to say""]","No","Female","3005186","null","null","","","","clear_screen","","","","","","","","","","","","","","","","","","","","","","","","","",""
"","","","","","canvas-keyboard-response","242","1485165","0.0-12.0-0.46","2d_cat_multi_stim_exp1","2022-5-4","13:55:53","25","75","3","9","10","40","30","120","91","20","[""Prefer not to say""]","No","Female","3005186","null","null","","","","fixation","","","","","","","","","","","","","","","","","","","","","","","","","",""
"","","","","","canvas-keyboard-response","243","1485676","0.0-12.0-1.46","2d_cat_multi_stim_exp1","2022-5-4","13:55:53","25","75","3","9","10","40","30","120","91","20","[""Prefer not to say""]","No","Female","3005186","null","null","","","","clear_screen","","","","","","","","","","","","","","","","","","","","","","","","","",""
"","","","","","canvas-keyboard-response","244","1487257","0.0-12.0-2.46","2d_cat_multi_stim_exp1","2022-5-4","13:55:53","25","75","3","9","10","40","30","120","91","20","[""Prefer not to say""]","No","Female","3005186","1573","i","learn","","","learn_trial","25","75","in","0","0","","","","","","","","","","","","","","","","","","","","",""
"","","","","","canvas-keyboard-response","245","1488268","0.0-12.0-3.46","2d_cat_multi_stim_exp1","2022-5-4","13:55:53","25","75","3","9","10","40","30","120","91","20","[""Prefer not to say""]","No","Female","3005186","null","null","learn_feedback","","","learn_feedback","25","75","in","","","","","","","","","","","","","","","","","","","","","","",""
"","","","","","canvas-keyboard-response","246","1488329","0.0-12.0-4.46","2d_cat_multi_stim_exp1","2022-5-4","13:55:53","25","75","3","9","10","40","30","120","91","20","[""Prefer not to say""]","No","Female","3005186","null","null","","","","clear_screen","","","","","","","","","","","","","","","","","","","","","","","","","",""
"","","","","","canvas-keyboard-response","247","1488839","0.0-12.0-0.47","2d_cat_multi_stim_exp1","2022-5-4","13:55:53","25","75","3","9","10","40","30","120","91","20","[""Prefer not to say""]","No","Female","3005186","null","null","","","","fixation","","","","","","","","","","","","","","","","","","","","","","","","","",""
"","","","","","canvas-keyboard-response","248","1489351","0.0-12.0-1.47","2d_cat_multi_stim_exp1","2022-5-4","13:55:53","25","75","3","9","10","40","30","120","91","20","[""Prefer not to say""]","No","Female","3005186","null","null","","","","clear_screen","","","","","","","","","","","","","","","","","","","","","","","","","",""
"","","","","","canvas-keyboard-response","249","1490272","0.0-12.0-2.47","2d_cat_multi_stim_exp1","2022-5-4","13:55:53","25","75","3","9","10","40","30","120","91","20","[""Prefer not to say""]","No","Female","3005186","912","u","learn","","","learn_trial","25","75","in","1","1","","","","","","","","","","","","","","","","","","","","",""
"","","","","","canvas-keyboard-response","250","1490780","0.0-12.0-3.47","2d_cat_multi_stim_exp1","2022-5-4","13:55:53","25","75","3","9","10","40","30","120","91","20","[""Prefer not to say""]","No","Female","3005186","null","null","learn_feedback","","","learn_feedback","25","75","in","","","","","","","","","","","","","","","","","","","","","","",""
"","","","","","canvas-keyboard-response","251","1490841","0.0-12.0-4.47","2d_cat_multi_stim_exp1","2022-5-4","13:55:53","25","75","3","9","10","40","30","120","91","20","[""Prefer not to say""]","No","Female","3005186","null","null","","","","clear_screen","","","","","","","","","","","","","","","","","","","","","","","","","",""
"","","","","","canvas-keyboard-response","252","1491353","0.0-12.0-0.48","2d_cat_multi_stim_exp1","2022-5-4","13:55:53","25","75","3","9","10","40","30","120","91","20","[""Prefer not to say""]","No","Female","3005186","null","null","","","","fixation","","","","","","","","","","","","","","","","","","","","","","","","","",""
"","","","","","canvas-keyboard-response","253","1491865","0.0-12.0-1.48","2d_cat_multi_stim_exp1","2022-5-4","13:55:53","25","75","3","9","10","40","30","120","91","20","[""Prefer not to say""]","No","Female","3005186","null","null","","","","clear_screen","","","","","","","","","","","","","","","","","","","","","","","","","",""
"","","","","","canvas-keyboard-response","254","1492992","0.0-12.0-2.48","2d_cat_multi_stim_exp1","2022-5-4","13:55:53","25","75","3","9","10","40","30","120","91","20","[""Prefer not to say""]","No","Female","3005186","1118","i","learn","","","learn_trial","36.6667","80","out","0","1","","","","","","","","","","","","","","","","","","","","",""
"","","","","","canvas-keyboard-response","255","1493503","0.0-12.0-3.48","2d_cat_multi_stim_exp1","2022-5-4","13:55:53","25","75","3","9","10","40","30","120","91","20","[""Prefer not to say""]","No","Female","3005186","null","null","learn_feedback","","","learn_feedback","36.6667","80","out","","","","","","","","","","","","","","","","","","","","","","",""
"","","","","","canvas-keyboard-response","256","1493566","0.0-12.0-4.48","2d_cat_multi_stim_exp1","2022-5-4","13:55:53","25","75","3","9","10","40","30","120","91","20","[""Prefer not to say""]","No","Female","3005186","null","null","","","","clear_screen","","","","","","","","","","","","","","","","","","","","","","","","","",""
"","","","","","canvas-keyboard-response","257","1494076","0.0-12.0-0.49","2d_cat_multi_stim_exp1","2022-5-4","13:55:53","25","75","3","9","10","40","30","120","91","20","[""Prefer not to say""]","No","Female","3005186","null","null","","","","fixation","","","","","","","","","","","","","","","","","","","","","","","","","",""
"","","","","","canvas-keyboard-response","258","1494588","0.0-12.0-1.49","2d_cat_multi_stim_exp1","2022-5-4","13:55:53","25","75","3","9","10","40","30","120","91","20","[""Prefer not to say""]","No","Female","3005186","null","null","","","","clear_screen","","","","","","","","","","","","","","","","","","","","","","","","","",""
"","","","","","canvas-keyboard-response","259","1495552","0.0-12.0-2.49","2d_cat_multi_stim_exp1","2022-5-4","13:55:53","25","75","3","9","10","40","30","120","91","20","[""Prefer not to say""]","No","Female","3005186","955","i","learn","","","learn_trial","20","120","out","0","1","","","","","","","","","","","","","","","","","","","","",""
"","","","","","canvas-keyboard-response","260","1496061","0.0-12.0-3.49","2d_cat_multi_stim_exp1","2022-5-4","13:55:53","25","75","3","9","10","40","30","120","91","20","[""Prefer not to say""]","No","Female","3005186","null","null","learn_feedback","","","learn_feedback","20","120","out","","","","","","","","","","","","","","","","","","","","","","",""
"","","","","","canvas-keyboard-response","261","1496121","0.0-12.0-4.49","2d_cat_multi_stim_exp1","2022-5-4","13:55:53","25","75","3","9","10","40","30","120","91","20","[""Prefer not to say""]","No","Female","3005186","null","null","","","","clear_screen","","","","","","","","","","","","","","","","","","","","","","","","","",""
"","","","","","canvas-keyboard-response","262","1496631","0.0-12.0-0.50","2d_cat_multi_stim_exp1","2022-5-4","13:55:53","25","75","3","9","10","40","30","120","91","20","[""Prefer not to say""]","No","Female","3005186","null","null","","","","fixation","","","","","","","","","","","","","","","","","","","","","","","","","",""
"","","","","","canvas-keyboard-response","263","1497141","0.0-12.0-1.50","2d_cat_multi_stim_exp1","2022-5-4","13:55:53","25","75","3","9","10","40","30","120","91","20","[""Prefer not to say""]","No","Female","3005186","null","null","","","","clear_screen","","","","","","","","","","","","","","","","","","","","","","","","","",""
"","","","","","canvas-keyboard-response","264","1497944","0.0-12.0-2.50","2d_cat_multi_stim_exp1","2022-5-4","13:55:53","25","75","3","9","10","40","30","120","91","20","[""Prefer not to say""]","No","Female","3005186","793","u","learn","","","learn_trial","25","75","in","1","1","","","","","","","","","","","","","","","","","","","","",""
"","","","","","canvas-keyboard-response","265","1498453","0.0-12.0-3.50","2d_cat_multi_stim_exp1","2022-5-4","13:55:53","25","75","3","9","10","40","30","120","91","20","[""Prefer not to say""]","No","Female","3005186","null","null","learn_feedback","","","learn_feedback","25","75","in","","","","","","","","","","","","","","","","","","","","","","",""
"","","","","","canvas-keyboard-response","266","1498512","0.0-12.0-4.50","2d_cat_multi_stim_exp1","2022-5-4","13:55:53","25","75","3","9","10","40","30","120","91","20","[""Prefer not to say""]","No","Female","3005186","null","null","","","","clear_screen","","","","","","","","","","","","","","","","","","","","","","","","","",""
"","","","","","canvas-keyboard-response","267","1499021","0.0-12.0-0.51","2d_cat_multi_stim_exp1","2022-5-4","13:55:53","25","75","3","9","10","40","30","120","91","20","[""Prefer not to say""]","No","Female","3005186","null","null","","","","fixation","","","","","","","","","","","","","","","","","","","","","","","","","",""
"","","","","","canvas-keyboard-response","268","1499531","0.0-12.0-1.51","2d_cat_multi_stim_exp1","2022-5-4","13:55:53","25","75","3","9","10","40","30","120","91","20","[""Prefer not to say""]","No","Female","3005186","null","null","","","","clear_screen","","","","","","","","","","","","","","","","","","","","","","","","","",""
"","","","","","canvas-keyboard-response","269","1501320","0.0-12.0-2.51","2d_cat_multi_stim_exp1","2022-5-4","13:55:53","25","75","3","9","10","40","30","120","91","20","[""Prefer not to say""]","No","Female","3005186","1780","u","learn","","","learn_trial","19","75","in","1","1","","","","","","","","","","","","","","","","","","","","",""
"","","","","","canvas-keyboard-response","270","1501831","0.0-12.0-3.51","2d_cat_multi_stim_exp1","2022-5-4","13:55:53","25","75","3","9","10","40","30","120","91","20","[""Prefer not to say""]","No","Female","3005186","null","null","learn_feedback","","","learn_feedback","19","75","in","","","","","","","","","","","","","","","","","","","","","","",""
"","","","","","canvas-keyboard-response","271","1501891","0.0-12.0-4.51","2d_cat_multi_stim_exp1","2022-5-4","13:55:53","25","75","3","9","10","40","30","120","91","20","[""Prefer not to say""]","No","Female","3005186","null","null","","","","clear_screen","","","","","","","","","","","","","","","","","","","","","","","","","",""
"","","","","","canvas-keyboard-response","272","1502397","0.0-12.0-0.52","2d_cat_multi_stim_exp1","2022-5-4","13:55:53","25","75","3","9","10","40","30","120","91","20","[""Prefer not to say""]","No","Female","3005186","null","null","","","","fixation","","","","","","","","","","","","","","","","","","","","","","","","","",""
"","","","","","canvas-keyboard-response","273","1502909","0.0-12.0-1.52","2d_cat_multi_stim_exp1","2022-5-4","13:55:53","25","75","3","9","10","40","30","120","91","20","[""Prefer not to say""]","No","Female","3005186","null","null","","","","clear_screen","","","","","","","","","","","","","","","","","","","","","","","","","",""
"","","","","","canvas-keyboard-response","274","1503657","0.0-12.0-2.52","2d_cat_multi_stim_exp1","2022-5-4","13:55:53","25","75","3","9","10","40","30","120","91","20","[""Prefer not to say""]","No","Female","3005186","741","i","learn","","","learn_trial","40","120","out","0","1","","","","","","","","","","","","","","","","","","","","",""
"","","","","","canvas-keyboard-response","275","1504168","0.0-12.0-3.52","2d_cat_multi_stim_exp1","2022-5-4","13:55:53","25","75","3","9","10","40","30","120","91","20","[""Prefer not to say""]","No","Female","3005186","null","null","learn_feedback","","","learn_feedback","40","120","out","","","","","","","","","","","","","","","","","","","","","","",""
"","","","","","canvas-keyboard-response","276","1504226","0.0-12.0-4.52","2d_cat_multi_stim_exp1","2022-5-4","13:55:53","25","75","3","9","10","40","30","120","91","20","[""Prefer not to say""]","No","Female","3005186","null","null","","","","clear_screen","","","","","","","","","","","","","","","","","","","","","","","","","",""
"","","","","","canvas-keyboard-response","277","1504736","0.0-12.0-0.53","2d_cat_multi_stim_exp1","2022-5-4","13:55:53","25","75","3","9","10","40","30","120","91","20","[""Prefer not to say""]","No","Female","3005186","null","null","","","","fixation","","","","","","","","","","","","","","","","","","","","","","","","","",""
"","","","","","canvas-keyboard-response","278","1505248","0.0-12.0-1.53","2d_cat_multi_stim_exp1","2022-5-4","13:55:53","25","75","3","9","10","40","30","120","91","20","[""Prefer not to say""]","No","Female","3005186","null","null","","","","clear_screen","","","","","","","","","","","","","","","","","","","","","","","","","",""
"","","","","","canvas-keyboard-response","279","1507912","0.0-12.0-2.53","2d_cat_multi_stim_exp1","2022-5-4","13:55:53","25","75","3","9","10","40","30","120","91","20","[""Prefer not to say""]","No","Female","3005186","2656","i","learn","","","learn_trial","10","100","out","0","1","","","","","","","","","","","","","","","","","","","","",""
"","","","","","canvas-keyboard-response","280","1508423","0.0-12.0-3.53","2d_cat_multi_stim_exp1","2022-5-4","13:55:53","25","75","3","9","10","40","30","120","91","20","[""Prefer not to say""]","No","Female","3005186","null","null","learn_feedback","","","learn_feedback","10","100","out","","","","","","","","","","","","","","","","","","","","","","",""
"","","","","","canvas-keyboard-response","281","1508486","0.0-12.0-4.53","2d_cat_multi_stim_exp1","2022-5-4","13:55:53","25","75","3","9","10","40","30","120","91","20","[""Prefer not to say""]","No","Female","3005186","null","null","","","","clear_screen","","","","","","","","","","","","","","","","","","","","","","","","","",""
"","","","","","canvas-keyboard-response","282","1508994","0.0-12.0-0.54","2d_cat_multi_stim_exp1","2022-5-4","13:55:53","25","75","3","9","10","40","30","120","91","20","[""Prefer not to say""]","No","Female","3005186","null","null","","","","fixation","","","","","","","","","","","","","","","","","","","","","","","","","",""
"","","","","","canvas-keyboard-response","283","1509503","0.0-12.0-1.54","2d_cat_multi_stim_exp1","2022-5-4","13:55:53","25","75","3","9","10","40","30","120","91","20","[""Prefer not to say""]","No","Female","3005186","null","null","","","","clear_screen","","","","","","","","","","","","","","","","","","","","","","","","","",""
"","","","","","canvas-keyboard-response","284","1513314","0.0-12.0-2.54","2d_cat_multi_stim_exp1","2022-5-4","13:55:53","25","75","3","9","10","40","30","120","91","20","[""Prefer not to say""]","No","Female","3005186","3796","i","learn","","","learn_trial","25","75","in","0","0","","","","","","","","","","","","","","","","","","","","",""
"","","","","","canvas-keyboard-response","285","1514325","0.0-12.0-3.54","2d_cat_multi_stim_exp1","2022-5-4","13:55:53","25","75","3","9","10","40","30","120","91","20","[""Prefer not to say""]","No","Female","3005186","null","null","learn_feedback","","","learn_feedback","25","75","in","","","","","","","","","","","","","","","","","","","","","","",""
"","","","","","canvas-keyboard-response","286","1514386","0.0-12.0-4.54","2d_cat_multi_stim_exp1","2022-5-4","13:55:53","25","75","3","9","10","40","30","120","91","20","[""Prefer not to say""]","No","Female","3005186","null","null","","","","clear_screen","","","","","","","","","","","","","","","","","","","","","","","","","",""
