"success","timeout","failed_images","failed_audio","failed_video","trial_type","trial_index","time_elapsed","internal_node_id","exp_name","date","time","angle_mean_in","radius_mean_in","angle_sd_in","radius_sd_in","angle_min_out","angle_max_out","radius_min_out","radius_max_out","sub_n","age","race","ethnicity","gender","exp_duration","rt","response","exp_trial_type","stimulus","view_history","screen_id","angle","radius","distribution","choice","correct","order","angle_a","radius_a","angle_b","radius_b","jkl_correct","transfer_trial_type","choice_set","abc_correct","tc_correct","tc_angle","tdc_a","tdc_b","tdc_c","pair","category_a","category_b","category_c","angle_c","radius_c","question_order"
"true","false","[]","[]","[]","preload","0","73","0.0-0.0","2d_cat_multi_stim_exp1","2022-5-2","14:36:34","25","75","3","9","10","40","30","120","78","21","[""White""]","Yes","Male","1725905","","","","","","","","","","","","","","","","","","","","","","","","","","","","","","","",""
"","","","","","survey-html-form","1","3655","0.0-1.0","2d_cat_multi_stim_exp1","2022-5-2","14:36:34","25","75","3","9","10","40","30","120","78","21","[""White""]","Yes","Male","1725905","3566","{""response"":""78""}","enter-sub-number","","","","","","","","","","","","","","","","","","","","","","","","","","","","",""
"true","","","","","fullscreen","2","5347","0.0-2.0","2d_cat_multi_stim_exp1","2022-5-2","14:36:34","25","75","3","9","10","40","30","120","78","21","[""White""]","Yes","Male","1725905","","","","","","","","","","","","","","","","","","","","","","","","","","","","","","","",""
"","","","","","image-button-response","3","20347","0.0-3.0","2d_cat_multi_stim_exp1","2022-5-2","14:36:34","25","75","3","9","10","40","30","120","78","21","[""White""]","Yes","Male","1725905","14993","0","","consent.png","","","","","","","","","","","","","","","","","","","","","","","","","","","",""
"","","","","","html-button-response","4","30898","0.0-4.0","2d_cat_multi_stim_exp1","2022-5-2","14:36:34","25","75","3","9","10","40","30","120","78","21","[""White""]","Yes","Male","1725905","10546","0","","<div style= ""font-size:25px;"" <p> <strong> Welcome to the experiment! </strong><br> <p style=""color:#8B0000; font-size:25px;""><strong> Please do NOT exit full screen until you are done with the experiment. </strong> </p><p style=""font-size:25px;color:#8B0000;""> <strong> The experiment will be canceled and your data will be lost <br> if you try to go back or refresh the page at any point during the experiment.</strong> </p><br><p> <strong> Thanks in advance for your contribution to our research! </strong></p>","","","","","","","","","","","","","","","","","","","","","","","","","","","",""
"","","","","","instructions","5","54803","0.0-5.0","2d_cat_multi_stim_exp1","2022-5-2","14:36:34","25","75","3","9","10","40","30","120","78","21","[""White""]","Yes","Male","1725905","23901","","","","[{""page_index"":0,""viewing_time"":7108},{""page_index"":1,""viewing_time"":3880},{""page_index"":2,""viewing_time"":9231},{""page_index"":3,""viewing_time"":3681}]","instructions_1","","","","","","","","","","","","","","","","","","","","","","","","","",""
"","","","","","instructions","6","57714","0.0-6.0","2d_cat_multi_stim_exp1","2022-5-2","14:36:34","25","75","3","9","10","40","30","120","78","21","[""White""]","Yes","Male","1725905","2909","","","","[{""page_index"":0,""viewing_time"":2908}]","Click to see the kinds of turtles that will appear in the study.","","","","","","","","","","","","","","","","","","","","","","","","","",""
"","","","","","canvas-keyboard-response","7","72736","0.0-7.0","2d_cat_multi_stim_exp1","2022-5-2","14:36:34","25","75","3","9","10","40","30","120","78","21","[""White""]","Yes","Male","1725905","null","null","","","","demo_range","","","","","","","","","","","","","","","","","","","","","","","","","",""
"","","","","","instructions","8","75795","0.0-8.0","2d_cat_multi_stim_exp1","2022-5-2","14:36:34","25","75","3","9","10","40","30","120","78","21","[""White""]","Yes","Male","1725905","2557","","","","[{""page_index"":0,""viewing_time"":2556}]","Click to see some turtles in the subspecies.","","","","","","","","","","","","","","","","","","","","","","","","","",""
"","","","","","canvas-keyboard-response","9","90815","0.0-9.0","2d_cat_multi_stim_exp1","2022-5-2","14:36:34","25","75","3","9","10","40","30","120","78","21","[""White""]","Yes","Male","1725905","null","null","","","","demo_in","","","","","","","","","","","","","","","","","","","","","","","","","",""
"","","","","","instructions","10","120883","0.0-10.0","2d_cat_multi_stim_exp1","2022-5-2","14:36:34","25","75","3","9","10","40","30","120","78","21","[""White""]","Yes","Male","1725905","29566","","","","[{""page_index"":0,""viewing_time"":5725},{""page_index"":1,""viewing_time"":20017},{""page_index"":2,""viewing_time"":3823}]","instructions_2","","","","","","","","","","","","","","","","","","","","","","","","","",""
"","","","","","instructions","11","123331","0.0-11.0","2d_cat_multi_stim_exp1","2022-5-2","14:36:34","25","75","3","9","10","40","30","120","78","21","[""White""]","Yes","Male","1725905","2445","","","","[{""page_index"":0,""viewing_time"":2445}]","Click to begin the first phase of the experiment.","","","","","","","","","","","","","","","","","","","","","","","","","",""
"","","","","","canvas-keyboard-response","12","123842","0.0-12.0-0.0","2d_cat_multi_stim_exp1","2022-5-2","14:36:34","25","75","3","9","10","40","30","120","78","21","[""White""]","Yes","Male","1725905","null","null","","","","fixation","","","","","","","","","","","","","","","","","","","","","","","","","",""
"","","","","","canvas-keyboard-response","13","124352","0.0-12.0-1.0","2d_cat_multi_stim_exp1","2022-5-2","14:36:34","25","75","3","9","10","40","30","120","78","21","[""White""]","Yes","Male","1725905","null","null","","","","clear_screen","","","","","","","","","","","","","","","","","","","","","","","","","",""
"","","","","","canvas-keyboard-response","14","127816","0.0-12.0-2.0","2d_cat_multi_stim_exp1","2022-5-2","14:36:34","25","75","3","9","10","40","30","120","78","21","[""White""]","Yes","Male","1725905","3452","u","learn","","","learn_trial","25","75","in","1","1","","","","","","","","","","","","","","","","","","","","",""
"","","","","","canvas-keyboard-response","15","128328","0.0-12.0-3.0","2d_cat_multi_stim_exp1","2022-5-2","14:36:34","25","75","3","9","10","40","30","120","78","21","[""White""]","Yes","Male","1725905","null","null","learn_feedback","","","learn_feedback","25","75","in","","","","","","","","","","","","","","","","","","","","","","",""
"","","","","","canvas-keyboard-response","16","128389","0.0-12.0-4.0","2d_cat_multi_stim_exp1","2022-5-2","14:36:34","25","75","3","9","10","40","30","120","78","21","[""White""]","Yes","Male","1725905","null","null","","","","clear_screen","","","","","","","","","","","","","","","","","","","","","","","","","",""
"","","","","","canvas-keyboard-response","17","128901","0.0-12.0-0.1","2d_cat_multi_stim_exp1","2022-5-2","14:36:34","25","75","3","9","10","40","30","120","78","21","[""White""]","Yes","Male","1725905","null","null","","","","fixation","","","","","","","","","","","","","","","","","","","","","","","","","",""
"","","","","","canvas-keyboard-response","18","129412","0.0-12.0-1.1","2d_cat_multi_stim_exp1","2022-5-2","14:36:34","25","75","3","9","10","40","30","120","78","21","[""White""]","Yes","Male","1725905","null","null","","","","clear_screen","","","","","","","","","","","","","","","","","","","","","","","","","",""
"","","","","","canvas-keyboard-response","19","130568","0.0-12.0-2.1","2d_cat_multi_stim_exp1","2022-5-2","14:36:34","25","75","3","9","10","40","30","120","78","21","[""White""]","Yes","Male","1725905","1147","i","learn","","","learn_trial","40","40","out","0","1","","","","","","","","","","","","","","","","","","","","",""
"","","","","","canvas-keyboard-response","20","131079","0.0-12.0-3.1","2d_cat_multi_stim_exp1","2022-5-2","14:36:34","25","75","3","9","10","40","30","120","78","21","[""White""]","Yes","Male","1725905","null","null","learn_feedback","","","learn_feedback","40","40","out","","","","","","","","","","","","","","","","","","","","","","",""
"","","","","","canvas-keyboard-response","21","131139","0.0-12.0-4.1","2d_cat_multi_stim_exp1","2022-5-2","14:36:34","25","75","3","9","10","40","30","120","78","21","[""White""]","Yes","Male","1725905","null","null","","","","clear_screen","","","","","","","","","","","","","","","","","","","","","","","","","",""
"","","","","","canvas-keyboard-response","22","131649","0.0-12.0-0.2","2d_cat_multi_stim_exp1","2022-5-2","14:36:34","25","75","3","9","10","40","30","120","78","21","[""White""]","Yes","Male","1725905","null","null","","","","fixation","","","","","","","","","","","","","","","","","","","","","","","","","",""
"","","","","","canvas-keyboard-response","23","132158","0.0-12.0-1.2","2d_cat_multi_stim_exp1","2022-5-2","14:36:34","25","75","3","9","10","40","30","120","78","21","[""White""]","Yes","Male","1725905","null","null","","","","clear_screen","","","","","","","","","","","","","","","","","","","","","","","","","",""
"","","","","","canvas-keyboard-response","24","133833","0.0-12.0-2.2","2d_cat_multi_stim_exp1","2022-5-2","14:36:34","25","75","3","9","10","40","30","120","78","21","[""White""]","Yes","Male","1725905","1664","i","learn","","","learn_trial","26.6667","50","out","0","1","","","","","","","","","","","","","","","","","","","","",""
"","","","","","canvas-keyboard-response","25","134343","0.0-12.0-3.2","2d_cat_multi_stim_exp1","2022-5-2","14:36:34","25","75","3","9","10","40","30","120","78","21","[""White""]","Yes","Male","1725905","null","null","learn_feedback","","","learn_feedback","26.6667","50","out","","","","","","","","","","","","","","","","","","","","","","",""
"","","","","","canvas-keyboard-response","26","134403","0.0-12.0-4.2","2d_cat_multi_stim_exp1","2022-5-2","14:36:34","25","75","3","9","10","40","30","120","78","21","[""White""]","Yes","Male","1725905","null","null","","","","clear_screen","","","","","","","","","","","","","","","","","","","","","","","","","",""
"","","","","","canvas-keyboard-response","27","134912","0.0-12.0-0.3","2d_cat_multi_stim_exp1","2022-5-2","14:36:34","25","75","3","9","10","40","30","120","78","21","[""White""]","Yes","Male","1725905","null","null","","","","fixation","","","","","","","","","","","","","","","","","","","","","","","","","",""
"","","","","","canvas-keyboard-response","28","135422","0.0-12.0-1.3","2d_cat_multi_stim_exp1","2022-5-2","14:36:34","25","75","3","9","10","40","30","120","78","21","[""White""]","Yes","Male","1725905","null","null","","","","clear_screen","","","","","","","","","","","","","","","","","","","","","","","","","",""
"","","","","","canvas-keyboard-response","29","137665","0.0-12.0-2.3","2d_cat_multi_stim_exp1","2022-5-2","14:36:34","25","75","3","9","10","40","30","120","78","21","[""White""]","Yes","Male","1725905","2234","i","learn","","","learn_trial","13.3333","80","out","0","1","","","","","","","","","","","","","","","","","","","","",""
"","","","","","canvas-keyboard-response","30","138178","0.0-12.0-3.3","2d_cat_multi_stim_exp1","2022-5-2","14:36:34","25","75","3","9","10","40","30","120","78","21","[""White""]","Yes","Male","1725905","null","null","learn_feedback","","","learn_feedback","13.3333","80","out","","","","","","","","","","","","","","","","","","","","","","",""
"","","","","","canvas-keyboard-response","31","138237","0.0-12.0-4.3","2d_cat_multi_stim_exp1","2022-5-2","14:36:34","25","75","3","9","10","40","30","120","78","21","[""White""]","Yes","Male","1725905","null","null","","","","clear_screen","","","","","","","","","","","","","","","","","","","","","","","","","",""
"","","","","","canvas-keyboard-response","32","138751","0.0-12.0-0.4","2d_cat_multi_stim_exp1","2022-5-2","14:36:34","25","75","3","9","10","40","30","120","78","21","[""White""]","Yes","Male","1725905","null","null","","","","fixation","","","","","","","","","","","","","","","","","","","","","","","","","",""
"","","","","","canvas-keyboard-response","33","139261","0.0-12.0-1.4","2d_cat_multi_stim_exp1","2022-5-2","14:36:34","25","75","3","9","10","40","30","120","78","21","[""White""]","Yes","Male","1725905","null","null","","","","clear_screen","","","","","","","","","","","","","","","","","","","","","","","","","",""
"","","","","","canvas-keyboard-response","34","141632","0.0-12.0-2.4","2d_cat_multi_stim_exp1","2022-5-2","14:36:34","25","75","3","9","10","40","30","120","78","21","[""White""]","Yes","Male","1725905","2362","i","learn","","","learn_trial","40","100","out","0","1","","","","","","","","","","","","","","","","","","","","",""
"","","","","","canvas-keyboard-response","35","142141","0.0-12.0-3.4","2d_cat_multi_stim_exp1","2022-5-2","14:36:34","25","75","3","9","10","40","30","120","78","21","[""White""]","Yes","Male","1725905","null","null","learn_feedback","","","learn_feedback","40","100","out","","","","","","","","","","","","","","","","","","","","","","",""
"","","","","","canvas-keyboard-response","36","142201","0.0-12.0-4.4","2d_cat_multi_stim_exp1","2022-5-2","14:36:34","25","75","3","9","10","40","30","120","78","21","[""White""]","Yes","Male","1725905","null","null","","","","clear_screen","","","","","","","","","","","","","","","","","","","","","","","","","",""
"","","","","","canvas-keyboard-response","37","142709","0.0-12.0-0.5","2d_cat_multi_stim_exp1","2022-5-2","14:36:34","25","75","3","9","10","40","30","120","78","21","[""White""]","Yes","Male","1725905","null","null","","","","fixation","","","","","","","","","","","","","","","","","","","","","","","","","",""
"","","","","","canvas-keyboard-response","38","143219","0.0-12.0-1.5","2d_cat_multi_stim_exp1","2022-5-2","14:36:34","25","75","3","9","10","40","30","120","78","21","[""White""]","Yes","Male","1725905","null","null","","","","clear_screen","","","","","","","","","","","","","","","","","","","","","","","","","",""
"","","","","","canvas-keyboard-response","39","147520","0.0-12.0-2.5","2d_cat_multi_stim_exp1","2022-5-2","14:36:34","25","75","3","9","10","40","30","120","78","21","[""White""]","Yes","Male","1725905","4290","i","learn","","","learn_trial","13.3333","90","out","0","1","","","","","","","","","","","","","","","","","","","","",""
"","","","","","canvas-keyboard-response","40","148030","0.0-12.0-3.5","2d_cat_multi_stim_exp1","2022-5-2","14:36:34","25","75","3","9","10","40","30","120","78","21","[""White""]","Yes","Male","1725905","null","null","learn_feedback","","","learn_feedback","13.3333","90","out","","","","","","","","","","","","","","","","","","","","","","",""
"","","","","","canvas-keyboard-response","41","148088","0.0-12.0-4.5","2d_cat_multi_stim_exp1","2022-5-2","14:36:34","25","75","3","9","10","40","30","120","78","21","[""White""]","Yes","Male","1725905","null","null","","","","clear_screen","","","","","","","","","","","","","","","","","","","","","","","","","",""
"","","","","","canvas-keyboard-response","42","148598","0.0-12.0-0.6","2d_cat_multi_stim_exp1","2022-5-2","14:36:34","25","75","3","9","10","40","30","120","78","21","[""White""]","Yes","Male","1725905","null","null","","","","fixation","","","","","","","","","","","","","","","","","","","","","","","","","",""
"","","","","","canvas-keyboard-response","43","149107","0.0-12.0-1.6","2d_cat_multi_stim_exp1","2022-5-2","14:36:34","25","75","3","9","10","40","30","120","78","21","[""White""]","Yes","Male","1725905","null","null","","","","clear_screen","","","","","","","","","","","","","","","","","","","","","","","","","",""
"","","","","","canvas-keyboard-response","44","150511","0.0-12.0-2.6","2d_cat_multi_stim_exp1","2022-5-2","14:36:34","25","75","3","9","10","40","30","120","78","21","[""White""]","Yes","Male","1725905","1395","i","learn","","","learn_trial","16.6667","70","out","0","1","","","","","","","","","","","","","","","","","","","","",""
"","","","","","canvas-keyboard-response","45","151022","0.0-12.0-3.6","2d_cat_multi_stim_exp1","2022-5-2","14:36:34","25","75","3","9","10","40","30","120","78","21","[""White""]","Yes","Male","1725905","null","null","learn_feedback","","","learn_feedback","16.6667","70","out","","","","","","","","","","","","","","","","","","","","","","",""
"","","","","","canvas-keyboard-response","46","151082","0.0-12.0-4.6","2d_cat_multi_stim_exp1","2022-5-2","14:36:34","25","75","3","9","10","40","30","120","78","21","[""White""]","Yes","Male","1725905","null","null","","","","clear_screen","","","","","","","","","","","","","","","","","","","","","","","","","",""
"","","","","","canvas-keyboard-response","47","151593","0.0-12.0-0.7","2d_cat_multi_stim_exp1","2022-5-2","14:36:34","25","75","3","9","10","40","30","120","78","21","[""White""]","Yes","Male","1725905","null","null","","","","fixation","","","","","","","","","","","","","","","","","","","","","","","","","",""
"","","","","","canvas-keyboard-response","48","152104","0.0-12.0-1.7","2d_cat_multi_stim_exp1","2022-5-2","14:36:34","25","75","3","9","10","40","30","120","78","21","[""White""]","Yes","Male","1725905","null","null","","","","clear_screen","","","","","","","","","","","","","","","","","","","","","","","","","",""
"","","","","","canvas-keyboard-response","49","153191","0.0-12.0-2.7","2d_cat_multi_stim_exp1","2022-5-2","14:36:34","25","75","3","9","10","40","30","120","78","21","[""White""]","Yes","Male","1725905","1078","i","learn","","","learn_trial","10","120","out","0","1","","","","","","","","","","","","","","","","","","","","",""
"","","","","","canvas-keyboard-response","50","153701","0.0-12.0-3.7","2d_cat_multi_stim_exp1","2022-5-2","14:36:34","25","75","3","9","10","40","30","120","78","21","[""White""]","Yes","Male","1725905","null","null","learn_feedback","","","learn_feedback","10","120","out","","","","","","","","","","","","","","","","","","","","","","",""
"","","","","","canvas-keyboard-response","51","153761","0.0-12.0-4.7","2d_cat_multi_stim_exp1","2022-5-2","14:36:34","25","75","3","9","10","40","30","120","78","21","[""White""]","Yes","Male","1725905","null","null","","","","clear_screen","","","","","","","","","","","","","","","","","","","","","","","","","",""
"","","","","","canvas-keyboard-response","52","154270","0.0-12.0-0.8","2d_cat_multi_stim_exp1","2022-5-2","14:36:34","25","75","3","9","10","40","30","120","78","21","[""White""]","Yes","Male","1725905","null","null","","","","fixation","","","","","","","","","","","","","","","","","","","","","","","","","",""
"","","","","","canvas-keyboard-response","53","154779","0.0-12.0-1.8","2d_cat_multi_stim_exp1","2022-5-2","14:36:34","25","75","3","9","10","40","30","120","78","21","[""White""]","Yes","Male","1725905","null","null","","","","clear_screen","","","","","","","","","","","","","","","","","","","","","","","","","",""
"","","","","","canvas-keyboard-response","54","156720","0.0-12.0-2.8","2d_cat_multi_stim_exp1","2022-5-2","14:36:34","25","75","3","9","10","40","30","120","78","21","[""White""]","Yes","Male","1725905","1931","i","learn","","","learn_trial","36.6667","110","out","0","1","","","","","","","","","","","","","","","","","","","","",""
"","","","","","canvas-keyboard-response","55","157230","0.0-12.0-3.8","2d_cat_multi_stim_exp1","2022-5-2","14:36:34","25","75","3","9","10","40","30","120","78","21","[""White""]","Yes","Male","1725905","null","null","learn_feedback","","","learn_feedback","36.6667","110","out","","","","","","","","","","","","","","","","","","","","","","",""
"","","","","","canvas-keyboard-response","56","157289","0.0-12.0-4.8","2d_cat_multi_stim_exp1","2022-5-2","14:36:34","25","75","3","9","10","40","30","120","78","21","[""White""]","Yes","Male","1725905","null","null","","","","clear_screen","","","","","","","","","","","","","","","","","","","","","","","","","",""
"","","","","","canvas-keyboard-response","57","157798","0.0-12.0-0.9","2d_cat_multi_stim_exp1","2022-5-2","14:36:34","25","75","3","9","10","40","30","120","78","21","[""White""]","Yes","Male","1725905","null","null","","","","fixation","","","","","","","","","","","","","","","","","","","","","","","","","",""
"","","","","","canvas-keyboard-response","58","158307","0.0-12.0-1.9","2d_cat_multi_stim_exp1","2022-5-2","14:36:34","25","75","3","9","10","40","30","120","78","21","[""White""]","Yes","Male","1725905","null","null","","","","clear_screen","","","","","","","","","","","","","","","","","","","","","","","","","",""
"","","","","","canvas-keyboard-response","59","161455","0.0-12.0-2.9","2d_cat_multi_stim_exp1","2022-5-2","14:36:34","25","75","3","9","10","40","30","120","78","21","[""White""]","Yes","Male","1725905","3140","u","learn","","","learn_trial","20","60","out","1","0","","","","","","","","","","","","","","","","","","","","",""
"","","","","","canvas-keyboard-response","60","162466","0.0-12.0-3.9","2d_cat_multi_stim_exp1","2022-5-2","14:36:34","25","75","3","9","10","40","30","120","78","21","[""White""]","Yes","Male","1725905","null","null","learn_feedback","","","learn_feedback","20","60","out","","","","","","","","","","","","","","","","","","","","","","",""
"","","","","","canvas-keyboard-response","61","162524","0.0-12.0-4.9","2d_cat_multi_stim_exp1","2022-5-2","14:36:34","25","75","3","9","10","40","30","120","78","21","[""White""]","Yes","Male","1725905","null","null","","","","clear_screen","","","","","","","","","","","","","","","","","","","","","","","","","",""
"","","","","","canvas-keyboard-response","62","163035","0.0-12.0-0.10","2d_cat_multi_stim_exp1","2022-5-2","14:36:34","25","75","3","9","10","40","30","120","78","21","[""White""]","Yes","Male","1725905","null","null","","","","fixation","","","","","","","","","","","","","","","","","","","","","","","","","",""
"","","","","","canvas-keyboard-response","63","163547","0.0-12.0-1.10","2d_cat_multi_stim_exp1","2022-5-2","14:36:34","25","75","3","9","10","40","30","120","78","21","[""White""]","Yes","Male","1725905","null","null","","","","clear_screen","","","","","","","","","","","","","","","","","","","","","","","","","",""
"","","","","","canvas-keyboard-response","64","165841","0.0-12.0-2.10","2d_cat_multi_stim_exp1","2022-5-2","14:36:34","25","75","3","9","10","40","30","120","78","21","[""White""]","Yes","Male","1725905","2281","i","learn","","","learn_trial","27.2592","80.9214","in","0","0","","","","","","","","","","","","","","","","","","","","",""
"","","","","","canvas-keyboard-response","65","166851","0.0-12.0-3.10","2d_cat_multi_stim_exp1","2022-5-2","14:36:34","25","75","3","9","10","40","30","120","78","21","[""White""]","Yes","Male","1725905","null","null","learn_feedback","","","learn_feedback","27.2592","80.9214","in","","","","","","","","","","","","","","","","","","","","","","",""
"","","","","","canvas-keyboard-response","66","166910","0.0-12.0-4.10","2d_cat_multi_stim_exp1","2022-5-2","14:36:34","25","75","3","9","10","40","30","120","78","21","[""White""]","Yes","Male","1725905","null","null","","","","clear_screen","","","","","","","","","","","","","","","","","","","","","","","","","",""
"","","","","","canvas-keyboard-response","67","167420","0.0-12.0-0.11","2d_cat_multi_stim_exp1","2022-5-2","14:36:34","25","75","3","9","10","40","30","120","78","21","[""White""]","Yes","Male","1725905","null","null","","","","fixation","","","","","","","","","","","","","","","","","","","","","","","","","",""
"","","","","","canvas-keyboard-response","68","167930","0.0-12.0-1.11","2d_cat_multi_stim_exp1","2022-5-2","14:36:34","25","75","3","9","10","40","30","120","78","21","[""White""]","Yes","Male","1725905","null","null","","","","clear_screen","","","","","","","","","","","","","","","","","","","","","","","","","",""
"","","","","","canvas-keyboard-response","69","170016","0.0-12.0-2.11","2d_cat_multi_stim_exp1","2022-5-2","14:36:34","25","75","3","9","10","40","30","120","78","21","[""White""]","Yes","Male","1725905","2076","u","learn","","","learn_trial","27.9518","76.607","in","1","1","","","","","","","","","","","","","","","","","","","","",""
"","","","","","canvas-keyboard-response","70","170526","0.0-12.0-3.11","2d_cat_multi_stim_exp1","2022-5-2","14:36:34","25","75","3","9","10","40","30","120","78","21","[""White""]","Yes","Male","1725905","null","null","learn_feedback","","","learn_feedback","27.9518","76.607","in","","","","","","","","","","","","","","","","","","","","","","",""
"","","","","","canvas-keyboard-response","71","170586","0.0-12.0-4.11","2d_cat_multi_stim_exp1","2022-5-2","14:36:34","25","75","3","9","10","40","30","120","78","21","[""White""]","Yes","Male","1725905","null","null","","","","clear_screen","","","","","","","","","","","","","","","","","","","","","","","","","",""
"","","","","","canvas-keyboard-response","72","171096","0.0-12.0-0.12","2d_cat_multi_stim_exp1","2022-5-2","14:36:34","25","75","3","9","10","40","30","120","78","21","[""White""]","Yes","Male","1725905","null","null","","","","fixation","","","","","","","","","","","","","","","","","","","","","","","","","",""
"","","","","","canvas-keyboard-response","73","171605","0.0-12.0-1.12","2d_cat_multi_stim_exp1","2022-5-2","14:36:34","25","75","3","9","10","40","30","120","78","21","[""White""]","Yes","Male","1725905","null","null","","","","clear_screen","","","","","","","","","","","","","","","","","","","","","","","","","",""
"","","","","","canvas-keyboard-response","74","172543","0.0-12.0-2.12","2d_cat_multi_stim_exp1","2022-5-2","14:36:34","25","75","3","9","10","40","30","120","78","21","[""White""]","Yes","Male","1725905","928","u","learn","","","learn_trial","23.3333","90","out","1","0","","","","","","","","","","","","","","","","","","","","",""
"","","","","","canvas-keyboard-response","75","173553","0.0-12.0-3.12","2d_cat_multi_stim_exp1","2022-5-2","14:36:34","25","75","3","9","10","40","30","120","78","21","[""White""]","Yes","Male","1725905","null","null","learn_feedback","","","learn_feedback","23.3333","90","out","","","","","","","","","","","","","","","","","","","","","","",""
"","","","","","canvas-keyboard-response","76","173612","0.0-12.0-4.12","2d_cat_multi_stim_exp1","2022-5-2","14:36:34","25","75","3","9","10","40","30","120","78","21","[""White""]","Yes","Male","1725905","null","null","","","","clear_screen","","","","","","","","","","","","","","","","","","","","","","","","","",""
"","","","","","canvas-keyboard-response","77","174122","0.0-12.0-0.13","2d_cat_multi_stim_exp1","2022-5-2","14:36:34","25","75","3","9","10","40","30","120","78","21","[""White""]","Yes","Male","1725905","null","null","","","","fixation","","","","","","","","","","","","","","","","","","","","","","","","","",""
"","","","","","canvas-keyboard-response","78","174635","0.0-12.0-1.13","2d_cat_multi_stim_exp1","2022-5-2","14:36:34","25","75","3","9","10","40","30","120","78","21","[""White""]","Yes","Male","1725905","null","null","","","","clear_screen","","","","","","","","","","","","","","","","","","","","","","","","","",""
"","","","","","canvas-keyboard-response","79","175671","0.0-12.0-2.13","2d_cat_multi_stim_exp1","2022-5-2","14:36:34","25","75","3","9","10","40","30","120","78","21","[""White""]","Yes","Male","1725905","1028","u","learn","","","learn_trial","30","80","out","1","0","","","","","","","","","","","","","","","","","","","","",""
"","","","","","canvas-keyboard-response","80","176682","0.0-12.0-3.13","2d_cat_multi_stim_exp1","2022-5-2","14:36:34","25","75","3","9","10","40","30","120","78","21","[""White""]","Yes","Male","1725905","null","null","learn_feedback","","","learn_feedback","30","80","out","","","","","","","","","","","","","","","","","","","","","","",""
"","","","","","canvas-keyboard-response","81","176740","0.0-12.0-4.13","2d_cat_multi_stim_exp1","2022-5-2","14:36:34","25","75","3","9","10","40","30","120","78","21","[""White""]","Yes","Male","1725905","null","null","","","","clear_screen","","","","","","","","","","","","","","","","","","","","","","","","","",""
"","","","","","canvas-keyboard-response","82","177249","0.0-12.0-0.14","2d_cat_multi_stim_exp1","2022-5-2","14:36:34","25","75","3","9","10","40","30","120","78","21","[""White""]","Yes","Male","1725905","null","null","","","","fixation","","","","","","","","","","","","","","","","","","","","","","","","","",""
"","","","","","canvas-keyboard-response","83","177759","0.0-12.0-1.14","2d_cat_multi_stim_exp1","2022-5-2","14:36:34","25","75","3","9","10","40","30","120","78","21","[""White""]","Yes","Male","1725905","null","null","","","","clear_screen","","","","","","","","","","","","","","","","","","","","","","","","","",""
"","","","","","canvas-keyboard-response","84","178687","0.0-12.0-2.14","2d_cat_multi_stim_exp1","2022-5-2","14:36:34","25","75","3","9","10","40","30","120","78","21","[""White""]","Yes","Male","1725905","918","u","learn","","","learn_trial","25","75","in","1","1","","","","","","","","","","","","","","","","","","","","",""
"","","","","","canvas-keyboard-response","85","179197","0.0-12.0-3.14","2d_cat_multi_stim_exp1","2022-5-2","14:36:34","25","75","3","9","10","40","30","120","78","21","[""White""]","Yes","Male","1725905","null","null","learn_feedback","","","learn_feedback","25","75","in","","","","","","","","","","","","","","","","","","","","","","",""
"","","","","","canvas-keyboard-response","86","179256","0.0-12.0-4.14","2d_cat_multi_stim_exp1","2022-5-2","14:36:34","25","75","3","9","10","40","30","120","78","21","[""White""]","Yes","Male","1725905","null","null","","","","clear_screen","","","","","","","","","","","","","","","","","","","","","","","","","",""
"","","","","","canvas-keyboard-response","87","179765","0.0-12.0-0.15","2d_cat_multi_stim_exp1","2022-5-2","14:36:34","25","75","3","9","10","40","30","120","78","21","[""White""]","Yes","Male","1725905","null","null","","","","fixation","","","","","","","","","","","","","","","","","","","","","","","","","",""
"","","","","","canvas-keyboard-response","88","180274","0.0-12.0-1.15","2d_cat_multi_stim_exp1","2022-5-2","14:36:34","25","75","3","9","10","40","30","120","78","21","[""White""]","Yes","Male","1725905","null","null","","","","clear_screen","","","","","","","","","","","","","","","","","","","","","","","","","",""
"","","","","","canvas-keyboard-response","89","181807","0.0-12.0-2.15","2d_cat_multi_stim_exp1","2022-5-2","14:36:34","25","75","3","9","10","40","30","120","78","21","[""White""]","Yes","Male","1725905","1523","u","learn","","","learn_trial","25","75","in","1","1","","","","","","","","","","","","","","","","","","","","",""
"","","","","","canvas-keyboard-response","90","182317","0.0-12.0-3.15","2d_cat_multi_stim_exp1","2022-5-2","14:36:34","25","75","3","9","10","40","30","120","78","21","[""White""]","Yes","Male","1725905","null","null","learn_feedback","","","learn_feedback","25","75","in","","","","","","","","","","","","","","","","","","","","","","",""
"","","","","","canvas-keyboard-response","91","182376","0.0-12.0-4.15","2d_cat_multi_stim_exp1","2022-5-2","14:36:34","25","75","3","9","10","40","30","120","78","21","[""White""]","Yes","Male","1725905","null","null","","","","clear_screen","","","","","","","","","","","","","","","","","","","","","","","","","",""
"","","","","","canvas-keyboard-response","92","182886","0.0-12.0-0.16","2d_cat_multi_stim_exp1","2022-5-2","14:36:34","25","75","3","9","10","40","30","120","78","21","[""White""]","Yes","Male","1725905","null","null","","","","fixation","","","","","","","","","","","","","","","","","","","","","","","","","",""
"","","","","","canvas-keyboard-response","93","183396","0.0-12.0-1.16","2d_cat_multi_stim_exp1","2022-5-2","14:36:34","25","75","3","9","10","40","30","120","78","21","[""White""]","Yes","Male","1725905","null","null","","","","clear_screen","","","","","","","","","","","","","","","","","","","","","","","","","",""
"","","","","","canvas-keyboard-response","94","184639","0.0-12.0-2.16","2d_cat_multi_stim_exp1","2022-5-2","14:36:34","25","75","3","9","10","40","30","120","78","21","[""White""]","Yes","Male","1725905","1235","i","learn","","","learn_trial","25","75","in","0","0","","","","","","","","","","","","","","","","","","","","",""
"","","","","","canvas-keyboard-response","95","185649","0.0-12.0-3.16","2d_cat_multi_stim_exp1","2022-5-2","14:36:34","25","75","3","9","10","40","30","120","78","21","[""White""]","Yes","Male","1725905","null","null","learn_feedback","","","learn_feedback","25","75","in","","","","","","","","","","","","","","","","","","","","","","",""
"","","","","","canvas-keyboard-response","96","185709","0.0-12.0-4.16","2d_cat_multi_stim_exp1","2022-5-2","14:36:34","25","75","3","9","10","40","30","120","78","21","[""White""]","Yes","Male","1725905","null","null","","","","clear_screen","","","","","","","","","","","","","","","","","","","","","","","","","",""
"","","","","","canvas-keyboard-response","97","186217","0.0-12.0-0.17","2d_cat_multi_stim_exp1","2022-5-2","14:36:34","25","75","3","9","10","40","30","120","78","21","[""White""]","Yes","Male","1725905","null","null","","","","fixation","","","","","","","","","","","","","","","","","","","","","","","","","",""
"","","","","","canvas-keyboard-response","98","186726","0.0-12.0-1.17","2d_cat_multi_stim_exp1","2022-5-2","14:36:34","25","75","3","9","10","40","30","120","78","21","[""White""]","Yes","Male","1725905","null","null","","","","clear_screen","","","","","","","","","","","","","","","","","","","","","","","","","",""
"","","","","","canvas-keyboard-response","99","187839","0.0-12.0-2.17","2d_cat_multi_stim_exp1","2022-5-2","14:36:34","25","75","3","9","10","40","30","120","78","21","[""White""]","Yes","Male","1725905","1103","u","learn","","","learn_trial","25","75","in","1","1","","","","","","","","","","","","","","","","","","","","",""
"","","","","","canvas-keyboard-response","100","188349","0.0-12.0-3.17","2d_cat_multi_stim_exp1","2022-5-2","14:36:34","25","75","3","9","10","40","30","120","78","21","[""White""]","Yes","Male","1725905","null","null","learn_feedback","","","learn_feedback","25","75","in","","","","","","","","","","","","","","","","","","","","","","",""
"","","","","","canvas-keyboard-response","101","188408","0.0-12.0-4.17","2d_cat_multi_stim_exp1","2022-5-2","14:36:34","25","75","3","9","10","40","30","120","78","21","[""White""]","Yes","Male","1725905","null","null","","","","clear_screen","","","","","","","","","","","","","","","","","","","","","","","","","",""
"","","","","","canvas-keyboard-response","102","188916","0.0-12.0-0.18","2d_cat_multi_stim_exp1","2022-5-2","14:36:34","25","75","3","9","10","40","30","120","78","21","[""White""]","Yes","Male","1725905","null","null","","","","fixation","","","","","","","","","","","","","","","","","","","","","","","","","",""
"","","","","","canvas-keyboard-response","103","189427","0.0-12.0-1.18","2d_cat_multi_stim_exp1","2022-5-2","14:36:34","25","75","3","9","10","40","30","120","78","21","[""White""]","Yes","Male","1725905","null","null","","","","clear_screen","","","","","","","","","","","","","","","","","","","","","","","","","",""
"","","","","","canvas-keyboard-response","104","191440","0.0-12.0-2.18","2d_cat_multi_stim_exp1","2022-5-2","14:36:34","25","75","3","9","10","40","30","120","78","21","[""White""]","Yes","Male","1725905","2003","u","learn","","","learn_trial","23.3473","67.4888","in","1","1","","","","","","","","","","","","","","","","","","","","",""
"","","","","","canvas-keyboard-response","105","191950","0.0-12.0-3.18","2d_cat_multi_stim_exp1","2022-5-2","14:36:34","25","75","3","9","10","40","30","120","78","21","[""White""]","Yes","Male","1725905","null","null","learn_feedback","","","learn_feedback","23.3473","67.4888","in","","","","","","","","","","","","","","","","","","","","","","",""
"","","","","","canvas-keyboard-response","106","192008","0.0-12.0-4.18","2d_cat_multi_stim_exp1","2022-5-2","14:36:34","25","75","3","9","10","40","30","120","78","21","[""White""]","Yes","Male","1725905","null","null","","","","clear_screen","","","","","","","","","","","","","","","","","","","","","","","","","",""
"","","","","","canvas-keyboard-response","107","192521","0.0-12.0-0.19","2d_cat_multi_stim_exp1","2022-5-2","14:36:34","25","75","3","9","10","40","30","120","78","21","[""White""]","Yes","Male","1725905","null","null","","","","fixation","","","","","","","","","","","","","","","","","","","","","","","","","",""
"","","","","","canvas-keyboard-response","108","193031","0.0-12.0-1.19","2d_cat_multi_stim_exp1","2022-5-2","14:36:34","25","75","3","9","10","40","30","120","78","21","[""White""]","Yes","Male","1725905","null","null","","","","clear_screen","","","","","","","","","","","","","","","","","","","","","","","","","",""
"","","","","","canvas-keyboard-response","109","194871","0.0-12.0-2.19","2d_cat_multi_stim_exp1","2022-5-2","14:36:34","25","75","3","9","10","40","30","120","78","21","[""White""]","Yes","Male","1725905","1830","i","learn","","","learn_trial","20","90","out","0","1","","","","","","","","","","","","","","","","","","","","",""
"","","","","","canvas-keyboard-response","110","195381","0.0-12.0-3.19","2d_cat_multi_stim_exp1","2022-5-2","14:36:34","25","75","3","9","10","40","30","120","78","21","[""White""]","Yes","Male","1725905","null","null","learn_feedback","","","learn_feedback","20","90","out","","","","","","","","","","","","","","","","","","","","","","",""
"","","","","","canvas-keyboard-response","111","195440","0.0-12.0-4.19","2d_cat_multi_stim_exp1","2022-5-2","14:36:34","25","75","3","9","10","40","30","120","78","21","[""White""]","Yes","Male","1725905","null","null","","","","clear_screen","","","","","","","","","","","","","","","","","","","","","","","","","",""
"","","","","","canvas-keyboard-response","112","195948","0.0-12.0-0.20","2d_cat_multi_stim_exp1","2022-5-2","14:36:34","25","75","3","9","10","40","30","120","78","21","[""White""]","Yes","Male","1725905","null","null","","","","fixation","","","","","","","","","","","","","","","","","","","","","","","","","",""
"","","","","","canvas-keyboard-response","113","196457","0.0-12.0-1.20","2d_cat_multi_stim_exp1","2022-5-2","14:36:34","25","75","3","9","10","40","30","120","78","21","[""White""]","Yes","Male","1725905","null","null","","","","clear_screen","","","","","","","","","","","","","","","","","","","","","","","","","",""
"","","","","","canvas-keyboard-response","114","199096","0.0-12.0-2.20","2d_cat_multi_stim_exp1","2022-5-2","14:36:34","25","75","3","9","10","40","30","120","78","21","[""White""]","Yes","Male","1725905","2629","i","learn","","","learn_trial","28","75","in","0","0","","","","","","","","","","","","","","","","","","","","",""
"","","","","","canvas-keyboard-response","115","200105","0.0-12.0-3.20","2d_cat_multi_stim_exp1","2022-5-2","14:36:34","25","75","3","9","10","40","30","120","78","21","[""White""]","Yes","Male","1725905","null","null","learn_feedback","","","learn_feedback","28","75","in","","","","","","","","","","","","","","","","","","","","","","",""
"","","","","","canvas-keyboard-response","116","200164","0.0-12.0-4.20","2d_cat_multi_stim_exp1","2022-5-2","14:36:34","25","75","3","9","10","40","30","120","78","21","[""White""]","Yes","Male","1725905","null","null","","","","clear_screen","","","","","","","","","","","","","","","","","","","","","","","","","",""
"","","","","","canvas-keyboard-response","117","200673","0.0-12.0-0.21","2d_cat_multi_stim_exp1","2022-5-2","14:36:34","25","75","3","9","10","40","30","120","78","21","[""White""]","Yes","Male","1725905","null","null","","","","fixation","","","","","","","","","","","","","","","","","","","","","","","","","",""
"","","","","","canvas-keyboard-response","118","201182","0.0-12.0-1.21","2d_cat_multi_stim_exp1","2022-5-2","14:36:34","25","75","3","9","10","40","30","120","78","21","[""White""]","Yes","Male","1725905","null","null","","","","clear_screen","","","","","","","","","","","","","","","","","","","","","","","","","",""
"","","","","","canvas-keyboard-response","119","201847","0.0-12.0-2.21","2d_cat_multi_stim_exp1","2022-5-2","14:36:34","25","75","3","9","10","40","30","120","78","21","[""White""]","Yes","Male","1725905","655","u","learn","","","learn_trial","25","75","in","1","1","","","","","","","","","","","","","","","","","","","","",""
"","","","","","canvas-keyboard-response","120","202357","0.0-12.0-3.21","2d_cat_multi_stim_exp1","2022-5-2","14:36:34","25","75","3","9","10","40","30","120","78","21","[""White""]","Yes","Male","1725905","null","null","learn_feedback","","","learn_feedback","25","75","in","","","","","","","","","","","","","","","","","","","","","","",""
"","","","","","canvas-keyboard-response","121","202415","0.0-12.0-4.21","2d_cat_multi_stim_exp1","2022-5-2","14:36:34","25","75","3","9","10","40","30","120","78","21","[""White""]","Yes","Male","1725905","null","null","","","","clear_screen","","","","","","","","","","","","","","","","","","","","","","","","","",""
"","","","","","canvas-keyboard-response","122","202926","0.0-12.0-0.22","2d_cat_multi_stim_exp1","2022-5-2","14:36:34","25","75","3","9","10","40","30","120","78","21","[""White""]","Yes","Male","1725905","null","null","","","","fixation","","","","","","","","","","","","","","","","","","","","","","","","","",""
"","","","","","canvas-keyboard-response","123","203438","0.0-12.0-1.22","2d_cat_multi_stim_exp1","2022-5-2","14:36:34","25","75","3","9","10","40","30","120","78","21","[""White""]","Yes","Male","1725905","null","null","","","","clear_screen","","","","","","","","","","","","","","","","","","","","","","","","","",""
"","","","","","canvas-keyboard-response","124","204231","0.0-12.0-2.22","2d_cat_multi_stim_exp1","2022-5-2","14:36:34","25","75","3","9","10","40","30","120","78","21","[""White""]","Yes","Male","1725905","781","i","learn","","","learn_trial","26.6667","120","out","0","1","","","","","","","","","","","","","","","","","","","","",""
"","","","","","canvas-keyboard-response","125","204743","0.0-12.0-3.22","2d_cat_multi_stim_exp1","2022-5-2","14:36:34","25","75","3","9","10","40","30","120","78","21","[""White""]","Yes","Male","1725905","null","null","learn_feedback","","","learn_feedback","26.6667","120","out","","","","","","","","","","","","","","","","","","","","","","",""
"","","","","","canvas-keyboard-response","126","204804","0.0-12.0-4.22","2d_cat_multi_stim_exp1","2022-5-2","14:36:34","25","75","3","9","10","40","30","120","78","21","[""White""]","Yes","Male","1725905","null","null","","","","clear_screen","","","","","","","","","","","","","","","","","","","","","","","","","",""
"","","","","","canvas-keyboard-response","127","205313","0.0-12.0-0.23","2d_cat_multi_stim_exp1","2022-5-2","14:36:34","25","75","3","9","10","40","30","120","78","21","[""White""]","Yes","Male","1725905","null","null","","","","fixation","","","","","","","","","","","","","","","","","","","","","","","","","",""
"","","","","","canvas-keyboard-response","128","205823","0.0-12.0-1.23","2d_cat_multi_stim_exp1","2022-5-2","14:36:34","25","75","3","9","10","40","30","120","78","21","[""White""]","Yes","Male","1725905","null","null","","","","clear_screen","","","","","","","","","","","","","","","","","","","","","","","","","",""
"","","","","","canvas-keyboard-response","129","206535","0.0-12.0-2.23","2d_cat_multi_stim_exp1","2022-5-2","14:36:34","25","75","3","9","10","40","30","120","78","21","[""White""]","Yes","Male","1725905","702","u","learn","","","learn_trial","25.4027","83.9185","in","1","1","","","","","","","","","","","","","","","","","","","","",""
"","","","","","canvas-keyboard-response","130","207046","0.0-12.0-3.23","2d_cat_multi_stim_exp1","2022-5-2","14:36:34","25","75","3","9","10","40","30","120","78","21","[""White""]","Yes","Male","1725905","null","null","learn_feedback","","","learn_feedback","25.4027","83.9185","in","","","","","","","","","","","","","","","","","","","","","","",""
"","","","","","canvas-keyboard-response","131","207105","0.0-12.0-4.23","2d_cat_multi_stim_exp1","2022-5-2","14:36:34","25","75","3","9","10","40","30","120","78","21","[""White""]","Yes","Male","1725905","null","null","","","","clear_screen","","","","","","","","","","","","","","","","","","","","","","","","","",""
"","","","","","canvas-keyboard-response","132","207614","0.0-12.0-0.24","2d_cat_multi_stim_exp1","2022-5-2","14:36:34","25","75","3","9","10","40","30","120","78","21","[""White""]","Yes","Male","1725905","null","null","","","","fixation","","","","","","","","","","","","","","","","","","","","","","","","","",""
"","","","","","canvas-keyboard-response","133","208124","0.0-12.0-1.24","2d_cat_multi_stim_exp1","2022-5-2","14:36:34","25","75","3","9","10","40","30","120","78","21","[""White""]","Yes","Male","1725905","null","null","","","","clear_screen","","","","","","","","","","","","","","","","","","","","","","","","","",""
"","","","","","canvas-keyboard-response","134","208992","0.0-12.0-2.24","2d_cat_multi_stim_exp1","2022-5-2","14:36:34","25","75","3","9","10","40","30","120","78","21","[""White""]","Yes","Male","1725905","856","u","learn","","","learn_trial","31","75","in","1","1","","","","","","","","","","","","","","","","","","","","",""
"","","","","","canvas-keyboard-response","135","209502","0.0-12.0-3.24","2d_cat_multi_stim_exp1","2022-5-2","14:36:34","25","75","3","9","10","40","30","120","78","21","[""White""]","Yes","Male","1725905","null","null","learn_feedback","","","learn_feedback","31","75","in","","","","","","","","","","","","","","","","","","","","","","",""
"","","","","","canvas-keyboard-response","136","209560","0.0-12.0-4.24","2d_cat_multi_stim_exp1","2022-5-2","14:36:34","25","75","3","9","10","40","30","120","78","21","[""White""]","Yes","Male","1725905","null","null","","","","clear_screen","","","","","","","","","","","","","","","","","","","","","","","","","",""
"","","","","","canvas-keyboard-response","137","210070","0.0-12.0-0.25","2d_cat_multi_stim_exp1","2022-5-2","14:36:34","25","75","3","9","10","40","30","120","78","21","[""White""]","Yes","Male","1725905","null","null","","","","fixation","","","","","","","","","","","","","","","","","","","","","","","","","",""
"","","","","","canvas-keyboard-response","138","210579","0.0-12.0-1.25","2d_cat_multi_stim_exp1","2022-5-2","14:36:34","25","75","3","9","10","40","30","120","78","21","[""White""]","Yes","Male","1725905","null","null","","","","clear_screen","","","","","","","","","","","","","","","","","","","","","","","","","",""
"","","","","","canvas-keyboard-response","139","211495","0.0-12.0-2.25","2d_cat_multi_stim_exp1","2022-5-2","14:36:34","25","75","3","9","10","40","30","120","78","21","[""White""]","Yes","Male","1725905","906","i","learn","","","learn_trial","22.5729","69.7099","in","0","0","","","","","","","","","","","","","","","","","","","","",""
"","","","","","canvas-keyboard-response","140","212506","0.0-12.0-3.25","2d_cat_multi_stim_exp1","2022-5-2","14:36:34","25","75","3","9","10","40","30","120","78","21","[""White""]","Yes","Male","1725905","null","null","learn_feedback","","","learn_feedback","22.5729","69.7099","in","","","","","","","","","","","","","","","","","","","","","","",""
"","","","","","canvas-keyboard-response","141","212564","0.0-12.0-4.25","2d_cat_multi_stim_exp1","2022-5-2","14:36:34","25","75","3","9","10","40","30","120","78","21","[""White""]","Yes","Male","1725905","null","null","","","","clear_screen","","","","","","","","","","","","","","","","","","","","","","","","","",""
"","","","","","canvas-keyboard-response","142","213074","0.0-12.0-0.26","2d_cat_multi_stim_exp1","2022-5-2","14:36:34","25","75","3","9","10","40","30","120","78","21","[""White""]","Yes","Male","1725905","null","null","","","","fixation","","","","","","","","","","","","","","","","","","","","","","","","","",""
"","","","","","canvas-keyboard-response","143","213583","0.0-12.0-1.26","2d_cat_multi_stim_exp1","2022-5-2","14:36:34","25","75","3","9","10","40","30","120","78","21","[""White""]","Yes","Male","1725905","null","null","","","","clear_screen","","","","","","","","","","","","","","","","","","","","","","","","","",""
"","","","","","canvas-keyboard-response","144","214759","0.0-12.0-2.26","2d_cat_multi_stim_exp1","2022-5-2","14:36:34","25","75","3","9","10","40","30","120","78","21","[""White""]","Yes","Male","1725905","1166","i","learn","","","learn_trial","33.3333","30","out","0","1","","","","","","","","","","","","","","","","","","","","",""
"","","","","","canvas-keyboard-response","145","215268","0.0-12.0-3.26","2d_cat_multi_stim_exp1","2022-5-2","14:36:34","25","75","3","9","10","40","30","120","78","21","[""White""]","Yes","Male","1725905","null","null","learn_feedback","","","learn_feedback","33.3333","30","out","","","","","","","","","","","","","","","","","","","","","","",""
"","","","","","canvas-keyboard-response","146","215327","0.0-12.0-4.26","2d_cat_multi_stim_exp1","2022-5-2","14:36:34","25","75","3","9","10","40","30","120","78","21","[""White""]","Yes","Male","1725905","null","null","","","","clear_screen","","","","","","","","","","","","","","","","","","","","","","","","","",""
"","","","","","canvas-keyboard-response","147","215836","0.0-12.0-0.27","2d_cat_multi_stim_exp1","2022-5-2","14:36:34","25","75","3","9","10","40","30","120","78","21","[""White""]","Yes","Male","1725905","null","null","","","","fixation","","","","","","","","","","","","","","","","","","","","","","","","","",""
"","","","","","canvas-keyboard-response","148","216346","0.0-12.0-1.27","2d_cat_multi_stim_exp1","2022-5-2","14:36:34","25","75","3","9","10","40","30","120","78","21","[""White""]","Yes","Male","1725905","null","null","","","","clear_screen","","","","","","","","","","","","","","","","","","","","","","","","","",""
"","","","","","canvas-keyboard-response","149","216918","0.0-12.0-2.27","2d_cat_multi_stim_exp1","2022-5-2","14:36:34","25","75","3","9","10","40","30","120","78","21","[""White""]","Yes","Male","1725905","563","u","learn","","","learn_trial","25","75","in","1","1","","","","","","","","","","","","","","","","","","","","",""
"","","","","","canvas-keyboard-response","150","217429","0.0-12.0-3.27","2d_cat_multi_stim_exp1","2022-5-2","14:36:34","25","75","3","9","10","40","30","120","78","21","[""White""]","Yes","Male","1725905","null","null","learn_feedback","","","learn_feedback","25","75","in","","","","","","","","","","","","","","","","","","","","","","",""
"","","","","","canvas-keyboard-response","151","217487","0.0-12.0-4.27","2d_cat_multi_stim_exp1","2022-5-2","14:36:34","25","75","3","9","10","40","30","120","78","21","[""White""]","Yes","Male","1725905","null","null","","","","clear_screen","","","","","","","","","","","","","","","","","","","","","","","","","",""
"","","","","","canvas-keyboard-response","152","217996","0.0-12.0-0.28","2d_cat_multi_stim_exp1","2022-5-2","14:36:34","25","75","3","9","10","40","30","120","78","21","[""White""]","Yes","Male","1725905","null","null","","","","fixation","","","","","","","","","","","","","","","","","","","","","","","","","",""
"","","","","","canvas-keyboard-response","153","218505","0.0-12.0-1.28","2d_cat_multi_stim_exp1","2022-5-2","14:36:34","25","75","3","9","10","40","30","120","78","21","[""White""]","Yes","Male","1725905","null","null","","","","clear_screen","","","","","","","","","","","","","","","","","","","","","","","","","",""
"","","","","","canvas-keyboard-response","154","219327","0.0-12.0-2.28","2d_cat_multi_stim_exp1","2022-5-2","14:36:34","25","75","3","9","10","40","30","120","78","21","[""White""]","Yes","Male","1725905","811","i","learn","","","learn_trial","10","100","out","0","1","","","","","","","","","","","","","","","","","","","","",""
"","","","","","canvas-keyboard-response","155","219837","0.0-12.0-3.28","2d_cat_multi_stim_exp1","2022-5-2","14:36:34","25","75","3","9","10","40","30","120","78","21","[""White""]","Yes","Male","1725905","null","null","learn_feedback","","","learn_feedback","10","100","out","","","","","","","","","","","","","","","","","","","","","","",""
"","","","","","canvas-keyboard-response","156","219896","0.0-12.0-4.28","2d_cat_multi_stim_exp1","2022-5-2","14:36:34","25","75","3","9","10","40","30","120","78","21","[""White""]","Yes","Male","1725905","null","null","","","","clear_screen","","","","","","","","","","","","","","","","","","","","","","","","","",""
"","","","","","canvas-keyboard-response","157","220406","0.0-12.0-0.29","2d_cat_multi_stim_exp1","2022-5-2","14:36:34","25","75","3","9","10","40","30","120","78","21","[""White""]","Yes","Male","1725905","null","null","","","","fixation","","","","","","","","","","","","","","","","","","","","","","","","","",""
"","","","","","canvas-keyboard-response","158","220914","0.0-12.0-1.29","2d_cat_multi_stim_exp1","2022-5-2","14:36:34","25","75","3","9","10","40","30","120","78","21","[""White""]","Yes","Male","1725905","null","null","","","","clear_screen","","","","","","","","","","","","","","","","","","","","","","","","","",""
"","","","","","canvas-keyboard-response","159","221943","0.0-12.0-2.29","2d_cat_multi_stim_exp1","2022-5-2","14:36:34","25","75","3","9","10","40","30","120","78","21","[""White""]","Yes","Male","1725905","1019","u","learn","","","learn_trial","16.6667","80","out","1","0","","","","","","","","","","","","","","","","","","","","",""
"","","","","","canvas-keyboard-response","160","222953","0.0-12.0-3.29","2d_cat_multi_stim_exp1","2022-5-2","14:36:34","25","75","3","9","10","40","30","120","78","21","[""White""]","Yes","Male","1725905","null","null","learn_feedback","","","learn_feedback","16.6667","80","out","","","","","","","","","","","","","","","","","","","","","","",""
"","","","","","canvas-keyboard-response","161","223011","0.0-12.0-4.29","2d_cat_multi_stim_exp1","2022-5-2","14:36:34","25","75","3","9","10","40","30","120","78","21","[""White""]","Yes","Male","1725905","null","null","","","","clear_screen","","","","","","","","","","","","","","","","","","","","","","","","","",""
"","","","","","canvas-keyboard-response","162","223520","0.0-12.0-0.30","2d_cat_multi_stim_exp1","2022-5-2","14:36:34","25","75","3","9","10","40","30","120","78","21","[""White""]","Yes","Male","1725905","null","null","","","","fixation","","","","","","","","","","","","","","","","","","","","","","","","","",""
"","","","","","canvas-keyboard-response","163","224030","0.0-12.0-1.30","2d_cat_multi_stim_exp1","2022-5-2","14:36:34","25","75","3","9","10","40","30","120","78","21","[""White""]","Yes","Male","1725905","null","null","","","","clear_screen","","","","","","","","","","","","","","","","","","","","","","","","","",""
"","","","","","canvas-keyboard-response","164","225031","0.0-12.0-2.30","2d_cat_multi_stim_exp1","2022-5-2","14:36:34","25","75","3","9","10","40","30","120","78","21","[""White""]","Yes","Male","1725905","992","u","learn","","","learn_trial","22.9268","81.5052","in","1","1","","","","","","","","","","","","","","","","","","","","",""
"","","","","","canvas-keyboard-response","165","225541","0.0-12.0-3.30","2d_cat_multi_stim_exp1","2022-5-2","14:36:34","25","75","3","9","10","40","30","120","78","21","[""White""]","Yes","Male","1725905","null","null","learn_feedback","","","learn_feedback","22.9268","81.5052","in","","","","","","","","","","","","","","","","","","","","","","",""
"","","","","","canvas-keyboard-response","166","225599","0.0-12.0-4.30","2d_cat_multi_stim_exp1","2022-5-2","14:36:34","25","75","3","9","10","40","30","120","78","21","[""White""]","Yes","Male","1725905","null","null","","","","clear_screen","","","","","","","","","","","","","","","","","","","","","","","","","",""
"","","","","","canvas-keyboard-response","167","226108","0.0-12.0-0.31","2d_cat_multi_stim_exp1","2022-5-2","14:36:34","25","75","3","9","10","40","30","120","78","21","[""White""]","Yes","Male","1725905","null","null","","","","fixation","","","","","","","","","","","","","","","","","","","","","","","","","",""
"","","","","","canvas-keyboard-response","168","226618","0.0-12.0-1.31","2d_cat_multi_stim_exp1","2022-5-2","14:36:34","25","75","3","9","10","40","30","120","78","21","[""White""]","Yes","Male","1725905","null","null","","","","clear_screen","","","","","","","","","","","","","","","","","","","","","","","","","",""
"","","","","","canvas-keyboard-response","169","227735","0.0-12.0-2.31","2d_cat_multi_stim_exp1","2022-5-2","14:36:34","25","75","3","9","10","40","30","120","78","21","[""White""]","Yes","Male","1725905","1108","i","learn","","","learn_trial","30","50","out","0","1","","","","","","","","","","","","","","","","","","","","",""
"","","","","","canvas-keyboard-response","170","228246","0.0-12.0-3.31","2d_cat_multi_stim_exp1","2022-5-2","14:36:34","25","75","3","9","10","40","30","120","78","21","[""White""]","Yes","Male","1725905","null","null","learn_feedback","","","learn_feedback","30","50","out","","","","","","","","","","","","","","","","","","","","","","",""
"","","","","","canvas-keyboard-response","171","228306","0.0-12.0-4.31","2d_cat_multi_stim_exp1","2022-5-2","14:36:34","25","75","3","9","10","40","30","120","78","21","[""White""]","Yes","Male","1725905","null","null","","","","clear_screen","","","","","","","","","","","","","","","","","","","","","","","","","",""
"","","","","","canvas-keyboard-response","172","228815","0.0-12.0-0.32","2d_cat_multi_stim_exp1","2022-5-2","14:36:34","25","75","3","9","10","40","30","120","78","21","[""White""]","Yes","Male","1725905","null","null","","","","fixation","","","","","","","","","","","","","","","","","","","","","","","","","",""
"","","","","","canvas-keyboard-response","173","229324","0.0-12.0-1.32","2d_cat_multi_stim_exp1","2022-5-2","14:36:34","25","75","3","9","10","40","30","120","78","21","[""White""]","Yes","Male","1725905","null","null","","","","clear_screen","","","","","","","","","","","","","","","","","","","","","","","","","",""
"","","","","","canvas-keyboard-response","174","231959","0.0-12.0-2.32","2d_cat_multi_stim_exp1","2022-5-2","14:36:34","25","75","3","9","10","40","30","120","78","21","[""White""]","Yes","Male","1725905","2625","u","learn","","","learn_trial","25","75","in","1","1","","","","","","","","","","","","","","","","","","","","",""
"","","","","","canvas-keyboard-response","175","232469","0.0-12.0-3.32","2d_cat_multi_stim_exp1","2022-5-2","14:36:34","25","75","3","9","10","40","30","120","78","21","[""White""]","Yes","Male","1725905","null","null","learn_feedback","","","learn_feedback","25","75","in","","","","","","","","","","","","","","","","","","","","","","",""
"","","","","","canvas-keyboard-response","176","232528","0.0-12.0-4.32","2d_cat_multi_stim_exp1","2022-5-2","14:36:34","25","75","3","9","10","40","30","120","78","21","[""White""]","Yes","Male","1725905","null","null","","","","clear_screen","","","","","","","","","","","","","","","","","","","","","","","","","",""
"","","","","","canvas-keyboard-response","177","233037","0.0-12.0-0.33","2d_cat_multi_stim_exp1","2022-5-2","14:36:34","25","75","3","9","10","40","30","120","78","21","[""White""]","Yes","Male","1725905","null","null","","","","fixation","","","","","","","","","","","","","","","","","","","","","","","","","",""
"","","","","","canvas-keyboard-response","178","233546","0.0-12.0-1.33","2d_cat_multi_stim_exp1","2022-5-2","14:36:34","25","75","3","9","10","40","30","120","78","21","[""White""]","Yes","Male","1725905","null","null","","","","clear_screen","","","","","","","","","","","","","","","","","","","","","","","","","",""
"","","","","","canvas-keyboard-response","179","234710","0.0-12.0-2.33","2d_cat_multi_stim_exp1","2022-5-2","14:36:34","25","75","3","9","10","40","30","120","78","21","[""White""]","Yes","Male","1725905","1156","i","learn","","","learn_trial","16.6667","120","out","0","1","","","","","","","","","","","","","","","","","","","","",""
"","","","","","canvas-keyboard-response","180","235221","0.0-12.0-3.33","2d_cat_multi_stim_exp1","2022-5-2","14:36:34","25","75","3","9","10","40","30","120","78","21","[""White""]","Yes","Male","1725905","null","null","learn_feedback","","","learn_feedback","16.6667","120","out","","","","","","","","","","","","","","","","","","","","","","",""
"","","","","","canvas-keyboard-response","181","235279","0.0-12.0-4.33","2d_cat_multi_stim_exp1","2022-5-2","14:36:34","25","75","3","9","10","40","30","120","78","21","[""White""]","Yes","Male","1725905","null","null","","","","clear_screen","","","","","","","","","","","","","","","","","","","","","","","","","",""
"","","","","","canvas-keyboard-response","182","235789","0.0-12.0-0.34","2d_cat_multi_stim_exp1","2022-5-2","14:36:34","25","75","3","9","10","40","30","120","78","21","[""White""]","Yes","Male","1725905","null","null","","","","fixation","","","","","","","","","","","","","","","","","","","","","","","","","",""
"","","","","","canvas-keyboard-response","183","236298","0.0-12.0-1.34","2d_cat_multi_stim_exp1","2022-5-2","14:36:34","25","75","3","9","10","40","30","120","78","21","[""White""]","Yes","Male","1725905","null","null","","","","clear_screen","","","","","","","","","","","","","","","","","","","","","","","","","",""
"","","","","","canvas-keyboard-response","184","237767","0.0-12.0-2.34","2d_cat_multi_stim_exp1","2022-5-2","14:36:34","25","75","3","9","10","40","30","120","78","21","[""White""]","Yes","Male","1725905","1459","u","learn","","","learn_trial","25","75","in","1","1","","","","","","","","","","","","","","","","","","","","",""
"","","","","","canvas-keyboard-response","185","238278","0.0-12.0-3.34","2d_cat_multi_stim_exp1","2022-5-2","14:36:34","25","75","3","9","10","40","30","120","78","21","[""White""]","Yes","Male","1725905","null","null","learn_feedback","","","learn_feedback","25","75","in","","","","","","","","","","","","","","","","","","","","","","",""
"","","","","","canvas-keyboard-response","186","238339","0.0-12.0-4.34","2d_cat_multi_stim_exp1","2022-5-2","14:36:34","25","75","3","9","10","40","30","120","78","21","[""White""]","Yes","Male","1725905","null","null","","","","clear_screen","","","","","","","","","","","","","","","","","","","","","","","","","",""
"","","","","","canvas-keyboard-response","187","238851","0.0-12.0-0.35","2d_cat_multi_stim_exp1","2022-5-2","14:36:34","25","75","3","9","10","40","30","120","78","21","[""White""]","Yes","Male","1725905","null","null","","","","fixation","","","","","","","","","","","","","","","","","","","","","","","","","",""
"","","","","","canvas-keyboard-response","188","239362","0.0-12.0-1.35","2d_cat_multi_stim_exp1","2022-5-2","14:36:34","25","75","3","9","10","40","30","120","78","21","[""White""]","Yes","Male","1725905","null","null","","","","clear_screen","","","","","","","","","","","","","","","","","","","","","","","","","",""
"","","","","","canvas-keyboard-response","189","240479","0.0-12.0-2.35","2d_cat_multi_stim_exp1","2022-5-2","14:36:34","25","75","3","9","10","40","30","120","78","21","[""White""]","Yes","Male","1725905","1105","i","learn","","","learn_trial","23.3333","120","out","0","1","","","","","","","","","","","","","","","","","","","","",""
"","","","","","canvas-keyboard-response","190","240989","0.0-12.0-3.35","2d_cat_multi_stim_exp1","2022-5-2","14:36:34","25","75","3","9","10","40","30","120","78","21","[""White""]","Yes","Male","1725905","null","null","learn_feedback","","","learn_feedback","23.3333","120","out","","","","","","","","","","","","","","","","","","","","","","",""
"","","","","","canvas-keyboard-response","191","241048","0.0-12.0-4.35","2d_cat_multi_stim_exp1","2022-5-2","14:36:34","25","75","3","9","10","40","30","120","78","21","[""White""]","Yes","Male","1725905","null","null","","","","clear_screen","","","","","","","","","","","","","","","","","","","","","","","","","",""
"","","","","","canvas-keyboard-response","192","241558","0.0-12.0-0.36","2d_cat_multi_stim_exp1","2022-5-2","14:36:34","25","75","3","9","10","40","30","120","78","21","[""White""]","Yes","Male","1725905","null","null","","","","fixation","","","","","","","","","","","","","","","","","","","","","","","","","",""
"","","","","","canvas-keyboard-response","193","242068","0.0-12.0-1.36","2d_cat_multi_stim_exp1","2022-5-2","14:36:34","25","75","3","9","10","40","30","120","78","21","[""White""]","Yes","Male","1725905","null","null","","","","clear_screen","","","","","","","","","","","","","","","","","","","","","","","","","",""
"","","","","","canvas-keyboard-response","194","242319","0.0-12.0-2.36","2d_cat_multi_stim_exp1","2022-5-2","14:36:34","25","75","3","9","10","40","30","120","78","21","[""White""]","Yes","Male","1725905","241","u","learn","","","learn_trial","33.3333","100","out","1","0","","","","","","","","","","","","","","","","","","","","",""
"","","","","","canvas-keyboard-response","195","243331","0.0-12.0-3.36","2d_cat_multi_stim_exp1","2022-5-2","14:36:34","25","75","3","9","10","40","30","120","78","21","[""White""]","Yes","Male","1725905","null","null","learn_feedback","","","learn_feedback","33.3333","100","out","","","","","","","","","","","","","","","","","","","","","","",""
"","","","","","canvas-keyboard-response","196","243390","0.0-12.0-4.36","2d_cat_multi_stim_exp1","2022-5-2","14:36:34","25","75","3","9","10","40","30","120","78","21","[""White""]","Yes","Male","1725905","null","null","","","","clear_screen","","","","","","","","","","","","","","","","","","","","","","","","","",""
"","","","","","canvas-keyboard-response","197","243899","0.0-12.0-0.37","2d_cat_multi_stim_exp1","2022-5-2","14:36:34","25","75","3","9","10","40","30","120","78","21","[""White""]","Yes","Male","1725905","null","null","","","","fixation","","","","","","","","","","","","","","","","","","","","","","","","","",""
"","","","","","canvas-keyboard-response","198","244409","0.0-12.0-1.37","2d_cat_multi_stim_exp1","2022-5-2","14:36:34","25","75","3","9","10","40","30","120","78","21","[""White""]","Yes","Male","1725905","null","null","","","","clear_screen","","","","","","","","","","","","","","","","","","","","","","","","","",""
"","","","","","canvas-keyboard-response","199","245599","0.0-12.0-2.37","2d_cat_multi_stim_exp1","2022-5-2","14:36:34","25","75","3","9","10","40","30","120","78","21","[""White""]","Yes","Male","1725905","1180","i","learn","","","learn_trial","30","40","out","0","1","","","","","","","","","","","","","","","","","","","","",""
"","","","","","canvas-keyboard-response","200","246108","0.0-12.0-3.37","2d_cat_multi_stim_exp1","2022-5-2","14:36:34","25","75","3","9","10","40","30","120","78","21","[""White""]","Yes","Male","1725905","null","null","learn_feedback","","","learn_feedback","30","40","out","","","","","","","","","","","","","","","","","","","","","","",""
"","","","","","canvas-keyboard-response","201","246168","0.0-12.0-4.37","2d_cat_multi_stim_exp1","2022-5-2","14:36:34","25","75","3","9","10","40","30","120","78","21","[""White""]","Yes","Male","1725905","null","null","","","","clear_screen","","","","","","","","","","","","","","","","","","","","","","","","","",""
"","","","","","canvas-keyboard-response","202","246677","0.0-12.0-0.38","2d_cat_multi_stim_exp1","2022-5-2","14:36:34","25","75","3","9","10","40","30","120","78","21","[""White""]","Yes","Male","1725905","null","null","","","","fixation","","","","","","","","","","","","","","","","","","","","","","","","","",""
"","","","","","canvas-keyboard-response","203","247186","0.0-12.0-1.38","2d_cat_multi_stim_exp1","2022-5-2","14:36:34","25","75","3","9","10","40","30","120","78","21","[""White""]","Yes","Male","1725905","null","null","","","","clear_screen","","","","","","","","","","","","","","","","","","","","","","","","","",""
"","","","","","canvas-keyboard-response","204","250471","0.0-12.0-2.38","2d_cat_multi_stim_exp1","2022-5-2","14:36:34","25","75","3","9","10","40","30","120","78","21","[""White""]","Yes","Male","1725905","3275","i","learn","","","learn_trial","23.3333","110","out","0","1","","","","","","","","","","","","","","","","","","","","",""
"","","","","","canvas-keyboard-response","205","250981","0.0-12.0-3.38","2d_cat_multi_stim_exp1","2022-5-2","14:36:34","25","75","3","9","10","40","30","120","78","21","[""White""]","Yes","Male","1725905","null","null","learn_feedback","","","learn_feedback","23.3333","110","out","","","","","","","","","","","","","","","","","","","","","","",""
"","","","","","canvas-keyboard-response","206","251040","0.0-12.0-4.38","2d_cat_multi_stim_exp1","2022-5-2","14:36:34","25","75","3","9","10","40","30","120","78","21","[""White""]","Yes","Male","1725905","null","null","","","","clear_screen","","","","","","","","","","","","","","","","","","","","","","","","","",""
"","","","","","canvas-keyboard-response","207","251550","0.0-12.0-0.39","2d_cat_multi_stim_exp1","2022-5-2","14:36:34","25","75","3","9","10","40","30","120","78","21","[""White""]","Yes","Male","1725905","null","null","","","","fixation","","","","","","","","","","","","","","","","","","","","","","","","","",""
"","","","","","canvas-keyboard-response","208","252059","0.0-12.0-1.39","2d_cat_multi_stim_exp1","2022-5-2","14:36:34","25","75","3","9","10","40","30","120","78","21","[""White""]","Yes","Male","1725905","null","null","","","","clear_screen","","","","","","","","","","","","","","","","","","","","","","","","","",""
"","","","","","canvas-keyboard-response","209","252999","0.0-12.0-2.39","2d_cat_multi_stim_exp1","2022-5-2","14:36:34","25","75","3","9","10","40","30","120","78","21","[""White""]","Yes","Male","1725905","931","u","learn","","","learn_trial","23.3333","80","out","1","0","","","","","","","","","","","","","","","","","","","","",""
"","","","","","canvas-keyboard-response","210","254010","0.0-12.0-3.39","2d_cat_multi_stim_exp1","2022-5-2","14:36:34","25","75","3","9","10","40","30","120","78","21","[""White""]","Yes","Male","1725905","null","null","learn_feedback","","","learn_feedback","23.3333","80","out","","","","","","","","","","","","","","","","","","","","","","",""
"","","","","","canvas-keyboard-response","211","254068","0.0-12.0-4.39","2d_cat_multi_stim_exp1","2022-5-2","14:36:34","25","75","3","9","10","40","30","120","78","21","[""White""]","Yes","Male","1725905","null","null","","","","clear_screen","","","","","","","","","","","","","","","","","","","","","","","","","",""
"","","","","","canvas-keyboard-response","212","254578","0.0-12.0-0.40","2d_cat_multi_stim_exp1","2022-5-2","14:36:34","25","75","3","9","10","40","30","120","78","21","[""White""]","Yes","Male","1725905","null","null","","","","fixation","","","","","","","","","","","","","","","","","","","","","","","","","",""
"","","","","","canvas-keyboard-response","213","255088","0.0-12.0-1.40","2d_cat_multi_stim_exp1","2022-5-2","14:36:34","25","75","3","9","10","40","30","120","78","21","[""White""]","Yes","Male","1725905","null","null","","","","clear_screen","","","","","","","","","","","","","","","","","","","","","","","","","",""
"","","","","","canvas-keyboard-response","214","255991","0.0-12.0-2.40","2d_cat_multi_stim_exp1","2022-5-2","14:36:34","25","75","3","9","10","40","30","120","78","21","[""White""]","Yes","Male","1725905","894","i","learn","","","learn_trial","25.9271","66.4405","in","0","0","","","","","","","","","","","","","","","","","","","","",""
"","","","","","canvas-keyboard-response","215","257001","0.0-12.0-3.40","2d_cat_multi_stim_exp1","2022-5-2","14:36:34","25","75","3","9","10","40","30","120","78","21","[""White""]","Yes","Male","1725905","null","null","learn_feedback","","","learn_feedback","25.9271","66.4405","in","","","","","","","","","","","","","","","","","","","","","","",""
"","","","","","canvas-keyboard-response","216","257061","0.0-12.0-4.40","2d_cat_multi_stim_exp1","2022-5-2","14:36:34","25","75","3","9","10","40","30","120","78","21","[""White""]","Yes","Male","1725905","null","null","","","","clear_screen","","","","","","","","","","","","","","","","","","","","","","","","","",""
"","","","","","canvas-keyboard-response","217","257570","0.0-12.0-0.41","2d_cat_multi_stim_exp1","2022-5-2","14:36:34","25","75","3","9","10","40","30","120","78","21","[""White""]","Yes","Male","1725905","null","null","","","","fixation","","","","","","","","","","","","","","","","","","","","","","","","","",""
"","","","","","canvas-keyboard-response","218","258079","0.0-12.0-1.41","2d_cat_multi_stim_exp1","2022-5-2","14:36:34","25","75","3","9","10","40","30","120","78","21","[""White""]","Yes","Male","1725905","null","null","","","","clear_screen","","","","","","","","","","","","","","","","","","","","","","","","","",""
"","","","","","canvas-keyboard-response","219","261447","0.0-12.0-2.41","2d_cat_multi_stim_exp1","2022-5-2","14:36:34","25","75","3","9","10","40","30","120","78","21","[""White""]","Yes","Male","1725905","3358","u","learn","","","learn_trial","36.6667","90","out","1","0","","","","","","","","","","","","","","","","","","","","",""
"","","","","","canvas-keyboard-response","220","262457","0.0-12.0-3.41","2d_cat_multi_stim_exp1","2022-5-2","14:36:34","25","75","3","9","10","40","30","120","78","21","[""White""]","Yes","Male","1725905","null","null","learn_feedback","","","learn_feedback","36.6667","90","out","","","","","","","","","","","","","","","","","","","","","","",""
"","","","","","canvas-keyboard-response","221","262516","0.0-12.0-4.41","2d_cat_multi_stim_exp1","2022-5-2","14:36:34","25","75","3","9","10","40","30","120","78","21","[""White""]","Yes","Male","1725905","null","null","","","","clear_screen","","","","","","","","","","","","","","","","","","","","","","","","","",""
"","","","","","canvas-keyboard-response","222","263026","0.0-12.0-0.42","2d_cat_multi_stim_exp1","2022-5-2","14:36:34","25","75","3","9","10","40","30","120","78","21","[""White""]","Yes","Male","1725905","null","null","","","","fixation","","","","","","","","","","","","","","","","","","","","","","","","","",""
"","","","","","canvas-keyboard-response","223","263535","0.0-12.0-1.42","2d_cat_multi_stim_exp1","2022-5-2","14:36:34","25","75","3","9","10","40","30","120","78","21","[""White""]","Yes","Male","1725905","null","null","","","","clear_screen","","","","","","","","","","","","","","","","","","","","","","","","","",""
"","","","","","canvas-keyboard-response","224","264470","0.0-12.0-2.42","2d_cat_multi_stim_exp1","2022-5-2","14:36:34","25","75","3","9","10","40","30","120","78","21","[""White""]","Yes","Male","1725905","927","u","learn","","","learn_trial","25","75","in","1","1","","","","","","","","","","","","","","","","","","","","",""
"","","","","","canvas-keyboard-response","225","264981","0.0-12.0-3.42","2d_cat_multi_stim_exp1","2022-5-2","14:36:34","25","75","3","9","10","40","30","120","78","21","[""White""]","Yes","Male","1725905","null","null","learn_feedback","","","learn_feedback","25","75","in","","","","","","","","","","","","","","","","","","","","","","",""
"","","","","","canvas-keyboard-response","226","265040","0.0-12.0-4.42","2d_cat_multi_stim_exp1","2022-5-2","14:36:34","25","75","3","9","10","40","30","120","78","21","[""White""]","Yes","Male","1725905","null","null","","","","clear_screen","","","","","","","","","","","","","","","","","","","","","","","","","",""
"","","","","","canvas-keyboard-response","227","265548","0.0-12.0-0.43","2d_cat_multi_stim_exp1","2022-5-2","14:36:34","25","75","3","9","10","40","30","120","78","21","[""White""]","Yes","Male","1725905","null","null","","","","fixation","","","","","","","","","","","","","","","","","","","","","","","","","",""
"","","","","","canvas-keyboard-response","228","266058","0.0-12.0-1.43","2d_cat_multi_stim_exp1","2022-5-2","14:36:34","25","75","3","9","10","40","30","120","78","21","[""White""]","Yes","Male","1725905","null","null","","","","clear_screen","","","","","","","","","","","","","","","","","","","","","","","","","",""
"","","","","","canvas-keyboard-response","229","267311","0.0-12.0-2.43","2d_cat_multi_stim_exp1","2022-5-2","14:36:34","25","75","3","9","10","40","30","120","78","21","[""White""]","Yes","Male","1725905","1243","u","learn","","","learn_trial","30","100","out","1","0","","","","","","","","","","","","","","","","","","","","",""
"","","","","","canvas-keyboard-response","230","268321","0.0-12.0-3.43","2d_cat_multi_stim_exp1","2022-5-2","14:36:34","25","75","3","9","10","40","30","120","78","21","[""White""]","Yes","Male","1725905","null","null","learn_feedback","","","learn_feedback","30","100","out","","","","","","","","","","","","","","","","","","","","","","",""
"","","","","","canvas-keyboard-response","231","268380","0.0-12.0-4.43","2d_cat_multi_stim_exp1","2022-5-2","14:36:34","25","75","3","9","10","40","30","120","78","21","[""White""]","Yes","Male","1725905","null","null","","","","clear_screen","","","","","","","","","","","","","","","","","","","","","","","","","",""
"","","","","","canvas-keyboard-response","232","268892","0.0-12.0-0.44","2d_cat_multi_stim_exp1","2022-5-2","14:36:34","25","75","3","9","10","40","30","120","78","21","[""White""]","Yes","Male","1725905","null","null","","","","fixation","","","","","","","","","","","","","","","","","","","","","","","","","",""
"","","","","","canvas-keyboard-response","233","269401","0.0-12.0-1.44","2d_cat_multi_stim_exp1","2022-5-2","14:36:34","25","75","3","9","10","40","30","120","78","21","[""White""]","Yes","Male","1725905","null","null","","","","clear_screen","","","","","","","","","","","","","","","","","","","","","","","","","",""
"","","","","","canvas-keyboard-response","234","271302","0.0-12.0-2.44","2d_cat_multi_stim_exp1","2022-5-2","14:36:34","25","75","3","9","10","40","30","120","78","21","[""White""]","Yes","Male","1725905","1892","u","learn","","","learn_trial","25","75","in","1","1","","","","","","","","","","","","","","","","","","","","",""
"","","","","","canvas-keyboard-response","235","271813","0.0-12.0-3.44","2d_cat_multi_stim_exp1","2022-5-2","14:36:34","25","75","3","9","10","40","30","120","78","21","[""White""]","Yes","Male","1725905","null","null","learn_feedback","","","learn_feedback","25","75","in","","","","","","","","","","","","","","","","","","","","","","",""
"","","","","","canvas-keyboard-response","236","271872","0.0-12.0-4.44","2d_cat_multi_stim_exp1","2022-5-2","14:36:34","25","75","3","9","10","40","30","120","78","21","[""White""]","Yes","Male","1725905","null","null","","","","clear_screen","","","","","","","","","","","","","","","","","","","","","","","","","",""
"","","","","","canvas-keyboard-response","237","272381","0.0-12.0-0.45","2d_cat_multi_stim_exp1","2022-5-2","14:36:34","25","75","3","9","10","40","30","120","78","21","[""White""]","Yes","Male","1725905","null","null","","","","fixation","","","","","","","","","","","","","","","","","","","","","","","","","",""
"","","","","","canvas-keyboard-response","238","272892","0.0-12.0-1.45","2d_cat_multi_stim_exp1","2022-5-2","14:36:34","25","75","3","9","10","40","30","120","78","21","[""White""]","Yes","Male","1725905","null","null","","","","clear_screen","","","","","","","","","","","","","","","","","","","","","","","","","",""
"","","","","","canvas-keyboard-response","239","273815","0.0-12.0-2.45","2d_cat_multi_stim_exp1","2022-5-2","14:36:34","25","75","3","9","10","40","30","120","78","21","[""White""]","Yes","Male","1725905","914","i","learn","","","learn_trial","36.6667","120","out","0","1","","","","","","","","","","","","","","","","","","","","",""
"","","","","","canvas-keyboard-response","240","274325","0.0-12.0-3.45","2d_cat_multi_stim_exp1","2022-5-2","14:36:34","25","75","3","9","10","40","30","120","78","21","[""White""]","Yes","Male","1725905","null","null","learn_feedback","","","learn_feedback","36.6667","120","out","","","","","","","","","","","","","","","","","","","","","","",""
"","","","","","canvas-keyboard-response","241","274385","0.0-12.0-4.45","2d_cat_multi_stim_exp1","2022-5-2","14:36:34","25","75","3","9","10","40","30","120","78","21","[""White""]","Yes","Male","1725905","null","null","","","","clear_screen","","","","","","","","","","","","","","","","","","","","","","","","","",""
"","","","","","canvas-keyboard-response","242","274895","0.0-12.0-0.46","2d_cat_multi_stim_exp1","2022-5-2","14:36:34","25","75","3","9","10","40","30","120","78","21","[""White""]","Yes","Male","1725905","null","null","","","","fixation","","","","","","","","","","","","","","","","","","","","","","","","","",""
"","","","","","canvas-keyboard-response","243","275405","0.0-12.0-1.46","2d_cat_multi_stim_exp1","2022-5-2","14:36:34","25","75","3","9","10","40","30","120","78","21","[""White""]","Yes","Male","1725905","null","null","","","","clear_screen","","","","","","","","","","","","","","","","","","","","","","","","","",""
"","","","","","canvas-keyboard-response","244","276423","0.0-12.0-2.46","2d_cat_multi_stim_exp1","2022-5-2","14:36:34","25","75","3","9","10","40","30","120","78","21","[""White""]","Yes","Male","1725905","1008","i","learn","","","learn_trial","40","50","out","0","1","","","","","","","","","","","","","","","","","","","","",""
"","","","","","canvas-keyboard-response","245","276932","0.0-12.0-3.46","2d_cat_multi_stim_exp1","2022-5-2","14:36:34","25","75","3","9","10","40","30","120","78","21","[""White""]","Yes","Male","1725905","null","null","learn_feedback","","","learn_feedback","40","50","out","","","","","","","","","","","","","","","","","","","","","","",""
"","","","","","canvas-keyboard-response","246","276991","0.0-12.0-4.46","2d_cat_multi_stim_exp1","2022-5-2","14:36:34","25","75","3","9","10","40","30","120","78","21","[""White""]","Yes","Male","1725905","null","null","","","","clear_screen","","","","","","","","","","","","","","","","","","","","","","","","","",""
"","","","","","canvas-keyboard-response","247","277502","0.0-12.0-0.47","2d_cat_multi_stim_exp1","2022-5-2","14:36:34","25","75","3","9","10","40","30","120","78","21","[""White""]","Yes","Male","1725905","null","null","","","","fixation","","","","","","","","","","","","","","","","","","","","","","","","","",""
"","","","","","canvas-keyboard-response","248","278015","0.0-12.0-1.47","2d_cat_multi_stim_exp1","2022-5-2","14:36:34","25","75","3","9","10","40","30","120","78","21","[""White""]","Yes","Male","1725905","null","null","","","","clear_screen","","","","","","","","","","","","","","","","","","","","","","","","","",""
"","","","","","canvas-keyboard-response","249","278654","0.0-12.0-2.47","2d_cat_multi_stim_exp1","2022-5-2","14:36:34","25","75","3","9","10","40","30","120","78","21","[""White""]","Yes","Male","1725905","628","u","learn","","","learn_trial","24.8654","83.9909","in","1","1","","","","","","","","","","","","","","","","","","","","",""
"","","","","","canvas-keyboard-response","250","279166","0.0-12.0-3.47","2d_cat_multi_stim_exp1","2022-5-2","14:36:34","25","75","3","9","10","40","30","120","78","21","[""White""]","Yes","Male","1725905","null","null","learn_feedback","","","learn_feedback","24.8654","83.9909","in","","","","","","","","","","","","","","","","","","","","","","",""
"","","","","","canvas-keyboard-response","251","279226","0.0-12.0-4.47","2d_cat_multi_stim_exp1","2022-5-2","14:36:34","25","75","3","9","10","40","30","120","78","21","[""White""]","Yes","Male","1725905","null","null","","","","clear_screen","","","","","","","","","","","","","","","","","","","","","","","","","",""
"","","","","","canvas-keyboard-response","252","279735","0.0-12.0-0.48","2d_cat_multi_stim_exp1","2022-5-2","14:36:34","25","75","3","9","10","40","30","120","78","21","[""White""]","Yes","Male","1725905","null","null","","","","fixation","","","","","","","","","","","","","","","","","","","","","","","","","",""
"","","","","","canvas-keyboard-response","253","280245","0.0-12.0-1.48","2d_cat_multi_stim_exp1","2022-5-2","14:36:34","25","75","3","9","10","40","30","120","78","21","[""White""]","Yes","Male","1725905","null","null","","","","clear_screen","","","","","","","","","","","","","","","","","","","","","","","","","",""
"","","","","","canvas-keyboard-response","254","280911","0.0-12.0-2.48","2d_cat_multi_stim_exp1","2022-5-2","14:36:34","25","75","3","9","10","40","30","120","78","21","[""White""]","Yes","Male","1725905","656","i","learn","","","learn_trial","13.3333","30","out","0","1","","","","","","","","","","","","","","","","","","","","",""
"","","","","","canvas-keyboard-response","255","281422","0.0-12.0-3.48","2d_cat_multi_stim_exp1","2022-5-2","14:36:34","25","75","3","9","10","40","30","120","78","21","[""White""]","Yes","Male","1725905","null","null","learn_feedback","","","learn_feedback","13.3333","30","out","","","","","","","","","","","","","","","","","","","","","","",""
"","","","","","canvas-keyboard-response","256","281481","0.0-12.0-4.48","2d_cat_multi_stim_exp1","2022-5-2","14:36:34","25","75","3","9","10","40","30","120","78","21","[""White""]","Yes","Male","1725905","null","null","","","","clear_screen","","","","","","","","","","","","","","","","","","","","","","","","","",""
"","","","","","canvas-keyboard-response","257","281991","0.0-12.0-0.49","2d_cat_multi_stim_exp1","2022-5-2","14:36:34","25","75","3","9","10","40","30","120","78","21","[""White""]","Yes","Male","1725905","null","null","","","","fixation","","","","","","","","","","","","","","","","","","","","","","","","","",""
"","","","","","canvas-keyboard-response","258","282502","0.0-12.0-1.49","2d_cat_multi_stim_exp1","2022-5-2","14:36:34","25","75","3","9","10","40","30","120","78","21","[""White""]","Yes","Male","1725905","null","null","","","","clear_screen","","","","","","","","","","","","","","","","","","","","","","","","","",""
"","","","","","canvas-keyboard-response","259","283102","0.0-12.0-2.49","2d_cat_multi_stim_exp1","2022-5-2","14:36:34","25","75","3","9","10","40","30","120","78","21","[""White""]","Yes","Male","1725905","589","u","learn","","","learn_trial","25","75","in","1","1","","","","","","","","","","","","","","","","","","","","",""
"","","","","","canvas-keyboard-response","260","283613","0.0-12.0-3.49","2d_cat_multi_stim_exp1","2022-5-2","14:36:34","25","75","3","9","10","40","30","120","78","21","[""White""]","Yes","Male","1725905","null","null","learn_feedback","","","learn_feedback","25","75","in","","","","","","","","","","","","","","","","","","","","","","",""
"","","","","","canvas-keyboard-response","261","283672","0.0-12.0-4.49","2d_cat_multi_stim_exp1","2022-5-2","14:36:34","25","75","3","9","10","40","30","120","78","21","[""White""]","Yes","Male","1725905","null","null","","","","clear_screen","","","","","","","","","","","","","","","","","","","","","","","","","",""
"","","","","","canvas-keyboard-response","262","284181","0.0-12.0-0.50","2d_cat_multi_stim_exp1","2022-5-2","14:36:34","25","75","3","9","10","40","30","120","78","21","[""White""]","Yes","Male","1725905","null","null","","","","fixation","","","","","","","","","","","","","","","","","","","","","","","","","",""
"","","","","","canvas-keyboard-response","263","284690","0.0-12.0-1.50","2d_cat_multi_stim_exp1","2022-5-2","14:36:34","25","75","3","9","10","40","30","120","78","21","[""White""]","Yes","Male","1725905","null","null","","","","clear_screen","","","","","","","","","","","","","","","","","","","","","","","","","",""
"","","","","","canvas-keyboard-response","264","285447","0.0-12.0-2.50","2d_cat_multi_stim_exp1","2022-5-2","14:36:34","25","75","3","9","10","40","30","120","78","21","[""White""]","Yes","Male","1725905","746","i","learn","","","learn_trial","13.3333","60","out","0","1","","","","","","","","","","","","","","","","","","","","",""
"","","","","","canvas-keyboard-response","265","285957","0.0-12.0-3.50","2d_cat_multi_stim_exp1","2022-5-2","14:36:34","25","75","3","9","10","40","30","120","78","21","[""White""]","Yes","Male","1725905","null","null","learn_feedback","","","learn_feedback","13.3333","60","out","","","","","","","","","","","","","","","","","","","","","","",""
"","","","","","canvas-keyboard-response","266","286015","0.0-12.0-4.50","2d_cat_multi_stim_exp1","2022-5-2","14:36:34","25","75","3","9","10","40","30","120","78","21","[""White""]","Yes","Male","1725905","null","null","","","","clear_screen","","","","","","","","","","","","","","","","","","","","","","","","","",""
"","","","","","canvas-keyboard-response","267","286525","0.0-12.0-0.51","2d_cat_multi_stim_exp1","2022-5-2","14:36:34","25","75","3","9","10","40","30","120","78","21","[""White""]","Yes","Male","1725905","null","null","","","","fixation","","","","","","","","","","","","","","","","","","","","","","","","","",""
"","","","","","canvas-keyboard-response","268","287034","0.0-12.0-1.51","2d_cat_multi_stim_exp1","2022-5-2","14:36:34","25","75","3","9","10","40","30","120","78","21","[""White""]","Yes","Male","1725905","null","null","","","","clear_screen","","","","","","","","","","","","","","","","","","","","","","","","","",""
"","","","","","canvas-keyboard-response","269","287919","0.0-12.0-2.51","2d_cat_multi_stim_exp1","2022-5-2","14:36:34","25","75","3","9","10","40","30","120","78","21","[""White""]","Yes","Male","1725905","875","i","learn","","","learn_trial","10","110","out","0","1","","","","","","","","","","","","","","","","","","","","",""
"","","","","","canvas-keyboard-response","270","288429","0.0-12.0-3.51","2d_cat_multi_stim_exp1","2022-5-2","14:36:34","25","75","3","9","10","40","30","120","78","21","[""White""]","Yes","Male","1725905","null","null","learn_feedback","","","learn_feedback","10","110","out","","","","","","","","","","","","","","","","","","","","","","",""
"","","","","","canvas-keyboard-response","271","288488","0.0-12.0-4.51","2d_cat_multi_stim_exp1","2022-5-2","14:36:34","25","75","3","9","10","40","30","120","78","21","[""White""]","Yes","Male","1725905","null","null","","","","clear_screen","","","","","","","","","","","","","","","","","","","","","","","","","",""
"","","","","","canvas-keyboard-response","272","288997","0.0-12.0-0.52","2d_cat_multi_stim_exp1","2022-5-2","14:36:34","25","75","3","9","10","40","30","120","78","21","[""White""]","Yes","Male","1725905","null","null","","","","fixation","","","","","","","","","","","","","","","","","","","","","","","","","",""
"","","","","","canvas-keyboard-response","273","289506","0.0-12.0-1.52","2d_cat_multi_stim_exp1","2022-5-2","14:36:34","25","75","3","9","10","40","30","120","78","21","[""White""]","Yes","Male","1725905","null","null","","","","clear_screen","","","","","","","","","","","","","","","","","","","","","","","","","",""
"","","","","","canvas-keyboard-response","274","290582","0.0-12.0-2.52","2d_cat_multi_stim_exp1","2022-5-2","14:36:34","25","75","3","9","10","40","30","120","78","21","[""White""]","Yes","Male","1725905","1064","u","learn","","","learn_trial","24.3324","66.2256","in","1","1","","","","","","","","","","","","","","","","","","","","",""
"","","","","","canvas-keyboard-response","275","291092","0.0-12.0-3.52","2d_cat_multi_stim_exp1","2022-5-2","14:36:34","25","75","3","9","10","40","30","120","78","21","[""White""]","Yes","Male","1725905","null","null","learn_feedback","","","learn_feedback","24.3324","66.2256","in","","","","","","","","","","","","","","","","","","","","","","",""
"","","","","","canvas-keyboard-response","276","291151","0.0-12.0-4.52","2d_cat_multi_stim_exp1","2022-5-2","14:36:34","25","75","3","9","10","40","30","120","78","21","[""White""]","Yes","Male","1725905","null","null","","","","clear_screen","","","","","","","","","","","","","","","","","","","","","","","","","",""
"","","","","","canvas-keyboard-response","277","291660","0.0-12.0-0.53","2d_cat_multi_stim_exp1","2022-5-2","14:36:34","25","75","3","9","10","40","30","120","78","21","[""White""]","Yes","Male","1725905","null","null","","","","fixation","","","","","","","","","","","","","","","","","","","","","","","","","",""
"","","","","","canvas-keyboard-response","278","292171","0.0-12.0-1.53","2d_cat_multi_stim_exp1","2022-5-2","14:36:34","25","75","3","9","10","40","30","120","78","21","[""White""]","Yes","Male","1725905","null","null","","","","clear_screen","","","","","","","","","","","","","","","","","","","","","","","","","",""
"","","","","","canvas-keyboard-response","279","292975","0.0-12.0-2.53","2d_cat_multi_stim_exp1","2022-5-2","14:36:34","25","75","3","9","10","40","30","120","78","21","[""White""]","Yes","Male","1725905","794","u","learn","","","learn_trial","25","75","in","1","1","","","","","","","","","","","","","","","","","","","","",""
"","","","","","canvas-keyboard-response","280","293484","0.0-12.0-3.53","2d_cat_multi_stim_exp1","2022-5-2","14:36:34","25","75","3","9","10","40","30","120","78","21","[""White""]","Yes","Male","1725905","null","null","learn_feedback","","","learn_feedback","25","75","in","","","","","","","","","","","","","","","","","","","","","","",""
"","","","","","canvas-keyboard-response","281","293542","0.0-12.0-4.53","2d_cat_multi_stim_exp1","2022-5-2","14:36:34","25","75","3","9","10","40","30","120","78","21","[""White""]","Yes","Male","1725905","null","null","","","","clear_screen","","","","","","","","","","","","","","","","","","","","","","","","","",""
"","","","","","canvas-keyboard-response","282","294052","0.0-12.0-0.54","2d_cat_multi_stim_exp1","2022-5-2","14:36:34","25","75","3","9","10","40","30","120","78","21","[""White""]","Yes","Male","1725905","null","null","","","","fixation","","","","","","","","","","","","","","","","","","","","","","","","","",""
"","","","","","canvas-keyboard-response","283","294561","0.0-12.0-1.54","2d_cat_multi_stim_exp1","2022-5-2","14:36:34","25","75","3","9","10","40","30","120","78","21","[""White""]","Yes","Male","1725905","null","null","","","","clear_screen","","","","","","","","","","","","","","","","","","","","","","","","","",""
"","","","","","canvas-keyboard-response","284","295870","0.0-12.0-2.54","2d_cat_multi_stim_exp1","2022-5-2","14:36:34","25","75","3","9","10","40","30","120","78","21","[""White""]","Yes","Male","1725905","1300","u","learn","","","learn_trial","33.3333","90","out","1","0","","","","","","","","","","","","","","","","","","","","",""
"","","","","","canvas-keyboard-response","285","296880","0.0-12.0-3.54","2d_cat_multi_stim_exp1","2022-5-2","14:36:34","25","75","3","9","10","40","30","120","78","21","[""White""]","Yes","Male","1725905","null","null","learn_feedback","","","learn_feedback","33.3333","90","out","","","","","","","","","","","","","","","","","","","","","","",""
"","","","","","canvas-keyboard-response","286","296939","0.0-12.0-4.54","2d_cat_multi_stim_exp1","2022-5-2","14:36:34","25","75","3","9","10","40","30","120","78","21","[""White""]","Yes","Male","1725905","null","null","","","","clear_screen","","","","","","","","","","","","","","","","","","","","","","","","","",""
"","","","","","canvas-keyboard-response","287","297447","0.0-12.0-0.55","2d_cat_multi_stim_exp1","2022-5-2","14:36:34","25","75","3","9","10","40","30","120","78","21","[""White""]","Yes","Male","1725905","null","null","","","","fixation","","","","","","","","","","","","","","","","","","","","","","","","","",""
"","","","","","canvas-keyboard-response","288","297958","0.0-12.0-1.55","2d_cat_multi_stim_exp1","2022-5-2","14:36:34","25","75","3","9","10","40","30","120","78","21","[""White""]","Yes","Male","1725905","null","null","","","","clear_screen","","","","","","","","","","","","","","","","","","","","","","","","","",""
"","","","","","canvas-keyboard-response","289","298766","0.0-12.0-2.55","2d_cat_multi_stim_exp1","2022-5-2","14:36:34","25","75","3","9","10","40","30","120","78","21","[""White""]","Yes","Male","1725905","799","i","learn","","","learn_trial","40","70","out","0","1","","","","","","","","","","","","","","","","","","","","",""
"","","","","","canvas-keyboard-response","290","299276","0.0-12.0-3.55","2d_cat_multi_stim_exp1","2022-5-2","14:36:34","25","75","3","9","10","40","30","120","78","21","[""White""]","Yes","Male","1725905","null","null","learn_feedback","","","learn_feedback","40","70","out","","","","","","","","","","","","","","","","","","","","","","",""
"","","","","","canvas-keyboard-response","291","299336","0.0-12.0-4.55","2d_cat_multi_stim_exp1","2022-5-2","14:36:34","25","75","3","9","10","40","30","120","78","21","[""White""]","Yes","Male","1725905","null","null","","","","clear_screen","","","","","","","","","","","","","","","","","","","","","","","","","",""
"","","","","","canvas-keyboard-response","292","299845","0.0-12.0-0.56","2d_cat_multi_stim_exp1","2022-5-2","14:36:34","25","75","3","9","10","40","30","120","78","21","[""White""]","Yes","Male","1725905","null","null","","","","fixation","","","","","","","","","","","","","","","","","","","","","","","","","",""
"","","","","","canvas-keyboard-response","293","300355","0.0-12.0-1.56","2d_cat_multi_stim_exp1","2022-5-2","14:36:34","25","75","3","9","10","40","30","120","78","21","[""White""]","Yes","Male","1725905","null","null","","","","clear_screen","","","","","","","","","","","","","","","","","","","","","","","","","",""
"","","","","","canvas-keyboard-response","294","301102","0.0-12.0-2.56","2d_cat_multi_stim_exp1","2022-5-2","14:36:34","25","75","3","9","10","40","30","120","78","21","[""White""]","Yes","Male","1725905","737","u","learn","","","learn_trial","27.8087","71.8376","in","1","1","","","","","","","","","","","","","","","","","","","","",""
"","","","","","canvas-keyboard-response","295","301612","0.0-12.0-3.56","2d_cat_multi_stim_exp1","2022-5-2","14:36:34","25","75","3","9","10","40","30","120","78","21","[""White""]","Yes","Male","1725905","null","null","learn_feedback","","","learn_feedback","27.8087","71.8376","in","","","","","","","","","","","","","","","","","","","","","","",""
"","","","","","canvas-keyboard-response","296","301672","0.0-12.0-4.56","2d_cat_multi_stim_exp1","2022-5-2","14:36:34","25","75","3","9","10","40","30","120","78","21","[""White""]","Yes","Male","1725905","null","null","","","","clear_screen","","","","","","","","","","","","","","","","","","","","","","","","","",""
"","","","","","canvas-keyboard-response","297","302181","0.0-12.0-0.57","2d_cat_multi_stim_exp1","2022-5-2","14:36:34","25","75","3","9","10","40","30","120","78","21","[""White""]","Yes","Male","1725905","null","null","","","","fixation","","","","","","","","","","","","","","","","","","","","","","","","","",""
"","","","","","canvas-keyboard-response","298","302691","0.0-12.0-1.57","2d_cat_multi_stim_exp1","2022-5-2","14:36:34","25","75","3","9","10","40","30","120","78","21","[""White""]","Yes","Male","1725905","null","null","","","","clear_screen","","","","","","","","","","","","","","","","","","","","","","","","","",""
