"success","timeout","failed_images","failed_audio","failed_video","trial_type","trial_index","time_elapsed","internal_node_id","exp_name","date","time","angle_mean_in","radius_mean_in","angle_sd_in","radius_sd_in","angle_min_out","angle_max_out","radius_min_out","radius_max_out","sub_n","age","race","ethnicity","gender","exp_duration","rt","response","exp_trial_type","stimulus","view_history","screen_id","angle","radius","distribution","choice","correct","order","angle_a","radius_a","angle_b","radius_b","jkl_correct","transfer_trial_type","choice_set","abc_correct","tc_correct","tc_angle","tdc_a","tdc_b","tdc_c","pair","category_a","category_b","category_c","angle_c","radius_c","question_order"
"true","false","[]","[]","[]","preload","0","100","0.0-0.0","2d_cat_multi_stim_exp1","2022-4-6","15:54:28","25","75","3","9","10","40","30","120","18","20","[""Asian"",""White""]","No","Female","1747835","","","","","","","","","","","","","","","","","","","","","","","","","","","","","","","",""
"","","","","","survey-html-form","1","2957","0.0-1.0","2d_cat_multi_stim_exp1","2022-4-6","15:54:28","25","75","3","9","10","40","30","120","18","20","[""Asian"",""White""]","No","Female","1747835","2830","{""response"":""18""}","enter-sub-number","","","","","","","","","","","","","","","","","","","","","","","","","","","","",""
"true","","","","","fullscreen","2","6149","0.0-2.0","2d_cat_multi_stim_exp1","2022-4-6","15:54:28","25","75","3","9","10","40","30","120","18","20","[""Asian"",""White""]","No","Female","1747835","","","","","","","","","","","","","","","","","","","","","","","","","","","","","","","",""
"","","","","","image-button-response","3","71917","0.0-3.0","2d_cat_multi_stim_exp1","2022-4-6","15:54:28","25","75","3","9","10","40","30","120","18","20","[""Asian"",""White""]","No","Female","1747835","65761","0","","consent.png","","","","","","","","","","","","","","","","","","","","","","","","","","","",""
"","","","","","html-button-response","4","75685","0.0-4.0","2d_cat_multi_stim_exp1","2022-4-6","15:54:28","25","75","3","9","10","40","30","120","18","20","[""Asian"",""White""]","No","Female","1747835","3763","0","","<div style= ""font-size:25px;"" <p> <strong> Welcome to the experiment! </strong><br> <p style=""color:#8B0000; font-size:25px;""><strong> Please do NOT exit full screen until you are done with the experiment. </strong> </p><p style=""font-size:25px;color:#8B0000;""> <strong> The experiment will be canceled and your data will be lost <br> if you try to go back or refresh the page at any point during the experiment.</strong> </p><br><p> <strong> Thanks in advance for your contribution to our research! </strong></p>","","","","","","","","","","","","","","","","","","","","","","","","","","","",""
"","","","","","instructions","5","108244","0.0-5.0","2d_cat_multi_stim_exp1","2022-4-6","15:54:28","25","75","3","9","10","40","30","120","18","20","[""Asian"",""White""]","No","Female","1747835","32555","","","","[{""page_index"":0,""viewing_time"":5195},{""page_index"":1,""viewing_time"":1752},{""page_index"":2,""viewing_time"":11201},{""page_index"":3,""viewing_time"":14407}]","instructions_1","","","","","","","","","","","","","","","","","","","","","","","","","",""
"","","","","","instructions","6","110884","0.0-6.0","2d_cat_multi_stim_exp1","2022-4-6","15:54:28","25","75","3","9","10","40","30","120","18","20","[""Asian"",""White""]","No","Female","1747835","2637","","","","[{""page_index"":0,""viewing_time"":2637}]","Click to see the kinds of turtles that will appear in the study.","","","","","","","","","","","","","","","","","","","","","","","","","",""
"","","","","","canvas-keyboard-response","7","125904","0.0-7.0","2d_cat_multi_stim_exp1","2022-4-6","15:54:28","25","75","3","9","10","40","30","120","18","20","[""Asian"",""White""]","No","Female","1747835","null","null","","","","demo_range","","","","","","","","","","","","","","","","","","","","","","","","","",""
"","","","","","instructions","8","135725","0.0-8.0","2d_cat_multi_stim_exp1","2022-4-6","15:54:28","25","75","3","9","10","40","30","120","18","20","[""Asian"",""White""]","No","Female","1747835","9319","","","","[{""page_index"":0,""viewing_time"":9319}]","Click to see some turtles in the subspecies.","","","","","","","","","","","","","","","","","","","","","","","","","",""
"","","","","","canvas-keyboard-response","9","150743","0.0-9.0","2d_cat_multi_stim_exp1","2022-4-6","15:54:28","25","75","3","9","10","40","30","120","18","20","[""Asian"",""White""]","No","Female","1747835","null","null","","","","demo_in","","","","","","","","","","","","","","","","","","","","","","","","","",""
"","","","","","instructions","10","179731","0.0-10.0","2d_cat_multi_stim_exp1","2022-4-6","15:54:28","25","75","3","9","10","40","30","120","18","20","[""Asian"",""White""]","No","Female","1747835","28486","","","","[{""page_index"":0,""viewing_time"":6686},{""page_index"":1,""viewing_time"":15072},{""page_index"":2,""viewing_time"":6728}]","instructions_2","","","","","","","","","","","","","","","","","","","","","","","","","",""
"","","","","","instructions","11","180707","0.0-11.0","2d_cat_multi_stim_exp1","2022-4-6","15:54:28","25","75","3","9","10","40","30","120","18","20","[""Asian"",""White""]","No","Female","1747835","973","","","","[{""page_index"":0,""viewing_time"":973}]","Click to begin the first phase of the experiment.","","","","","","","","","","","","","","","","","","","","","","","","","",""
"","","","","","canvas-keyboard-response","12","181217","0.0-12.0-0.0","2d_cat_multi_stim_exp1","2022-4-6","15:54:28","25","75","3","9","10","40","30","120","18","20","[""Asian"",""White""]","No","Female","1747835","null","null","","","","fixation","","","","","","","","","","","","","","","","","","","","","","","","","",""
"","","","","","canvas-keyboard-response","13","181727","0.0-12.0-1.0","2d_cat_multi_stim_exp1","2022-4-6","15:54:28","25","75","3","9","10","40","30","120","18","20","[""Asian"",""White""]","No","Female","1747835","null","null","","","","clear_screen","","","","","","","","","","","","","","","","","","","","","","","","","",""
"","","","","","canvas-keyboard-response","14","186644","0.0-12.0-2.0","2d_cat_multi_stim_exp1","2022-4-6","15:54:28","25","75","3","9","10","40","30","120","18","20","[""Asian"",""White""]","No","Female","1747835","4906","u","learn","","","learn_trial","27.5753","70.3839","in","1","1","","","","","","","","","","","","","","","","","","","","",""
"","","","","","canvas-keyboard-response","15","187157","0.0-12.0-3.0","2d_cat_multi_stim_exp1","2022-4-6","15:54:28","25","75","3","9","10","40","30","120","18","20","[""Asian"",""White""]","No","Female","1747835","null","null","learn_feedback","","","learn_feedback","27.5753","70.3839","in","","","","","","","","","","","","","","","","","","","","","","",""
"","","","","","canvas-keyboard-response","16","187217","0.0-12.0-4.0","2d_cat_multi_stim_exp1","2022-4-6","15:54:28","25","75","3","9","10","40","30","120","18","20","[""Asian"",""White""]","No","Female","1747835","null","null","","","","clear_screen","","","","","","","","","","","","","","","","","","","","","","","","","",""
"","","","","","canvas-keyboard-response","17","187726","0.0-12.0-0.1","2d_cat_multi_stim_exp1","2022-4-6","15:54:28","25","75","3","9","10","40","30","120","18","20","[""Asian"",""White""]","No","Female","1747835","null","null","","","","fixation","","","","","","","","","","","","","","","","","","","","","","","","","",""
"","","","","","canvas-keyboard-response","18","188234","0.0-12.0-1.1","2d_cat_multi_stim_exp1","2022-4-6","15:54:28","25","75","3","9","10","40","30","120","18","20","[""Asian"",""White""]","No","Female","1747835","null","null","","","","clear_screen","","","","","","","","","","","","","","","","","","","","","","","","","",""
"","","","","","canvas-keyboard-response","19","191516","0.0-12.0-2.1","2d_cat_multi_stim_exp1","2022-4-6","15:54:28","25","75","3","9","10","40","30","120","18","20","[""Asian"",""White""]","No","Female","1747835","3274","i","learn","","","learn_trial","40","100","out","0","1","","","","","","","","","","","","","","","","","","","","",""
"","","","","","canvas-keyboard-response","20","192026","0.0-12.0-3.1","2d_cat_multi_stim_exp1","2022-4-6","15:54:28","25","75","3","9","10","40","30","120","18","20","[""Asian"",""White""]","No","Female","1747835","null","null","learn_feedback","","","learn_feedback","40","100","out","","","","","","","","","","","","","","","","","","","","","","",""
"","","","","","canvas-keyboard-response","21","192085","0.0-12.0-4.1","2d_cat_multi_stim_exp1","2022-4-6","15:54:28","25","75","3","9","10","40","30","120","18","20","[""Asian"",""White""]","No","Female","1747835","null","null","","","","clear_screen","","","","","","","","","","","","","","","","","","","","","","","","","",""
"","","","","","canvas-keyboard-response","22","192593","0.0-12.0-0.2","2d_cat_multi_stim_exp1","2022-4-6","15:54:28","25","75","3","9","10","40","30","120","18","20","[""Asian"",""White""]","No","Female","1747835","null","null","","","","fixation","","","","","","","","","","","","","","","","","","","","","","","","","",""
"","","","","","canvas-keyboard-response","23","193102","0.0-12.0-1.2","2d_cat_multi_stim_exp1","2022-4-6","15:54:28","25","75","3","9","10","40","30","120","18","20","[""Asian"",""White""]","No","Female","1747835","null","null","","","","clear_screen","","","","","","","","","","","","","","","","","","","","","","","","","",""
"","","","","","canvas-keyboard-response","24","194340","0.0-12.0-2.2","2d_cat_multi_stim_exp1","2022-4-6","15:54:28","25","75","3","9","10","40","30","120","18","20","[""Asian"",""White""]","No","Female","1747835","1228","u","learn","","","learn_trial","25","75","in","1","1","","","","","","","","","","","","","","","","","","","","",""
"","","","","","canvas-keyboard-response","25","194849","0.0-12.0-3.2","2d_cat_multi_stim_exp1","2022-4-6","15:54:28","25","75","3","9","10","40","30","120","18","20","[""Asian"",""White""]","No","Female","1747835","null","null","learn_feedback","","","learn_feedback","25","75","in","","","","","","","","","","","","","","","","","","","","","","",""
"","","","","","canvas-keyboard-response","26","194908","0.0-12.0-4.2","2d_cat_multi_stim_exp1","2022-4-6","15:54:28","25","75","3","9","10","40","30","120","18","20","[""Asian"",""White""]","No","Female","1747835","null","null","","","","clear_screen","","","","","","","","","","","","","","","","","","","","","","","","","",""
"","","","","","canvas-keyboard-response","27","195417","0.0-12.0-0.3","2d_cat_multi_stim_exp1","2022-4-6","15:54:28","25","75","3","9","10","40","30","120","18","20","[""Asian"",""White""]","No","Female","1747835","null","null","","","","fixation","","","","","","","","","","","","","","","","","","","","","","","","","",""
"","","","","","canvas-keyboard-response","28","195925","0.0-12.0-1.3","2d_cat_multi_stim_exp1","2022-4-6","15:54:28","25","75","3","9","10","40","30","120","18","20","[""Asian"",""White""]","No","Female","1747835","null","null","","","","clear_screen","","","","","","","","","","","","","","","","","","","","","","","","","",""
"","","","","","canvas-keyboard-response","29","196917","0.0-12.0-2.3","2d_cat_multi_stim_exp1","2022-4-6","15:54:28","25","75","3","9","10","40","30","120","18","20","[""Asian"",""White""]","No","Female","1747835","983","u","learn","","","learn_trial","25","75","in","1","1","","","","","","","","","","","","","","","","","","","","",""
"","","","","","canvas-keyboard-response","30","197430","0.0-12.0-3.3","2d_cat_multi_stim_exp1","2022-4-6","15:54:28","25","75","3","9","10","40","30","120","18","20","[""Asian"",""White""]","No","Female","1747835","null","null","learn_feedback","","","learn_feedback","25","75","in","","","","","","","","","","","","","","","","","","","","","","",""
"","","","","","canvas-keyboard-response","31","197489","0.0-12.0-4.3","2d_cat_multi_stim_exp1","2022-4-6","15:54:28","25","75","3","9","10","40","30","120","18","20","[""Asian"",""White""]","No","Female","1747835","null","null","","","","clear_screen","","","","","","","","","","","","","","","","","","","","","","","","","",""
"","","","","","canvas-keyboard-response","32","197999","0.0-12.0-0.4","2d_cat_multi_stim_exp1","2022-4-6","15:54:28","25","75","3","9","10","40","30","120","18","20","[""Asian"",""White""]","No","Female","1747835","null","null","","","","fixation","","","","","","","","","","","","","","","","","","","","","","","","","",""
"","","","","","canvas-keyboard-response","33","198509","0.0-12.0-1.4","2d_cat_multi_stim_exp1","2022-4-6","15:54:28","25","75","3","9","10","40","30","120","18","20","[""Asian"",""White""]","No","Female","1747835","null","null","","","","clear_screen","","","","","","","","","","","","","","","","","","","","","","","","","",""
"","","","","","canvas-keyboard-response","34","200780","0.0-12.0-2.4","2d_cat_multi_stim_exp1","2022-4-6","15:54:28","25","75","3","9","10","40","30","120","18","20","[""Asian"",""White""]","No","Female","1747835","2262","i","learn","","","learn_trial","22.1081","77.3943","in","0","0","","","","","","","","","","","","","","","","","","","","",""
"","","","","","canvas-keyboard-response","35","201790","0.0-12.0-3.4","2d_cat_multi_stim_exp1","2022-4-6","15:54:28","25","75","3","9","10","40","30","120","18","20","[""Asian"",""White""]","No","Female","1747835","null","null","learn_feedback","","","learn_feedback","22.1081","77.3943","in","","","","","","","","","","","","","","","","","","","","","","",""
"","","","","","canvas-keyboard-response","36","201849","0.0-12.0-4.4","2d_cat_multi_stim_exp1","2022-4-6","15:54:28","25","75","3","9","10","40","30","120","18","20","[""Asian"",""White""]","No","Female","1747835","null","null","","","","clear_screen","","","","","","","","","","","","","","","","","","","","","","","","","",""
"","","","","","canvas-keyboard-response","37","202356","0.0-12.0-0.5","2d_cat_multi_stim_exp1","2022-4-6","15:54:28","25","75","3","9","10","40","30","120","18","20","[""Asian"",""White""]","No","Female","1747835","null","null","","","","fixation","","","","","","","","","","","","","","","","","","","","","","","","","",""
"","","","","","canvas-keyboard-response","38","202865","0.0-12.0-1.5","2d_cat_multi_stim_exp1","2022-4-6","15:54:28","25","75","3","9","10","40","30","120","18","20","[""Asian"",""White""]","No","Female","1747835","null","null","","","","clear_screen","","","","","","","","","","","","","","","","","","","","","","","","","",""
"","","","","","canvas-keyboard-response","39","204148","0.0-12.0-2.5","2d_cat_multi_stim_exp1","2022-4-6","15:54:28","25","75","3","9","10","40","30","120","18","20","[""Asian"",""White""]","No","Female","1747835","1273","i","learn","","","learn_trial","23.3333","110","out","0","1","","","","","","","","","","","","","","","","","","","","",""
"","","","","","canvas-keyboard-response","40","204658","0.0-12.0-3.5","2d_cat_multi_stim_exp1","2022-4-6","15:54:28","25","75","3","9","10","40","30","120","18","20","[""Asian"",""White""]","No","Female","1747835","null","null","learn_feedback","","","learn_feedback","23.3333","110","out","","","","","","","","","","","","","","","","","","","","","","",""
"","","","","","canvas-keyboard-response","41","204717","0.0-12.0-4.5","2d_cat_multi_stim_exp1","2022-4-6","15:54:28","25","75","3","9","10","40","30","120","18","20","[""Asian"",""White""]","No","Female","1747835","null","null","","","","clear_screen","","","","","","","","","","","","","","","","","","","","","","","","","",""
"","","","","","canvas-keyboard-response","42","205226","0.0-12.0-0.6","2d_cat_multi_stim_exp1","2022-4-6","15:54:28","25","75","3","9","10","40","30","120","18","20","[""Asian"",""White""]","No","Female","1747835","null","null","","","","fixation","","","","","","","","","","","","","","","","","","","","","","","","","",""
"","","","","","canvas-keyboard-response","43","205735","0.0-12.0-1.6","2d_cat_multi_stim_exp1","2022-4-6","15:54:28","25","75","3","9","10","40","30","120","18","20","[""Asian"",""White""]","No","Female","1747835","null","null","","","","clear_screen","","","","","","","","","","","","","","","","","","","","","","","","","",""
"","","","","","canvas-keyboard-response","44","206571","0.0-12.0-2.6","2d_cat_multi_stim_exp1","2022-4-6","15:54:28","25","75","3","9","10","40","30","120","18","20","[""Asian"",""White""]","No","Female","1747835","828","u","learn","","","learn_trial","25","75","in","1","1","","","","","","","","","","","","","","","","","","","","",""
"","","","","","canvas-keyboard-response","45","207081","0.0-12.0-3.6","2d_cat_multi_stim_exp1","2022-4-6","15:54:28","25","75","3","9","10","40","30","120","18","20","[""Asian"",""White""]","No","Female","1747835","null","null","learn_feedback","","","learn_feedback","25","75","in","","","","","","","","","","","","","","","","","","","","","","",""
"","","","","","canvas-keyboard-response","46","207140","0.0-12.0-4.6","2d_cat_multi_stim_exp1","2022-4-6","15:54:28","25","75","3","9","10","40","30","120","18","20","[""Asian"",""White""]","No","Female","1747835","null","null","","","","clear_screen","","","","","","","","","","","","","","","","","","","","","","","","","",""
"","","","","","canvas-keyboard-response","47","207648","0.0-12.0-0.7","2d_cat_multi_stim_exp1","2022-4-6","15:54:28","25","75","3","9","10","40","30","120","18","20","[""Asian"",""White""]","No","Female","1747835","null","null","","","","fixation","","","","","","","","","","","","","","","","","","","","","","","","","",""
"","","","","","canvas-keyboard-response","48","208157","0.0-12.0-1.7","2d_cat_multi_stim_exp1","2022-4-6","15:54:28","25","75","3","9","10","40","30","120","18","20","[""Asian"",""White""]","No","Female","1747835","null","null","","","","clear_screen","","","","","","","","","","","","","","","","","","","","","","","","","",""
"","","","","","canvas-keyboard-response","49","209612","0.0-12.0-2.7","2d_cat_multi_stim_exp1","2022-4-6","15:54:28","25","75","3","9","10","40","30","120","18","20","[""Asian"",""White""]","No","Female","1747835","1445","u","learn","","","learn_trial","10","70","out","1","0","","","","","","","","","","","","","","","","","","","","",""
"","","","","","canvas-keyboard-response","50","210622","0.0-12.0-3.7","2d_cat_multi_stim_exp1","2022-4-6","15:54:28","25","75","3","9","10","40","30","120","18","20","[""Asian"",""White""]","No","Female","1747835","null","null","learn_feedback","","","learn_feedback","10","70","out","","","","","","","","","","","","","","","","","","","","","","",""
"","","","","","canvas-keyboard-response","51","210679","0.0-12.0-4.7","2d_cat_multi_stim_exp1","2022-4-6","15:54:28","25","75","3","9","10","40","30","120","18","20","[""Asian"",""White""]","No","Female","1747835","null","null","","","","clear_screen","","","","","","","","","","","","","","","","","","","","","","","","","",""
"","","","","","canvas-keyboard-response","52","211187","0.0-12.0-0.8","2d_cat_multi_stim_exp1","2022-4-6","15:54:28","25","75","3","9","10","40","30","120","18","20","[""Asian"",""White""]","No","Female","1747835","null","null","","","","fixation","","","","","","","","","","","","","","","","","","","","","","","","","",""
"","","","","","canvas-keyboard-response","53","211696","0.0-12.0-1.8","2d_cat_multi_stim_exp1","2022-4-6","15:54:28","25","75","3","9","10","40","30","120","18","20","[""Asian"",""White""]","No","Female","1747835","null","null","","","","clear_screen","","","","","","","","","","","","","","","","","","","","","","","","","",""
"","","","","","canvas-keyboard-response","54","214060","0.0-12.0-2.8","2d_cat_multi_stim_exp1","2022-4-6","15:54:28","25","75","3","9","10","40","30","120","18","20","[""Asian"",""White""]","No","Female","1747835","2357","i","learn","","","learn_trial","10","110","out","0","1","","","","","","","","","","","","","","","","","","","","",""
"","","","","","canvas-keyboard-response","55","214569","0.0-12.0-3.8","2d_cat_multi_stim_exp1","2022-4-6","15:54:28","25","75","3","9","10","40","30","120","18","20","[""Asian"",""White""]","No","Female","1747835","null","null","learn_feedback","","","learn_feedback","10","110","out","","","","","","","","","","","","","","","","","","","","","","",""
"","","","","","canvas-keyboard-response","56","214627","0.0-12.0-4.8","2d_cat_multi_stim_exp1","2022-4-6","15:54:28","25","75","3","9","10","40","30","120","18","20","[""Asian"",""White""]","No","Female","1747835","null","null","","","","clear_screen","","","","","","","","","","","","","","","","","","","","","","","","","",""
"","","","","","canvas-keyboard-response","57","215132","0.0-12.0-0.9","2d_cat_multi_stim_exp1","2022-4-6","15:54:28","25","75","3","9","10","40","30","120","18","20","[""Asian"",""White""]","No","Female","1747835","null","null","","","","fixation","","","","","","","","","","","","","","","","","","","","","","","","","",""
"","","","","","canvas-keyboard-response","58","215642","0.0-12.0-1.9","2d_cat_multi_stim_exp1","2022-4-6","15:54:28","25","75","3","9","10","40","30","120","18","20","[""Asian"",""White""]","No","Female","1747835","null","null","","","","clear_screen","","","","","","","","","","","","","","","","","","","","","","","","","",""
"","","","","","canvas-keyboard-response","59","216788","0.0-12.0-2.9","2d_cat_multi_stim_exp1","2022-4-6","15:54:28","25","75","3","9","10","40","30","120","18","20","[""Asian"",""White""]","No","Female","1747835","1138","i","learn","","","learn_trial","33.3333","70","out","0","1","","","","","","","","","","","","","","","","","","","","",""
"","","","","","canvas-keyboard-response","60","217296","0.0-12.0-3.9","2d_cat_multi_stim_exp1","2022-4-6","15:54:28","25","75","3","9","10","40","30","120","18","20","[""Asian"",""White""]","No","Female","1747835","null","null","learn_feedback","","","learn_feedback","33.3333","70","out","","","","","","","","","","","","","","","","","","","","","","",""
"","","","","","canvas-keyboard-response","61","217354","0.0-12.0-4.9","2d_cat_multi_stim_exp1","2022-4-6","15:54:28","25","75","3","9","10","40","30","120","18","20","[""Asian"",""White""]","No","Female","1747835","null","null","","","","clear_screen","","","","","","","","","","","","","","","","","","","","","","","","","",""
"","","","","","canvas-keyboard-response","62","217862","0.0-12.0-0.10","2d_cat_multi_stim_exp1","2022-4-6","15:54:28","25","75","3","9","10","40","30","120","18","20","[""Asian"",""White""]","No","Female","1747835","null","null","","","","fixation","","","","","","","","","","","","","","","","","","","","","","","","","",""
"","","","","","canvas-keyboard-response","63","218371","0.0-12.0-1.10","2d_cat_multi_stim_exp1","2022-4-6","15:54:28","25","75","3","9","10","40","30","120","18","20","[""Asian"",""White""]","No","Female","1747835","null","null","","","","clear_screen","","","","","","","","","","","","","","","","","","","","","","","","","",""
"","","","","","canvas-keyboard-response","64","221628","0.0-12.0-2.10","2d_cat_multi_stim_exp1","2022-4-6","15:54:28","25","75","3","9","10","40","30","120","18","20","[""Asian"",""White""]","No","Female","1747835","3248","i","learn","","","learn_trial","26.4216","67.0746","in","0","0","","","","","","","","","","","","","","","","","","","","",""
"","","","","","canvas-keyboard-response","65","222638","0.0-12.0-3.10","2d_cat_multi_stim_exp1","2022-4-6","15:54:28","25","75","3","9","10","40","30","120","18","20","[""Asian"",""White""]","No","Female","1747835","null","null","learn_feedback","","","learn_feedback","26.4216","67.0746","in","","","","","","","","","","","","","","","","","","","","","","",""
"","","","","","canvas-keyboard-response","66","222695","0.0-12.0-4.10","2d_cat_multi_stim_exp1","2022-4-6","15:54:28","25","75","3","9","10","40","30","120","18","20","[""Asian"",""White""]","No","Female","1747835","null","null","","","","clear_screen","","","","","","","","","","","","","","","","","","","","","","","","","",""
"","","","","","canvas-keyboard-response","67","223203","0.0-12.0-0.11","2d_cat_multi_stim_exp1","2022-4-6","15:54:28","25","75","3","9","10","40","30","120","18","20","[""Asian"",""White""]","No","Female","1747835","null","null","","","","fixation","","","","","","","","","","","","","","","","","","","","","","","","","",""
"","","","","","canvas-keyboard-response","68","223712","0.0-12.0-1.11","2d_cat_multi_stim_exp1","2022-4-6","15:54:28","25","75","3","9","10","40","30","120","18","20","[""Asian"",""White""]","No","Female","1747835","null","null","","","","clear_screen","","","","","","","","","","","","","","","","","","","","","","","","","",""
"","","","","","canvas-keyboard-response","69","225259","0.0-12.0-2.11","2d_cat_multi_stim_exp1","2022-4-6","15:54:28","25","75","3","9","10","40","30","120","18","20","[""Asian"",""White""]","No","Female","1747835","1540","u","learn","","","learn_trial","25","75","in","1","1","","","","","","","","","","","","","","","","","","","","",""
"","","","","","canvas-keyboard-response","70","225769","0.0-12.0-3.11","2d_cat_multi_stim_exp1","2022-4-6","15:54:28","25","75","3","9","10","40","30","120","18","20","[""Asian"",""White""]","No","Female","1747835","null","null","learn_feedback","","","learn_feedback","25","75","in","","","","","","","","","","","","","","","","","","","","","","",""
"","","","","","canvas-keyboard-response","71","225826","0.0-12.0-4.11","2d_cat_multi_stim_exp1","2022-4-6","15:54:28","25","75","3","9","10","40","30","120","18","20","[""Asian"",""White""]","No","Female","1747835","null","null","","","","clear_screen","","","","","","","","","","","","","","","","","","","","","","","","","",""
"","","","","","canvas-keyboard-response","72","226334","0.0-12.0-0.12","2d_cat_multi_stim_exp1","2022-4-6","15:54:28","25","75","3","9","10","40","30","120","18","20","[""Asian"",""White""]","No","Female","1747835","null","null","","","","fixation","","","","","","","","","","","","","","","","","","","","","","","","","",""
"","","","","","canvas-keyboard-response","73","226843","0.0-12.0-1.12","2d_cat_multi_stim_exp1","2022-4-6","15:54:28","25","75","3","9","10","40","30","120","18","20","[""Asian"",""White""]","No","Female","1747835","null","null","","","","clear_screen","","","","","","","","","","","","","","","","","","","","","","","","","",""
"","","","","","canvas-keyboard-response","74","227875","0.0-12.0-2.12","2d_cat_multi_stim_exp1","2022-4-6","15:54:28","25","75","3","9","10","40","30","120","18","20","[""Asian"",""White""]","No","Female","1747835","1021","u","learn","","","learn_trial","25","75","in","1","1","","","","","","","","","","","","","","","","","","","","",""
"","","","","","canvas-keyboard-response","75","228384","0.0-12.0-3.12","2d_cat_multi_stim_exp1","2022-4-6","15:54:28","25","75","3","9","10","40","30","120","18","20","[""Asian"",""White""]","No","Female","1747835","null","null","learn_feedback","","","learn_feedback","25","75","in","","","","","","","","","","","","","","","","","","","","","","",""
"","","","","","canvas-keyboard-response","76","228443","0.0-12.0-4.12","2d_cat_multi_stim_exp1","2022-4-6","15:54:28","25","75","3","9","10","40","30","120","18","20","[""Asian"",""White""]","No","Female","1747835","null","null","","","","clear_screen","","","","","","","","","","","","","","","","","","","","","","","","","",""
"","","","","","canvas-keyboard-response","77","228951","0.0-12.0-0.13","2d_cat_multi_stim_exp1","2022-4-6","15:54:28","25","75","3","9","10","40","30","120","18","20","[""Asian"",""White""]","No","Female","1747835","null","null","","","","fixation","","","","","","","","","","","","","","","","","","","","","","","","","",""
"","","","","","canvas-keyboard-response","78","229459","0.0-12.0-1.13","2d_cat_multi_stim_exp1","2022-4-6","15:54:28","25","75","3","9","10","40","30","120","18","20","[""Asian"",""White""]","No","Female","1747835","null","null","","","","clear_screen","","","","","","","","","","","","","","","","","","","","","","","","","",""
"","","","","","canvas-keyboard-response","79","230955","0.0-12.0-2.13","2d_cat_multi_stim_exp1","2022-4-6","15:54:28","25","75","3","9","10","40","30","120","18","20","[""Asian"",""White""]","No","Female","1747835","1487","i","learn","","","learn_trial","13.3333","70","out","0","1","","","","","","","","","","","","","","","","","","","","",""
"","","","","","canvas-keyboard-response","80","231464","0.0-12.0-3.13","2d_cat_multi_stim_exp1","2022-4-6","15:54:28","25","75","3","9","10","40","30","120","18","20","[""Asian"",""White""]","No","Female","1747835","null","null","learn_feedback","","","learn_feedback","13.3333","70","out","","","","","","","","","","","","","","","","","","","","","","",""
"","","","","","canvas-keyboard-response","81","231522","0.0-12.0-4.13","2d_cat_multi_stim_exp1","2022-4-6","15:54:28","25","75","3","9","10","40","30","120","18","20","[""Asian"",""White""]","No","Female","1747835","null","null","","","","clear_screen","","","","","","","","","","","","","","","","","","","","","","","","","",""
"","","","","","canvas-keyboard-response","82","232031","0.0-12.0-0.14","2d_cat_multi_stim_exp1","2022-4-6","15:54:28","25","75","3","9","10","40","30","120","18","20","[""Asian"",""White""]","No","Female","1747835","null","null","","","","fixation","","","","","","","","","","","","","","","","","","","","","","","","","",""
"","","","","","canvas-keyboard-response","83","232539","0.0-12.0-1.14","2d_cat_multi_stim_exp1","2022-4-6","15:54:28","25","75","3","9","10","40","30","120","18","20","[""Asian"",""White""]","No","Female","1747835","null","null","","","","clear_screen","","","","","","","","","","","","","","","","","","","","","","","","","",""
"","","","","","canvas-keyboard-response","84","233611","0.0-12.0-2.14","2d_cat_multi_stim_exp1","2022-4-6","15:54:28","25","75","3","9","10","40","30","120","18","20","[""Asian"",""White""]","No","Female","1747835","1063","i","learn","","","learn_trial","10","60","out","0","1","","","","","","","","","","","","","","","","","","","","",""
"","","","","","canvas-keyboard-response","85","234120","0.0-12.0-3.14","2d_cat_multi_stim_exp1","2022-4-6","15:54:28","25","75","3","9","10","40","30","120","18","20","[""Asian"",""White""]","No","Female","1747835","null","null","learn_feedback","","","learn_feedback","10","60","out","","","","","","","","","","","","","","","","","","","","","","",""
"","","","","","canvas-keyboard-response","86","234179","0.0-12.0-4.14","2d_cat_multi_stim_exp1","2022-4-6","15:54:28","25","75","3","9","10","40","30","120","18","20","[""Asian"",""White""]","No","Female","1747835","null","null","","","","clear_screen","","","","","","","","","","","","","","","","","","","","","","","","","",""
"","","","","","canvas-keyboard-response","87","234686","0.0-12.0-0.15","2d_cat_multi_stim_exp1","2022-4-6","15:54:28","25","75","3","9","10","40","30","120","18","20","[""Asian"",""White""]","No","Female","1747835","null","null","","","","fixation","","","","","","","","","","","","","","","","","","","","","","","","","",""
"","","","","","canvas-keyboard-response","88","235195","0.0-12.0-1.15","2d_cat_multi_stim_exp1","2022-4-6","15:54:28","25","75","3","9","10","40","30","120","18","20","[""Asian"",""White""]","No","Female","1747835","null","null","","","","clear_screen","","","","","","","","","","","","","","","","","","","","","","","","","",""
"","","","","","canvas-keyboard-response","89","236203","0.0-12.0-2.15","2d_cat_multi_stim_exp1","2022-4-6","15:54:28","25","75","3","9","10","40","30","120","18","20","[""Asian"",""White""]","No","Female","1747835","996","i","learn","","","learn_trial","20","30","out","0","1","","","","","","","","","","","","","","","","","","","","",""
"","","","","","canvas-keyboard-response","90","236717","0.0-12.0-3.15","2d_cat_multi_stim_exp1","2022-4-6","15:54:28","25","75","3","9","10","40","30","120","18","20","[""Asian"",""White""]","No","Female","1747835","null","null","learn_feedback","","","learn_feedback","20","30","out","","","","","","","","","","","","","","","","","","","","","","",""
"","","","","","canvas-keyboard-response","91","236776","0.0-12.0-4.15","2d_cat_multi_stim_exp1","2022-4-6","15:54:28","25","75","3","9","10","40","30","120","18","20","[""Asian"",""White""]","No","Female","1747835","null","null","","","","clear_screen","","","","","","","","","","","","","","","","","","","","","","","","","",""
"","","","","","canvas-keyboard-response","92","237286","0.0-12.0-0.16","2d_cat_multi_stim_exp1","2022-4-6","15:54:28","25","75","3","9","10","40","30","120","18","20","[""Asian"",""White""]","No","Female","1747835","null","null","","","","fixation","","","","","","","","","","","","","","","","","","","","","","","","","",""
"","","","","","canvas-keyboard-response","93","237794","0.0-12.0-1.16","2d_cat_multi_stim_exp1","2022-4-6","15:54:28","25","75","3","9","10","40","30","120","18","20","[""Asian"",""White""]","No","Female","1747835","null","null","","","","clear_screen","","","","","","","","","","","","","","","","","","","","","","","","","",""
"","","","","","canvas-keyboard-response","94","238644","0.0-12.0-2.16","2d_cat_multi_stim_exp1","2022-4-6","15:54:28","25","75","3","9","10","40","30","120","18","20","[""Asian"",""White""]","No","Female","1747835","841","u","learn","","","learn_trial","25","57","in","1","1","","","","","","","","","","","","","","","","","","","","",""
"","","","","","canvas-keyboard-response","95","239153","0.0-12.0-3.16","2d_cat_multi_stim_exp1","2022-4-6","15:54:28","25","75","3","9","10","40","30","120","18","20","[""Asian"",""White""]","No","Female","1747835","null","null","learn_feedback","","","learn_feedback","25","57","in","","","","","","","","","","","","","","","","","","","","","","",""
"","","","","","canvas-keyboard-response","96","239211","0.0-12.0-4.16","2d_cat_multi_stim_exp1","2022-4-6","15:54:28","25","75","3","9","10","40","30","120","18","20","[""Asian"",""White""]","No","Female","1747835","null","null","","","","clear_screen","","","","","","","","","","","","","","","","","","","","","","","","","",""
"","","","","","canvas-keyboard-response","97","239720","0.0-12.0-0.17","2d_cat_multi_stim_exp1","2022-4-6","15:54:28","25","75","3","9","10","40","30","120","18","20","[""Asian"",""White""]","No","Female","1747835","null","null","","","","fixation","","","","","","","","","","","","","","","","","","","","","","","","","",""
"","","","","","canvas-keyboard-response","98","240229","0.0-12.0-1.17","2d_cat_multi_stim_exp1","2022-4-6","15:54:28","25","75","3","9","10","40","30","120","18","20","[""Asian"",""White""]","No","Female","1747835","null","null","","","","clear_screen","","","","","","","","","","","","","","","","","","","","","","","","","",""
"","","","","","canvas-keyboard-response","99","241340","0.0-12.0-2.17","2d_cat_multi_stim_exp1","2022-4-6","15:54:28","25","75","3","9","10","40","30","120","18","20","[""Asian"",""White""]","No","Female","1747835","1100","i","learn","","","learn_trial","25","75","in","0","0","","","","","","","","","","","","","","","","","","","","",""
"","","","","","canvas-keyboard-response","100","242349","0.0-12.0-3.17","2d_cat_multi_stim_exp1","2022-4-6","15:54:28","25","75","3","9","10","40","30","120","18","20","[""Asian"",""White""]","No","Female","1747835","null","null","learn_feedback","","","learn_feedback","25","75","in","","","","","","","","","","","","","","","","","","","","","","",""
"","","","","","canvas-keyboard-response","101","242407","0.0-12.0-4.17","2d_cat_multi_stim_exp1","2022-4-6","15:54:28","25","75","3","9","10","40","30","120","18","20","[""Asian"",""White""]","No","Female","1747835","null","null","","","","clear_screen","","","","","","","","","","","","","","","","","","","","","","","","","",""
"","","","","","canvas-keyboard-response","102","242915","0.0-12.0-0.18","2d_cat_multi_stim_exp1","2022-4-6","15:54:28","25","75","3","9","10","40","30","120","18","20","[""Asian"",""White""]","No","Female","1747835","null","null","","","","fixation","","","","","","","","","","","","","","","","","","","","","","","","","",""
"","","","","","canvas-keyboard-response","103","243427","0.0-12.0-1.18","2d_cat_multi_stim_exp1","2022-4-6","15:54:28","25","75","3","9","10","40","30","120","18","20","[""Asian"",""White""]","No","Female","1747835","null","null","","","","clear_screen","","","","","","","","","","","","","","","","","","","","","","","","","",""
"","","","","","canvas-keyboard-response","104","244300","0.0-12.0-2.18","2d_cat_multi_stim_exp1","2022-4-6","15:54:28","25","75","3","9","10","40","30","120","18","20","[""Asian"",""White""]","No","Female","1747835","865","i","learn","","","learn_trial","33.3333","100","out","0","1","","","","","","","","","","","","","","","","","","","","",""
"","","","","","canvas-keyboard-response","105","244808","0.0-12.0-3.18","2d_cat_multi_stim_exp1","2022-4-6","15:54:28","25","75","3","9","10","40","30","120","18","20","[""Asian"",""White""]","No","Female","1747835","null","null","learn_feedback","","","learn_feedback","33.3333","100","out","","","","","","","","","","","","","","","","","","","","","","",""
"","","","","","canvas-keyboard-response","106","244866","0.0-12.0-4.18","2d_cat_multi_stim_exp1","2022-4-6","15:54:28","25","75","3","9","10","40","30","120","18","20","[""Asian"",""White""]","No","Female","1747835","null","null","","","","clear_screen","","","","","","","","","","","","","","","","","","","","","","","","","",""
"","","","","","canvas-keyboard-response","107","245375","0.0-12.0-0.19","2d_cat_multi_stim_exp1","2022-4-6","15:54:28","25","75","3","9","10","40","30","120","18","20","[""Asian"",""White""]","No","Female","1747835","null","null","","","","fixation","","","","","","","","","","","","","","","","","","","","","","","","","",""
"","","","","","canvas-keyboard-response","108","245884","0.0-12.0-1.19","2d_cat_multi_stim_exp1","2022-4-6","15:54:28","25","75","3","9","10","40","30","120","18","20","[""Asian"",""White""]","No","Female","1747835","null","null","","","","clear_screen","","","","","","","","","","","","","","","","","","","","","","","","","",""
"","","","","","canvas-keyboard-response","109","247036","0.0-12.0-2.19","2d_cat_multi_stim_exp1","2022-4-6","15:54:28","25","75","3","9","10","40","30","120","18","20","[""Asian"",""White""]","No","Female","1747835","1143","i","learn","","","learn_trial","26.6667","120","out","0","1","","","","","","","","","","","","","","","","","","","","",""
"","","","","","canvas-keyboard-response","110","247545","0.0-12.0-3.19","2d_cat_multi_stim_exp1","2022-4-6","15:54:28","25","75","3","9","10","40","30","120","18","20","[""Asian"",""White""]","No","Female","1747835","null","null","learn_feedback","","","learn_feedback","26.6667","120","out","","","","","","","","","","","","","","","","","","","","","","",""
"","","","","","canvas-keyboard-response","111","247603","0.0-12.0-4.19","2d_cat_multi_stim_exp1","2022-4-6","15:54:28","25","75","3","9","10","40","30","120","18","20","[""Asian"",""White""]","No","Female","1747835","null","null","","","","clear_screen","","","","","","","","","","","","","","","","","","","","","","","","","",""
"","","","","","canvas-keyboard-response","112","248111","0.0-12.0-0.20","2d_cat_multi_stim_exp1","2022-4-6","15:54:28","25","75","3","9","10","40","30","120","18","20","[""Asian"",""White""]","No","Female","1747835","null","null","","","","fixation","","","","","","","","","","","","","","","","","","","","","","","","","",""
"","","","","","canvas-keyboard-response","113","248619","0.0-12.0-1.20","2d_cat_multi_stim_exp1","2022-4-6","15:54:28","25","75","3","9","10","40","30","120","18","20","[""Asian"",""White""]","No","Female","1747835","null","null","","","","clear_screen","","","","","","","","","","","","","","","","","","","","","","","","","",""
"","","","","","canvas-keyboard-response","114","249963","0.0-12.0-2.20","2d_cat_multi_stim_exp1","2022-4-6","15:54:28","25","75","3","9","10","40","30","120","18","20","[""Asian"",""White""]","No","Female","1747835","1335","u","learn","","","learn_trial","25","75","in","1","1","","","","","","","","","","","","","","","","","","","","",""
"","","","","","canvas-keyboard-response","115","250476","0.0-12.0-3.20","2d_cat_multi_stim_exp1","2022-4-6","15:54:28","25","75","3","9","10","40","30","120","18","20","[""Asian"",""White""]","No","Female","1747835","null","null","learn_feedback","","","learn_feedback","25","75","in","","","","","","","","","","","","","","","","","","","","","","",""
"","","","","","canvas-keyboard-response","116","250534","0.0-12.0-4.20","2d_cat_multi_stim_exp1","2022-4-6","15:54:28","25","75","3","9","10","40","30","120","18","20","[""Asian"",""White""]","No","Female","1747835","null","null","","","","clear_screen","","","","","","","","","","","","","","","","","","","","","","","","","",""
"","","","","","canvas-keyboard-response","117","251044","0.0-12.0-0.21","2d_cat_multi_stim_exp1","2022-4-6","15:54:28","25","75","3","9","10","40","30","120","18","20","[""Asian"",""White""]","No","Female","1747835","null","null","","","","fixation","","","","","","","","","","","","","","","","","","","","","","","","","",""
"","","","","","canvas-keyboard-response","118","251552","0.0-12.0-1.21","2d_cat_multi_stim_exp1","2022-4-6","15:54:28","25","75","3","9","10","40","30","120","18","20","[""Asian"",""White""]","No","Female","1747835","null","null","","","","clear_screen","","","","","","","","","","","","","","","","","","","","","","","","","",""
"","","","","","canvas-keyboard-response","119","252251","0.0-12.0-2.21","2d_cat_multi_stim_exp1","2022-4-6","15:54:28","25","75","3","9","10","40","30","120","18","20","[""Asian"",""White""]","No","Female","1747835","691","i","learn","","","learn_trial","10","50","out","0","1","","","","","","","","","","","","","","","","","","","","",""
"","","","","","canvas-keyboard-response","120","252761","0.0-12.0-3.21","2d_cat_multi_stim_exp1","2022-4-6","15:54:28","25","75","3","9","10","40","30","120","18","20","[""Asian"",""White""]","No","Female","1747835","null","null","learn_feedback","","","learn_feedback","10","50","out","","","","","","","","","","","","","","","","","","","","","","",""
"","","","","","canvas-keyboard-response","121","252819","0.0-12.0-4.21","2d_cat_multi_stim_exp1","2022-4-6","15:54:28","25","75","3","9","10","40","30","120","18","20","[""Asian"",""White""]","No","Female","1747835","null","null","","","","clear_screen","","","","","","","","","","","","","","","","","","","","","","","","","",""
"","","","","","canvas-keyboard-response","122","253327","0.0-12.0-0.22","2d_cat_multi_stim_exp1","2022-4-6","15:54:28","25","75","3","9","10","40","30","120","18","20","[""Asian"",""White""]","No","Female","1747835","null","null","","","","fixation","","","","","","","","","","","","","","","","","","","","","","","","","",""
"","","","","","canvas-keyboard-response","123","253836","0.0-12.0-1.22","2d_cat_multi_stim_exp1","2022-4-6","15:54:28","25","75","3","9","10","40","30","120","18","20","[""Asian"",""White""]","No","Female","1747835","null","null","","","","clear_screen","","","","","","","","","","","","","","","","","","","","","","","","","",""
"","","","","","canvas-keyboard-response","124","256691","0.0-12.0-2.22","2d_cat_multi_stim_exp1","2022-4-6","15:54:28","25","75","3","9","10","40","30","120","18","20","[""Asian"",""White""]","No","Female","1747835","2847","u","learn","","","learn_trial","36.6667","110","out","1","0","","","","","","","","","","","","","","","","","","","","",""
"","","","","","canvas-keyboard-response","125","257700","0.0-12.0-3.22","2d_cat_multi_stim_exp1","2022-4-6","15:54:28","25","75","3","9","10","40","30","120","18","20","[""Asian"",""White""]","No","Female","1747835","null","null","learn_feedback","","","learn_feedback","36.6667","110","out","","","","","","","","","","","","","","","","","","","","","","",""
"","","","","","canvas-keyboard-response","126","257759","0.0-12.0-4.22","2d_cat_multi_stim_exp1","2022-4-6","15:54:28","25","75","3","9","10","40","30","120","18","20","[""Asian"",""White""]","No","Female","1747835","null","null","","","","clear_screen","","","","","","","","","","","","","","","","","","","","","","","","","",""
"","","","","","canvas-keyboard-response","127","258267","0.0-12.0-0.23","2d_cat_multi_stim_exp1","2022-4-6","15:54:28","25","75","3","9","10","40","30","120","18","20","[""Asian"",""White""]","No","Female","1747835","null","null","","","","fixation","","","","","","","","","","","","","","","","","","","","","","","","","",""
"","","","","","canvas-keyboard-response","128","258776","0.0-12.0-1.23","2d_cat_multi_stim_exp1","2022-4-6","15:54:28","25","75","3","9","10","40","30","120","18","20","[""Asian"",""White""]","No","Female","1747835","null","null","","","","clear_screen","","","","","","","","","","","","","","","","","","","","","","","","","",""
"","","","","","canvas-keyboard-response","129","259883","0.0-12.0-2.23","2d_cat_multi_stim_exp1","2022-4-6","15:54:28","25","75","3","9","10","40","30","120","18","20","[""Asian"",""White""]","No","Female","1747835","1099","i","learn","","","learn_trial","16.6667","90","out","0","1","","","","","","","","","","","","","","","","","","","","",""
"","","","","","canvas-keyboard-response","130","260392","0.0-12.0-3.23","2d_cat_multi_stim_exp1","2022-4-6","15:54:28","25","75","3","9","10","40","30","120","18","20","[""Asian"",""White""]","No","Female","1747835","null","null","learn_feedback","","","learn_feedback","16.6667","90","out","","","","","","","","","","","","","","","","","","","","","","",""
"","","","","","canvas-keyboard-response","131","260451","0.0-12.0-4.23","2d_cat_multi_stim_exp1","2022-4-6","15:54:28","25","75","3","9","10","40","30","120","18","20","[""Asian"",""White""]","No","Female","1747835","null","null","","","","clear_screen","","","","","","","","","","","","","","","","","","","","","","","","","",""
"","","","","","canvas-keyboard-response","132","260958","0.0-12.0-0.24","2d_cat_multi_stim_exp1","2022-4-6","15:54:28","25","75","3","9","10","40","30","120","18","20","[""Asian"",""White""]","No","Female","1747835","null","null","","","","fixation","","","","","","","","","","","","","","","","","","","","","","","","","",""
"","","","","","canvas-keyboard-response","133","261467","0.0-12.0-1.24","2d_cat_multi_stim_exp1","2022-4-6","15:54:28","25","75","3","9","10","40","30","120","18","20","[""Asian"",""White""]","No","Female","1747835","null","null","","","","clear_screen","","","","","","","","","","","","","","","","","","","","","","","","","",""
"","","","","","canvas-keyboard-response","134","262395","0.0-12.0-2.24","2d_cat_multi_stim_exp1","2022-4-6","15:54:28","25","75","3","9","10","40","30","120","18","20","[""Asian"",""White""]","No","Female","1747835","920","u","learn","","","learn_trial","25","93","in","1","1","","","","","","","","","","","","","","","","","","","","",""
"","","","","","canvas-keyboard-response","135","262904","0.0-12.0-3.24","2d_cat_multi_stim_exp1","2022-4-6","15:54:28","25","75","3","9","10","40","30","120","18","20","[""Asian"",""White""]","No","Female","1747835","null","null","learn_feedback","","","learn_feedback","25","93","in","","","","","","","","","","","","","","","","","","","","","","",""
"","","","","","canvas-keyboard-response","136","262962","0.0-12.0-4.24","2d_cat_multi_stim_exp1","2022-4-6","15:54:28","25","75","3","9","10","40","30","120","18","20","[""Asian"",""White""]","No","Female","1747835","null","null","","","","clear_screen","","","","","","","","","","","","","","","","","","","","","","","","","",""
"","","","","","canvas-keyboard-response","137","263469","0.0-12.0-0.25","2d_cat_multi_stim_exp1","2022-4-6","15:54:28","25","75","3","9","10","40","30","120","18","20","[""Asian"",""White""]","No","Female","1747835","null","null","","","","fixation","","","","","","","","","","","","","","","","","","","","","","","","","",""
"","","","","","canvas-keyboard-response","138","263977","0.0-12.0-1.25","2d_cat_multi_stim_exp1","2022-4-6","15:54:28","25","75","3","9","10","40","30","120","18","20","[""Asian"",""White""]","No","Female","1747835","null","null","","","","clear_screen","","","","","","","","","","","","","","","","","","","","","","","","","",""
"","","","","","canvas-keyboard-response","139","264668","0.0-12.0-2.25","2d_cat_multi_stim_exp1","2022-4-6","15:54:28","25","75","3","9","10","40","30","120","18","20","[""Asian"",""White""]","No","Female","1747835","681","u","learn","","","learn_trial","23.3473","82.5112","in","1","1","","","","","","","","","","","","","","","","","","","","",""
"","","","","","canvas-keyboard-response","140","265177","0.0-12.0-3.25","2d_cat_multi_stim_exp1","2022-4-6","15:54:28","25","75","3","9","10","40","30","120","18","20","[""Asian"",""White""]","No","Female","1747835","null","null","learn_feedback","","","learn_feedback","23.3473","82.5112","in","","","","","","","","","","","","","","","","","","","","","","",""
"","","","","","canvas-keyboard-response","141","265235","0.0-12.0-4.25","2d_cat_multi_stim_exp1","2022-4-6","15:54:28","25","75","3","9","10","40","30","120","18","20","[""Asian"",""White""]","No","Female","1747835","null","null","","","","clear_screen","","","","","","","","","","","","","","","","","","","","","","","","","",""
"","","","","","canvas-keyboard-response","142","265743","0.0-12.0-0.26","2d_cat_multi_stim_exp1","2022-4-6","15:54:28","25","75","3","9","10","40","30","120","18","20","[""Asian"",""White""]","No","Female","1747835","null","null","","","","fixation","","","","","","","","","","","","","","","","","","","","","","","","","",""
"","","","","","canvas-keyboard-response","143","266250","0.0-12.0-1.26","2d_cat_multi_stim_exp1","2022-4-6","15:54:28","25","75","3","9","10","40","30","120","18","20","[""Asian"",""White""]","No","Female","1747835","null","null","","","","clear_screen","","","","","","","","","","","","","","","","","","","","","","","","","",""
"","","","","","canvas-keyboard-response","144","267115","0.0-12.0-2.26","2d_cat_multi_stim_exp1","2022-4-6","15:54:28","25","75","3","9","10","40","30","120","18","20","[""Asian"",""White""]","No","Female","1747835","855","i","learn","","","learn_trial","13.3333","80","out","0","1","","","","","","","","","","","","","","","","","","","","",""
"","","","","","canvas-keyboard-response","145","267624","0.0-12.0-3.26","2d_cat_multi_stim_exp1","2022-4-6","15:54:28","25","75","3","9","10","40","30","120","18","20","[""Asian"",""White""]","No","Female","1747835","null","null","learn_feedback","","","learn_feedback","13.3333","80","out","","","","","","","","","","","","","","","","","","","","","","",""
"","","","","","canvas-keyboard-response","146","267684","0.0-12.0-4.26","2d_cat_multi_stim_exp1","2022-4-6","15:54:28","25","75","3","9","10","40","30","120","18","20","[""Asian"",""White""]","No","Female","1747835","null","null","","","","clear_screen","","","","","","","","","","","","","","","","","","","","","","","","","",""
"","","","","","canvas-keyboard-response","147","268192","0.0-12.0-0.27","2d_cat_multi_stim_exp1","2022-4-6","15:54:28","25","75","3","9","10","40","30","120","18","20","[""Asian"",""White""]","No","Female","1747835","null","null","","","","fixation","","","","","","","","","","","","","","","","","","","","","","","","","",""
"","","","","","canvas-keyboard-response","148","268700","0.0-12.0-1.27","2d_cat_multi_stim_exp1","2022-4-6","15:54:28","25","75","3","9","10","40","30","120","18","20","[""Asian"",""White""]","No","Female","1747835","null","null","","","","clear_screen","","","","","","","","","","","","","","","","","","","","","","","","","",""
"","","","","","canvas-keyboard-response","149","269475","0.0-12.0-2.27","2d_cat_multi_stim_exp1","2022-4-6","15:54:28","25","75","3","9","10","40","30","120","18","20","[""Asian"",""White""]","No","Female","1747835","765","i","learn","","","learn_trial","13.3333","60","out","0","1","","","","","","","","","","","","","","","","","","","","",""
"","","","","","canvas-keyboard-response","150","269984","0.0-12.0-3.27","2d_cat_multi_stim_exp1","2022-4-6","15:54:28","25","75","3","9","10","40","30","120","18","20","[""Asian"",""White""]","No","Female","1747835","null","null","learn_feedback","","","learn_feedback","13.3333","60","out","","","","","","","","","","","","","","","","","","","","","","",""
"","","","","","canvas-keyboard-response","151","270042","0.0-12.0-4.27","2d_cat_multi_stim_exp1","2022-4-6","15:54:28","25","75","3","9","10","40","30","120","18","20","[""Asian"",""White""]","No","Female","1747835","null","null","","","","clear_screen","","","","","","","","","","","","","","","","","","","","","","","","","",""
"","","","","","canvas-keyboard-response","152","270551","0.0-12.0-0.28","2d_cat_multi_stim_exp1","2022-4-6","15:54:28","25","75","3","9","10","40","30","120","18","20","[""Asian"",""White""]","No","Female","1747835","null","null","","","","fixation","","","","","","","","","","","","","","","","","","","","","","","","","",""
"","","","","","canvas-keyboard-response","153","271060","0.0-12.0-1.28","2d_cat_multi_stim_exp1","2022-4-6","15:54:28","25","75","3","9","10","40","30","120","18","20","[""Asian"",""White""]","No","Female","1747835","null","null","","","","clear_screen","","","","","","","","","","","","","","","","","","","","","","","","","",""
"","","","","","canvas-keyboard-response","154","272019","0.0-12.0-2.28","2d_cat_multi_stim_exp1","2022-4-6","15:54:28","25","75","3","9","10","40","30","120","18","20","[""Asian"",""White""]","No","Female","1747835","951","i","learn","","","learn_trial","30","80","out","0","1","","","","","","","","","","","","","","","","","","","","",""
"","","","","","canvas-keyboard-response","155","272528","0.0-12.0-3.28","2d_cat_multi_stim_exp1","2022-4-6","15:54:28","25","75","3","9","10","40","30","120","18","20","[""Asian"",""White""]","No","Female","1747835","null","null","learn_feedback","","","learn_feedback","30","80","out","","","","","","","","","","","","","","","","","","","","","","",""
"","","","","","canvas-keyboard-response","156","272585","0.0-12.0-4.28","2d_cat_multi_stim_exp1","2022-4-6","15:54:28","25","75","3","9","10","40","30","120","18","20","[""Asian"",""White""]","No","Female","1747835","null","null","","","","clear_screen","","","","","","","","","","","","","","","","","","","","","","","","","",""
"","","","","","canvas-keyboard-response","157","273093","0.0-12.0-0.29","2d_cat_multi_stim_exp1","2022-4-6","15:54:28","25","75","3","9","10","40","30","120","18","20","[""Asian"",""White""]","No","Female","1747835","null","null","","","","fixation","","","","","","","","","","","","","","","","","","","","","","","","","",""
"","","","","","canvas-keyboard-response","158","273602","0.0-12.0-1.29","2d_cat_multi_stim_exp1","2022-4-6","15:54:28","25","75","3","9","10","40","30","120","18","20","[""Asian"",""White""]","No","Female","1747835","null","null","","","","clear_screen","","","","","","","","","","","","","","","","","","","","","","","","","",""
"","","","","","canvas-keyboard-response","159","274395","0.0-12.0-2.29","2d_cat_multi_stim_exp1","2022-4-6","15:54:28","25","75","3","9","10","40","30","120","18","20","[""Asian"",""White""]","No","Female","1747835","785","u","learn","","","learn_trial","25","75","in","1","1","","","","","","","","","","","","","","","","","","","","",""
"","","","","","canvas-keyboard-response","160","274904","0.0-12.0-3.29","2d_cat_multi_stim_exp1","2022-4-6","15:54:28","25","75","3","9","10","40","30","120","18","20","[""Asian"",""White""]","No","Female","1747835","null","null","learn_feedback","","","learn_feedback","25","75","in","","","","","","","","","","","","","","","","","","","","","","",""
"","","","","","canvas-keyboard-response","161","274962","0.0-12.0-4.29","2d_cat_multi_stim_exp1","2022-4-6","15:54:28","25","75","3","9","10","40","30","120","18","20","[""Asian"",""White""]","No","Female","1747835","null","null","","","","clear_screen","","","","","","","","","","","","","","","","","","","","","","","","","",""
"","","","","","canvas-keyboard-response","162","275471","0.0-12.0-0.30","2d_cat_multi_stim_exp1","2022-4-6","15:54:28","25","75","3","9","10","40","30","120","18","20","[""Asian"",""White""]","No","Female","1747835","null","null","","","","fixation","","","","","","","","","","","","","","","","","","","","","","","","","",""
"","","","","","canvas-keyboard-response","163","275984","0.0-12.0-1.30","2d_cat_multi_stim_exp1","2022-4-6","15:54:28","25","75","3","9","10","40","30","120","18","20","[""Asian"",""White""]","No","Female","1747835","null","null","","","","clear_screen","","","","","","","","","","","","","","","","","","","","","","","","","",""
"","","","","","canvas-keyboard-response","164","276692","0.0-12.0-2.30","2d_cat_multi_stim_exp1","2022-4-6","15:54:28","25","75","3","9","10","40","30","120","18","20","[""Asian"",""White""]","No","Female","1747835","697","u","learn","","","learn_trial","23.3333","80","out","1","0","","","","","","","","","","","","","","","","","","","","",""
"","","","","","canvas-keyboard-response","165","277702","0.0-12.0-3.30","2d_cat_multi_stim_exp1","2022-4-6","15:54:28","25","75","3","9","10","40","30","120","18","20","[""Asian"",""White""]","No","Female","1747835","null","null","learn_feedback","","","learn_feedback","23.3333","80","out","","","","","","","","","","","","","","","","","","","","","","",""
"","","","","","canvas-keyboard-response","166","277761","0.0-12.0-4.30","2d_cat_multi_stim_exp1","2022-4-6","15:54:28","25","75","3","9","10","40","30","120","18","20","[""Asian"",""White""]","No","Female","1747835","null","null","","","","clear_screen","","","","","","","","","","","","","","","","","","","","","","","","","",""
"","","","","","canvas-keyboard-response","167","278270","0.0-12.0-0.31","2d_cat_multi_stim_exp1","2022-4-6","15:54:28","25","75","3","9","10","40","30","120","18","20","[""Asian"",""White""]","No","Female","1747835","null","null","","","","fixation","","","","","","","","","","","","","","","","","","","","","","","","","",""
"","","","","","canvas-keyboard-response","168","278780","0.0-12.0-1.31","2d_cat_multi_stim_exp1","2022-4-6","15:54:28","25","75","3","9","10","40","30","120","18","20","[""Asian"",""White""]","No","Female","1747835","null","null","","","","clear_screen","","","","","","","","","","","","","","","","","","","","","","","","","",""
"","","","","","canvas-keyboard-response","169","282091","0.0-12.0-2.31","2d_cat_multi_stim_exp1","2022-4-6","15:54:28","25","75","3","9","10","40","30","120","18","20","[""Asian"",""White""]","No","Female","1747835","3302","i","learn","","","learn_trial","31","75","in","0","0","","","","","","","","","","","","","","","","","","","","",""
"","","","","","canvas-keyboard-response","170","283101","0.0-12.0-3.31","2d_cat_multi_stim_exp1","2022-4-6","15:54:28","25","75","3","9","10","40","30","120","18","20","[""Asian"",""White""]","No","Female","1747835","null","null","learn_feedback","","","learn_feedback","31","75","in","","","","","","","","","","","","","","","","","","","","","","",""
"","","","","","canvas-keyboard-response","171","283159","0.0-12.0-4.31","2d_cat_multi_stim_exp1","2022-4-6","15:54:28","25","75","3","9","10","40","30","120","18","20","[""Asian"",""White""]","No","Female","1747835","null","null","","","","clear_screen","","","","","","","","","","","","","","","","","","","","","","","","","",""
"","","","","","canvas-keyboard-response","172","283668","0.0-12.0-0.32","2d_cat_multi_stim_exp1","2022-4-6","15:54:28","25","75","3","9","10","40","30","120","18","20","[""Asian"",""White""]","No","Female","1747835","null","null","","","","fixation","","","","","","","","","","","","","","","","","","","","","","","","","",""
"","","","","","canvas-keyboard-response","173","284177","0.0-12.0-1.32","2d_cat_multi_stim_exp1","2022-4-6","15:54:28","25","75","3","9","10","40","30","120","18","20","[""Asian"",""White""]","No","Female","1747835","null","null","","","","clear_screen","","","","","","","","","","","","","","","","","","","","","","","","","",""
"","","","","","canvas-keyboard-response","174","284964","0.0-12.0-2.32","2d_cat_multi_stim_exp1","2022-4-6","15:54:28","25","75","3","9","10","40","30","120","18","20","[""Asian"",""White""]","No","Female","1747835","777","i","learn","","","learn_trial","26.6667","50","out","0","1","","","","","","","","","","","","","","","","","","","","",""
"","","","","","canvas-keyboard-response","175","285473","0.0-12.0-3.32","2d_cat_multi_stim_exp1","2022-4-6","15:54:28","25","75","3","9","10","40","30","120","18","20","[""Asian"",""White""]","No","Female","1747835","null","null","learn_feedback","","","learn_feedback","26.6667","50","out","","","","","","","","","","","","","","","","","","","","","","",""
"","","","","","canvas-keyboard-response","176","285531","0.0-12.0-4.32","2d_cat_multi_stim_exp1","2022-4-6","15:54:28","25","75","3","9","10","40","30","120","18","20","[""Asian"",""White""]","No","Female","1747835","null","null","","","","clear_screen","","","","","","","","","","","","","","","","","","","","","","","","","",""
"","","","","","canvas-keyboard-response","177","286039","0.0-12.0-0.33","2d_cat_multi_stim_exp1","2022-4-6","15:54:28","25","75","3","9","10","40","30","120","18","20","[""Asian"",""White""]","No","Female","1747835","null","null","","","","fixation","","","","","","","","","","","","","","","","","","","","","","","","","",""
"","","","","","canvas-keyboard-response","178","286548","0.0-12.0-1.33","2d_cat_multi_stim_exp1","2022-4-6","15:54:28","25","75","3","9","10","40","30","120","18","20","[""Asian"",""White""]","No","Female","1747835","null","null","","","","clear_screen","","","","","","","","","","","","","","","","","","","","","","","","","",""
"","","","","","canvas-keyboard-response","179","287180","0.0-12.0-2.33","2d_cat_multi_stim_exp1","2022-4-6","15:54:28","25","75","3","9","10","40","30","120","18","20","[""Asian"",""White""]","No","Female","1747835","618","i","learn","","","learn_trial","16.6667","40","out","0","1","","","","","","","","","","","","","","","","","","","","",""
"","","","","","canvas-keyboard-response","180","287688","0.0-12.0-3.33","2d_cat_multi_stim_exp1","2022-4-6","15:54:28","25","75","3","9","10","40","30","120","18","20","[""Asian"",""White""]","No","Female","1747835","null","null","learn_feedback","","","learn_feedback","16.6667","40","out","","","","","","","","","","","","","","","","","","","","","","",""
"","","","","","canvas-keyboard-response","181","287746","0.0-12.0-4.33","2d_cat_multi_stim_exp1","2022-4-6","15:54:28","25","75","3","9","10","40","30","120","18","20","[""Asian"",""White""]","No","Female","1747835","null","null","","","","clear_screen","","","","","","","","","","","","","","","","","","","","","","","","","",""
"","","","","","canvas-keyboard-response","182","288255","0.0-12.0-0.34","2d_cat_multi_stim_exp1","2022-4-6","15:54:28","25","75","3","9","10","40","30","120","18","20","[""Asian"",""White""]","No","Female","1747835","null","null","","","","fixation","","","","","","","","","","","","","","","","","","","","","","","","","",""
"","","","","","canvas-keyboard-response","183","288764","0.0-12.0-1.34","2d_cat_multi_stim_exp1","2022-4-6","15:54:28","25","75","3","9","10","40","30","120","18","20","[""Asian"",""White""]","No","Female","1747835","null","null","","","","clear_screen","","","","","","","","","","","","","","","","","","","","","","","","","",""
"","","","","","canvas-keyboard-response","184","289427","0.0-12.0-2.34","2d_cat_multi_stim_exp1","2022-4-6","15:54:28","25","75","3","9","10","40","30","120","18","20","[""Asian"",""White""]","No","Female","1747835","656","u","learn","","","learn_trial","24.8654","83.9909","in","1","1","","","","","","","","","","","","","","","","","","","","",""
"","","","","","canvas-keyboard-response","185","289936","0.0-12.0-3.34","2d_cat_multi_stim_exp1","2022-4-6","15:54:28","25","75","3","9","10","40","30","120","18","20","[""Asian"",""White""]","No","Female","1747835","null","null","learn_feedback","","","learn_feedback","24.8654","83.9909","in","","","","","","","","","","","","","","","","","","","","","","",""
"","","","","","canvas-keyboard-response","186","289994","0.0-12.0-4.34","2d_cat_multi_stim_exp1","2022-4-6","15:54:28","25","75","3","9","10","40","30","120","18","20","[""Asian"",""White""]","No","Female","1747835","null","null","","","","clear_screen","","","","","","","","","","","","","","","","","","","","","","","","","",""
"","","","","","canvas-keyboard-response","187","290502","0.0-12.0-0.35","2d_cat_multi_stim_exp1","2022-4-6","15:54:28","25","75","3","9","10","40","30","120","18","20","[""Asian"",""White""]","No","Female","1747835","null","null","","","","fixation","","","","","","","","","","","","","","","","","","","","","","","","","",""
"","","","","","canvas-keyboard-response","188","291012","0.0-12.0-1.35","2d_cat_multi_stim_exp1","2022-4-6","15:54:28","25","75","3","9","10","40","30","120","18","20","[""Asian"",""White""]","No","Female","1747835","null","null","","","","clear_screen","","","","","","","","","","","","","","","","","","","","","","","","","",""
"","","","","","canvas-keyboard-response","189","291643","0.0-12.0-2.35","2d_cat_multi_stim_exp1","2022-4-6","15:54:28","25","75","3","9","10","40","30","120","18","20","[""Asian"",""White""]","No","Female","1747835","623","i","learn","","","learn_trial","36.6667","40","out","0","1","","","","","","","","","","","","","","","","","","","","",""
"","","","","","canvas-keyboard-response","190","292152","0.0-12.0-3.35","2d_cat_multi_stim_exp1","2022-4-6","15:54:28","25","75","3","9","10","40","30","120","18","20","[""Asian"",""White""]","No","Female","1747835","null","null","learn_feedback","","","learn_feedback","36.6667","40","out","","","","","","","","","","","","","","","","","","","","","","",""
"","","","","","canvas-keyboard-response","191","292209","0.0-12.0-4.35","2d_cat_multi_stim_exp1","2022-4-6","15:54:28","25","75","3","9","10","40","30","120","18","20","[""Asian"",""White""]","No","Female","1747835","null","null","","","","clear_screen","","","","","","","","","","","","","","","","","","","","","","","","","",""
"","","","","","canvas-keyboard-response","192","292718","0.0-12.0-0.36","2d_cat_multi_stim_exp1","2022-4-6","15:54:28","25","75","3","9","10","40","30","120","18","20","[""Asian"",""White""]","No","Female","1747835","null","null","","","","fixation","","","","","","","","","","","","","","","","","","","","","","","","","",""
"","","","","","canvas-keyboard-response","193","293227","0.0-12.0-1.36","2d_cat_multi_stim_exp1","2022-4-6","15:54:28","25","75","3","9","10","40","30","120","18","20","[""Asian"",""White""]","No","Female","1747835","null","null","","","","clear_screen","","","","","","","","","","","","","","","","","","","","","","","","","",""
"","","","","","canvas-keyboard-response","194","294043","0.0-12.0-2.36","2d_cat_multi_stim_exp1","2022-4-6","15:54:28","25","75","3","9","10","40","30","120","18","20","[""Asian"",""White""]","No","Female","1747835","803","u","learn","","","learn_trial","25","75","in","1","1","","","","","","","","","","","","","","","","","","","","",""
"","","","","","canvas-keyboard-response","195","294552","0.0-12.0-3.36","2d_cat_multi_stim_exp1","2022-4-6","15:54:28","25","75","3","9","10","40","30","120","18","20","[""Asian"",""White""]","No","Female","1747835","null","null","learn_feedback","","","learn_feedback","25","75","in","","","","","","","","","","","","","","","","","","","","","","",""
"","","","","","canvas-keyboard-response","196","294610","0.0-12.0-4.36","2d_cat_multi_stim_exp1","2022-4-6","15:54:28","25","75","3","9","10","40","30","120","18","20","[""Asian"",""White""]","No","Female","1747835","null","null","","","","clear_screen","","","","","","","","","","","","","","","","","","","","","","","","","",""
"","","","","","canvas-keyboard-response","197","295118","0.0-12.0-0.37","2d_cat_multi_stim_exp1","2022-4-6","15:54:28","25","75","3","9","10","40","30","120","18","20","[""Asian"",""White""]","No","Female","1747835","null","null","","","","fixation","","","","","","","","","","","","","","","","","","","","","","","","","",""
"","","","","","canvas-keyboard-response","198","295627","0.0-12.0-1.37","2d_cat_multi_stim_exp1","2022-4-6","15:54:28","25","75","3","9","10","40","30","120","18","20","[""Asian"",""White""]","No","Female","1747835","null","null","","","","clear_screen","","","","","","","","","","","","","","","","","","","","","","","","","",""
"","","","","","canvas-keyboard-response","199","296371","0.0-12.0-2.37","2d_cat_multi_stim_exp1","2022-4-6","15:54:28","25","75","3","9","10","40","30","120","18","20","[""Asian"",""White""]","No","Female","1747835","736","u","learn","","","learn_trial","25","75","in","1","1","","","","","","","","","","","","","","","","","","","","",""
"","","","","","canvas-keyboard-response","200","296881","0.0-12.0-3.37","2d_cat_multi_stim_exp1","2022-4-6","15:54:28","25","75","3","9","10","40","30","120","18","20","[""Asian"",""White""]","No","Female","1747835","null","null","learn_feedback","","","learn_feedback","25","75","in","","","","","","","","","","","","","","","","","","","","","","",""
"","","","","","canvas-keyboard-response","201","296939","0.0-12.0-4.37","2d_cat_multi_stim_exp1","2022-4-6","15:54:28","25","75","3","9","10","40","30","120","18","20","[""Asian"",""White""]","No","Female","1747835","null","null","","","","clear_screen","","","","","","","","","","","","","","","","","","","","","","","","","",""
"","","","","","canvas-keyboard-response","202","297446","0.0-12.0-0.38","2d_cat_multi_stim_exp1","2022-4-6","15:54:28","25","75","3","9","10","40","30","120","18","20","[""Asian"",""White""]","No","Female","1747835","null","null","","","","fixation","","","","","","","","","","","","","","","","","","","","","","","","","",""
"","","","","","canvas-keyboard-response","203","297955","0.0-12.0-1.38","2d_cat_multi_stim_exp1","2022-4-6","15:54:28","25","75","3","9","10","40","30","120","18","20","[""Asian"",""White""]","No","Female","1747835","null","null","","","","clear_screen","","","","","","","","","","","","","","","","","","","","","","","","","",""
"","","","","","canvas-keyboard-response","204","298691","0.0-12.0-2.38","2d_cat_multi_stim_exp1","2022-4-6","15:54:28","25","75","3","9","10","40","30","120","18","20","[""Asian"",""White""]","No","Female","1747835","727","i","learn","","","learn_trial","40","120","out","0","1","","","","","","","","","","","","","","","","","","","","",""
"","","","","","canvas-keyboard-response","205","299199","0.0-12.0-3.38","2d_cat_multi_stim_exp1","2022-4-6","15:54:28","25","75","3","9","10","40","30","120","18","20","[""Asian"",""White""]","No","Female","1747835","null","null","learn_feedback","","","learn_feedback","40","120","out","","","","","","","","","","","","","","","","","","","","","","",""
"","","","","","canvas-keyboard-response","206","299257","0.0-12.0-4.38","2d_cat_multi_stim_exp1","2022-4-6","15:54:28","25","75","3","9","10","40","30","120","18","20","[""Asian"",""White""]","No","Female","1747835","null","null","","","","clear_screen","","","","","","","","","","","","","","","","","","","","","","","","","",""
"","","","","","canvas-keyboard-response","207","299766","0.0-12.0-0.39","2d_cat_multi_stim_exp1","2022-4-6","15:54:28","25","75","3","9","10","40","30","120","18","20","[""Asian"",""White""]","No","Female","1747835","null","null","","","","fixation","","","","","","","","","","","","","","","","","","","","","","","","","",""
"","","","","","canvas-keyboard-response","208","300274","0.0-12.0-1.39","2d_cat_multi_stim_exp1","2022-4-6","15:54:28","25","75","3","9","10","40","30","120","18","20","[""Asian"",""White""]","No","Female","1747835","null","null","","","","clear_screen","","","","","","","","","","","","","","","","","","","","","","","","","",""
"","","","","","canvas-keyboard-response","209","301331","0.0-12.0-2.39","2d_cat_multi_stim_exp1","2022-4-6","15:54:28","25","75","3","9","10","40","30","120","18","20","[""Asian"",""White""]","No","Female","1747835","1047","u","learn","","","learn_trial","23.3473","67.4888","in","1","1","","","","","","","","","","","","","","","","","","","","",""
"","","","","","canvas-keyboard-response","210","301841","0.0-12.0-3.39","2d_cat_multi_stim_exp1","2022-4-6","15:54:28","25","75","3","9","10","40","30","120","18","20","[""Asian"",""White""]","No","Female","1747835","null","null","learn_feedback","","","learn_feedback","23.3473","67.4888","in","","","","","","","","","","","","","","","","","","","","","","",""
"","","","","","canvas-keyboard-response","211","301899","0.0-12.0-4.39","2d_cat_multi_stim_exp1","2022-4-6","15:54:28","25","75","3","9","10","40","30","120","18","20","[""Asian"",""White""]","No","Female","1747835","null","null","","","","clear_screen","","","","","","","","","","","","","","","","","","","","","","","","","",""
"","","","","","canvas-keyboard-response","212","302407","0.0-12.0-0.40","2d_cat_multi_stim_exp1","2022-4-6","15:54:28","25","75","3","9","10","40","30","120","18","20","[""Asian"",""White""]","No","Female","1747835","null","null","","","","fixation","","","","","","","","","","","","","","","","","","","","","","","","","",""
"","","","","","canvas-keyboard-response","213","302915","0.0-12.0-1.40","2d_cat_multi_stim_exp1","2022-4-6","15:54:28","25","75","3","9","10","40","30","120","18","20","[""Asian"",""White""]","No","Female","1747835","null","null","","","","clear_screen","","","","","","","","","","","","","","","","","","","","","","","","","",""
"","","","","","canvas-keyboard-response","214","303651","0.0-12.0-2.40","2d_cat_multi_stim_exp1","2022-4-6","15:54:28","25","75","3","9","10","40","30","120","18","20","[""Asian"",""White""]","No","Female","1747835","727","i","learn","","","learn_trial","20","70","out","0","1","","","","","","","","","","","","","","","","","","","","",""
"","","","","","canvas-keyboard-response","215","304161","0.0-12.0-3.40","2d_cat_multi_stim_exp1","2022-4-6","15:54:28","25","75","3","9","10","40","30","120","18","20","[""Asian"",""White""]","No","Female","1747835","null","null","learn_feedback","","","learn_feedback","20","70","out","","","","","","","","","","","","","","","","","","","","","","",""
"","","","","","canvas-keyboard-response","216","304219","0.0-12.0-4.40","2d_cat_multi_stim_exp1","2022-4-6","15:54:28","25","75","3","9","10","40","30","120","18","20","[""Asian"",""White""]","No","Female","1747835","null","null","","","","clear_screen","","","","","","","","","","","","","","","","","","","","","","","","","",""
"","","","","","canvas-keyboard-response","217","304727","0.0-12.0-0.41","2d_cat_multi_stim_exp1","2022-4-6","15:54:28","25","75","3","9","10","40","30","120","18","20","[""Asian"",""White""]","No","Female","1747835","null","null","","","","fixation","","","","","","","","","","","","","","","","","","","","","","","","","",""
"","","","","","canvas-keyboard-response","218","305235","0.0-12.0-1.41","2d_cat_multi_stim_exp1","2022-4-6","15:54:28","25","75","3","9","10","40","30","120","18","20","[""Asian"",""White""]","No","Female","1747835","null","null","","","","clear_screen","","","","","","","","","","","","","","","","","","","","","","","","","",""
"","","","","","canvas-keyboard-response","219","306139","0.0-12.0-2.41","2d_cat_multi_stim_exp1","2022-4-6","15:54:28","25","75","3","9","10","40","30","120","18","20","[""Asian"",""White""]","No","Female","1747835","895","u","learn","","","learn_trial","33.3333","80","out","1","0","","","","","","","","","","","","","","","","","","","","",""
"","","","","","canvas-keyboard-response","220","307148","0.0-12.0-3.41","2d_cat_multi_stim_exp1","2022-4-6","15:54:28","25","75","3","9","10","40","30","120","18","20","[""Asian"",""White""]","No","Female","1747835","null","null","learn_feedback","","","learn_feedback","33.3333","80","out","","","","","","","","","","","","","","","","","","","","","","",""
"","","","","","canvas-keyboard-response","221","307206","0.0-12.0-4.41","2d_cat_multi_stim_exp1","2022-4-6","15:54:28","25","75","3","9","10","40","30","120","18","20","[""Asian"",""White""]","No","Female","1747835","null","null","","","","clear_screen","","","","","","","","","","","","","","","","","","","","","","","","","",""
"","","","","","canvas-keyboard-response","222","307714","0.0-12.0-0.42","2d_cat_multi_stim_exp1","2022-4-6","15:54:28","25","75","3","9","10","40","30","120","18","20","[""Asian"",""White""]","No","Female","1747835","null","null","","","","fixation","","","","","","","","","","","","","","","","","","","","","","","","","",""
"","","","","","canvas-keyboard-response","223","308222","0.0-12.0-1.42","2d_cat_multi_stim_exp1","2022-4-6","15:54:28","25","75","3","9","10","40","30","120","18","20","[""Asian"",""White""]","No","Female","1747835","null","null","","","","clear_screen","","","","","","","","","","","","","","","","","","","","","","","","","",""
"","","","","","canvas-keyboard-response","224","310204","0.0-12.0-2.42","2d_cat_multi_stim_exp1","2022-4-6","15:54:28","25","75","3","9","10","40","30","120","18","20","[""Asian"",""White""]","No","Female","1747835","1973","i","learn","","","learn_trial","36.6667","120","out","0","1","","","","","","","","","","","","","","","","","","","","",""
"","","","","","canvas-keyboard-response","225","310717","0.0-12.0-3.42","2d_cat_multi_stim_exp1","2022-4-6","15:54:28","25","75","3","9","10","40","30","120","18","20","[""Asian"",""White""]","No","Female","1747835","null","null","learn_feedback","","","learn_feedback","36.6667","120","out","","","","","","","","","","","","","","","","","","","","","","",""
"","","","","","canvas-keyboard-response","226","310778","0.0-12.0-4.42","2d_cat_multi_stim_exp1","2022-4-6","15:54:28","25","75","3","9","10","40","30","120","18","20","[""Asian"",""White""]","No","Female","1747835","null","null","","","","clear_screen","","","","","","","","","","","","","","","","","","","","","","","","","",""
"","","","","","canvas-keyboard-response","227","311288","0.0-12.0-0.43","2d_cat_multi_stim_exp1","2022-4-6","15:54:28","25","75","3","9","10","40","30","120","18","20","[""Asian"",""White""]","No","Female","1747835","null","null","","","","fixation","","","","","","","","","","","","","","","","","","","","","","","","","",""
"","","","","","canvas-keyboard-response","228","311798","0.0-12.0-1.43","2d_cat_multi_stim_exp1","2022-4-6","15:54:28","25","75","3","9","10","40","30","120","18","20","[""Asian"",""White""]","No","Female","1747835","null","null","","","","clear_screen","","","","","","","","","","","","","","","","","","","","","","","","","",""
"","","","","","canvas-keyboard-response","229","312363","0.0-12.0-2.43","2d_cat_multi_stim_exp1","2022-4-6","15:54:28","25","75","3","9","10","40","30","120","18","20","[""Asian"",""White""]","No","Female","1747835","558","u","learn","","","learn_trial","25","75","in","1","1","","","","","","","","","","","","","","","","","","","","",""
"","","","","","canvas-keyboard-response","230","312872","0.0-12.0-3.43","2d_cat_multi_stim_exp1","2022-4-6","15:54:28","25","75","3","9","10","40","30","120","18","20","[""Asian"",""White""]","No","Female","1747835","null","null","learn_feedback","","","learn_feedback","25","75","in","","","","","","","","","","","","","","","","","","","","","","",""
"","","","","","canvas-keyboard-response","231","312935","0.0-12.0-4.43","2d_cat_multi_stim_exp1","2022-4-6","15:54:28","25","75","3","9","10","40","30","120","18","20","[""Asian"",""White""]","No","Female","1747835","null","null","","","","clear_screen","","","","","","","","","","","","","","","","","","","","","","","","","",""
"","","","","","canvas-keyboard-response","232","313443","0.0-12.0-0.44","2d_cat_multi_stim_exp1","2022-4-6","15:54:28","25","75","3","9","10","40","30","120","18","20","[""Asian"",""White""]","No","Female","1747835","null","null","","","","fixation","","","","","","","","","","","","","","","","","","","","","","","","","",""
"","","","","","canvas-keyboard-response","233","313952","0.0-12.0-1.44","2d_cat_multi_stim_exp1","2022-4-6","15:54:28","25","75","3","9","10","40","30","120","18","20","[""Asian"",""White""]","No","Female","1747835","null","null","","","","clear_screen","","","","","","","","","","","","","","","","","","","","","","","","","",""
"","","","","","canvas-keyboard-response","234","314684","0.0-12.0-2.44","2d_cat_multi_stim_exp1","2022-4-6","15:54:28","25","75","3","9","10","40","30","120","18","20","[""Asian"",""White""]","No","Female","1747835","721","i","learn","","","learn_trial","36.6667","100","out","0","1","","","","","","","","","","","","","","","","","","","","",""
"","","","","","canvas-keyboard-response","235","315194","0.0-12.0-3.44","2d_cat_multi_stim_exp1","2022-4-6","15:54:28","25","75","3","9","10","40","30","120","18","20","[""Asian"",""White""]","No","Female","1747835","null","null","learn_feedback","","","learn_feedback","36.6667","100","out","","","","","","","","","","","","","","","","","","","","","","",""
"","","","","","canvas-keyboard-response","236","315253","0.0-12.0-4.44","2d_cat_multi_stim_exp1","2022-4-6","15:54:28","25","75","3","9","10","40","30","120","18","20","[""Asian"",""White""]","No","Female","1747835","null","null","","","","clear_screen","","","","","","","","","","","","","","","","","","","","","","","","","",""
"","","","","","canvas-keyboard-response","237","315761","0.0-12.0-0.45","2d_cat_multi_stim_exp1","2022-4-6","15:54:28","25","75","3","9","10","40","30","120","18","20","[""Asian"",""White""]","No","Female","1747835","null","null","","","","fixation","","","","","","","","","","","","","","","","","","","","","","","","","",""
"","","","","","canvas-keyboard-response","238","316270","0.0-12.0-1.45","2d_cat_multi_stim_exp1","2022-4-6","15:54:28","25","75","3","9","10","40","30","120","18","20","[""Asian"",""White""]","No","Female","1747835","null","null","","","","clear_screen","","","","","","","","","","","","","","","","","","","","","","","","","",""
"","","","","","canvas-keyboard-response","239","318379","0.0-12.0-2.45","2d_cat_multi_stim_exp1","2022-4-6","15:54:28","25","75","3","9","10","40","30","120","18","20","[""Asian"",""White""]","No","Female","1747835","2101","u","learn","","","learn_trial","25","75","in","1","1","","","","","","","","","","","","","","","","","","","","",""
"","","","","","canvas-keyboard-response","240","318888","0.0-12.0-3.45","2d_cat_multi_stim_exp1","2022-4-6","15:54:28","25","75","3","9","10","40","30","120","18","20","[""Asian"",""White""]","No","Female","1747835","null","null","learn_feedback","","","learn_feedback","25","75","in","","","","","","","","","","","","","","","","","","","","","","",""
"","","","","","canvas-keyboard-response","241","318946","0.0-12.0-4.45","2d_cat_multi_stim_exp1","2022-4-6","15:54:28","25","75","3","9","10","40","30","120","18","20","[""Asian"",""White""]","No","Female","1747835","null","null","","","","clear_screen","","","","","","","","","","","","","","","","","","","","","","","","","",""
"","","","","","canvas-keyboard-response","242","319454","0.0-12.0-0.46","2d_cat_multi_stim_exp1","2022-4-6","15:54:28","25","75","3","9","10","40","30","120","18","20","[""Asian"",""White""]","No","Female","1747835","null","null","","","","fixation","","","","","","","","","","","","","","","","","","","","","","","","","",""
"","","","","","canvas-keyboard-response","243","319962","0.0-12.0-1.46","2d_cat_multi_stim_exp1","2022-4-6","15:54:28","25","75","3","9","10","40","30","120","18","20","[""Asian"",""White""]","No","Female","1747835","null","null","","","","clear_screen","","","","","","","","","","","","","","","","","","","","","","","","","",""
"","","","","","canvas-keyboard-response","244","320764","0.0-12.0-2.46","2d_cat_multi_stim_exp1","2022-4-6","15:54:28","25","75","3","9","10","40","30","120","18","20","[""Asian"",""White""]","No","Female","1747835","792","i","learn","","","learn_trial","27.2592","80.9214","in","0","0","","","","","","","","","","","","","","","","","","","","",""
"","","","","","canvas-keyboard-response","245","321772","0.0-12.0-3.46","2d_cat_multi_stim_exp1","2022-4-6","15:54:28","25","75","3","9","10","40","30","120","18","20","[""Asian"",""White""]","No","Female","1747835","null","null","learn_feedback","","","learn_feedback","27.2592","80.9214","in","","","","","","","","","","","","","","","","","","","","","","",""
"","","","","","canvas-keyboard-response","246","321832","0.0-12.0-4.46","2d_cat_multi_stim_exp1","2022-4-6","15:54:28","25","75","3","9","10","40","30","120","18","20","[""Asian"",""White""]","No","Female","1747835","null","null","","","","clear_screen","","","","","","","","","","","","","","","","","","","","","","","","","",""
"","","","","","canvas-keyboard-response","247","322340","0.0-12.0-0.47","2d_cat_multi_stim_exp1","2022-4-6","15:54:28","25","75","3","9","10","40","30","120","18","20","[""Asian"",""White""]","No","Female","1747835","null","null","","","","fixation","","","","","","","","","","","","","","","","","","","","","","","","","",""
"","","","","","canvas-keyboard-response","248","322848","0.0-12.0-1.47","2d_cat_multi_stim_exp1","2022-4-6","15:54:28","25","75","3","9","10","40","30","120","18","20","[""Asian"",""White""]","No","Female","1747835","null","null","","","","clear_screen","","","","","","","","","","","","","","","","","","","","","","","","","",""
"","","","","","canvas-keyboard-response","249","323771","0.0-12.0-2.47","2d_cat_multi_stim_exp1","2022-4-6","15:54:28","25","75","3","9","10","40","30","120","18","20","[""Asian"",""White""]","No","Female","1747835","913","u","learn","","","learn_trial","26.6667","80","out","1","0","","","","","","","","","","","","","","","","","","","","",""
"","","","","","canvas-keyboard-response","250","324780","0.0-12.0-3.47","2d_cat_multi_stim_exp1","2022-4-6","15:54:28","25","75","3","9","10","40","30","120","18","20","[""Asian"",""White""]","No","Female","1747835","null","null","learn_feedback","","","learn_feedback","26.6667","80","out","","","","","","","","","","","","","","","","","","","","","","",""
"","","","","","canvas-keyboard-response","251","324838","0.0-12.0-4.47","2d_cat_multi_stim_exp1","2022-4-6","15:54:28","25","75","3","9","10","40","30","120","18","20","[""Asian"",""White""]","No","Female","1747835","null","null","","","","clear_screen","","","","","","","","","","","","","","","","","","","","","","","","","",""
"","","","","","canvas-keyboard-response","252","325346","0.0-12.0-0.48","2d_cat_multi_stim_exp1","2022-4-6","15:54:28","25","75","3","9","10","40","30","120","18","20","[""Asian"",""White""]","No","Female","1747835","null","null","","","","fixation","","","","","","","","","","","","","","","","","","","","","","","","","",""
"","","","","","canvas-keyboard-response","253","325855","0.0-12.0-1.48","2d_cat_multi_stim_exp1","2022-4-6","15:54:28","25","75","3","9","10","40","30","120","18","20","[""Asian"",""White""]","No","Female","1747835","null","null","","","","clear_screen","","","","","","","","","","","","","","","","","","","","","","","","","",""
"","","","","","canvas-keyboard-response","254","326931","0.0-12.0-2.48","2d_cat_multi_stim_exp1","2022-4-6","15:54:28","25","75","3","9","10","40","30","120","18","20","[""Asian"",""White""]","No","Female","1747835","1067","i","learn","","","learn_trial","25","75","in","0","0","","","","","","","","","","","","","","","","","","","","",""
"","","","","","canvas-keyboard-response","255","327940","0.0-12.0-3.48","2d_cat_multi_stim_exp1","2022-4-6","15:54:28","25","75","3","9","10","40","30","120","18","20","[""Asian"",""White""]","No","Female","1747835","null","null","learn_feedback","","","learn_feedback","25","75","in","","","","","","","","","","","","","","","","","","","","","","",""
"","","","","","canvas-keyboard-response","256","327998","0.0-12.0-4.48","2d_cat_multi_stim_exp1","2022-4-6","15:54:28","25","75","3","9","10","40","30","120","18","20","[""Asian"",""White""]","No","Female","1747835","null","null","","","","clear_screen","","","","","","","","","","","","","","","","","","","","","","","","","",""
"","","","","","canvas-keyboard-response","257","328506","0.0-12.0-0.49","2d_cat_multi_stim_exp1","2022-4-6","15:54:28","25","75","3","9","10","40","30","120","18","20","[""Asian"",""White""]","No","Female","1747835","null","null","","","","fixation","","","","","","","","","","","","","","","","","","","","","","","","","",""
"","","","","","canvas-keyboard-response","258","329015","0.0-12.0-1.49","2d_cat_multi_stim_exp1","2022-4-6","15:54:28","25","75","3","9","10","40","30","120","18","20","[""Asian"",""White""]","No","Female","1747835","null","null","","","","clear_screen","","","","","","","","","","","","","","","","","","","","","","","","","",""
"","","","","","canvas-keyboard-response","259","331011","0.0-12.0-2.49","2d_cat_multi_stim_exp1","2022-4-6","15:54:28","25","75","3","9","10","40","30","120","18","20","[""Asian"",""White""]","No","Female","1747835","1987","i","learn","","","learn_trial","30","110","out","0","1","","","","","","","","","","","","","","","","","","","","",""
"","","","","","canvas-keyboard-response","260","331520","0.0-12.0-3.49","2d_cat_multi_stim_exp1","2022-4-6","15:54:28","25","75","3","9","10","40","30","120","18","20","[""Asian"",""White""]","No","Female","1747835","null","null","learn_feedback","","","learn_feedback","30","110","out","","","","","","","","","","","","","","","","","","","","","","",""
"","","","","","canvas-keyboard-response","261","331579","0.0-12.0-4.49","2d_cat_multi_stim_exp1","2022-4-6","15:54:28","25","75","3","9","10","40","30","120","18","20","[""Asian"",""White""]","No","Female","1747835","null","null","","","","clear_screen","","","","","","","","","","","","","","","","","","","","","","","","","",""
"","","","","","canvas-keyboard-response","262","332087","0.0-12.0-0.50","2d_cat_multi_stim_exp1","2022-4-6","15:54:28","25","75","3","9","10","40","30","120","18","20","[""Asian"",""White""]","No","Female","1747835","null","null","","","","fixation","","","","","","","","","","","","","","","","","","","","","","","","","",""
"","","","","","canvas-keyboard-response","263","332596","0.0-12.0-1.50","2d_cat_multi_stim_exp1","2022-4-6","15:54:28","25","75","3","9","10","40","30","120","18","20","[""Asian"",""White""]","No","Female","1747835","null","null","","","","clear_screen","","","","","","","","","","","","","","","","","","","","","","","","","",""
"","","","","","canvas-keyboard-response","264","333347","0.0-12.0-2.50","2d_cat_multi_stim_exp1","2022-4-6","15:54:28","25","75","3","9","10","40","30","120","18","20","[""Asian"",""White""]","No","Female","1747835","742","u","learn","","","learn_trial","36.6667","50","out","1","0","","","","","","","","","","","","","","","","","","","","",""
"","","","","","canvas-keyboard-response","265","334356","0.0-12.0-3.50","2d_cat_multi_stim_exp1","2022-4-6","15:54:28","25","75","3","9","10","40","30","120","18","20","[""Asian"",""White""]","No","Female","1747835","null","null","learn_feedback","","","learn_feedback","36.6667","50","out","","","","","","","","","","","","","","","","","","","","","","",""
"","","","","","canvas-keyboard-response","266","334414","0.0-12.0-4.50","2d_cat_multi_stim_exp1","2022-4-6","15:54:28","25","75","3","9","10","40","30","120","18","20","[""Asian"",""White""]","No","Female","1747835","null","null","","","","clear_screen","","","","","","","","","","","","","","","","","","","","","","","","","",""
"","","","","","canvas-keyboard-response","267","334923","0.0-12.0-0.51","2d_cat_multi_stim_exp1","2022-4-6","15:54:28","25","75","3","9","10","40","30","120","18","20","[""Asian"",""White""]","No","Female","1747835","null","null","","","","fixation","","","","","","","","","","","","","","","","","","","","","","","","","",""
"","","","","","canvas-keyboard-response","268","335432","0.0-12.0-1.51","2d_cat_multi_stim_exp1","2022-4-6","15:54:28","25","75","3","9","10","40","30","120","18","20","[""Asian"",""White""]","No","Female","1747835","null","null","","","","clear_screen","","","","","","","","","","","","","","","","","","","","","","","","","",""
"","","","","","canvas-keyboard-response","269","336027","0.0-12.0-2.51","2d_cat_multi_stim_exp1","2022-4-6","15:54:28","25","75","3","9","10","40","30","120","18","20","[""Asian"",""White""]","No","Female","1747835","587","i","learn","","","learn_trial","10","30","out","0","1","","","","","","","","","","","","","","","","","","","","",""
"","","","","","canvas-keyboard-response","270","336535","0.0-12.0-3.51","2d_cat_multi_stim_exp1","2022-4-6","15:54:28","25","75","3","9","10","40","30","120","18","20","[""Asian"",""White""]","No","Female","1747835","null","null","learn_feedback","","","learn_feedback","10","30","out","","","","","","","","","","","","","","","","","","","","","","",""
"","","","","","canvas-keyboard-response","271","336593","0.0-12.0-4.51","2d_cat_multi_stim_exp1","2022-4-6","15:54:28","25","75","3","9","10","40","30","120","18","20","[""Asian"",""White""]","No","Female","1747835","null","null","","","","clear_screen","","","","","","","","","","","","","","","","","","","","","","","","","",""
"","","","","","canvas-keyboard-response","272","337101","0.0-12.0-0.52","2d_cat_multi_stim_exp1","2022-4-6","15:54:28","25","75","3","9","10","40","30","120","18","20","[""Asian"",""White""]","No","Female","1747835","null","null","","","","fixation","","","","","","","","","","","","","","","","","","","","","","","","","",""
"","","","","","canvas-keyboard-response","273","337610","0.0-12.0-1.52","2d_cat_multi_stim_exp1","2022-4-6","15:54:28","25","75","3","9","10","40","30","120","18","20","[""Asian"",""White""]","No","Female","1747835","null","null","","","","clear_screen","","","","","","","","","","","","","","","","","","","","","","","","","",""
"","","","","","canvas-keyboard-response","274","338219","0.0-12.0-2.52","2d_cat_multi_stim_exp1","2022-4-6","15:54:28","25","75","3","9","10","40","30","120","18","20","[""Asian"",""White""]","No","Female","1747835","600","i","learn","","","learn_trial","13.3333","90","out","0","1","","","","","","","","","","","","","","","","","","","","",""
"","","","","","canvas-keyboard-response","275","338728","0.0-12.0-3.52","2d_cat_multi_stim_exp1","2022-4-6","15:54:28","25","75","3","9","10","40","30","120","18","20","[""Asian"",""White""]","No","Female","1747835","null","null","learn_feedback","","","learn_feedback","13.3333","90","out","","","","","","","","","","","","","","","","","","","","","","",""
"","","","","","canvas-keyboard-response","276","338786","0.0-12.0-4.52","2d_cat_multi_stim_exp1","2022-4-6","15:54:28","25","75","3","9","10","40","30","120","18","20","[""Asian"",""White""]","No","Female","1747835","null","null","","","","clear_screen","","","","","","","","","","","","","","","","","","","","","","","","","",""
"","","","","","canvas-keyboard-response","277","339298","0.0-12.0-0.53","2d_cat_multi_stim_exp1","2022-4-6","15:54:28","25","75","3","9","10","40","30","120","18","20","[""Asian"",""White""]","No","Female","1747835","null","null","","","","fixation","","","","","","","","","","","","","","","","","","","","","","","","","",""
"","","","","","canvas-keyboard-response","278","339806","0.0-12.0-1.53","2d_cat_multi_stim_exp1","2022-4-6","15:54:28","25","75","3","9","10","40","30","120","18","20","[""Asian"",""White""]","No","Female","1747835","null","null","","","","clear_screen","","","","","","","","","","","","","","","","","","","","","","","","","",""
"","","","","","canvas-keyboard-response","279","340658","0.0-12.0-2.53","2d_cat_multi_stim_exp1","2022-4-6","15:54:28","25","75","3","9","10","40","30","120","18","20","[""Asian"",""White""]","No","Female","1747835","843","u","learn","","","learn_trial","25","75","in","1","1","","","","","","","","","","","","","","","","","","","","",""
"","","","","","canvas-keyboard-response","280","341167","0.0-12.0-3.53","2d_cat_multi_stim_exp1","2022-4-6","15:54:28","25","75","3","9","10","40","30","120","18","20","[""Asian"",""White""]","No","Female","1747835","null","null","learn_feedback","","","learn_feedback","25","75","in","","","","","","","","","","","","","","","","","","","","","","",""
"","","","","","canvas-keyboard-response","281","341226","0.0-12.0-4.53","2d_cat_multi_stim_exp1","2022-4-6","15:54:28","25","75","3","9","10","40","30","120","18","20","[""Asian"",""White""]","No","Female","1747835","null","null","","","","clear_screen","","","","","","","","","","","","","","","","","","","","","","","","","",""
"","","","","","canvas-keyboard-response","282","341734","0.0-12.0-0.54","2d_cat_multi_stim_exp1","2022-4-6","15:54:28","25","75","3","9","10","40","30","120","18","20","[""Asian"",""White""]","No","Female","1747835","null","null","","","","fixation","","","","","","","","","","","","","","","","","","","","","","","","","",""
"","","","","","canvas-keyboard-response","283","342243","0.0-12.0-1.54","2d_cat_multi_stim_exp1","2022-4-6","15:54:28","25","75","3","9","10","40","30","120","18","20","[""Asian"",""White""]","No","Female","1747835","null","null","","","","clear_screen","","","","","","","","","","","","","","","","","","","","","","","","","",""
"","","","","","canvas-keyboard-response","284","343194","0.0-12.0-2.54","2d_cat_multi_stim_exp1","2022-4-6","15:54:28","25","75","3","9","10","40","30","120","18","20","[""Asian"",""White""]","No","Female","1747835","944","u","learn","","","learn_trial","22.2971","78.905","in","1","1","","","","","","","","","","","","","","","","","","","","",""
"","","","","","canvas-keyboard-response","285","343703","0.0-12.0-3.54","2d_cat_multi_stim_exp1","2022-4-6","15:54:28","25","75","3","9","10","40","30","120","18","20","[""Asian"",""White""]","No","Female","1747835","null","null","learn_feedback","","","learn_feedback","22.2971","78.905","in","","","","","","","","","","","","","","","","","","","","","","",""
"","","","","","canvas-keyboard-response","286","343761","0.0-12.0-4.54","2d_cat_multi_stim_exp1","2022-4-6","15:54:28","25","75","3","9","10","40","30","120","18","20","[""Asian"",""White""]","No","Female","1747835","null","null","","","","clear_screen","","","","","","","","","","","","","","","","","","","","","","","","","",""
"","","","","","canvas-keyboard-response","287","344271","0.0-12.0-0.55","2d_cat_multi_stim_exp1","2022-4-6","15:54:28","25","75","3","9","10","40","30","120","18","20","[""Asian"",""White""]","No","Female","1747835","null","null","","","","fixation","","","","","","","","","","","","","","","","","","","","","","","","","",""
"","","","","","canvas-keyboard-response","288","344779","0.0-12.0-1.55","2d_cat_multi_stim_exp1","2022-4-6","15:54:28","25","75","3","9","10","40","30","120","18","20","[""Asian"",""White""]","No","Female","1747835","null","null","","","","clear_screen","","","","","","","","","","","","","","","","","","","","","","","","","",""
