"success","timeout","failed_images","failed_audio","failed_video","trial_type","trial_index","time_elapsed","internal_node_id","exp_name","date","time","angle_mean_in","radius_mean_in","angle_sd_in","radius_sd_in","angle_min_out","angle_max_out","radius_min_out","radius_max_out","sub_n","age","race","ethnicity","gender","exp_duration","rt","response","exp_trial_type","stimulus","view_history","screen_id","angle","radius","distribution","choice","correct","order","angle_a","radius_a","angle_b","radius_b","jkl_correct","transfer_trial_type","choice_set","abc_correct","tc_correct","tc_angle","tdc_a","tdc_b","tdc_c","pair","category_a","category_b","category_c","angle_c","radius_c","question_order"
"true","false","[]","[]","[]","preload","0","19","0.0-0.0","2d_cat_multi_stim_exp1","2022-5-4","15:17:8","25","75","3","9","10","40","30","120","93","19","[""Black or African-American""]","No","Female","6075679","","","","","","","","","","","","","","","","","","","","","","","","","","","","","","","",""
"","","","","","survey-html-form","1","4674","0.0-1.0","2d_cat_multi_stim_exp1","2022-5-4","15:17:8","25","75","3","9","10","40","30","120","93","19","[""Black or African-American""]","No","Female","6075679","4645","{""response"":""93""}","enter-sub-number","","","","","","","","","","","","","","","","","","","","","","","","","","","","",""
"true","","","","","fullscreen","2","8397","0.0-2.0","2d_cat_multi_stim_exp1","2022-5-4","15:17:8","25","75","3","9","10","40","30","120","93","19","[""Black or African-American""]","No","Female","6075679","","","","","","","","","","","","","","","","","","","","","","","","","","","","","","","",""
"","","","","","image-button-response","3","3410267","0.0-3.0","2d_cat_multi_stim_exp1","2022-5-4","15:17:8","25","75","3","9","10","40","30","120","93","19","[""Black or African-American""]","No","Female","6075679","3401861","0","","consent.png","","","","","","","","","","","","","","","","","","","","","","","","","","","",""
"","","","","","html-button-response","4","3417522","0.0-4.0","2d_cat_multi_stim_exp1","2022-5-4","15:17:8","25","75","3","9","10","40","30","120","93","19","[""Black or African-American""]","No","Female","6075679","7248","0","","<div style= ""font-size:25px;"" <p> <strong> Welcome to the experiment! </strong><br> <p style=""color:#8B0000; font-size:25px;""><strong> Please do NOT exit full screen until you are done with the experiment. </strong> </p><p style=""font-size:25px;color:#8B0000;""> <strong> The experiment will be canceled and your data will be lost <br> if you try to go back or refresh the page at any point during the experiment.</strong> </p><br><p> <strong> Thanks in advance for your contribution to our research! </strong></p>","","","","","","","","","","","","","","","","","","","","","","","","","","","",""
"","","","","","instructions","5","3465449","0.0-5.0","2d_cat_multi_stim_exp1","2022-5-4","15:17:8","25","75","3","9","10","40","30","120","93","19","[""Black or African-American""]","No","Female","6075679","47924","","","","[{""page_index"":0,""viewing_time"":6948},{""page_index"":1,""viewing_time"":3079},{""page_index"":0,""viewing_time"":2673},{""page_index"":1,""viewing_time"":1680},{""page_index"":2,""viewing_time"":9519},{""page_index"":3,""viewing_time"":24024}]","instructions_1","","","","","","","","","","","","","","","","","","","","","","","","","",""
"","","","","","instructions","6","3468905","0.0-6.0","2d_cat_multi_stim_exp1","2022-5-4","15:17:8","25","75","3","9","10","40","30","120","93","19","[""Black or African-American""]","No","Female","6075679","3452","","","","[{""page_index"":0,""viewing_time"":3452}]","Click to see the kinds of turtles that will appear in the study.","","","","","","","","","","","","","","","","","","","","","","","","","",""
"","","","","","canvas-keyboard-response","7","3483923","0.0-7.0","2d_cat_multi_stim_exp1","2022-5-4","15:17:8","25","75","3","9","10","40","30","120","93","19","[""Black or African-American""]","No","Female","6075679","null","null","","","","demo_range","","","","","","","","","","","","","","","","","","","","","","","","","",""
"","","","","","instructions","8","3486417","0.0-8.0","2d_cat_multi_stim_exp1","2022-5-4","15:17:8","25","75","3","9","10","40","30","120","93","19","[""Black or African-American""]","No","Female","6075679","1993","","","","[{""page_index"":0,""viewing_time"":1992}]","Click to see some turtles in the subspecies.","","","","","","","","","","","","","","","","","","","","","","","","","",""
"","","","","","canvas-keyboard-response","9","3501435","0.0-9.0","2d_cat_multi_stim_exp1","2022-5-4","15:17:8","25","75","3","9","10","40","30","120","93","19","[""Black or African-American""]","No","Female","6075679","null","null","","","","demo_in","","","","","","","","","","","","","","","","","","","","","","","","","",""
"","","","","","instructions","10","3534433","0.0-10.0","2d_cat_multi_stim_exp1","2022-5-4","15:17:8","25","75","3","9","10","40","30","120","93","19","[""Black or African-American""]","No","Female","6075679","32496","","","","[{""page_index"":0,""viewing_time"":6928},{""page_index"":1,""viewing_time"":22295},{""page_index"":2,""viewing_time"":3273}]","instructions_2","","","","","","","","","","","","","","","","","","","","","","","","","",""
"","","","","","instructions","11","3535920","0.0-11.0","2d_cat_multi_stim_exp1","2022-5-4","15:17:8","25","75","3","9","10","40","30","120","93","19","[""Black or African-American""]","No","Female","6075679","1486","","","","[{""page_index"":0,""viewing_time"":1486}]","Click to begin the first phase of the experiment.","","","","","","","","","","","","","","","","","","","","","","","","","",""
"","","","","","canvas-keyboard-response","12","3536431","0.0-12.0-0.0","2d_cat_multi_stim_exp1","2022-5-4","15:17:8","25","75","3","9","10","40","30","120","93","19","[""Black or African-American""]","No","Female","6075679","null","null","","","","fixation","","","","","","","","","","","","","","","","","","","","","","","","","",""
"","","","","","canvas-keyboard-response","13","3536941","0.0-12.0-1.0","2d_cat_multi_stim_exp1","2022-5-4","15:17:8","25","75","3","9","10","40","30","120","93","19","[""Black or African-American""]","No","Female","6075679","null","null","","","","clear_screen","","","","","","","","","","","","","","","","","","","","","","","","","",""
"","","","","","canvas-keyboard-response","14","3541098","0.0-12.0-2.0","2d_cat_multi_stim_exp1","2022-5-4","15:17:8","25","75","3","9","10","40","30","120","93","19","[""Black or African-American""]","No","Female","6075679","4144","u","learn","","","learn_trial","13.3333","70","out","1","0","","","","","","","","","","","","","","","","","","","","",""
"","","","","","canvas-keyboard-response","15","3542109","0.0-12.0-3.0","2d_cat_multi_stim_exp1","2022-5-4","15:17:8","25","75","3","9","10","40","30","120","93","19","[""Black or African-American""]","No","Female","6075679","null","null","learn_feedback","","","learn_feedback","13.3333","70","out","","","","","","","","","","","","","","","","","","","","","","",""
"","","","","","canvas-keyboard-response","16","3542169","0.0-12.0-4.0","2d_cat_multi_stim_exp1","2022-5-4","15:17:8","25","75","3","9","10","40","30","120","93","19","[""Black or African-American""]","No","Female","6075679","null","null","","","","clear_screen","","","","","","","","","","","","","","","","","","","","","","","","","",""
"","","","","","canvas-keyboard-response","17","3542680","0.0-12.0-0.1","2d_cat_multi_stim_exp1","2022-5-4","15:17:8","25","75","3","9","10","40","30","120","93","19","[""Black or African-American""]","No","Female","6075679","null","null","","","","fixation","","","","","","","","","","","","","","","","","","","","","","","","","",""
"","","","","","canvas-keyboard-response","18","3543192","0.0-12.0-1.1","2d_cat_multi_stim_exp1","2022-5-4","15:17:8","25","75","3","9","10","40","30","120","93","19","[""Black or African-American""]","No","Female","6075679","null","null","","","","clear_screen","","","","","","","","","","","","","","","","","","","","","","","","","",""
"","","","","","canvas-keyboard-response","19","3547281","0.0-12.0-2.1","2d_cat_multi_stim_exp1","2022-5-4","15:17:8","25","75","3","9","10","40","30","120","93","19","[""Black or African-American""]","No","Female","6075679","4079","i","learn","","","learn_trial","16.6667","90","out","0","1","","","","","","","","","","","","","","","","","","","","",""
"","","","","","canvas-keyboard-response","20","3547795","0.0-12.0-3.1","2d_cat_multi_stim_exp1","2022-5-4","15:17:8","25","75","3","9","10","40","30","120","93","19","[""Black or African-American""]","No","Female","6075679","null","null","learn_feedback","","","learn_feedback","16.6667","90","out","","","","","","","","","","","","","","","","","","","","","","",""
"","","","","","canvas-keyboard-response","21","3547856","0.0-12.0-4.1","2d_cat_multi_stim_exp1","2022-5-4","15:17:8","25","75","3","9","10","40","30","120","93","19","[""Black or African-American""]","No","Female","6075679","null","null","","","","clear_screen","","","","","","","","","","","","","","","","","","","","","","","","","",""
"","","","","","canvas-keyboard-response","22","3548365","0.0-12.0-0.2","2d_cat_multi_stim_exp1","2022-5-4","15:17:8","25","75","3","9","10","40","30","120","93","19","[""Black or African-American""]","No","Female","6075679","null","null","","","","fixation","","","","","","","","","","","","","","","","","","","","","","","","","",""
"","","","","","canvas-keyboard-response","23","3548874","0.0-12.0-1.2","2d_cat_multi_stim_exp1","2022-5-4","15:17:8","25","75","3","9","10","40","30","120","93","19","[""Black or African-American""]","No","Female","6075679","null","null","","","","clear_screen","","","","","","","","","","","","","","","","","","","","","","","","","",""
"","","","","","canvas-keyboard-response","24","3551066","0.0-12.0-2.2","2d_cat_multi_stim_exp1","2022-5-4","15:17:8","25","75","3","9","10","40","30","120","93","19","[""Black or African-American""]","No","Female","6075679","2180","i","learn","","","learn_trial","40","80","out","0","1","","","","","","","","","","","","","","","","","","","","",""
"","","","","","canvas-keyboard-response","25","3551578","0.0-12.0-3.2","2d_cat_multi_stim_exp1","2022-5-4","15:17:8","25","75","3","9","10","40","30","120","93","19","[""Black or African-American""]","No","Female","6075679","null","null","learn_feedback","","","learn_feedback","40","80","out","","","","","","","","","","","","","","","","","","","","","","",""
"","","","","","canvas-keyboard-response","26","3551639","0.0-12.0-4.2","2d_cat_multi_stim_exp1","2022-5-4","15:17:8","25","75","3","9","10","40","30","120","93","19","[""Black or African-American""]","No","Female","6075679","null","null","","","","clear_screen","","","","","","","","","","","","","","","","","","","","","","","","","",""
"","","","","","canvas-keyboard-response","27","3552145","0.0-12.0-0.3","2d_cat_multi_stim_exp1","2022-5-4","15:17:8","25","75","3","9","10","40","30","120","93","19","[""Black or African-American""]","No","Female","6075679","null","null","","","","fixation","","","","","","","","","","","","","","","","","","","","","","","","","",""
"","","","","","canvas-keyboard-response","28","3552657","0.0-12.0-1.3","2d_cat_multi_stim_exp1","2022-5-4","15:17:8","25","75","3","9","10","40","30","120","93","19","[""Black or African-American""]","No","Female","6075679","null","null","","","","clear_screen","","","","","","","","","","","","","","","","","","","","","","","","","",""
"","","","","","canvas-keyboard-response","29","3554937","0.0-12.0-2.3","2d_cat_multi_stim_exp1","2022-5-4","15:17:8","25","75","3","9","10","40","30","120","93","19","[""Black or African-American""]","No","Female","6075679","2274","u","learn","","","learn_trial","24.8654","66.0091","in","1","1","","","","","","","","","","","","","","","","","","","","",""
"","","","","","canvas-keyboard-response","30","3555446","0.0-12.0-3.3","2d_cat_multi_stim_exp1","2022-5-4","15:17:8","25","75","3","9","10","40","30","120","93","19","[""Black or African-American""]","No","Female","6075679","null","null","learn_feedback","","","learn_feedback","24.8654","66.0091","in","","","","","","","","","","","","","","","","","","","","","","",""
"","","","","","canvas-keyboard-response","31","3555507","0.0-12.0-4.3","2d_cat_multi_stim_exp1","2022-5-4","15:17:8","25","75","3","9","10","40","30","120","93","19","[""Black or African-American""]","No","Female","6075679","null","null","","","","clear_screen","","","","","","","","","","","","","","","","","","","","","","","","","",""
"","","","","","canvas-keyboard-response","32","3556015","0.0-12.0-0.4","2d_cat_multi_stim_exp1","2022-5-4","15:17:8","25","75","3","9","10","40","30","120","93","19","[""Black or African-American""]","No","Female","6075679","null","null","","","","fixation","","","","","","","","","","","","","","","","","","","","","","","","","",""
"","","","","","canvas-keyboard-response","33","3556529","0.0-12.0-1.4","2d_cat_multi_stim_exp1","2022-5-4","15:17:8","25","75","3","9","10","40","30","120","93","19","[""Black or African-American""]","No","Female","6075679","null","null","","","","clear_screen","","","","","","","","","","","","","","","","","","","","","","","","","",""
"","","","","","canvas-keyboard-response","34","3558689","0.0-12.0-2.4","2d_cat_multi_stim_exp1","2022-5-4","15:17:8","25","75","3","9","10","40","30","120","93","19","[""Black or African-American""]","No","Female","6075679","2153","i","learn","","","learn_trial","22.0121","74.1932","in","0","0","","","","","","","","","","","","","","","","","","","","",""
"","","","","","canvas-keyboard-response","35","3559697","0.0-12.0-3.4","2d_cat_multi_stim_exp1","2022-5-4","15:17:8","25","75","3","9","10","40","30","120","93","19","[""Black or African-American""]","No","Female","6075679","null","null","learn_feedback","","","learn_feedback","22.0121","74.1932","in","","","","","","","","","","","","","","","","","","","","","","",""
"","","","","","canvas-keyboard-response","36","3559757","0.0-12.0-4.4","2d_cat_multi_stim_exp1","2022-5-4","15:17:8","25","75","3","9","10","40","30","120","93","19","[""Black or African-American""]","No","Female","6075679","null","null","","","","clear_screen","","","","","","","","","","","","","","","","","","","","","","","","","",""
"","","","","","canvas-keyboard-response","37","3560266","0.0-12.0-0.5","2d_cat_multi_stim_exp1","2022-5-4","15:17:8","25","75","3","9","10","40","30","120","93","19","[""Black or African-American""]","No","Female","6075679","null","null","","","","fixation","","","","","","","","","","","","","","","","","","","","","","","","","",""
"","","","","","canvas-keyboard-response","38","3560776","0.0-12.0-1.5","2d_cat_multi_stim_exp1","2022-5-4","15:17:8","25","75","3","9","10","40","30","120","93","19","[""Black or African-American""]","No","Female","6075679","null","null","","","","clear_screen","","","","","","","","","","","","","","","","","","","","","","","","","",""
"","","","","","canvas-keyboard-response","39","3561960","0.0-12.0-2.5","2d_cat_multi_stim_exp1","2022-5-4","15:17:8","25","75","3","9","10","40","30","120","93","19","[""Black or African-American""]","No","Female","6075679","1176","i","learn","","","learn_trial","40","50","out","0","1","","","","","","","","","","","","","","","","","","","","",""
"","","","","","canvas-keyboard-response","40","3562470","0.0-12.0-3.5","2d_cat_multi_stim_exp1","2022-5-4","15:17:8","25","75","3","9","10","40","30","120","93","19","[""Black or African-American""]","No","Female","6075679","null","null","learn_feedback","","","learn_feedback","40","50","out","","","","","","","","","","","","","","","","","","","","","","",""
"","","","","","canvas-keyboard-response","41","3562528","0.0-12.0-4.5","2d_cat_multi_stim_exp1","2022-5-4","15:17:8","25","75","3","9","10","40","30","120","93","19","[""Black or African-American""]","No","Female","6075679","null","null","","","","clear_screen","","","","","","","","","","","","","","","","","","","","","","","","","",""
"","","","","","canvas-keyboard-response","42","3563039","0.0-12.0-0.6","2d_cat_multi_stim_exp1","2022-5-4","15:17:8","25","75","3","9","10","40","30","120","93","19","[""Black or African-American""]","No","Female","6075679","null","null","","","","fixation","","","","","","","","","","","","","","","","","","","","","","","","","",""
"","","","","","canvas-keyboard-response","43","3563550","0.0-12.0-1.6","2d_cat_multi_stim_exp1","2022-5-4","15:17:8","25","75","3","9","10","40","30","120","93","19","[""Black or African-American""]","No","Female","6075679","null","null","","","","clear_screen","","","","","","","","","","","","","","","","","","","","","","","","","",""
"","","","","","canvas-keyboard-response","44","3567297","0.0-12.0-2.6","2d_cat_multi_stim_exp1","2022-5-4","15:17:8","25","75","3","9","10","40","30","120","93","19","[""Black or African-American""]","No","Female","6075679","3737","i","learn","","","learn_trial","25","75","in","0","0","","","","","","","","","","","","","","","","","","","","",""
"","","","","","canvas-keyboard-response","45","3568305","0.0-12.0-3.6","2d_cat_multi_stim_exp1","2022-5-4","15:17:8","25","75","3","9","10","40","30","120","93","19","[""Black or African-American""]","No","Female","6075679","null","null","learn_feedback","","","learn_feedback","25","75","in","","","","","","","","","","","","","","","","","","","","","","",""
"","","","","","canvas-keyboard-response","46","3568367","0.0-12.0-4.6","2d_cat_multi_stim_exp1","2022-5-4","15:17:8","25","75","3","9","10","40","30","120","93","19","[""Black or African-American""]","No","Female","6075679","null","null","","","","clear_screen","","","","","","","","","","","","","","","","","","","","","","","","","",""
"","","","","","canvas-keyboard-response","47","3568876","0.0-12.0-0.7","2d_cat_multi_stim_exp1","2022-5-4","15:17:8","25","75","3","9","10","40","30","120","93","19","[""Black or African-American""]","No","Female","6075679","null","null","","","","fixation","","","","","","","","","","","","","","","","","","","","","","","","","",""
"","","","","","canvas-keyboard-response","48","3569387","0.0-12.0-1.7","2d_cat_multi_stim_exp1","2022-5-4","15:17:8","25","75","3","9","10","40","30","120","93","19","[""Black or African-American""]","No","Female","6075679","null","null","","","","clear_screen","","","","","","","","","","","","","","","","","","","","","","","","","",""
"","","","","","canvas-keyboard-response","49","3570801","0.0-12.0-2.7","2d_cat_multi_stim_exp1","2022-5-4","15:17:8","25","75","3","9","10","40","30","120","93","19","[""Black or African-American""]","No","Female","6075679","1402","u","learn","","","learn_trial","25","75","in","1","1","","","","","","","","","","","","","","","","","","","","",""
"","","","","","canvas-keyboard-response","50","3571310","0.0-12.0-3.7","2d_cat_multi_stim_exp1","2022-5-4","15:17:8","25","75","3","9","10","40","30","120","93","19","[""Black or African-American""]","No","Female","6075679","null","null","learn_feedback","","","learn_feedback","25","75","in","","","","","","","","","","","","","","","","","","","","","","",""
"","","","","","canvas-keyboard-response","51","3571368","0.0-12.0-4.7","2d_cat_multi_stim_exp1","2022-5-4","15:17:8","25","75","3","9","10","40","30","120","93","19","[""Black or African-American""]","No","Female","6075679","null","null","","","","clear_screen","","","","","","","","","","","","","","","","","","","","","","","","","",""
"","","","","","canvas-keyboard-response","52","3571878","0.0-12.0-0.8","2d_cat_multi_stim_exp1","2022-5-4","15:17:8","25","75","3","9","10","40","30","120","93","19","[""Black or African-American""]","No","Female","6075679","null","null","","","","fixation","","","","","","","","","","","","","","","","","","","","","","","","","",""
"","","","","","canvas-keyboard-response","53","3572384","0.0-12.0-1.8","2d_cat_multi_stim_exp1","2022-5-4","15:17:8","25","75","3","9","10","40","30","120","93","19","[""Black or African-American""]","No","Female","6075679","null","null","","","","clear_screen","","","","","","","","","","","","","","","","","","","","","","","","","",""
"","","","","","canvas-keyboard-response","54","3573632","0.0-12.0-2.8","2d_cat_multi_stim_exp1","2022-5-4","15:17:8","25","75","3","9","10","40","30","120","93","19","[""Black or African-American""]","No","Female","6075679","1241","i","learn","","","learn_trial","33.3333","40","out","0","1","","","","","","","","","","","","","","","","","","","","",""
"","","","","","canvas-keyboard-response","55","3574142","0.0-12.0-3.8","2d_cat_multi_stim_exp1","2022-5-4","15:17:8","25","75","3","9","10","40","30","120","93","19","[""Black or African-American""]","No","Female","6075679","null","null","learn_feedback","","","learn_feedback","33.3333","40","out","","","","","","","","","","","","","","","","","","","","","","",""
"","","","","","canvas-keyboard-response","56","3574203","0.0-12.0-4.8","2d_cat_multi_stim_exp1","2022-5-4","15:17:8","25","75","3","9","10","40","30","120","93","19","[""Black or African-American""]","No","Female","6075679","null","null","","","","clear_screen","","","","","","","","","","","","","","","","","","","","","","","","","",""
"","","","","","canvas-keyboard-response","57","3574711","0.0-12.0-0.9","2d_cat_multi_stim_exp1","2022-5-4","15:17:8","25","75","3","9","10","40","30","120","93","19","[""Black or African-American""]","No","Female","6075679","null","null","","","","fixation","","","","","","","","","","","","","","","","","","","","","","","","","",""
"","","","","","canvas-keyboard-response","58","3575223","0.0-12.0-1.9","2d_cat_multi_stim_exp1","2022-5-4","15:17:8","25","75","3","9","10","40","30","120","93","19","[""Black or African-American""]","No","Female","6075679","null","null","","","","clear_screen","","","","","","","","","","","","","","","","","","","","","","","","","",""
"","","","","","canvas-keyboard-response","59","3576241","0.0-12.0-2.9","2d_cat_multi_stim_exp1","2022-5-4","15:17:8","25","75","3","9","10","40","30","120","93","19","[""Black or African-American""]","No","Female","6075679","1007","u","learn","","","learn_trial","25","75","in","1","1","","","","","","","","","","","","","","","","","","","","",""
"","","","","","canvas-keyboard-response","60","3576752","0.0-12.0-3.9","2d_cat_multi_stim_exp1","2022-5-4","15:17:8","25","75","3","9","10","40","30","120","93","19","[""Black or African-American""]","No","Female","6075679","null","null","learn_feedback","","","learn_feedback","25","75","in","","","","","","","","","","","","","","","","","","","","","","",""
"","","","","","canvas-keyboard-response","61","3576814","0.0-12.0-4.9","2d_cat_multi_stim_exp1","2022-5-4","15:17:8","25","75","3","9","10","40","30","120","93","19","[""Black or African-American""]","No","Female","6075679","null","null","","","","clear_screen","","","","","","","","","","","","","","","","","","","","","","","","","",""
"","","","","","canvas-keyboard-response","62","3577325","0.0-12.0-0.10","2d_cat_multi_stim_exp1","2022-5-4","15:17:8","25","75","3","9","10","40","30","120","93","19","[""Black or African-American""]","No","Female","6075679","null","null","","","","fixation","","","","","","","","","","","","","","","","","","","","","","","","","",""
"","","","","","canvas-keyboard-response","63","3577836","0.0-12.0-1.10","2d_cat_multi_stim_exp1","2022-5-4","15:17:8","25","75","3","9","10","40","30","120","93","19","[""Black or African-American""]","No","Female","6075679","null","null","","","","clear_screen","","","","","","","","","","","","","","","","","","","","","","","","","",""
"","","","","","canvas-keyboard-response","64","3580393","0.0-12.0-2.10","2d_cat_multi_stim_exp1","2022-5-4","15:17:8","25","75","3","9","10","40","30","120","93","19","[""Black or African-American""]","No","Female","6075679","2544","i","learn","","","learn_trial","36.6667","90","out","0","1","","","","","","","","","","","","","","","","","","","","",""
"","","","","","canvas-keyboard-response","65","3580903","0.0-12.0-3.10","2d_cat_multi_stim_exp1","2022-5-4","15:17:8","25","75","3","9","10","40","30","120","93","19","[""Black or African-American""]","No","Female","6075679","null","null","learn_feedback","","","learn_feedback","36.6667","90","out","","","","","","","","","","","","","","","","","","","","","","",""
"","","","","","canvas-keyboard-response","66","3580965","0.0-12.0-4.10","2d_cat_multi_stim_exp1","2022-5-4","15:17:8","25","75","3","9","10","40","30","120","93","19","[""Black or African-American""]","No","Female","6075679","null","null","","","","clear_screen","","","","","","","","","","","","","","","","","","","","","","","","","",""
"","","","","","canvas-keyboard-response","67","3581473","0.0-12.0-0.11","2d_cat_multi_stim_exp1","2022-5-4","15:17:8","25","75","3","9","10","40","30","120","93","19","[""Black or African-American""]","No","Female","6075679","null","null","","","","fixation","","","","","","","","","","","","","","","","","","","","","","","","","",""
"","","","","","canvas-keyboard-response","68","3581987","0.0-12.0-1.11","2d_cat_multi_stim_exp1","2022-5-4","15:17:8","25","75","3","9","10","40","30","120","93","19","[""Black or African-American""]","No","Female","6075679","null","null","","","","clear_screen","","","","","","","","","","","","","","","","","","","","","","","","","",""
"","","","","","canvas-keyboard-response","69","3583585","0.0-12.0-2.11","2d_cat_multi_stim_exp1","2022-5-4","15:17:8","25","75","3","9","10","40","30","120","93","19","[""Black or African-American""]","No","Female","6075679","1586","u","learn","","","learn_trial","25.4027","83.9185","in","1","1","","","","","","","","","","","","","","","","","","","","",""
"","","","","","canvas-keyboard-response","70","3584098","0.0-12.0-3.11","2d_cat_multi_stim_exp1","2022-5-4","15:17:8","25","75","3","9","10","40","30","120","93","19","[""Black or African-American""]","No","Female","6075679","null","null","learn_feedback","","","learn_feedback","25.4027","83.9185","in","","","","","","","","","","","","","","","","","","","","","","",""
"","","","","","canvas-keyboard-response","71","3584159","0.0-12.0-4.11","2d_cat_multi_stim_exp1","2022-5-4","15:17:8","25","75","3","9","10","40","30","120","93","19","[""Black or African-American""]","No","Female","6075679","null","null","","","","clear_screen","","","","","","","","","","","","","","","","","","","","","","","","","",""
"","","","","","canvas-keyboard-response","72","3584666","0.0-12.0-0.12","2d_cat_multi_stim_exp1","2022-5-4","15:17:8","25","75","3","9","10","40","30","120","93","19","[""Black or African-American""]","No","Female","6075679","null","null","","","","fixation","","","","","","","","","","","","","","","","","","","","","","","","","",""
"","","","","","canvas-keyboard-response","73","3585178","0.0-12.0-1.12","2d_cat_multi_stim_exp1","2022-5-4","15:17:8","25","75","3","9","10","40","30","120","93","19","[""Black or African-American""]","No","Female","6075679","null","null","","","","clear_screen","","","","","","","","","","","","","","","","","","","","","","","","","",""
"","","","","","canvas-keyboard-response","74","3586953","0.0-12.0-2.12","2d_cat_multi_stim_exp1","2022-5-4","15:17:8","25","75","3","9","10","40","30","120","93","19","[""Black or African-American""]","No","Female","6075679","1766","i","learn","","","learn_trial","26.6667","30","out","0","1","","","","","","","","","","","","","","","","","","","","",""
"","","","","","canvas-keyboard-response","75","3587466","0.0-12.0-3.12","2d_cat_multi_stim_exp1","2022-5-4","15:17:8","25","75","3","9","10","40","30","120","93","19","[""Black or African-American""]","No","Female","6075679","null","null","learn_feedback","","","learn_feedback","26.6667","30","out","","","","","","","","","","","","","","","","","","","","","","",""
"","","","","","canvas-keyboard-response","76","3587528","0.0-12.0-4.12","2d_cat_multi_stim_exp1","2022-5-4","15:17:8","25","75","3","9","10","40","30","120","93","19","[""Black or African-American""]","No","Female","6075679","null","null","","","","clear_screen","","","","","","","","","","","","","","","","","","","","","","","","","",""
"","","","","","canvas-keyboard-response","77","3588035","0.0-12.0-0.13","2d_cat_multi_stim_exp1","2022-5-4","15:17:8","25","75","3","9","10","40","30","120","93","19","[""Black or African-American""]","No","Female","6075679","null","null","","","","fixation","","","","","","","","","","","","","","","","","","","","","","","","","",""
"","","","","","canvas-keyboard-response","78","3588547","0.0-12.0-1.13","2d_cat_multi_stim_exp1","2022-5-4","15:17:8","25","75","3","9","10","40","30","120","93","19","[""Black or African-American""]","No","Female","6075679","null","null","","","","clear_screen","","","","","","","","","","","","","","","","","","","","","","","","","",""
"","","","","","canvas-keyboard-response","79","3589881","0.0-12.0-2.13","2d_cat_multi_stim_exp1","2022-5-4","15:17:8","25","75","3","9","10","40","30","120","93","19","[""Black or African-American""]","No","Female","6075679","1325","i","learn","","","learn_trial","16.6667","110","out","0","1","","","","","","","","","","","","","","","","","","","","",""
"","","","","","canvas-keyboard-response","80","3590390","0.0-12.0-3.13","2d_cat_multi_stim_exp1","2022-5-4","15:17:8","25","75","3","9","10","40","30","120","93","19","[""Black or African-American""]","No","Female","6075679","null","null","learn_feedback","","","learn_feedback","16.6667","110","out","","","","","","","","","","","","","","","","","","","","","","",""
"","","","","","canvas-keyboard-response","81","3590454","0.0-12.0-4.13","2d_cat_multi_stim_exp1","2022-5-4","15:17:8","25","75","3","9","10","40","30","120","93","19","[""Black or African-American""]","No","Female","6075679","null","null","","","","clear_screen","","","","","","","","","","","","","","","","","","","","","","","","","",""
"","","","","","canvas-keyboard-response","82","3590962","0.0-12.0-0.14","2d_cat_multi_stim_exp1","2022-5-4","15:17:8","25","75","3","9","10","40","30","120","93","19","[""Black or African-American""]","No","Female","6075679","null","null","","","","fixation","","","","","","","","","","","","","","","","","","","","","","","","","",""
"","","","","","canvas-keyboard-response","83","3591474","0.0-12.0-1.14","2d_cat_multi_stim_exp1","2022-5-4","15:17:8","25","75","3","9","10","40","30","120","93","19","[""Black or African-American""]","No","Female","6075679","null","null","","","","clear_screen","","","","","","","","","","","","","","","","","","","","","","","","","",""
"","","","","","canvas-keyboard-response","84","3594313","0.0-12.0-2.14","2d_cat_multi_stim_exp1","2022-5-4","15:17:8","25","75","3","9","10","40","30","120","93","19","[""Black or African-American""]","No","Female","6075679","2830","i","learn","","","learn_trial","16.6667","70","out","0","1","","","","","","","","","","","","","","","","","","","","",""
"","","","","","canvas-keyboard-response","85","3594824","0.0-12.0-3.14","2d_cat_multi_stim_exp1","2022-5-4","15:17:8","25","75","3","9","10","40","30","120","93","19","[""Black or African-American""]","No","Female","6075679","null","null","learn_feedback","","","learn_feedback","16.6667","70","out","","","","","","","","","","","","","","","","","","","","","","",""
"","","","","","canvas-keyboard-response","86","3594878","0.0-12.0-4.14","2d_cat_multi_stim_exp1","2022-5-4","15:17:8","25","75","3","9","10","40","30","120","93","19","[""Black or African-American""]","No","Female","6075679","null","null","","","","clear_screen","","","","","","","","","","","","","","","","","","","","","","","","","",""
"","","","","","canvas-keyboard-response","87","3595387","0.0-12.0-0.15","2d_cat_multi_stim_exp1","2022-5-4","15:17:8","25","75","3","9","10","40","30","120","93","19","[""Black or African-American""]","No","Female","6075679","null","null","","","","fixation","","","","","","","","","","","","","","","","","","","","","","","","","",""
"","","","","","canvas-keyboard-response","88","3595899","0.0-12.0-1.15","2d_cat_multi_stim_exp1","2022-5-4","15:17:8","25","75","3","9","10","40","30","120","93","19","[""Black or African-American""]","No","Female","6075679","null","null","","","","clear_screen","","","","","","","","","","","","","","","","","","","","","","","","","",""
"","","","","","canvas-keyboard-response","89","3597849","0.0-12.0-2.15","2d_cat_multi_stim_exp1","2022-5-4","15:17:8","25","75","3","9","10","40","30","120","93","19","[""Black or African-American""]","No","Female","6075679","1942","i","learn","","","learn_trial","25","75","in","0","0","","","","","","","","","","","","","","","","","","","","",""
"","","","","","canvas-keyboard-response","90","3598859","0.0-12.0-3.15","2d_cat_multi_stim_exp1","2022-5-4","15:17:8","25","75","3","9","10","40","30","120","93","19","[""Black or African-American""]","No","Female","6075679","null","null","learn_feedback","","","learn_feedback","25","75","in","","","","","","","","","","","","","","","","","","","","","","",""
"","","","","","canvas-keyboard-response","91","3598921","0.0-12.0-4.15","2d_cat_multi_stim_exp1","2022-5-4","15:17:8","25","75","3","9","10","40","30","120","93","19","[""Black or African-American""]","No","Female","6075679","null","null","","","","clear_screen","","","","","","","","","","","","","","","","","","","","","","","","","",""
"","","","","","canvas-keyboard-response","92","3599429","0.0-12.0-0.16","2d_cat_multi_stim_exp1","2022-5-4","15:17:8","25","75","3","9","10","40","30","120","93","19","[""Black or African-American""]","No","Female","6075679","null","null","","","","fixation","","","","","","","","","","","","","","","","","","","","","","","","","",""
"","","","","","canvas-keyboard-response","93","3599939","0.0-12.0-1.16","2d_cat_multi_stim_exp1","2022-5-4","15:17:8","25","75","3","9","10","40","30","120","93","19","[""Black or African-American""]","No","Female","6075679","null","null","","","","clear_screen","","","","","","","","","","","","","","","","","","","","","","","","","",""
"","","","","","canvas-keyboard-response","94","3601456","0.0-12.0-2.16","2d_cat_multi_stim_exp1","2022-5-4","15:17:8","25","75","3","9","10","40","30","120","93","19","[""Black or African-American""]","No","Female","6075679","1506","i","learn","","","learn_trial","36.6667","100","out","0","1","","","","","","","","","","","","","","","","","","","","",""
"","","","","","canvas-keyboard-response","95","3601965","0.0-12.0-3.16","2d_cat_multi_stim_exp1","2022-5-4","15:17:8","25","75","3","9","10","40","30","120","93","19","[""Black or African-American""]","No","Female","6075679","null","null","learn_feedback","","","learn_feedback","36.6667","100","out","","","","","","","","","","","","","","","","","","","","","","",""
"","","","","","canvas-keyboard-response","96","3602024","0.0-12.0-4.16","2d_cat_multi_stim_exp1","2022-5-4","15:17:8","25","75","3","9","10","40","30","120","93","19","[""Black or African-American""]","No","Female","6075679","null","null","","","","clear_screen","","","","","","","","","","","","","","","","","","","","","","","","","",""
"","","","","","canvas-keyboard-response","97","3602536","0.0-12.0-0.17","2d_cat_multi_stim_exp1","2022-5-4","15:17:8","25","75","3","9","10","40","30","120","93","19","[""Black or African-American""]","No","Female","6075679","null","null","","","","fixation","","","","","","","","","","","","","","","","","","","","","","","","","",""
"","","","","","canvas-keyboard-response","98","3603049","0.0-12.0-1.17","2d_cat_multi_stim_exp1","2022-5-4","15:17:8","25","75","3","9","10","40","30","120","93","19","[""Black or African-American""]","No","Female","6075679","null","null","","","","clear_screen","","","","","","","","","","","","","","","","","","","","","","","","","",""
"","","","","","canvas-keyboard-response","99","3603881","0.0-12.0-2.17","2d_cat_multi_stim_exp1","2022-5-4","15:17:8","25","75","3","9","10","40","30","120","93","19","[""Black or African-American""]","No","Female","6075679","822","u","learn","","","learn_trial","24.8654","83.9909","in","1","1","","","","","","","","","","","","","","","","","","","","",""
"","","","","","canvas-keyboard-response","100","3604391","0.0-12.0-3.17","2d_cat_multi_stim_exp1","2022-5-4","15:17:8","25","75","3","9","10","40","30","120","93","19","[""Black or African-American""]","No","Female","6075679","null","null","learn_feedback","","","learn_feedback","24.8654","83.9909","in","","","","","","","","","","","","","","","","","","","","","","",""
"","","","","","canvas-keyboard-response","101","3604453","0.0-12.0-4.17","2d_cat_multi_stim_exp1","2022-5-4","15:17:8","25","75","3","9","10","40","30","120","93","19","[""Black or African-American""]","No","Female","6075679","null","null","","","","clear_screen","","","","","","","","","","","","","","","","","","","","","","","","","",""
"","","","","","canvas-keyboard-response","102","3604962","0.0-12.0-0.18","2d_cat_multi_stim_exp1","2022-5-4","15:17:8","25","75","3","9","10","40","30","120","93","19","[""Black or African-American""]","No","Female","6075679","null","null","","","","fixation","","","","","","","","","","","","","","","","","","","","","","","","","",""
"","","","","","canvas-keyboard-response","103","3605471","0.0-12.0-1.18","2d_cat_multi_stim_exp1","2022-5-4","15:17:8","25","75","3","9","10","40","30","120","93","19","[""Black or African-American""]","No","Female","6075679","null","null","","","","clear_screen","","","","","","","","","","","","","","","","","","","","","","","","","",""
"","","","","","canvas-keyboard-response","104","3609234","0.0-12.0-2.18","2d_cat_multi_stim_exp1","2022-5-4","15:17:8","25","75","3","9","10","40","30","120","93","19","[""Black or African-American""]","No","Female","6075679","3755","u","learn","","","learn_trial","28","75","in","1","1","","","","","","","","","","","","","","","","","","","","",""
"","","","","","canvas-keyboard-response","105","3609744","0.0-12.0-3.18","2d_cat_multi_stim_exp1","2022-5-4","15:17:8","25","75","3","9","10","40","30","120","93","19","[""Black or African-American""]","No","Female","6075679","null","null","learn_feedback","","","learn_feedback","28","75","in","","","","","","","","","","","","","","","","","","","","","","",""
"","","","","","canvas-keyboard-response","106","3609806","0.0-12.0-4.18","2d_cat_multi_stim_exp1","2022-5-4","15:17:8","25","75","3","9","10","40","30","120","93","19","[""Black or African-American""]","No","Female","6075679","null","null","","","","clear_screen","","","","","","","","","","","","","","","","","","","","","","","","","",""
"","","","","","canvas-keyboard-response","107","3610314","0.0-12.0-0.19","2d_cat_multi_stim_exp1","2022-5-4","15:17:8","25","75","3","9","10","40","30","120","93","19","[""Black or African-American""]","No","Female","6075679","null","null","","","","fixation","","","","","","","","","","","","","","","","","","","","","","","","","",""
"","","","","","canvas-keyboard-response","108","3610817","0.0-12.0-1.19","2d_cat_multi_stim_exp1","2022-5-4","15:17:8","25","75","3","9","10","40","30","120","93","19","[""Black or African-American""]","No","Female","6075679","null","null","","","","clear_screen","","","","","","","","","","","","","","","","","","","","","","","","","",""
"","","","","","canvas-keyboard-response","109","3611841","0.0-12.0-2.19","2d_cat_multi_stim_exp1","2022-5-4","15:17:8","25","75","3","9","10","40","30","120","93","19","[""Black or African-American""]","No","Female","6075679","1014","u","learn","","","learn_trial","25","75","in","1","1","","","","","","","","","","","","","","","","","","","","",""
"","","","","","canvas-keyboard-response","110","3612353","0.0-12.0-3.19","2d_cat_multi_stim_exp1","2022-5-4","15:17:8","25","75","3","9","10","40","30","120","93","19","[""Black or African-American""]","No","Female","6075679","null","null","learn_feedback","","","learn_feedback","25","75","in","","","","","","","","","","","","","","","","","","","","","","",""
"","","","","","canvas-keyboard-response","111","3612413","0.0-12.0-4.19","2d_cat_multi_stim_exp1","2022-5-4","15:17:8","25","75","3","9","10","40","30","120","93","19","[""Black or African-American""]","No","Female","6075679","null","null","","","","clear_screen","","","","","","","","","","","","","","","","","","","","","","","","","",""
"","","","","","canvas-keyboard-response","112","3612920","0.0-12.0-0.20","2d_cat_multi_stim_exp1","2022-5-4","15:17:8","25","75","3","9","10","40","30","120","93","19","[""Black or African-American""]","No","Female","6075679","null","null","","","","fixation","","","","","","","","","","","","","","","","","","","","","","","","","",""
"","","","","","canvas-keyboard-response","113","3613429","0.0-12.0-1.20","2d_cat_multi_stim_exp1","2022-5-4","15:17:8","25","75","3","9","10","40","30","120","93","19","[""Black or African-American""]","No","Female","6075679","null","null","","","","clear_screen","","","","","","","","","","","","","","","","","","","","","","","","","",""
"","","","","","canvas-keyboard-response","114","3614288","0.0-12.0-2.20","2d_cat_multi_stim_exp1","2022-5-4","15:17:8","25","75","3","9","10","40","30","120","93","19","[""Black or African-American""]","No","Female","6075679","847","i","learn","","","learn_trial","29.2426","62.2721","in","0","0","","","","","","","","","","","","","","","","","","","","",""
"","","","","","canvas-keyboard-response","115","3615299","0.0-12.0-3.20","2d_cat_multi_stim_exp1","2022-5-4","15:17:8","25","75","3","9","10","40","30","120","93","19","[""Black or African-American""]","No","Female","6075679","null","null","learn_feedback","","","learn_feedback","29.2426","62.2721","in","","","","","","","","","","","","","","","","","","","","","","",""
"","","","","","canvas-keyboard-response","116","3615360","0.0-12.0-4.20","2d_cat_multi_stim_exp1","2022-5-4","15:17:8","25","75","3","9","10","40","30","120","93","19","[""Black or African-American""]","No","Female","6075679","null","null","","","","clear_screen","","","","","","","","","","","","","","","","","","","","","","","","","",""
"","","","","","canvas-keyboard-response","117","3615871","0.0-12.0-0.21","2d_cat_multi_stim_exp1","2022-5-4","15:17:8","25","75","3","9","10","40","30","120","93","19","[""Black or African-American""]","No","Female","6075679","null","null","","","","fixation","","","","","","","","","","","","","","","","","","","","","","","","","",""
"","","","","","canvas-keyboard-response","118","3616383","0.0-12.0-1.21","2d_cat_multi_stim_exp1","2022-5-4","15:17:8","25","75","3","9","10","40","30","120","93","19","[""Black or African-American""]","No","Female","6075679","null","null","","","","clear_screen","","","","","","","","","","","","","","","","","","","","","","","","","",""
"","","","","","canvas-keyboard-response","119","3621017","0.0-12.0-2.21","2d_cat_multi_stim_exp1","2022-5-4","15:17:8","25","75","3","9","10","40","30","120","93","19","[""Black or African-American""]","No","Female","6075679","4624","i","learn","","","learn_trial","13.3333","100","out","0","1","","","","","","","","","","","","","","","","","","","","",""
"","","","","","canvas-keyboard-response","120","3621527","0.0-12.0-3.21","2d_cat_multi_stim_exp1","2022-5-4","15:17:8","25","75","3","9","10","40","30","120","93","19","[""Black or African-American""]","No","Female","6075679","null","null","learn_feedback","","","learn_feedback","13.3333","100","out","","","","","","","","","","","","","","","","","","","","","","",""
"","","","","","canvas-keyboard-response","121","3621587","0.0-12.0-4.21","2d_cat_multi_stim_exp1","2022-5-4","15:17:8","25","75","3","9","10","40","30","120","93","19","[""Black or African-American""]","No","Female","6075679","null","null","","","","clear_screen","","","","","","","","","","","","","","","","","","","","","","","","","",""
"","","","","","canvas-keyboard-response","122","3622094","0.0-12.0-0.22","2d_cat_multi_stim_exp1","2022-5-4","15:17:8","25","75","3","9","10","40","30","120","93","19","[""Black or African-American""]","No","Female","6075679","null","null","","","","fixation","","","","","","","","","","","","","","","","","","","","","","","","","",""
"","","","","","canvas-keyboard-response","123","3622607","0.0-12.0-1.22","2d_cat_multi_stim_exp1","2022-5-4","15:17:8","25","75","3","9","10","40","30","120","93","19","[""Black or African-American""]","No","Female","6075679","null","null","","","","clear_screen","","","","","","","","","","","","","","","","","","","","","","","","","",""
"","","","","","canvas-keyboard-response","124","3624785","0.0-12.0-2.22","2d_cat_multi_stim_exp1","2022-5-4","15:17:8","25","75","3","9","10","40","30","120","93","19","[""Black or African-American""]","No","Female","6075679","2170","i","learn","","","learn_trial","40","110","out","0","1","","","","","","","","","","","","","","","","","","","","",""
"","","","","","canvas-keyboard-response","125","3625294","0.0-12.0-3.22","2d_cat_multi_stim_exp1","2022-5-4","15:17:8","25","75","3","9","10","40","30","120","93","19","[""Black or African-American""]","No","Female","6075679","null","null","learn_feedback","","","learn_feedback","40","110","out","","","","","","","","","","","","","","","","","","","","","","",""
"","","","","","canvas-keyboard-response","126","3625353","0.0-12.0-4.22","2d_cat_multi_stim_exp1","2022-5-4","15:17:8","25","75","3","9","10","40","30","120","93","19","[""Black or African-American""]","No","Female","6075679","null","null","","","","clear_screen","","","","","","","","","","","","","","","","","","","","","","","","","",""
"","","","","","canvas-keyboard-response","127","3625861","0.0-12.0-0.23","2d_cat_multi_stim_exp1","2022-5-4","15:17:8","25","75","3","9","10","40","30","120","93","19","[""Black or African-American""]","No","Female","6075679","null","null","","","","fixation","","","","","","","","","","","","","","","","","","","","","","","","","",""
"","","","","","canvas-keyboard-response","128","3626375","0.0-12.0-1.23","2d_cat_multi_stim_exp1","2022-5-4","15:17:8","25","75","3","9","10","40","30","120","93","19","[""Black or African-American""]","No","Female","6075679","null","null","","","","clear_screen","","","","","","","","","","","","","","","","","","","","","","","","","",""
"","","","","","canvas-keyboard-response","129","3628648","0.0-12.0-2.23","2d_cat_multi_stim_exp1","2022-5-4","15:17:8","25","75","3","9","10","40","30","120","93","19","[""Black or African-American""]","No","Female","6075679","2266","i","learn","","","learn_trial","23.3333","40","out","0","1","","","","","","","","","","","","","","","","","","","","",""
"","","","","","canvas-keyboard-response","130","3629158","0.0-12.0-3.23","2d_cat_multi_stim_exp1","2022-5-4","15:17:8","25","75","3","9","10","40","30","120","93","19","[""Black or African-American""]","No","Female","6075679","null","null","learn_feedback","","","learn_feedback","23.3333","40","out","","","","","","","","","","","","","","","","","","","","","","",""
"","","","","","canvas-keyboard-response","131","3629219","0.0-12.0-4.23","2d_cat_multi_stim_exp1","2022-5-4","15:17:8","25","75","3","9","10","40","30","120","93","19","[""Black or African-American""]","No","Female","6075679","null","null","","","","clear_screen","","","","","","","","","","","","","","","","","","","","","","","","","",""
"","","","","","canvas-keyboard-response","132","3629729","0.0-12.0-0.24","2d_cat_multi_stim_exp1","2022-5-4","15:17:8","25","75","3","9","10","40","30","120","93","19","[""Black or African-American""]","No","Female","6075679","null","null","","","","fixation","","","","","","","","","","","","","","","","","","","","","","","","","",""
"","","","","","canvas-keyboard-response","133","3630242","0.0-12.0-1.24","2d_cat_multi_stim_exp1","2022-5-4","15:17:8","25","75","3","9","10","40","30","120","93","19","[""Black or African-American""]","No","Female","6075679","null","null","","","","clear_screen","","","","","","","","","","","","","","","","","","","","","","","","","",""
"","","","","","canvas-keyboard-response","134","3632185","0.0-12.0-2.24","2d_cat_multi_stim_exp1","2022-5-4","15:17:8","25","75","3","9","10","40","30","120","93","19","[""Black or African-American""]","No","Female","6075679","1935","u","learn","","","learn_trial","25","75","in","1","1","","","","","","","","","","","","","","","","","","","","",""
"","","","","","canvas-keyboard-response","135","3632695","0.0-12.0-3.24","2d_cat_multi_stim_exp1","2022-5-4","15:17:8","25","75","3","9","10","40","30","120","93","19","[""Black or African-American""]","No","Female","6075679","null","null","learn_feedback","","","learn_feedback","25","75","in","","","","","","","","","","","","","","","","","","","","","","",""
"","","","","","canvas-keyboard-response","136","3632756","0.0-12.0-4.24","2d_cat_multi_stim_exp1","2022-5-4","15:17:8","25","75","3","9","10","40","30","120","93","19","[""Black or African-American""]","No","Female","6075679","null","null","","","","clear_screen","","","","","","","","","","","","","","","","","","","","","","","","","",""
"","","","","","canvas-keyboard-response","137","3633265","0.0-12.0-0.25","2d_cat_multi_stim_exp1","2022-5-4","15:17:8","25","75","3","9","10","40","30","120","93","19","[""Black or African-American""]","No","Female","6075679","null","null","","","","fixation","","","","","","","","","","","","","","","","","","","","","","","","","",""
"","","","","","canvas-keyboard-response","138","3633775","0.0-12.0-1.25","2d_cat_multi_stim_exp1","2022-5-4","15:17:8","25","75","3","9","10","40","30","120","93","19","[""Black or African-American""]","No","Female","6075679","null","null","","","","clear_screen","","","","","","","","","","","","","","","","","","","","","","","","","",""
"","","","","","canvas-keyboard-response","139","3635289","0.0-12.0-2.25","2d_cat_multi_stim_exp1","2022-5-4","15:17:8","25","75","3","9","10","40","30","120","93","19","[""Black or African-American""]","No","Female","6075679","1506","u","learn","","","learn_trial","25","75","in","1","1","","","","","","","","","","","","","","","","","","","","",""
"","","","","","canvas-keyboard-response","140","3635797","0.0-12.0-3.25","2d_cat_multi_stim_exp1","2022-5-4","15:17:8","25","75","3","9","10","40","30","120","93","19","[""Black or African-American""]","No","Female","6075679","null","null","learn_feedback","","","learn_feedback","25","75","in","","","","","","","","","","","","","","","","","","","","","","",""
"","","","","","canvas-keyboard-response","141","3635859","0.0-12.0-4.25","2d_cat_multi_stim_exp1","2022-5-4","15:17:8","25","75","3","9","10","40","30","120","93","19","[""Black or African-American""]","No","Female","6075679","null","null","","","","clear_screen","","","","","","","","","","","","","","","","","","","","","","","","","",""
"","","","","","canvas-keyboard-response","142","3636368","0.0-12.0-0.26","2d_cat_multi_stim_exp1","2022-5-4","15:17:8","25","75","3","9","10","40","30","120","93","19","[""Black or African-American""]","No","Female","6075679","null","null","","","","fixation","","","","","","","","","","","","","","","","","","","","","","","","","",""
"","","","","","canvas-keyboard-response","143","3636880","0.0-12.0-1.26","2d_cat_multi_stim_exp1","2022-5-4","15:17:8","25","75","3","9","10","40","30","120","93","19","[""Black or African-American""]","No","Female","6075679","null","null","","","","clear_screen","","","","","","","","","","","","","","","","","","","","","","","","","",""
"","","","","","canvas-keyboard-response","144","3638417","0.0-12.0-2.26","2d_cat_multi_stim_exp1","2022-5-4","15:17:8","25","75","3","9","10","40","30","120","93","19","[""Black or African-American""]","No","Female","6075679","1529","u","learn","","","learn_trial","27.9518","76.607","in","1","1","","","","","","","","","","","","","","","","","","","","",""
"","","","","","canvas-keyboard-response","145","3638926","0.0-12.0-3.26","2d_cat_multi_stim_exp1","2022-5-4","15:17:8","25","75","3","9","10","40","30","120","93","19","[""Black or African-American""]","No","Female","6075679","null","null","learn_feedback","","","learn_feedback","27.9518","76.607","in","","","","","","","","","","","","","","","","","","","","","","",""
"","","","","","canvas-keyboard-response","146","3638984","0.0-12.0-4.26","2d_cat_multi_stim_exp1","2022-5-4","15:17:8","25","75","3","9","10","40","30","120","93","19","[""Black or African-American""]","No","Female","6075679","null","null","","","","clear_screen","","","","","","","","","","","","","","","","","","","","","","","","","",""
"","","","","","canvas-keyboard-response","147","3639495","0.0-12.0-0.27","2d_cat_multi_stim_exp1","2022-5-4","15:17:8","25","75","3","9","10","40","30","120","93","19","[""Black or African-American""]","No","Female","6075679","null","null","","","","fixation","","","","","","","","","","","","","","","","","","","","","","","","","",""
"","","","","","canvas-keyboard-response","148","3640008","0.0-12.0-1.27","2d_cat_multi_stim_exp1","2022-5-4","15:17:8","25","75","3","9","10","40","30","120","93","19","[""Black or African-American""]","No","Female","6075679","null","null","","","","clear_screen","","","","","","","","","","","","","","","","","","","","","","","","","",""
"","","","","","canvas-keyboard-response","149","3641033","0.0-12.0-2.27","2d_cat_multi_stim_exp1","2022-5-4","15:17:8","25","75","3","9","10","40","30","120","93","19","[""Black or African-American""]","No","Female","6075679","1012","i","learn","","","learn_trial","33.3333","30","out","0","1","","","","","","","","","","","","","","","","","","","","",""
"","","","","","canvas-keyboard-response","150","3641543","0.0-12.0-3.27","2d_cat_multi_stim_exp1","2022-5-4","15:17:8","25","75","3","9","10","40","30","120","93","19","[""Black or African-American""]","No","Female","6075679","null","null","learn_feedback","","","learn_feedback","33.3333","30","out","","","","","","","","","","","","","","","","","","","","","","",""
"","","","","","canvas-keyboard-response","151","3641603","0.0-12.0-4.27","2d_cat_multi_stim_exp1","2022-5-4","15:17:8","25","75","3","9","10","40","30","120","93","19","[""Black or African-American""]","No","Female","6075679","null","null","","","","clear_screen","","","","","","","","","","","","","","","","","","","","","","","","","",""
"","","","","","canvas-keyboard-response","152","3642112","0.0-12.0-0.28","2d_cat_multi_stim_exp1","2022-5-4","15:17:8","25","75","3","9","10","40","30","120","93","19","[""Black or African-American""]","No","Female","6075679","null","null","","","","fixation","","","","","","","","","","","","","","","","","","","","","","","","","",""
"","","","","","canvas-keyboard-response","153","3642622","0.0-12.0-1.28","2d_cat_multi_stim_exp1","2022-5-4","15:17:8","25","75","3","9","10","40","30","120","93","19","[""Black or African-American""]","No","Female","6075679","null","null","","","","clear_screen","","","","","","","","","","","","","","","","","","","","","","","","","",""
"","","","","","canvas-keyboard-response","154","3645344","0.0-12.0-2.28","2d_cat_multi_stim_exp1","2022-5-4","15:17:8","25","75","3","9","10","40","30","120","93","19","[""Black or African-American""]","No","Female","6075679","2715","u","learn","","","learn_trial","30","80","out","1","0","","","","","","","","","","","","","","","","","","","","",""
"","","","","","canvas-keyboard-response","155","3646354","0.0-12.0-3.28","2d_cat_multi_stim_exp1","2022-5-4","15:17:8","25","75","3","9","10","40","30","120","93","19","[""Black or African-American""]","No","Female","6075679","null","null","learn_feedback","","","learn_feedback","30","80","out","","","","","","","","","","","","","","","","","","","","","","",""
"","","","","","canvas-keyboard-response","156","3646415","0.0-12.0-4.28","2d_cat_multi_stim_exp1","2022-5-4","15:17:8","25","75","3","9","10","40","30","120","93","19","[""Black or African-American""]","No","Female","6075679","null","null","","","","clear_screen","","","","","","","","","","","","","","","","","","","","","","","","","",""
"","","","","","canvas-keyboard-response","157","3646927","0.0-12.0-0.29","2d_cat_multi_stim_exp1","2022-5-4","15:17:8","25","75","3","9","10","40","30","120","93","19","[""Black or African-American""]","No","Female","6075679","null","null","","","","fixation","","","","","","","","","","","","","","","","","","","","","","","","","",""
"","","","","","canvas-keyboard-response","158","3647439","0.0-12.0-1.29","2d_cat_multi_stim_exp1","2022-5-4","15:17:8","25","75","3","9","10","40","30","120","93","19","[""Black or African-American""]","No","Female","6075679","null","null","","","","clear_screen","","","","","","","","","","","","","","","","","","","","","","","","","",""
"","","","","","canvas-keyboard-response","159","3651369","0.0-12.0-2.29","2d_cat_multi_stim_exp1","2022-5-4","15:17:8","25","75","3","9","10","40","30","120","93","19","[""Black or African-American""]","No","Female","6075679","3921","u","learn","","","learn_trial","25","75","in","1","1","","","","","","","","","","","","","","","","","","","","",""
"","","","","","canvas-keyboard-response","160","3651878","0.0-12.0-3.29","2d_cat_multi_stim_exp1","2022-5-4","15:17:8","25","75","3","9","10","40","30","120","93","19","[""Black or African-American""]","No","Female","6075679","null","null","learn_feedback","","","learn_feedback","25","75","in","","","","","","","","","","","","","","","","","","","","","","",""
"","","","","","canvas-keyboard-response","161","3651941","0.0-12.0-4.29","2d_cat_multi_stim_exp1","2022-5-4","15:17:8","25","75","3","9","10","40","30","120","93","19","[""Black or African-American""]","No","Female","6075679","null","null","","","","clear_screen","","","","","","","","","","","","","","","","","","","","","","","","","",""
"","","","","","canvas-keyboard-response","162","3652449","0.0-12.0-0.30","2d_cat_multi_stim_exp1","2022-5-4","15:17:8","25","75","3","9","10","40","30","120","93","19","[""Black or African-American""]","No","Female","6075679","null","null","","","","fixation","","","","","","","","","","","","","","","","","","","","","","","","","",""
"","","","","","canvas-keyboard-response","163","3652963","0.0-12.0-1.30","2d_cat_multi_stim_exp1","2022-5-4","15:17:8","25","75","3","9","10","40","30","120","93","19","[""Black or African-American""]","No","Female","6075679","null","null","","","","clear_screen","","","","","","","","","","","","","","","","","","","","","","","","","",""
"","","","","","canvas-keyboard-response","164","3653866","0.0-12.0-2.30","2d_cat_multi_stim_exp1","2022-5-4","15:17:8","25","75","3","9","10","40","30","120","93","19","[""Black or African-American""]","No","Female","6075679","894","i","learn","","","learn_trial","36.6667","50","out","0","1","","","","","","","","","","","","","","","","","","","","",""
"","","","","","canvas-keyboard-response","165","3654376","0.0-12.0-3.30","2d_cat_multi_stim_exp1","2022-5-4","15:17:8","25","75","3","9","10","40","30","120","93","19","[""Black or African-American""]","No","Female","6075679","null","null","learn_feedback","","","learn_feedback","36.6667","50","out","","","","","","","","","","","","","","","","","","","","","","",""
"","","","","","canvas-keyboard-response","166","3654439","0.0-12.0-4.30","2d_cat_multi_stim_exp1","2022-5-4","15:17:8","25","75","3","9","10","40","30","120","93","19","[""Black or African-American""]","No","Female","6075679","null","null","","","","clear_screen","","","","","","","","","","","","","","","","","","","","","","","","","",""
"","","","","","canvas-keyboard-response","167","3654951","0.0-12.0-0.31","2d_cat_multi_stim_exp1","2022-5-4","15:17:8","25","75","3","9","10","40","30","120","93","19","[""Black or African-American""]","No","Female","6075679","null","null","","","","fixation","","","","","","","","","","","","","","","","","","","","","","","","","",""
"","","","","","canvas-keyboard-response","168","3655463","0.0-12.0-1.31","2d_cat_multi_stim_exp1","2022-5-4","15:17:8","25","75","3","9","10","40","30","120","93","19","[""Black or African-American""]","No","Female","6075679","null","null","","","","clear_screen","","","","","","","","","","","","","","","","","","","","","","","","","",""
"","","","","","canvas-keyboard-response","169","3656281","0.0-12.0-2.31","2d_cat_multi_stim_exp1","2022-5-4","15:17:8","25","75","3","9","10","40","30","120","93","19","[""Black or African-American""]","No","Female","6075679","808","i","learn","","","learn_trial","20","40","out","0","1","","","","","","","","","","","","","","","","","","","","",""
"","","","","","canvas-keyboard-response","170","3656791","0.0-12.0-3.31","2d_cat_multi_stim_exp1","2022-5-4","15:17:8","25","75","3","9","10","40","30","120","93","19","[""Black or African-American""]","No","Female","6075679","null","null","learn_feedback","","","learn_feedback","20","40","out","","","","","","","","","","","","","","","","","","","","","","",""
"","","","","","canvas-keyboard-response","171","3656850","0.0-12.0-4.31","2d_cat_multi_stim_exp1","2022-5-4","15:17:8","25","75","3","9","10","40","30","120","93","19","[""Black or African-American""]","No","Female","6075679","null","null","","","","clear_screen","","","","","","","","","","","","","","","","","","","","","","","","","",""
"","","","","","canvas-keyboard-response","172","3657361","0.0-12.0-0.32","2d_cat_multi_stim_exp1","2022-5-4","15:17:8","25","75","3","9","10","40","30","120","93","19","[""Black or African-American""]","No","Female","6075679","null","null","","","","fixation","","","","","","","","","","","","","","","","","","","","","","","","","",""
"","","","","","canvas-keyboard-response","173","3657872","0.0-12.0-1.32","2d_cat_multi_stim_exp1","2022-5-4","15:17:8","25","75","3","9","10","40","30","120","93","19","[""Black or African-American""]","No","Female","6075679","null","null","","","","clear_screen","","","","","","","","","","","","","","","","","","","","","","","","","",""
"","","","","","canvas-keyboard-response","174","3658593","0.0-12.0-2.32","2d_cat_multi_stim_exp1","2022-5-4","15:17:8","25","75","3","9","10","40","30","120","93","19","[""Black or African-American""]","No","Female","6075679","712","u","learn","","","learn_trial","25","75","in","1","1","","","","","","","","","","","","","","","","","","","","",""
"","","","","","canvas-keyboard-response","175","3659102","0.0-12.0-3.32","2d_cat_multi_stim_exp1","2022-5-4","15:17:8","25","75","3","9","10","40","30","120","93","19","[""Black or African-American""]","No","Female","6075679","null","null","learn_feedback","","","learn_feedback","25","75","in","","","","","","","","","","","","","","","","","","","","","","",""
"","","","","","canvas-keyboard-response","176","3659165","0.0-12.0-4.32","2d_cat_multi_stim_exp1","2022-5-4","15:17:8","25","75","3","9","10","40","30","120","93","19","[""Black or African-American""]","No","Female","6075679","null","null","","","","clear_screen","","","","","","","","","","","","","","","","","","","","","","","","","",""
"","","","","","canvas-keyboard-response","177","3659669","0.0-12.0-0.33","2d_cat_multi_stim_exp1","2022-5-4","15:17:8","25","75","3","9","10","40","30","120","93","19","[""Black or African-American""]","No","Female","6075679","null","null","","","","fixation","","","","","","","","","","","","","","","","","","","","","","","","","",""
"","","","","","canvas-keyboard-response","178","3660180","0.0-12.0-1.33","2d_cat_multi_stim_exp1","2022-5-4","15:17:8","25","75","3","9","10","40","30","120","93","19","[""Black or African-American""]","No","Female","6075679","null","null","","","","clear_screen","","","","","","","","","","","","","","","","","","","","","","","","","",""
"","","","","","canvas-keyboard-response","179","3660777","0.0-12.0-2.33","2d_cat_multi_stim_exp1","2022-5-4","15:17:8","25","75","3","9","10","40","30","120","93","19","[""Black or African-American""]","No","Female","6075679","586","u","learn","","","learn_trial","25","75","in","1","1","","","","","","","","","","","","","","","","","","","","",""
"","","","","","canvas-keyboard-response","180","3661288","0.0-12.0-3.33","2d_cat_multi_stim_exp1","2022-5-4","15:17:8","25","75","3","9","10","40","30","120","93","19","[""Black or African-American""]","No","Female","6075679","null","null","learn_feedback","","","learn_feedback","25","75","in","","","","","","","","","","","","","","","","","","","","","","",""
"","","","","","canvas-keyboard-response","181","3661346","0.0-12.0-4.33","2d_cat_multi_stim_exp1","2022-5-4","15:17:8","25","75","3","9","10","40","30","120","93","19","[""Black or African-American""]","No","Female","6075679","null","null","","","","clear_screen","","","","","","","","","","","","","","","","","","","","","","","","","",""
"","","","","","canvas-keyboard-response","182","3661851","0.0-12.0-0.34","2d_cat_multi_stim_exp1","2022-5-4","15:17:8","25","75","3","9","10","40","30","120","93","19","[""Black or African-American""]","No","Female","6075679","null","null","","","","fixation","","","","","","","","","","","","","","","","","","","","","","","","","",""
"","","","","","canvas-keyboard-response","183","3662360","0.0-12.0-1.34","2d_cat_multi_stim_exp1","2022-5-4","15:17:8","25","75","3","9","10","40","30","120","93","19","[""Black or African-American""]","No","Female","6075679","null","null","","","","clear_screen","","","","","","","","","","","","","","","","","","","","","","","","","",""
"","","","","","canvas-keyboard-response","184","3663032","0.0-12.0-2.34","2d_cat_multi_stim_exp1","2022-5-4","15:17:8","25","75","3","9","10","40","30","120","93","19","[""Black or African-American""]","No","Female","6075679","662","u","learn","","","learn_trial","22.9268","68.4948","in","1","1","","","","","","","","","","","","","","","","","","","","",""
"","","","","","canvas-keyboard-response","185","3663545","0.0-12.0-3.34","2d_cat_multi_stim_exp1","2022-5-4","15:17:8","25","75","3","9","10","40","30","120","93","19","[""Black or African-American""]","No","Female","6075679","null","null","learn_feedback","","","learn_feedback","22.9268","68.4948","in","","","","","","","","","","","","","","","","","","","","","","",""
"","","","","","canvas-keyboard-response","186","3663607","0.0-12.0-4.34","2d_cat_multi_stim_exp1","2022-5-4","15:17:8","25","75","3","9","10","40","30","120","93","19","[""Black or African-American""]","No","Female","6075679","null","null","","","","clear_screen","","","","","","","","","","","","","","","","","","","","","","","","","",""
"","","","","","canvas-keyboard-response","187","3664116","0.0-12.0-0.35","2d_cat_multi_stim_exp1","2022-5-4","15:17:8","25","75","3","9","10","40","30","120","93","19","[""Black or African-American""]","No","Female","6075679","null","null","","","","fixation","","","","","","","","","","","","","","","","","","","","","","","","","",""
"","","","","","canvas-keyboard-response","188","3664627","0.0-12.0-1.35","2d_cat_multi_stim_exp1","2022-5-4","15:17:8","25","75","3","9","10","40","30","120","93","19","[""Black or African-American""]","No","Female","6075679","null","null","","","","clear_screen","","","","","","","","","","","","","","","","","","","","","","","","","",""
"","","","","","canvas-keyboard-response","189","3665377","0.0-12.0-2.35","2d_cat_multi_stim_exp1","2022-5-4","15:17:8","25","75","3","9","10","40","30","120","93","19","[""Black or African-American""]","No","Female","6075679","738","i","learn","","","learn_trial","10","40","out","0","1","","","","","","","","","","","","","","","","","","","","",""
"","","","","","canvas-keyboard-response","190","3665885","0.0-12.0-3.35","2d_cat_multi_stim_exp1","2022-5-4","15:17:8","25","75","3","9","10","40","30","120","93","19","[""Black or African-American""]","No","Female","6075679","null","null","learn_feedback","","","learn_feedback","10","40","out","","","","","","","","","","","","","","","","","","","","","","",""
"","","","","","canvas-keyboard-response","191","3665946","0.0-12.0-4.35","2d_cat_multi_stim_exp1","2022-5-4","15:17:8","25","75","3","9","10","40","30","120","93","19","[""Black or African-American""]","No","Female","6075679","null","null","","","","clear_screen","","","","","","","","","","","","","","","","","","","","","","","","","",""
"","","","","","canvas-keyboard-response","192","3666458","0.0-12.0-0.36","2d_cat_multi_stim_exp1","2022-5-4","15:17:8","25","75","3","9","10","40","30","120","93","19","[""Black or African-American""]","No","Female","6075679","null","null","","","","fixation","","","","","","","","","","","","","","","","","","","","","","","","","",""
"","","","","","canvas-keyboard-response","193","3666971","0.0-12.0-1.36","2d_cat_multi_stim_exp1","2022-5-4","15:17:8","25","75","3","9","10","40","30","120","93","19","[""Black or African-American""]","No","Female","6075679","null","null","","","","clear_screen","","","","","","","","","","","","","","","","","","","","","","","","","",""
"","","","","","canvas-keyboard-response","194","3669658","0.0-12.0-2.36","2d_cat_multi_stim_exp1","2022-5-4","15:17:8","25","75","3","9","10","40","30","120","93","19","[""Black or African-American""]","No","Female","6075679","2677","u","learn","","","learn_trial","22.2971","71.095","in","1","1","","","","","","","","","","","","","","","","","","","","",""
"","","","","","canvas-keyboard-response","195","3670166","0.0-12.0-3.36","2d_cat_multi_stim_exp1","2022-5-4","15:17:8","25","75","3","9","10","40","30","120","93","19","[""Black or African-American""]","No","Female","6075679","null","null","learn_feedback","","","learn_feedback","22.2971","71.095","in","","","","","","","","","","","","","","","","","","","","","","",""
"","","","","","canvas-keyboard-response","196","3670230","0.0-12.0-4.36","2d_cat_multi_stim_exp1","2022-5-4","15:17:8","25","75","3","9","10","40","30","120","93","19","[""Black or African-American""]","No","Female","6075679","null","null","","","","clear_screen","","","","","","","","","","","","","","","","","","","","","","","","","",""
"","","","","","canvas-keyboard-response","197","3670740","0.0-12.0-0.37","2d_cat_multi_stim_exp1","2022-5-4","15:17:8","25","75","3","9","10","40","30","120","93","19","[""Black or African-American""]","No","Female","6075679","null","null","","","","fixation","","","","","","","","","","","","","","","","","","","","","","","","","",""
"","","","","","canvas-keyboard-response","198","3671250","0.0-12.0-1.37","2d_cat_multi_stim_exp1","2022-5-4","15:17:8","25","75","3","9","10","40","30","120","93","19","[""Black or African-American""]","No","Female","6075679","null","null","","","","clear_screen","","","","","","","","","","","","","","","","","","","","","","","","","",""
"","","","","","canvas-keyboard-response","199","3672313","0.0-12.0-2.37","2d_cat_multi_stim_exp1","2022-5-4","15:17:8","25","75","3","9","10","40","30","120","93","19","[""Black or African-American""]","No","Female","6075679","1051","u","learn","","","learn_trial","25","75","in","1","1","","","","","","","","","","","","","","","","","","","","",""
"","","","","","canvas-keyboard-response","200","3672823","0.0-12.0-3.37","2d_cat_multi_stim_exp1","2022-5-4","15:17:8","25","75","3","9","10","40","30","120","93","19","[""Black or African-American""]","No","Female","6075679","null","null","learn_feedback","","","learn_feedback","25","75","in","","","","","","","","","","","","","","","","","","","","","","",""
"","","","","","canvas-keyboard-response","201","3672884","0.0-12.0-4.37","2d_cat_multi_stim_exp1","2022-5-4","15:17:8","25","75","3","9","10","40","30","120","93","19","[""Black or African-American""]","No","Female","6075679","null","null","","","","clear_screen","","","","","","","","","","","","","","","","","","","","","","","","","",""
"","","","","","canvas-keyboard-response","202","3673394","0.0-12.0-0.38","2d_cat_multi_stim_exp1","2022-5-4","15:17:8","25","75","3","9","10","40","30","120","93","19","[""Black or African-American""]","No","Female","6075679","null","null","","","","fixation","","","","","","","","","","","","","","","","","","","","","","","","","",""
"","","","","","canvas-keyboard-response","203","3673904","0.0-12.0-1.38","2d_cat_multi_stim_exp1","2022-5-4","15:17:8","25","75","3","9","10","40","30","120","93","19","[""Black or African-American""]","No","Female","6075679","null","null","","","","clear_screen","","","","","","","","","","","","","","","","","","","","","","","","","",""
"","","","","","canvas-keyboard-response","204","3675569","0.0-12.0-2.38","2d_cat_multi_stim_exp1","2022-5-4","15:17:8","25","75","3","9","10","40","30","120","93","19","[""Black or African-American""]","No","Female","6075679","1657","i","learn","","","learn_trial","25","75","in","0","0","","","","","","","","","","","","","","","","","","","","",""
"","","","","","canvas-keyboard-response","205","3676577","0.0-12.0-3.38","2d_cat_multi_stim_exp1","2022-5-4","15:17:8","25","75","3","9","10","40","30","120","93","19","[""Black or African-American""]","No","Female","6075679","null","null","learn_feedback","","","learn_feedback","25","75","in","","","","","","","","","","","","","","","","","","","","","","",""
"","","","","","canvas-keyboard-response","206","3676640","0.0-12.0-4.38","2d_cat_multi_stim_exp1","2022-5-4","15:17:8","25","75","3","9","10","40","30","120","93","19","[""Black or African-American""]","No","Female","6075679","null","null","","","","clear_screen","","","","","","","","","","","","","","","","","","","","","","","","","",""
"","","","","","canvas-keyboard-response","207","3677149","0.0-12.0-0.39","2d_cat_multi_stim_exp1","2022-5-4","15:17:8","25","75","3","9","10","40","30","120","93","19","[""Black or African-American""]","No","Female","6075679","null","null","","","","fixation","","","","","","","","","","","","","","","","","","","","","","","","","",""
"","","","","","canvas-keyboard-response","208","3677659","0.0-12.0-1.39","2d_cat_multi_stim_exp1","2022-5-4","15:17:8","25","75","3","9","10","40","30","120","93","19","[""Black or African-American""]","No","Female","6075679","null","null","","","","clear_screen","","","","","","","","","","","","","","","","","","","","","","","","","",""
"","","","","","canvas-keyboard-response","209","3679064","0.0-12.0-2.39","2d_cat_multi_stim_exp1","2022-5-4","15:17:8","25","75","3","9","10","40","30","120","93","19","[""Black or African-American""]","No","Female","6075679","1396","i","learn","","","learn_trial","33.3333","50","out","0","1","","","","","","","","","","","","","","","","","","","","",""
"","","","","","canvas-keyboard-response","210","3679576","0.0-12.0-3.39","2d_cat_multi_stim_exp1","2022-5-4","15:17:8","25","75","3","9","10","40","30","120","93","19","[""Black or African-American""]","No","Female","6075679","null","null","learn_feedback","","","learn_feedback","33.3333","50","out","","","","","","","","","","","","","","","","","","","","","","",""
"","","","","","canvas-keyboard-response","211","3679635","0.0-12.0-4.39","2d_cat_multi_stim_exp1","2022-5-4","15:17:8","25","75","3","9","10","40","30","120","93","19","[""Black or African-American""]","No","Female","6075679","null","null","","","","clear_screen","","","","","","","","","","","","","","","","","","","","","","","","","",""
"","","","","","canvas-keyboard-response","212","3680145","0.0-12.0-0.40","2d_cat_multi_stim_exp1","2022-5-4","15:17:8","25","75","3","9","10","40","30","120","93","19","[""Black or African-American""]","No","Female","6075679","null","null","","","","fixation","","","","","","","","","","","","","","","","","","","","","","","","","",""
"","","","","","canvas-keyboard-response","213","3680655","0.0-12.0-1.40","2d_cat_multi_stim_exp1","2022-5-4","15:17:8","25","75","3","9","10","40","30","120","93","19","[""Black or African-American""]","No","Female","6075679","null","null","","","","clear_screen","","","","","","","","","","","","","","","","","","","","","","","","","",""
"","","","","","canvas-keyboard-response","214","3682458","0.0-12.0-2.40","2d_cat_multi_stim_exp1","2022-5-4","15:17:8","25","75","3","9","10","40","30","120","93","19","[""Black or African-American""]","No","Female","6075679","1793","u","learn","","","learn_trial","25","75","in","1","1","","","","","","","","","","","","","","","","","","","","",""
"","","","","","canvas-keyboard-response","215","3682970","0.0-12.0-3.40","2d_cat_multi_stim_exp1","2022-5-4","15:17:8","25","75","3","9","10","40","30","120","93","19","[""Black or African-American""]","No","Female","6075679","null","null","learn_feedback","","","learn_feedback","25","75","in","","","","","","","","","","","","","","","","","","","","","","",""
"","","","","","canvas-keyboard-response","216","3683032","0.0-12.0-4.40","2d_cat_multi_stim_exp1","2022-5-4","15:17:8","25","75","3","9","10","40","30","120","93","19","[""Black or African-American""]","No","Female","6075679","null","null","","","","clear_screen","","","","","","","","","","","","","","","","","","","","","","","","","",""
"","","","","","canvas-keyboard-response","217","3683541","0.0-12.0-0.41","2d_cat_multi_stim_exp1","2022-5-4","15:17:8","25","75","3","9","10","40","30","120","93","19","[""Black or African-American""]","No","Female","6075679","null","null","","","","fixation","","","","","","","","","","","","","","","","","","","","","","","","","",""
"","","","","","canvas-keyboard-response","218","3684058","0.0-12.0-1.41","2d_cat_multi_stim_exp1","2022-5-4","15:17:8","25","75","3","9","10","40","30","120","93","19","[""Black or African-American""]","No","Female","6075679","null","null","","","","clear_screen","","","","","","","","","","","","","","","","","","","","","","","","","",""
"","","","","","canvas-keyboard-response","219","3686633","0.0-12.0-2.41","2d_cat_multi_stim_exp1","2022-5-4","15:17:8","25","75","3","9","10","40","30","120","93","19","[""Black or African-American""]","No","Female","6075679","2567","u","learn","","","learn_trial","25","75","in","1","1","","","","","","","","","","","","","","","","","","","","",""
"","","","","","canvas-keyboard-response","220","3687146","0.0-12.0-3.41","2d_cat_multi_stim_exp1","2022-5-4","15:17:8","25","75","3","9","10","40","30","120","93","19","[""Black or African-American""]","No","Female","6075679","null","null","learn_feedback","","","learn_feedback","25","75","in","","","","","","","","","","","","","","","","","","","","","","",""
"","","","","","canvas-keyboard-response","221","3687210","0.0-12.0-4.41","2d_cat_multi_stim_exp1","2022-5-4","15:17:8","25","75","3","9","10","40","30","120","93","19","[""Black or African-American""]","No","Female","6075679","null","null","","","","clear_screen","","","","","","","","","","","","","","","","","","","","","","","","","",""
"","","","","","canvas-keyboard-response","222","3687718","0.0-12.0-0.42","2d_cat_multi_stim_exp1","2022-5-4","15:17:8","25","75","3","9","10","40","30","120","93","19","[""Black or African-American""]","No","Female","6075679","null","null","","","","fixation","","","","","","","","","","","","","","","","","","","","","","","","","",""
"","","","","","canvas-keyboard-response","223","3688227","0.0-12.0-1.42","2d_cat_multi_stim_exp1","2022-5-4","15:17:8","25","75","3","9","10","40","30","120","93","19","[""Black or African-American""]","No","Female","6075679","null","null","","","","clear_screen","","","","","","","","","","","","","","","","","","","","","","","","","",""
"","","","","","canvas-keyboard-response","224","3690016","0.0-12.0-2.42","2d_cat_multi_stim_exp1","2022-5-4","15:17:8","25","75","3","9","10","40","30","120","93","19","[""Black or African-American""]","No","Female","6075679","1779","u","learn","","","learn_trial","25.9271","83.5595","in","1","1","","","","","","","","","","","","","","","","","","","","",""
"","","","","","canvas-keyboard-response","225","3690529","0.0-12.0-3.42","2d_cat_multi_stim_exp1","2022-5-4","15:17:8","25","75","3","9","10","40","30","120","93","19","[""Black or African-American""]","No","Female","6075679","null","null","learn_feedback","","","learn_feedback","25.9271","83.5595","in","","","","","","","","","","","","","","","","","","","","","","",""
"","","","","","canvas-keyboard-response","226","3690591","0.0-12.0-4.42","2d_cat_multi_stim_exp1","2022-5-4","15:17:8","25","75","3","9","10","40","30","120","93","19","[""Black or African-American""]","No","Female","6075679","null","null","","","","clear_screen","","","","","","","","","","","","","","","","","","","","","","","","","",""
"","","","","","canvas-keyboard-response","227","3691100","0.0-12.0-0.43","2d_cat_multi_stim_exp1","2022-5-4","15:17:8","25","75","3","9","10","40","30","120","93","19","[""Black or African-American""]","No","Female","6075679","null","null","","","","fixation","","","","","","","","","","","","","","","","","","","","","","","","","",""
"","","","","","canvas-keyboard-response","228","3691612","0.0-12.0-1.43","2d_cat_multi_stim_exp1","2022-5-4","15:17:8","25","75","3","9","10","40","30","120","93","19","[""Black or African-American""]","No","Female","6075679","null","null","","","","clear_screen","","","","","","","","","","","","","","","","","","","","","","","","","",""
"","","","","","canvas-keyboard-response","229","3696882","0.0-12.0-2.43","2d_cat_multi_stim_exp1","2022-5-4","15:17:8","25","75","3","9","10","40","30","120","93","19","[""Black or African-American""]","No","Female","6075679","5261","i","learn","","","learn_trial","30","30","out","0","1","","","","","","","","","","","","","","","","","","","","",""
"","","","","","canvas-keyboard-response","230","3697394","0.0-12.0-3.43","2d_cat_multi_stim_exp1","2022-5-4","15:17:8","25","75","3","9","10","40","30","120","93","19","[""Black or African-American""]","No","Female","6075679","null","null","learn_feedback","","","learn_feedback","30","30","out","","","","","","","","","","","","","","","","","","","","","","",""
"","","","","","canvas-keyboard-response","231","3697456","0.0-12.0-4.43","2d_cat_multi_stim_exp1","2022-5-4","15:17:8","25","75","3","9","10","40","30","120","93","19","[""Black or African-American""]","No","Female","6075679","null","null","","","","clear_screen","","","","","","","","","","","","","","","","","","","","","","","","","",""
"","","","","","canvas-keyboard-response","232","3697965","0.0-12.0-0.44","2d_cat_multi_stim_exp1","2022-5-4","15:17:8","25","75","3","9","10","40","30","120","93","19","[""Black or African-American""]","No","Female","6075679","null","null","","","","fixation","","","","","","","","","","","","","","","","","","","","","","","","","",""
"","","","","","canvas-keyboard-response","233","3698476","0.0-12.0-1.44","2d_cat_multi_stim_exp1","2022-5-4","15:17:8","25","75","3","9","10","40","30","120","93","19","[""Black or African-American""]","No","Female","6075679","null","null","","","","clear_screen","","","","","","","","","","","","","","","","","","","","","","","","","",""
"","","","","","canvas-keyboard-response","234","3699585","0.0-12.0-2.44","2d_cat_multi_stim_exp1","2022-5-4","15:17:8","25","75","3","9","10","40","30","120","93","19","[""Black or African-American""]","No","Female","6075679","1099","i","learn","","","learn_trial","40","40","out","0","1","","","","","","","","","","","","","","","","","","","","",""
"","","","","","canvas-keyboard-response","235","3700094","0.0-12.0-3.44","2d_cat_multi_stim_exp1","2022-5-4","15:17:8","25","75","3","9","10","40","30","120","93","19","[""Black or African-American""]","No","Female","6075679","null","null","learn_feedback","","","learn_feedback","40","40","out","","","","","","","","","","","","","","","","","","","","","","",""
"","","","","","canvas-keyboard-response","236","3700153","0.0-12.0-4.44","2d_cat_multi_stim_exp1","2022-5-4","15:17:8","25","75","3","9","10","40","30","120","93","19","[""Black or African-American""]","No","Female","6075679","null","null","","","","clear_screen","","","","","","","","","","","","","","","","","","","","","","","","","",""
"","","","","","canvas-keyboard-response","237","3700664","0.0-12.0-0.45","2d_cat_multi_stim_exp1","2022-5-4","15:17:8","25","75","3","9","10","40","30","120","93","19","[""Black or African-American""]","No","Female","6075679","null","null","","","","fixation","","","","","","","","","","","","","","","","","","","","","","","","","",""
"","","","","","canvas-keyboard-response","238","3701172","0.0-12.0-1.45","2d_cat_multi_stim_exp1","2022-5-4","15:17:8","25","75","3","9","10","40","30","120","93","19","[""Black or African-American""]","No","Female","6075679","null","null","","","","clear_screen","","","","","","","","","","","","","","","","","","","","","","","","","",""
"","","","","","canvas-keyboard-response","239","3703898","0.0-12.0-2.45","2d_cat_multi_stim_exp1","2022-5-4","15:17:8","25","75","3","9","10","40","30","120","93","19","[""Black or African-American""]","No","Female","6075679","2717","u","learn","","","learn_trial","25","75","in","1","1","","","","","","","","","","","","","","","","","","","","",""
"","","","","","canvas-keyboard-response","240","3704408","0.0-12.0-3.45","2d_cat_multi_stim_exp1","2022-5-4","15:17:8","25","75","3","9","10","40","30","120","93","19","[""Black or African-American""]","No","Female","6075679","null","null","learn_feedback","","","learn_feedback","25","75","in","","","","","","","","","","","","","","","","","","","","","","",""
"","","","","","canvas-keyboard-response","241","3704467","0.0-12.0-4.45","2d_cat_multi_stim_exp1","2022-5-4","15:17:8","25","75","3","9","10","40","30","120","93","19","[""Black or African-American""]","No","Female","6075679","null","null","","","","clear_screen","","","","","","","","","","","","","","","","","","","","","","","","","",""
"","","","","","canvas-keyboard-response","242","3704977","0.0-12.0-0.46","2d_cat_multi_stim_exp1","2022-5-4","15:17:8","25","75","3","9","10","40","30","120","93","19","[""Black or African-American""]","No","Female","6075679","null","null","","","","fixation","","","","","","","","","","","","","","","","","","","","","","","","","",""
"","","","","","canvas-keyboard-response","243","3705488","0.0-12.0-1.46","2d_cat_multi_stim_exp1","2022-5-4","15:17:8","25","75","3","9","10","40","30","120","93","19","[""Black or African-American""]","No","Female","6075679","null","null","","","","clear_screen","","","","","","","","","","","","","","","","","","","","","","","","","",""
"","","","","","canvas-keyboard-response","244","3706320","0.0-12.0-2.46","2d_cat_multi_stim_exp1","2022-5-4","15:17:8","25","75","3","9","10","40","30","120","93","19","[""Black or African-American""]","No","Female","6075679","823","i","learn","","","learn_trial","13.3333","50","out","0","1","","","","","","","","","","","","","","","","","","","","",""
"","","","","","canvas-keyboard-response","245","3706832","0.0-12.0-3.46","2d_cat_multi_stim_exp1","2022-5-4","15:17:8","25","75","3","9","10","40","30","120","93","19","[""Black or African-American""]","No","Female","6075679","null","null","learn_feedback","","","learn_feedback","13.3333","50","out","","","","","","","","","","","","","","","","","","","","","","",""
"","","","","","canvas-keyboard-response","246","3706891","0.0-12.0-4.46","2d_cat_multi_stim_exp1","2022-5-4","15:17:8","25","75","3","9","10","40","30","120","93","19","[""Black or African-American""]","No","Female","6075679","null","null","","","","clear_screen","","","","","","","","","","","","","","","","","","","","","","","","","",""
"","","","","","canvas-keyboard-response","247","3707399","0.0-12.0-0.47","2d_cat_multi_stim_exp1","2022-5-4","15:17:8","25","75","3","9","10","40","30","120","93","19","[""Black or African-American""]","No","Female","6075679","null","null","","","","fixation","","","","","","","","","","","","","","","","","","","","","","","","","",""
"","","","","","canvas-keyboard-response","248","3707910","0.0-12.0-1.47","2d_cat_multi_stim_exp1","2022-5-4","15:17:8","25","75","3","9","10","40","30","120","93","19","[""Black or African-American""]","No","Female","6075679","null","null","","","","clear_screen","","","","","","","","","","","","","","","","","","","","","","","","","",""
"","","","","","canvas-keyboard-response","249","3709056","0.0-12.0-2.47","2d_cat_multi_stim_exp1","2022-5-4","15:17:8","25","75","3","9","10","40","30","120","93","19","[""Black or African-American""]","No","Female","6075679","1137","u","learn","","","learn_trial","25","75","in","1","1","","","","","","","","","","","","","","","","","","","","",""
"","","","","","canvas-keyboard-response","250","3709570","0.0-12.0-3.47","2d_cat_multi_stim_exp1","2022-5-4","15:17:8","25","75","3","9","10","40","30","120","93","19","[""Black or African-American""]","No","Female","6075679","null","null","learn_feedback","","","learn_feedback","25","75","in","","","","","","","","","","","","","","","","","","","","","","",""
"","","","","","canvas-keyboard-response","251","3709629","0.0-12.0-4.47","2d_cat_multi_stim_exp1","2022-5-4","15:17:8","25","75","3","9","10","40","30","120","93","19","[""Black or African-American""]","No","Female","6075679","null","null","","","","clear_screen","","","","","","","","","","","","","","","","","","","","","","","","","",""
"","","","","","canvas-keyboard-response","252","3710139","0.0-12.0-0.48","2d_cat_multi_stim_exp1","2022-5-4","15:17:8","25","75","3","9","10","40","30","120","93","19","[""Black or African-American""]","No","Female","6075679","null","null","","","","fixation","","","","","","","","","","","","","","","","","","","","","","","","","",""
"","","","","","canvas-keyboard-response","253","3710649","0.0-12.0-1.48","2d_cat_multi_stim_exp1","2022-5-4","15:17:8","25","75","3","9","10","40","30","120","93","19","[""Black or African-American""]","No","Female","6075679","null","null","","","","clear_screen","","","","","","","","","","","","","","","","","","","","","","","","","",""
"","","","","","canvas-keyboard-response","254","3711544","0.0-12.0-2.48","2d_cat_multi_stim_exp1","2022-5-4","15:17:8","25","75","3","9","10","40","30","120","93","19","[""Black or African-American""]","No","Female","6075679","885","u","learn","","","learn_trial","25","75","in","1","1","","","","","","","","","","","","","","","","","","","","",""
"","","","","","canvas-keyboard-response","255","3712057","0.0-12.0-3.48","2d_cat_multi_stim_exp1","2022-5-4","15:17:8","25","75","3","9","10","40","30","120","93","19","[""Black or African-American""]","No","Female","6075679","null","null","learn_feedback","","","learn_feedback","25","75","in","","","","","","","","","","","","","","","","","","","","","","",""
"","","","","","canvas-keyboard-response","256","3712118","0.0-12.0-4.48","2d_cat_multi_stim_exp1","2022-5-4","15:17:8","25","75","3","9","10","40","30","120","93","19","[""Black or African-American""]","No","Female","6075679","null","null","","","","clear_screen","","","","","","","","","","","","","","","","","","","","","","","","","",""
"","","","","","canvas-keyboard-response","257","3712629","0.0-12.0-0.49","2d_cat_multi_stim_exp1","2022-5-4","15:17:8","25","75","3","9","10","40","30","120","93","19","[""Black or African-American""]","No","Female","6075679","null","null","","","","fixation","","","","","","","","","","","","","","","","","","","","","","","","","",""
"","","","","","canvas-keyboard-response","258","3713140","0.0-12.0-1.49","2d_cat_multi_stim_exp1","2022-5-4","15:17:8","25","75","3","9","10","40","30","120","93","19","[""Black or African-American""]","No","Female","6075679","null","null","","","","clear_screen","","","","","","","","","","","","","","","","","","","","","","","","","",""
"","","","","","canvas-keyboard-response","259","3714183","0.0-12.0-2.49","2d_cat_multi_stim_exp1","2022-5-4","15:17:8","25","75","3","9","10","40","30","120","93","19","[""Black or African-American""]","No","Female","6075679","1034","u","learn","","","learn_trial","23.8209","83.2757","in","1","1","","","","","","","","","","","","","","","","","","","","",""
"","","","","","canvas-keyboard-response","260","3714690","0.0-12.0-3.49","2d_cat_multi_stim_exp1","2022-5-4","15:17:8","25","75","3","9","10","40","30","120","93","19","[""Black or African-American""]","No","Female","6075679","null","null","learn_feedback","","","learn_feedback","23.8209","83.2757","in","","","","","","","","","","","","","","","","","","","","","","",""
"","","","","","canvas-keyboard-response","261","3714749","0.0-12.0-4.49","2d_cat_multi_stim_exp1","2022-5-4","15:17:8","25","75","3","9","10","40","30","120","93","19","[""Black or African-American""]","No","Female","6075679","null","null","","","","clear_screen","","","","","","","","","","","","","","","","","","","","","","","","","",""
"","","","","","canvas-keyboard-response","262","3715258","0.0-12.0-0.50","2d_cat_multi_stim_exp1","2022-5-4","15:17:8","25","75","3","9","10","40","30","120","93","19","[""Black or African-American""]","No","Female","6075679","null","null","","","","fixation","","","","","","","","","","","","","","","","","","","","","","","","","",""
"","","","","","canvas-keyboard-response","263","3715768","0.0-12.0-1.50","2d_cat_multi_stim_exp1","2022-5-4","15:17:8","25","75","3","9","10","40","30","120","93","19","[""Black or African-American""]","No","Female","6075679","null","null","","","","clear_screen","","","","","","","","","","","","","","","","","","","","","","","","","",""
"","","","","","canvas-keyboard-response","264","3716441","0.0-12.0-2.50","2d_cat_multi_stim_exp1","2022-5-4","15:17:8","25","75","3","9","10","40","30","120","93","19","[""Black or African-American""]","No","Female","6075679","666","i","learn","","","learn_trial","13.3333","30","out","0","1","","","","","","","","","","","","","","","","","","","","",""
"","","","","","canvas-keyboard-response","265","3716954","0.0-12.0-3.50","2d_cat_multi_stim_exp1","2022-5-4","15:17:8","25","75","3","9","10","40","30","120","93","19","[""Black or African-American""]","No","Female","6075679","null","null","learn_feedback","","","learn_feedback","13.3333","30","out","","","","","","","","","","","","","","","","","","","","","","",""
"","","","","","canvas-keyboard-response","266","3717015","0.0-12.0-4.50","2d_cat_multi_stim_exp1","2022-5-4","15:17:8","25","75","3","9","10","40","30","120","93","19","[""Black or African-American""]","No","Female","6075679","null","null","","","","clear_screen","","","","","","","","","","","","","","","","","","","","","","","","","",""
"","","","","","canvas-keyboard-response","267","3717522","0.0-12.0-0.51","2d_cat_multi_stim_exp1","2022-5-4","15:17:8","25","75","3","9","10","40","30","120","93","19","[""Black or African-American""]","No","Female","6075679","null","null","","","","fixation","","","","","","","","","","","","","","","","","","","","","","","","","",""
"","","","","","canvas-keyboard-response","268","3718033","0.0-12.0-1.51","2d_cat_multi_stim_exp1","2022-5-4","15:17:8","25","75","3","9","10","40","30","120","93","19","[""Black or African-American""]","No","Female","6075679","null","null","","","","clear_screen","","","","","","","","","","","","","","","","","","","","","","","","","",""
"","","","","","canvas-keyboard-response","269","3718954","0.0-12.0-2.51","2d_cat_multi_stim_exp1","2022-5-4","15:17:8","25","75","3","9","10","40","30","120","93","19","[""Black or African-American""]","No","Female","6075679","908","i","learn","","","learn_trial","10","60","out","0","1","","","","","","","","","","","","","","","","","","","","",""
"","","","","","canvas-keyboard-response","270","3719463","0.0-12.0-3.51","2d_cat_multi_stim_exp1","2022-5-4","15:17:8","25","75","3","9","10","40","30","120","93","19","[""Black or African-American""]","No","Female","6075679","null","null","learn_feedback","","","learn_feedback","10","60","out","","","","","","","","","","","","","","","","","","","","","","",""
"","","","","","canvas-keyboard-response","271","3719522","0.0-12.0-4.51","2d_cat_multi_stim_exp1","2022-5-4","15:17:8","25","75","3","9","10","40","30","120","93","19","[""Black or African-American""]","No","Female","6075679","null","null","","","","clear_screen","","","","","","","","","","","","","","","","","","","","","","","","","",""
"","","","","","canvas-keyboard-response","272","3720031","0.0-12.0-0.52","2d_cat_multi_stim_exp1","2022-5-4","15:17:8","25","75","3","9","10","40","30","120","93","19","[""Black or African-American""]","No","Female","6075679","null","null","","","","fixation","","","","","","","","","","","","","","","","","","","","","","","","","",""
"","","","","","canvas-keyboard-response","273","3720548","0.0-12.0-1.52","2d_cat_multi_stim_exp1","2022-5-4","15:17:8","25","75","3","9","10","40","30","120","93","19","[""Black or African-American""]","No","Female","6075679","null","null","","","","clear_screen","","","","","","","","","","","","","","","","","","","","","","","","","",""
"","","","","","canvas-keyboard-response","274","3722240","0.0-12.0-2.52","2d_cat_multi_stim_exp1","2022-5-4","15:17:8","25","75","3","9","10","40","30","120","93","19","[""Black or African-American""]","No","Female","6075679","1682","u","learn","","","learn_trial","23.3333","90","out","1","0","","","","","","","","","","","","","","","","","","","","",""
"","","","","","canvas-keyboard-response","275","3723253","0.0-12.0-3.52","2d_cat_multi_stim_exp1","2022-5-4","15:17:8","25","75","3","9","10","40","30","120","93","19","[""Black or African-American""]","No","Female","6075679","null","null","learn_feedback","","","learn_feedback","23.3333","90","out","","","","","","","","","","","","","","","","","","","","","","",""
"","","","","","canvas-keyboard-response","276","3723315","0.0-12.0-4.52","2d_cat_multi_stim_exp1","2022-5-4","15:17:8","25","75","3","9","10","40","30","120","93","19","[""Black or African-American""]","No","Female","6075679","null","null","","","","clear_screen","","","","","","","","","","","","","","","","","","","","","","","","","",""
"","","","","","canvas-keyboard-response","277","3723823","0.0-12.0-0.53","2d_cat_multi_stim_exp1","2022-5-4","15:17:8","25","75","3","9","10","40","30","120","93","19","[""Black or African-American""]","No","Female","6075679","null","null","","","","fixation","","","","","","","","","","","","","","","","","","","","","","","","","",""
"","","","","","canvas-keyboard-response","278","3724337","0.0-12.0-1.53","2d_cat_multi_stim_exp1","2022-5-4","15:17:8","25","75","3","9","10","40","30","120","93","19","[""Black or African-American""]","No","Female","6075679","null","null","","","","clear_screen","","","","","","","","","","","","","","","","","","","","","","","","","",""
"","","","","","canvas-keyboard-response","279","3725753","0.0-12.0-2.53","2d_cat_multi_stim_exp1","2022-5-4","15:17:8","25","75","3","9","10","40","30","120","93","19","[""Black or African-American""]","No","Female","6075679","1404","u","learn","","","learn_trial","26.4216","67.0746","in","1","1","","","","","","","","","","","","","","","","","","","","",""
