success,timeout,failed_images,failed_audio,failed_video,trial_type,trial_index,time_elapsed,internal_node_id,exp_name,date,time,angle_mean_in,radius_mean_in,angle_sd_in,radius_sd_in,angle_min_out,angle_max_out,radius_min_out,radius_max_out,sub_n,age,race,ethnicity,gender,exp_duration,rt,response,exp_trial_type,stimulus,view_history,screen_id,angle,radius,distribution,choice,correct,order,angle_a,radius_a,angle_b,radius_b,jkl_correct,transfer_trial_type,choice_set,abc_correct,tc_correct,tc_angle,tdc_a,tdc_b,tdc_c,pair,category_a,category_b,category_c,angle_c,radius_c,question_order
true,false,[],[],[],preload,0,24,0.0-0.0,2d_cat_multi_stim_exp1,2022-4-25,10:37:21,25,75,3,9,10,40,30,120,899,20,"[""Asian""]",No,Female,4305094,,,,,,,,,,,,,,,,,,,,,,,,,,,,,,,,
,,,,,survey-html-form,1,9891,0.0-1.0,2d_cat_multi_stim_exp1,2022-4-25,10:37:21,25,75,3,9,10,40,30,120,899,20,"[""Asian""]",No,Female,4305094,9839,"{""response"":""55""}",enter-sub-number,,,,,,,,,,,,,,,,,,,,,,,,,,,,,
true,,,,,fullscreen,2,51723,0.0-2.0,2d_cat_multi_stim_exp1,2022-4-25,10:37:21,25,75,3,9,10,40,30,120,899,20,"[""Asian""]",No,Female,4305094,,,,,,,,,,,,,,,,,,,,,,,,,,,,,,,,
,,,,,image-button-response,3,60891,0.0-3.0,2d_cat_multi_stim_exp1,2022-4-25,10:37:21,25,75,3,9,10,40,30,120,899,20,"[""Asian""]",No,Female,4305094,9138,0,,consent.png,,,,,,,,,,,,,,,,,,,,,,,,,,,,
,,,,,html-button-response,4,65579,0.0-4.0,2d_cat_multi_stim_exp1,2022-4-25,10:37:21,25,75,3,9,10,40,30,120,899,20,"[""Asian""]",No,Female,4305094,4685,0,,"<div style= ""font-size:25px;"" <p> <strong> Welcome to the experiment! </strong><br> <p style=""color:#8B0000; font-size:25px;""><strong> Please do NOT exit full screen until you are done with the experiment. </strong> </p><p style=""font-size:25px;color:#8B0000;""> <strong> The experiment will be canceled and your data will be lost <br> if you try to go back or refresh the page at any point during the experiment.</strong> </p><br><p> <strong> Thanks in advance for your contribution to our research! </strong></p>",,,,,,,,,,,,,,,,,,,,,,,,,,,,
,,,,,instructions,5,171850,0.0-5.0,2d_cat_multi_stim_exp1,2022-4-25,10:37:21,25,75,3,9,10,40,30,120,899,20,"[""Asian""]",No,Female,4305094,106269,,,,"[{""page_index"":0,""viewing_time"":34661},{""page_index"":1,""viewing_time"":3872},{""page_index"":2,""viewing_time"":32824},{""page_index"":3,""viewing_time"":34912}]",instructions_1,,,,,,,,,,,,,,,,,,,,,,,,,,
,,,,,instructions,6,173811,0.0-6.0,2d_cat_multi_stim_exp1,2022-4-25,10:37:21,25,75,3,9,10,40,30,120,899,20,"[""Asian""]",No,Female,4305094,1955,,,,"[{""page_index"":0,""viewing_time"":1955}]",Click to see the kinds of turtles that will appear in the study.,,,,,,,,,,,,,,,,,,,,,,,,,,
,,,,,canvas-keyboard-response,7,188830,0.0-7.0,2d_cat_multi_stim_exp1,2022-4-25,10:37:21,25,75,3,9,10,40,30,120,899,20,"[""Asian""]",No,Female,4305094,null,null,,,,demo_range,,,,,,,,,,,,,,,,,,,,,,,,,,
,,,,,instructions,8,192466,0.0-8.0,2d_cat_multi_stim_exp1,2022-4-25,10:37:21,25,75,3,9,10,40,30,120,899,20,"[""Asian""]",No,Female,4305094,3134,,,,"[{""page_index"":0,""viewing_time"":3133}]",Click to see some turtles in the subspecies.,,,,,,,,,,,,,,,,,,,,,,,,,,
,,,,,canvas-keyboard-response,9,207484,0.0-9.0,2d_cat_multi_stim_exp1,2022-4-25,10:37:21,25,75,3,9,10,40,30,120,899,20,"[""Asian""]",No,Female,4305094,null,null,,,,demo_in,,,,,,,,,,,,,,,,,,,,,,,,,,
,,,,,instructions,10,277809,0.0-10.0,2d_cat_multi_stim_exp1,2022-4-25,10:37:21,25,75,3,9,10,40,30,120,899,20,"[""Asian""]",No,Female,4305094,69825,,,,"[{""page_index"":0,""viewing_time"":13856},{""page_index"":1,""viewing_time"":49280},{""page_index"":2,""viewing_time"":6689}]",instructions_2,,,,,,,,,,,,,,,,,,,,,,,,,,
,,,,,instructions,11,279225,0.0-11.0,2d_cat_multi_stim_exp1,2022-4-25,10:37:21,25,75,3,9,10,40,30,120,899,20,"[""Asian""]",No,Female,4305094,1414,,,,"[{""page_index"":0,""viewing_time"":1413}]",Click to begin the first phase of the experiment.,,,,,,,,,,,,,,,,,,,,,,,,,,
,,,,,canvas-keyboard-response,12,279736,0.0-12.0-0.0,2d_cat_multi_stim_exp1,2022-4-25,10:37:21,25,75,3,9,10,40,30,120,899,20,"[""Asian""]",No,Female,4305094,null,null,,,,fixation,,,,,,,,,,,,,,,,,,,,,,,,,,
,,,,,canvas-keyboard-response,13,280244,0.0-12.0-1.0,2d_cat_multi_stim_exp1,2022-4-25,10:37:21,25,75,3,9,10,40,30,120,899,20,"[""Asian""]",No,Female,4305094,null,null,,,,clear_screen,,,,,,,,,,,,,,,,,,,,,,,,,,
,,,,,canvas-keyboard-response,14,288234,0.0-12.0-2.0,2d_cat_multi_stim_exp1,2022-4-25,10:37:21,25,75,3,9,10,40,30,120,899,20,"[""Asian""]",No,Female,4305094,7979,u,learn,,,learn_trial,20,50,out,1,0,,,,,,,,,,,,,,,,,,,,,
,,,,,canvas-keyboard-response,15,289246,0.0-12.0-3.0,2d_cat_multi_stim_exp1,2022-4-25,10:37:21,25,75,3,9,10,40,30,120,899,20,"[""Asian""]",No,Female,4305094,null,null,learn_feedback,,,learn_feedback,20,50,out,,,,,,,,,,,,,,,,,,,,,,,
,,,,,canvas-keyboard-response,16,289309,0.0-12.0-4.0,2d_cat_multi_stim_exp1,2022-4-25,10:37:21,25,75,3,9,10,40,30,120,899,20,"[""Asian""]",No,Female,4305094,null,null,,,,clear_screen,,,,,,,,,,,,,,,,,,,,,,,,,,
,,,,,canvas-keyboard-response,17,289816,0.0-12.0-0.1,2d_cat_multi_stim_exp1,2022-4-25,10:37:21,25,75,3,9,10,40,30,120,899,20,"[""Asian""]",No,Female,4305094,null,null,,,,fixation,,,,,,,,,,,,,,,,,,,,,,,,,,
,,,,,canvas-keyboard-response,18,290325,0.0-12.0-1.1,2d_cat_multi_stim_exp1,2022-4-25,10:37:21,25,75,3,9,10,40,30,120,899,20,"[""Asian""]",No,Female,4305094,null,null,,,,clear_screen,,,,,,,,,,,,,,,,,,,,,,,,,,
,,,,,canvas-keyboard-response,19,295202,0.0-12.0-2.1,2d_cat_multi_stim_exp1,2022-4-25,10:37:21,25,75,3,9,10,40,30,120,899,20,"[""Asian""]",No,Female,4305094,4867,i,learn,,,learn_trial,25,75,in,0,0,,,,,,,,,,,,,,,,,,,,,
,,,,,canvas-keyboard-response,20,296212,0.0-12.0-3.1,2d_cat_multi_stim_exp1,2022-4-25,10:37:21,25,75,3,9,10,40,30,120,899,20,"[""Asian""]",No,Female,4305094,null,null,learn_feedback,,,learn_feedback,25,75,in,,,,,,,,,,,,,,,,,,,,,,,
,,,,,canvas-keyboard-response,21,296270,0.0-12.0-4.1,2d_cat_multi_stim_exp1,2022-4-25,10:37:21,25,75,3,9,10,40,30,120,899,20,"[""Asian""]",No,Female,4305094,null,null,,,,clear_screen,,,,,,,,,,,,,,,,,,,,,,,,,,
,,,,,canvas-keyboard-response,22,296778,0.0-12.0-0.2,2d_cat_multi_stim_exp1,2022-4-25,10:37:21,25,75,3,9,10,40,30,120,899,20,"[""Asian""]",No,Female,4305094,null,null,,,,fixation,,,,,,,,,,,,,,,,,,,,,,,,,,
,,,,,canvas-keyboard-response,23,297286,0.0-12.0-1.2,2d_cat_multi_stim_exp1,2022-4-25,10:37:21,25,75,3,9,10,40,30,120,899,20,"[""Asian""]",No,Female,4305094,null,null,,,,clear_screen,,,,,,,,,,,,,,,,,,,,,,,,,,
,,,,,canvas-keyboard-response,24,300306,0.0-12.0-2.2,2d_cat_multi_stim_exp1,2022-4-25,10:37:21,25,75,3,9,10,40,30,120,899,20,"[""Asian""]",No,Female,4305094,3010,i,learn,,,learn_trial,40,110,out,0,1,,,,,,,,,,,,,,,,,,,,,
,,,,,canvas-keyboard-response,25,300816,0.0-12.0-3.2,2d_cat_multi_stim_exp1,2022-4-25,10:37:21,25,75,3,9,10,40,30,120,899,20,"[""Asian""]",No,Female,4305094,null,null,learn_feedback,,,learn_feedback,40,110,out,,,,,,,,,,,,,,,,,,,,,,,
,,,,,canvas-keyboard-response,26,300875,0.0-12.0-4.2,2d_cat_multi_stim_exp1,2022-4-25,10:37:21,25,75,3,9,10,40,30,120,899,20,"[""Asian""]",No,Female,4305094,null,null,,,,clear_screen,,,,,,,,,,,,,,,,,,,,,,,,,,
,,,,,canvas-keyboard-response,27,301383,0.0-12.0-0.3,2d_cat_multi_stim_exp1,2022-4-25,10:37:21,25,75,3,9,10,40,30,120,899,20,"[""Asian""]",No,Female,4305094,null,null,,,,fixation,,,,,,,,,,,,,,,,,,,,,,,,,,
,,,,,canvas-keyboard-response,28,301892,0.0-12.0-1.3,2d_cat_multi_stim_exp1,2022-4-25,10:37:21,25,75,3,9,10,40,30,120,899,20,"[""Asian""]",No,Female,4305094,null,null,,,,clear_screen,,,,,,,,,,,,,,,,,,,,,,,,,,
,,,,,canvas-keyboard-response,29,303530,0.0-12.0-2.3,2d_cat_multi_stim_exp1,2022-4-25,10:37:21,25,75,3,9,10,40,30,120,899,20,"[""Asian""]",No,Female,4305094,1630,u,learn,,,learn_trial,25,75,in,1,1,,,,,,,,,,,,,,,,,,,,,
,,,,,canvas-keyboard-response,30,304039,0.0-12.0-3.3,2d_cat_multi_stim_exp1,2022-4-25,10:37:21,25,75,3,9,10,40,30,120,899,20,"[""Asian""]",No,Female,4305094,null,null,learn_feedback,,,learn_feedback,25,75,in,,,,,,,,,,,,,,,,,,,,,,,
,,,,,canvas-keyboard-response,31,304099,0.0-12.0-4.3,2d_cat_multi_stim_exp1,2022-4-25,10:37:21,25,75,3,9,10,40,30,120,899,20,"[""Asian""]",No,Female,4305094,null,null,,,,clear_screen,,,,,,,,,,,,,,,,,,,,,,,,,,
,,,,,canvas-keyboard-response,32,304609,0.0-12.0-0.4,2d_cat_multi_stim_exp1,2022-4-25,10:37:21,25,75,3,9,10,40,30,120,899,20,"[""Asian""]",No,Female,4305094,null,null,,,,fixation,,,,,,,,,,,,,,,,,,,,,,,,,,
,,,,,canvas-keyboard-response,33,305121,0.0-12.0-1.4,2d_cat_multi_stim_exp1,2022-4-25,10:37:21,25,75,3,9,10,40,30,120,899,20,"[""Asian""]",No,Female,4305094,null,null,,,,clear_screen,,,,,,,,,,,,,,,,,,,,,,,,,,
,,,,,canvas-keyboard-response,34,307346,0.0-12.0-2.4,2d_cat_multi_stim_exp1,2022-4-25,10:37:21,25,75,3,9,10,40,30,120,899,20,"[""Asian""]",No,Female,4305094,2215,u,learn,,,learn_trial,26.4216,82.9254,in,1,1,,,,,,,,,,,,,,,,,,,,,
,,,,,canvas-keyboard-response,35,307857,0.0-12.0-3.4,2d_cat_multi_stim_exp1,2022-4-25,10:37:21,25,75,3,9,10,40,30,120,899,20,"[""Asian""]",No,Female,4305094,null,null,learn_feedback,,,learn_feedback,26.4216,82.9254,in,,,,,,,,,,,,,,,,,,,,,,,
,,,,,canvas-keyboard-response,36,307914,0.0-12.0-4.4,2d_cat_multi_stim_exp1,2022-4-25,10:37:21,25,75,3,9,10,40,30,120,899,20,"[""Asian""]",No,Female,4305094,null,null,,,,clear_screen,,,,,,,,,,,,,,,,,,,,,,,,,,
,,,,,canvas-keyboard-response,37,308423,0.0-12.0-0.5,2d_cat_multi_stim_exp1,2022-4-25,10:37:21,25,75,3,9,10,40,30,120,899,20,"[""Asian""]",No,Female,4305094,null,null,,,,fixation,,,,,,,,,,,,,,,,,,,,,,,,,,
,,,,,canvas-keyboard-response,38,308931,0.0-12.0-1.5,2d_cat_multi_stim_exp1,2022-4-25,10:37:21,25,75,3,9,10,40,30,120,899,20,"[""Asian""]",No,Female,4305094,null,null,,,,clear_screen,,,,,,,,,,,,,,,,,,,,,,,,,,
,,,,,canvas-keyboard-response,39,310050,0.0-12.0-2.5,2d_cat_multi_stim_exp1,2022-4-25,10:37:21,25,75,3,9,10,40,30,120,899,20,"[""Asian""]",No,Female,4305094,1109,i,learn,,,learn_trial,13.3333,110,out,0,1,,,,,,,,,,,,,,,,,,,,,
,,,,,canvas-keyboard-response,40,310559,0.0-12.0-3.5,2d_cat_multi_stim_exp1,2022-4-25,10:37:21,25,75,3,9,10,40,30,120,899,20,"[""Asian""]",No,Female,4305094,null,null,learn_feedback,,,learn_feedback,13.3333,110,out,,,,,,,,,,,,,,,,,,,,,,,
,,,,,canvas-keyboard-response,41,310621,0.0-12.0-4.5,2d_cat_multi_stim_exp1,2022-4-25,10:37:21,25,75,3,9,10,40,30,120,899,20,"[""Asian""]",No,Female,4305094,null,null,,,,clear_screen,,,,,,,,,,,,,,,,,,,,,,,,,,
,,,,,canvas-keyboard-response,42,311131,0.0-12.0-0.6,2d_cat_multi_stim_exp1,2022-4-25,10:37:21,25,75,3,9,10,40,30,120,899,20,"[""Asian""]",No,Female,4305094,null,null,,,,fixation,,,,,,,,,,,,,,,,,,,,,,,,,,
,,,,,canvas-keyboard-response,43,311640,0.0-12.0-1.6,2d_cat_multi_stim_exp1,2022-4-25,10:37:21,25,75,3,9,10,40,30,120,899,20,"[""Asian""]",No,Female,4305094,null,null,,,,clear_screen,,,,,,,,,,,,,,,,,,,,,,,,,,
,,,,,canvas-keyboard-response,44,313185,0.0-12.0-2.6,2d_cat_multi_stim_exp1,2022-4-25,10:37:21,25,75,3,9,10,40,30,120,899,20,"[""Asian""]",No,Female,4305094,1536,i,learn,,,learn_trial,20,60,out,0,1,,,,,,,,,,,,,,,,,,,,,
,,,,,canvas-keyboard-response,45,313695,0.0-12.0-3.6,2d_cat_multi_stim_exp1,2022-4-25,10:37:21,25,75,3,9,10,40,30,120,899,20,"[""Asian""]",No,Female,4305094,null,null,learn_feedback,,,learn_feedback,20,60,out,,,,,,,,,,,,,,,,,,,,,,,
,,,,,canvas-keyboard-response,46,313754,0.0-12.0-4.6,2d_cat_multi_stim_exp1,2022-4-25,10:37:21,25,75,3,9,10,40,30,120,899,20,"[""Asian""]",No,Female,4305094,null,null,,,,clear_screen,,,,,,,,,,,,,,,,,,,,,,,,,,
,,,,,canvas-keyboard-response,47,314265,0.0-12.0-0.7,2d_cat_multi_stim_exp1,2022-4-25,10:37:21,25,75,3,9,10,40,30,120,899,20,"[""Asian""]",No,Female,4305094,null,null,,,,fixation,,,,,,,,,,,,,,,,,,,,,,,,,,
,,,,,canvas-keyboard-response,48,314774,0.0-12.0-1.7,2d_cat_multi_stim_exp1,2022-4-25,10:37:21,25,75,3,9,10,40,30,120,899,20,"[""Asian""]",No,Female,4305094,null,null,,,,clear_screen,,,,,,,,,,,,,,,,,,,,,,,,,,
,,,,,canvas-keyboard-response,49,316298,0.0-12.0-2.7,2d_cat_multi_stim_exp1,2022-4-25,10:37:21,25,75,3,9,10,40,30,120,899,20,"[""Asian""]",No,Female,4305094,1516,i,learn,,,learn_trial,24.8654,66.0091,in,0,0,,,,,,,,,,,,,,,,,,,,,
,,,,,canvas-keyboard-response,50,317307,0.0-12.0-3.7,2d_cat_multi_stim_exp1,2022-4-25,10:37:21,25,75,3,9,10,40,30,120,899,20,"[""Asian""]",No,Female,4305094,null,null,learn_feedback,,,learn_feedback,24.8654,66.0091,in,,,,,,,,,,,,,,,,,,,,,,,
,,,,,canvas-keyboard-response,51,317365,0.0-12.0-4.7,2d_cat_multi_stim_exp1,2022-4-25,10:37:21,25,75,3,9,10,40,30,120,899,20,"[""Asian""]",No,Female,4305094,null,null,,,,clear_screen,,,,,,,,,,,,,,,,,,,,,,,,,,
,,,,,canvas-keyboard-response,52,317873,0.0-12.0-0.8,2d_cat_multi_stim_exp1,2022-4-25,10:37:21,25,75,3,9,10,40,30,120,899,20,"[""Asian""]",No,Female,4305094,null,null,,,,fixation,,,,,,,,,,,,,,,,,,,,,,,,,,
,,,,,canvas-keyboard-response,53,318382,0.0-12.0-1.8,2d_cat_multi_stim_exp1,2022-4-25,10:37:21,25,75,3,9,10,40,30,120,899,20,"[""Asian""]",No,Female,4305094,null,null,,,,clear_screen,,,,,,,,,,,,,,,,,,,,,,,,,,
,,,,,canvas-keyboard-response,54,320402,0.0-12.0-2.8,2d_cat_multi_stim_exp1,2022-4-25,10:37:21,25,75,3,9,10,40,30,120,899,20,"[""Asian""]",No,Female,4305094,2013,u,learn,,,learn_trial,25,75,in,1,1,,,,,,,,,,,,,,,,,,,,,
,,,,,canvas-keyboard-response,55,320911,0.0-12.0-3.8,2d_cat_multi_stim_exp1,2022-4-25,10:37:21,25,75,3,9,10,40,30,120,899,20,"[""Asian""]",No,Female,4305094,null,null,learn_feedback,,,learn_feedback,25,75,in,,,,,,,,,,,,,,,,,,,,,,,
,,,,,canvas-keyboard-response,56,320969,0.0-12.0-4.8,2d_cat_multi_stim_exp1,2022-4-25,10:37:21,25,75,3,9,10,40,30,120,899,20,"[""Asian""]",No,Female,4305094,null,null,,,,clear_screen,,,,,,,,,,,,,,,,,,,,,,,,,,
,,,,,canvas-keyboard-response,57,321477,0.0-12.0-0.9,2d_cat_multi_stim_exp1,2022-4-25,10:37:21,25,75,3,9,10,40,30,120,899,20,"[""Asian""]",No,Female,4305094,null,null,,,,fixation,,,,,,,,,,,,,,,,,,,,,,,,,,
,,,,,canvas-keyboard-response,58,321985,0.0-12.0-1.9,2d_cat_multi_stim_exp1,2022-4-25,10:37:21,25,75,3,9,10,40,30,120,899,20,"[""Asian""]",No,Female,4305094,null,null,,,,clear_screen,,,,,,,,,,,,,,,,,,,,,,,,,,
,,,,,canvas-keyboard-response,59,323841,0.0-12.0-2.9,2d_cat_multi_stim_exp1,2022-4-25,10:37:21,25,75,3,9,10,40,30,120,899,20,"[""Asian""]",No,Female,4305094,1846,i,learn,,,learn_trial,30,120,out,0,1,,,,,,,,,,,,,,,,,,,,,
,,,,,canvas-keyboard-response,60,324351,0.0-12.0-3.9,2d_cat_multi_stim_exp1,2022-4-25,10:37:21,25,75,3,9,10,40,30,120,899,20,"[""Asian""]",No,Female,4305094,null,null,learn_feedback,,,learn_feedback,30,120,out,,,,,,,,,,,,,,,,,,,,,,,
,,,,,canvas-keyboard-response,61,324409,0.0-12.0-4.9,2d_cat_multi_stim_exp1,2022-4-25,10:37:21,25,75,3,9,10,40,30,120,899,20,"[""Asian""]",No,Female,4305094,null,null,,,,clear_screen,,,,,,,,,,,,,,,,,,,,,,,,,,
,,,,,canvas-keyboard-response,62,324919,0.0-12.0-0.10,2d_cat_multi_stim_exp1,2022-4-25,10:37:21,25,75,3,9,10,40,30,120,899,20,"[""Asian""]",No,Female,4305094,null,null,,,,fixation,,,,,,,,,,,,,,,,,,,,,,,,,,
,,,,,canvas-keyboard-response,63,325428,0.0-12.0-1.10,2d_cat_multi_stim_exp1,2022-4-25,10:37:21,25,75,3,9,10,40,30,120,899,20,"[""Asian""]",No,Female,4305094,null,null,,,,clear_screen,,,,,,,,,,,,,,,,,,,,,,,,,,
,,,,,canvas-keyboard-response,64,334761,0.0-12.0-2.10,2d_cat_multi_stim_exp1,2022-4-25,10:37:21,25,75,3,9,10,40,30,120,899,20,"[""Asian""]",No,Female,4305094,9325,u,learn,,,learn_trial,25,75,in,1,1,,,,,,,,,,,,,,,,,,,,,
,,,,,canvas-keyboard-response,65,335271,0.0-12.0-3.10,2d_cat_multi_stim_exp1,2022-4-25,10:37:21,25,75,3,9,10,40,30,120,899,20,"[""Asian""]",No,Female,4305094,null,null,learn_feedback,,,learn_feedback,25,75,in,,,,,,,,,,,,,,,,,,,,,,,
,,,,,canvas-keyboard-response,66,335329,0.0-12.0-4.10,2d_cat_multi_stim_exp1,2022-4-25,10:37:21,25,75,3,9,10,40,30,120,899,20,"[""Asian""]",No,Female,4305094,null,null,,,,clear_screen,,,,,,,,,,,,,,,,,,,,,,,,,,
,,,,,canvas-keyboard-response,67,335837,0.0-12.0-0.11,2d_cat_multi_stim_exp1,2022-4-25,10:37:21,25,75,3,9,10,40,30,120,899,20,"[""Asian""]",No,Female,4305094,null,null,,,,fixation,,,,,,,,,,,,,,,,,,,,,,,,,,
,,,,,canvas-keyboard-response,68,336346,0.0-12.0-1.11,2d_cat_multi_stim_exp1,2022-4-25,10:37:21,25,75,3,9,10,40,30,120,899,20,"[""Asian""]",No,Female,4305094,null,null,,,,clear_screen,,,,,,,,,,,,,,,,,,,,,,,,,,
,,,,,canvas-keyboard-response,69,337465,0.0-12.0-2.11,2d_cat_multi_stim_exp1,2022-4-25,10:37:21,25,75,3,9,10,40,30,120,899,20,"[""Asian""]",No,Female,4305094,1111,i,learn,,,learn_trial,20,90,out,0,1,,,,,,,,,,,,,,,,,,,,,
,,,,,canvas-keyboard-response,70,337974,0.0-12.0-3.11,2d_cat_multi_stim_exp1,2022-4-25,10:37:21,25,75,3,9,10,40,30,120,899,20,"[""Asian""]",No,Female,4305094,null,null,learn_feedback,,,learn_feedback,20,90,out,,,,,,,,,,,,,,,,,,,,,,,
,,,,,canvas-keyboard-response,71,338032,0.0-12.0-4.11,2d_cat_multi_stim_exp1,2022-4-25,10:37:21,25,75,3,9,10,40,30,120,899,20,"[""Asian""]",No,Female,4305094,null,null,,,,clear_screen,,,,,,,,,,,,,,,,,,,,,,,,,,
,,,,,canvas-keyboard-response,72,338540,0.0-12.0-0.12,2d_cat_multi_stim_exp1,2022-4-25,10:37:21,25,75,3,9,10,40,30,120,899,20,"[""Asian""]",No,Female,4305094,null,null,,,,fixation,,,,,,,,,,,,,,,,,,,,,,,,,,
,,,,,canvas-keyboard-response,73,339049,0.0-12.0-1.12,2d_cat_multi_stim_exp1,2022-4-25,10:37:21,25,75,3,9,10,40,30,120,899,20,"[""Asian""]",No,Female,4305094,null,null,,,,clear_screen,,,,,,,,,,,,,,,,,,,,,,,,,,
,,,,,canvas-keyboard-response,74,341097,0.0-12.0-2.12,2d_cat_multi_stim_exp1,2022-4-25,10:37:21,25,75,3,9,10,40,30,120,899,20,"[""Asian""]",No,Female,4305094,2040,i,learn,,,learn_trial,20,100,out,0,1,,,,,,,,,,,,,,,,,,,,,
,,,,,canvas-keyboard-response,75,341605,0.0-12.0-3.12,2d_cat_multi_stim_exp1,2022-4-25,10:37:21,25,75,3,9,10,40,30,120,899,20,"[""Asian""]",No,Female,4305094,null,null,learn_feedback,,,learn_feedback,20,100,out,,,,,,,,,,,,,,,,,,,,,,,
,,,,,canvas-keyboard-response,76,341664,0.0-12.0-4.12,2d_cat_multi_stim_exp1,2022-4-25,10:37:21,25,75,3,9,10,40,30,120,899,20,"[""Asian""]",No,Female,4305094,null,null,,,,clear_screen,,,,,,,,,,,,,,,,,,,,,,,,,,
,,,,,canvas-keyboard-response,77,342171,0.0-12.0-0.13,2d_cat_multi_stim_exp1,2022-4-25,10:37:21,25,75,3,9,10,40,30,120,899,20,"[""Asian""]",No,Female,4305094,null,null,,,,fixation,,,,,,,,,,,,,,,,,,,,,,,,,,
,,,,,canvas-keyboard-response,78,342683,0.0-12.0-1.13,2d_cat_multi_stim_exp1,2022-4-25,10:37:21,25,75,3,9,10,40,30,120,899,20,"[""Asian""]",No,Female,4305094,null,null,,,,clear_screen,,,,,,,,,,,,,,,,,,,,,,,,,,
,,,,,canvas-keyboard-response,79,343513,0.0-12.0-2.13,2d_cat_multi_stim_exp1,2022-4-25,10:37:21,25,75,3,9,10,40,30,120,899,20,"[""Asian""]",No,Female,4305094,821,i,learn,,,learn_trial,16.6667,100,out,0,1,,,,,,,,,,,,,,,,,,,,,
,,,,,canvas-keyboard-response,80,344022,0.0-12.0-3.13,2d_cat_multi_stim_exp1,2022-4-25,10:37:21,25,75,3,9,10,40,30,120,899,20,"[""Asian""]",No,Female,4305094,null,null,learn_feedback,,,learn_feedback,16.6667,100,out,,,,,,,,,,,,,,,,,,,,,,,
,,,,,canvas-keyboard-response,81,344080,0.0-12.0-4.13,2d_cat_multi_stim_exp1,2022-4-25,10:37:21,25,75,3,9,10,40,30,120,899,20,"[""Asian""]",No,Female,4305094,null,null,,,,clear_screen,,,,,,,,,,,,,,,,,,,,,,,,,,
,,,,,canvas-keyboard-response,82,344588,0.0-12.0-0.14,2d_cat_multi_stim_exp1,2022-4-25,10:37:21,25,75,3,9,10,40,30,120,899,20,"[""Asian""]",No,Female,4305094,null,null,,,,fixation,,,,,,,,,,,,,,,,,,,,,,,,,,
,,,,,canvas-keyboard-response,83,345097,0.0-12.0-1.14,2d_cat_multi_stim_exp1,2022-4-25,10:37:21,25,75,3,9,10,40,30,120,899,20,"[""Asian""]",No,Female,4305094,null,null,,,,clear_screen,,,,,,,,,,,,,,,,,,,,,,,,,,
,,,,,canvas-keyboard-response,84,347345,0.0-12.0-2.14,2d_cat_multi_stim_exp1,2022-4-25,10:37:21,25,75,3,9,10,40,30,120,899,20,"[""Asian""]",No,Female,4305094,2240,u,learn,,,learn_trial,25,75,in,1,1,,,,,,,,,,,,,,,,,,,,,
,,,,,canvas-keyboard-response,85,347855,0.0-12.0-3.14,2d_cat_multi_stim_exp1,2022-4-25,10:37:21,25,75,3,9,10,40,30,120,899,20,"[""Asian""]",No,Female,4305094,null,null,learn_feedback,,,learn_feedback,25,75,in,,,,,,,,,,,,,,,,,,,,,,,
,,,,,canvas-keyboard-response,86,347912,0.0-12.0-4.14,2d_cat_multi_stim_exp1,2022-4-25,10:37:21,25,75,3,9,10,40,30,120,899,20,"[""Asian""]",No,Female,4305094,null,null,,,,clear_screen,,,,,,,,,,,,,,,,,,,,,,,,,,
,,,,,canvas-keyboard-response,87,348420,0.0-12.0-0.15,2d_cat_multi_stim_exp1,2022-4-25,10:37:21,25,75,3,9,10,40,30,120,899,20,"[""Asian""]",No,Female,4305094,null,null,,,,fixation,,,,,,,,,,,,,,,,,,,,,,,,,,
,,,,,canvas-keyboard-response,88,348930,0.0-12.0-1.15,2d_cat_multi_stim_exp1,2022-4-25,10:37:21,25,75,3,9,10,40,30,120,899,20,"[""Asian""]",No,Female,4305094,null,null,,,,clear_screen,,,,,,,,,,,,,,,,,,,,,,,,,,
,,,,,canvas-keyboard-response,89,351626,0.0-12.0-2.15,2d_cat_multi_stim_exp1,2022-4-25,10:37:21,25,75,3,9,10,40,30,120,899,20,"[""Asian""]",No,Female,4305094,2687,u,learn,,,learn_trial,22.9268,68.4948,in,1,1,,,,,,,,,,,,,,,,,,,,,
,,,,,canvas-keyboard-response,90,352139,0.0-12.0-3.15,2d_cat_multi_stim_exp1,2022-4-25,10:37:21,25,75,3,9,10,40,30,120,899,20,"[""Asian""]",No,Female,4305094,null,null,learn_feedback,,,learn_feedback,22.9268,68.4948,in,,,,,,,,,,,,,,,,,,,,,,,
,,,,,canvas-keyboard-response,91,352198,0.0-12.0-4.15,2d_cat_multi_stim_exp1,2022-4-25,10:37:21,25,75,3,9,10,40,30,120,899,20,"[""Asian""]",No,Female,4305094,null,null,,,,clear_screen,,,,,,,,,,,,,,,,,,,,,,,,,,
,,,,,canvas-keyboard-response,92,352708,0.0-12.0-0.16,2d_cat_multi_stim_exp1,2022-4-25,10:37:21,25,75,3,9,10,40,30,120,899,20,"[""Asian""]",No,Female,4305094,null,null,,,,fixation,,,,,,,,,,,,,,,,,,,,,,,,,,
,,,,,canvas-keyboard-response,93,353219,0.0-12.0-1.16,2d_cat_multi_stim_exp1,2022-4-25,10:37:21,25,75,3,9,10,40,30,120,899,20,"[""Asian""]",No,Female,4305094,null,null,,,,clear_screen,,,,,,,,,,,,,,,,,,,,,,,,,,
,,,,,canvas-keyboard-response,94,354297,0.0-12.0-2.16,2d_cat_multi_stim_exp1,2022-4-25,10:37:21,25,75,3,9,10,40,30,120,899,20,"[""Asian""]",No,Female,4305094,1069,u,learn,,,learn_trial,22.1081,72.6057,in,1,1,,,,,,,,,,,,,,,,,,,,,
,,,,,canvas-keyboard-response,95,354807,0.0-12.0-3.16,2d_cat_multi_stim_exp1,2022-4-25,10:37:21,25,75,3,9,10,40,30,120,899,20,"[""Asian""]",No,Female,4305094,null,null,learn_feedback,,,learn_feedback,22.1081,72.6057,in,,,,,,,,,,,,,,,,,,,,,,,
,,,,,canvas-keyboard-response,96,354870,0.0-12.0-4.16,2d_cat_multi_stim_exp1,2022-4-25,10:37:21,25,75,3,9,10,40,30,120,899,20,"[""Asian""]",No,Female,4305094,null,null,,,,clear_screen,,,,,,,,,,,,,,,,,,,,,,,,,,
,,,,,canvas-keyboard-response,97,355378,0.0-12.0-0.17,2d_cat_multi_stim_exp1,2022-4-25,10:37:21,25,75,3,9,10,40,30,120,899,20,"[""Asian""]",No,Female,4305094,null,null,,,,fixation,,,,,,,,,,,,,,,,,,,,,,,,,,
,,,,,canvas-keyboard-response,98,355888,0.0-12.0-1.17,2d_cat_multi_stim_exp1,2022-4-25,10:37:21,25,75,3,9,10,40,30,120,899,20,"[""Asian""]",No,Female,4305094,null,null,,,,clear_screen,,,,,,,,,,,,,,,,,,,,,,,,,,
,,,,,canvas-keyboard-response,99,356962,0.0-12.0-2.17,2d_cat_multi_stim_exp1,2022-4-25,10:37:21,25,75,3,9,10,40,30,120,899,20,"[""Asian""]",No,Female,4305094,1065,u,learn,,,learn_trial,25,75,in,1,1,,,,,,,,,,,,,,,,,,,,,
,,,,,canvas-keyboard-response,100,357472,0.0-12.0-3.17,2d_cat_multi_stim_exp1,2022-4-25,10:37:21,25,75,3,9,10,40,30,120,899,20,"[""Asian""]",No,Female,4305094,null,null,learn_feedback,,,learn_feedback,25,75,in,,,,,,,,,,,,,,,,,,,,,,,
,,,,,canvas-keyboard-response,101,357531,0.0-12.0-4.17,2d_cat_multi_stim_exp1,2022-4-25,10:37:21,25,75,3,9,10,40,30,120,899,20,"[""Asian""]",No,Female,4305094,null,null,,,,clear_screen,,,,,,,,,,,,,,,,,,,,,,,,,,
,,,,,canvas-keyboard-response,102,358040,0.0-12.0-0.18,2d_cat_multi_stim_exp1,2022-4-25,10:37:21,25,75,3,9,10,40,30,120,899,20,"[""Asian""]",No,Female,4305094,null,null,,,,fixation,,,,,,,,,,,,,,,,,,,,,,,,,,
,,,,,canvas-keyboard-response,103,358549,0.0-12.0-1.18,2d_cat_multi_stim_exp1,2022-4-25,10:37:21,25,75,3,9,10,40,30,120,899,20,"[""Asian""]",No,Female,4305094,null,null,,,,clear_screen,,,,,,,,,,,,,,,,,,,,,,,,,,
,,,,,canvas-keyboard-response,104,377154,0.0-12.0-2.18,2d_cat_multi_stim_exp1,2022-4-25,10:37:21,25,75,3,9,10,40,30,120,899,20,"[""Asian""]",No,Female,4305094,18596,i,learn,,,learn_trial,13.3333,30,out,0,1,,,,,,,,,,,,,,,,,,,,,
,,,,,canvas-keyboard-response,105,377663,0.0-12.0-3.18,2d_cat_multi_stim_exp1,2022-4-25,10:37:21,25,75,3,9,10,40,30,120,899,20,"[""Asian""]",No,Female,4305094,null,null,learn_feedback,,,learn_feedback,13.3333,30,out,,,,,,,,,,,,,,,,,,,,,,,
,,,,,canvas-keyboard-response,106,377721,0.0-12.0-4.18,2d_cat_multi_stim_exp1,2022-4-25,10:37:21,25,75,3,9,10,40,30,120,899,20,"[""Asian""]",No,Female,4305094,null,null,,,,clear_screen,,,,,,,,,,,,,,,,,,,,,,,,,,
,,,,,canvas-keyboard-response,107,378229,0.0-12.0-0.19,2d_cat_multi_stim_exp1,2022-4-25,10:37:21,25,75,3,9,10,40,30,120,899,20,"[""Asian""]",No,Female,4305094,null,null,,,,fixation,,,,,,,,,,,,,,,,,,,,,,,,,,
,,,,,canvas-keyboard-response,108,378738,0.0-12.0-1.19,2d_cat_multi_stim_exp1,2022-4-25,10:37:21,25,75,3,9,10,40,30,120,899,20,"[""Asian""]",No,Female,4305094,null,null,,,,clear_screen,,,,,,,,,,,,,,,,,,,,,,,,,,
,,,,,canvas-keyboard-response,109,380889,0.0-12.0-2.19,2d_cat_multi_stim_exp1,2022-4-25,10:37:21,25,75,3,9,10,40,30,120,899,20,"[""Asian""]",No,Female,4305094,2142,u,learn,,,learn_trial,27.8087,78.1624,in,1,1,,,,,,,,,,,,,,,,,,,,,
,,,,,canvas-keyboard-response,110,381399,0.0-12.0-3.19,2d_cat_multi_stim_exp1,2022-4-25,10:37:21,25,75,3,9,10,40,30,120,899,20,"[""Asian""]",No,Female,4305094,null,null,learn_feedback,,,learn_feedback,27.8087,78.1624,in,,,,,,,,,,,,,,,,,,,,,,,
,,,,,canvas-keyboard-response,111,381458,0.0-12.0-4.19,2d_cat_multi_stim_exp1,2022-4-25,10:37:21,25,75,3,9,10,40,30,120,899,20,"[""Asian""]",No,Female,4305094,null,null,,,,clear_screen,,,,,,,,,,,,,,,,,,,,,,,,,,
,,,,,canvas-keyboard-response,112,381965,0.0-12.0-0.20,2d_cat_multi_stim_exp1,2022-4-25,10:37:21,25,75,3,9,10,40,30,120,899,20,"[""Asian""]",No,Female,4305094,null,null,,,,fixation,,,,,,,,,,,,,,,,,,,,,,,,,,
,,,,,canvas-keyboard-response,113,382474,0.0-12.0-1.20,2d_cat_multi_stim_exp1,2022-4-25,10:37:21,25,75,3,9,10,40,30,120,899,20,"[""Asian""]",No,Female,4305094,null,null,,,,clear_screen,,,,,,,,,,,,,,,,,,,,,,,,,,
,,,,,canvas-keyboard-response,114,386328,0.0-12.0-2.20,2d_cat_multi_stim_exp1,2022-4-25,10:37:21,25,75,3,9,10,40,30,120,899,20,"[""Asian""]",No,Female,4305094,3848,u,learn,,,learn_trial,20,70,out,1,0,,,,,,,,,,,,,,,,,,,,,
,,,,,canvas-keyboard-response,115,387338,0.0-12.0-3.20,2d_cat_multi_stim_exp1,2022-4-25,10:37:21,25,75,3,9,10,40,30,120,899,20,"[""Asian""]",No,Female,4305094,null,null,learn_feedback,,,learn_feedback,20,70,out,,,,,,,,,,,,,,,,,,,,,,,
,,,,,canvas-keyboard-response,116,387396,0.0-12.0-4.20,2d_cat_multi_stim_exp1,2022-4-25,10:37:21,25,75,3,9,10,40,30,120,899,20,"[""Asian""]",No,Female,4305094,null,null,,,,clear_screen,,,,,,,,,,,,,,,,,,,,,,,,,,
,,,,,canvas-keyboard-response,117,387904,0.0-12.0-0.21,2d_cat_multi_stim_exp1,2022-4-25,10:37:21,25,75,3,9,10,40,30,120,899,20,"[""Asian""]",No,Female,4305094,null,null,,,,fixation,,,,,,,,,,,,,,,,,,,,,,,,,,
,,,,,canvas-keyboard-response,118,388413,0.0-12.0-1.21,2d_cat_multi_stim_exp1,2022-4-25,10:37:21,25,75,3,9,10,40,30,120,899,20,"[""Asian""]",No,Female,4305094,null,null,,,,clear_screen,,,,,,,,,,,,,,,,,,,,,,,,,,
,,,,,canvas-keyboard-response,119,389921,0.0-12.0-2.21,2d_cat_multi_stim_exp1,2022-4-25,10:37:21,25,75,3,9,10,40,30,120,899,20,"[""Asian""]",No,Female,4305094,1499,i,learn,,,learn_trial,30,40,out,0,1,,,,,,,,,,,,,,,,,,,,,
,,,,,canvas-keyboard-response,120,390430,0.0-12.0-3.21,2d_cat_multi_stim_exp1,2022-4-25,10:37:21,25,75,3,9,10,40,30,120,899,20,"[""Asian""]",No,Female,4305094,null,null,learn_feedback,,,learn_feedback,30,40,out,,,,,,,,,,,,,,,,,,,,,,,
,,,,,canvas-keyboard-response,121,390488,0.0-12.0-4.21,2d_cat_multi_stim_exp1,2022-4-25,10:37:21,25,75,3,9,10,40,30,120,899,20,"[""Asian""]",No,Female,4305094,null,null,,,,clear_screen,,,,,,,,,,,,,,,,,,,,,,,,,,
,,,,,canvas-keyboard-response,122,390997,0.0-12.0-0.22,2d_cat_multi_stim_exp1,2022-4-25,10:37:21,25,75,3,9,10,40,30,120,899,20,"[""Asian""]",No,Female,4305094,null,null,,,,fixation,,,,,,,,,,,,,,,,,,,,,,,,,,
,,,,,canvas-keyboard-response,123,391506,0.0-12.0-1.22,2d_cat_multi_stim_exp1,2022-4-25,10:37:21,25,75,3,9,10,40,30,120,899,20,"[""Asian""]",No,Female,4305094,null,null,,,,clear_screen,,,,,,,,,,,,,,,,,,,,,,,,,,
,,,,,canvas-keyboard-response,124,392544,0.0-12.0-2.22,2d_cat_multi_stim_exp1,2022-4-25,10:37:21,25,75,3,9,10,40,30,120,899,20,"[""Asian""]",No,Female,4305094,1031,u,learn,,,learn_trial,24.3324,83.7744,in,1,1,,,,,,,,,,,,,,,,,,,,,
,,,,,canvas-keyboard-response,125,393054,0.0-12.0-3.22,2d_cat_multi_stim_exp1,2022-4-25,10:37:21,25,75,3,9,10,40,30,120,899,20,"[""Asian""]",No,Female,4305094,null,null,learn_feedback,,,learn_feedback,24.3324,83.7744,in,,,,,,,,,,,,,,,,,,,,,,,
,,,,,canvas-keyboard-response,126,393115,0.0-12.0-4.22,2d_cat_multi_stim_exp1,2022-4-25,10:37:21,25,75,3,9,10,40,30,120,899,20,"[""Asian""]",No,Female,4305094,null,null,,,,clear_screen,,,,,,,,,,,,,,,,,,,,,,,,,,
,,,,,canvas-keyboard-response,127,393622,0.0-12.0-0.23,2d_cat_multi_stim_exp1,2022-4-25,10:37:21,25,75,3,9,10,40,30,120,899,20,"[""Asian""]",No,Female,4305094,null,null,,,,fixation,,,,,,,,,,,,,,,,,,,,,,,,,,
,,,,,canvas-keyboard-response,128,394131,0.0-12.0-1.23,2d_cat_multi_stim_exp1,2022-4-25,10:37:21,25,75,3,9,10,40,30,120,899,20,"[""Asian""]",No,Female,4305094,null,null,,,,clear_screen,,,,,,,,,,,,,,,,,,,,,,,,,,
,,,,,canvas-keyboard-response,129,395010,0.0-12.0-2.23,2d_cat_multi_stim_exp1,2022-4-25,10:37:21,25,75,3,9,10,40,30,120,899,20,"[""Asian""]",No,Female,4305094,870,i,learn,,,learn_trial,40,40,out,0,1,,,,,,,,,,,,,,,,,,,,,
,,,,,canvas-keyboard-response,130,395518,0.0-12.0-3.23,2d_cat_multi_stim_exp1,2022-4-25,10:37:21,25,75,3,9,10,40,30,120,899,20,"[""Asian""]",No,Female,4305094,null,null,learn_feedback,,,learn_feedback,40,40,out,,,,,,,,,,,,,,,,,,,,,,,
,,,,,canvas-keyboard-response,131,395575,0.0-12.0-4.23,2d_cat_multi_stim_exp1,2022-4-25,10:37:21,25,75,3,9,10,40,30,120,899,20,"[""Asian""]",No,Female,4305094,null,null,,,,clear_screen,,,,,,,,,,,,,,,,,,,,,,,,,,
,,,,,canvas-keyboard-response,132,396083,0.0-12.0-0.24,2d_cat_multi_stim_exp1,2022-4-25,10:37:21,25,75,3,9,10,40,30,120,899,20,"[""Asian""]",No,Female,4305094,null,null,,,,fixation,,,,,,,,,,,,,,,,,,,,,,,,,,
,,,,,canvas-keyboard-response,133,396592,0.0-12.0-1.24,2d_cat_multi_stim_exp1,2022-4-25,10:37:21,25,75,3,9,10,40,30,120,899,20,"[""Asian""]",No,Female,4305094,null,null,,,,clear_screen,,,,,,,,,,,,,,,,,,,,,,,,,,
,,,,,canvas-keyboard-response,134,397832,0.0-12.0-2.24,2d_cat_multi_stim_exp1,2022-4-25,10:37:21,25,75,3,9,10,40,30,120,899,20,"[""Asian""]",No,Female,4305094,1232,i,learn,,,learn_trial,10,50,out,0,1,,,,,,,,,,,,,,,,,,,,,
,,,,,canvas-keyboard-response,135,398339,0.0-12.0-3.24,2d_cat_multi_stim_exp1,2022-4-25,10:37:21,25,75,3,9,10,40,30,120,899,20,"[""Asian""]",No,Female,4305094,null,null,learn_feedback,,,learn_feedback,10,50,out,,,,,,,,,,,,,,,,,,,,,,,
,,,,,canvas-keyboard-response,136,398397,0.0-12.0-4.24,2d_cat_multi_stim_exp1,2022-4-25,10:37:21,25,75,3,9,10,40,30,120,899,20,"[""Asian""]",No,Female,4305094,null,null,,,,clear_screen,,,,,,,,,,,,,,,,,,,,,,,,,,
,,,,,canvas-keyboard-response,137,398904,0.0-12.0-0.25,2d_cat_multi_stim_exp1,2022-4-25,10:37:21,25,75,3,9,10,40,30,120,899,20,"[""Asian""]",No,Female,4305094,null,null,,,,fixation,,,,,,,,,,,,,,,,,,,,,,,,,,
,,,,,canvas-keyboard-response,138,399413,0.0-12.0-1.25,2d_cat_multi_stim_exp1,2022-4-25,10:37:21,25,75,3,9,10,40,30,120,899,20,"[""Asian""]",No,Female,4305094,null,null,,,,clear_screen,,,,,,,,,,,,,,,,,,,,,,,,,,
,,,,,canvas-keyboard-response,139,400169,0.0-12.0-2.25,2d_cat_multi_stim_exp1,2022-4-25,10:37:21,25,75,3,9,10,40,30,120,899,20,"[""Asian""]",No,Female,4305094,747,i,learn,,,learn_trial,26.6667,30,out,0,1,,,,,,,,,,,,,,,,,,,,,
,,,,,canvas-keyboard-response,140,400678,0.0-12.0-3.25,2d_cat_multi_stim_exp1,2022-4-25,10:37:21,25,75,3,9,10,40,30,120,899,20,"[""Asian""]",No,Female,4305094,null,null,learn_feedback,,,learn_feedback,26.6667,30,out,,,,,,,,,,,,,,,,,,,,,,,
,,,,,canvas-keyboard-response,141,400735,0.0-12.0-4.25,2d_cat_multi_stim_exp1,2022-4-25,10:37:21,25,75,3,9,10,40,30,120,899,20,"[""Asian""]",No,Female,4305094,null,null,,,,clear_screen,,,,,,,,,,,,,,,,,,,,,,,,,,
,,,,,canvas-keyboard-response,142,401247,0.0-12.0-0.26,2d_cat_multi_stim_exp1,2022-4-25,10:37:21,25,75,3,9,10,40,30,120,899,20,"[""Asian""]",No,Female,4305094,null,null,,,,fixation,,,,,,,,,,,,,,,,,,,,,,,,,,
,,,,,canvas-keyboard-response,143,401755,0.0-12.0-1.26,2d_cat_multi_stim_exp1,2022-4-25,10:37:21,25,75,3,9,10,40,30,120,899,20,"[""Asian""]",No,Female,4305094,null,null,,,,clear_screen,,,,,,,,,,,,,,,,,,,,,,,,,,
,,,,,canvas-keyboard-response,144,404601,0.0-12.0-2.26,2d_cat_multi_stim_exp1,2022-4-25,10:37:21,25,75,3,9,10,40,30,120,899,20,"[""Asian""]",No,Female,4305094,2836,u,learn,,,learn_trial,25,75,in,1,1,,,,,,,,,,,,,,,,,,,,,
,,,,,canvas-keyboard-response,145,405109,0.0-12.0-3.26,2d_cat_multi_stim_exp1,2022-4-25,10:37:21,25,75,3,9,10,40,30,120,899,20,"[""Asian""]",No,Female,4305094,null,null,learn_feedback,,,learn_feedback,25,75,in,,,,,,,,,,,,,,,,,,,,,,,
,,,,,canvas-keyboard-response,146,405167,0.0-12.0-4.26,2d_cat_multi_stim_exp1,2022-4-25,10:37:21,25,75,3,9,10,40,30,120,899,20,"[""Asian""]",No,Female,4305094,null,null,,,,clear_screen,,,,,,,,,,,,,,,,,,,,,,,,,,
,,,,,canvas-keyboard-response,147,405675,0.0-12.0-0.27,2d_cat_multi_stim_exp1,2022-4-25,10:37:21,25,75,3,9,10,40,30,120,899,20,"[""Asian""]",No,Female,4305094,null,null,,,,fixation,,,,,,,,,,,,,,,,,,,,,,,,,,
,,,,,canvas-keyboard-response,148,406184,0.0-12.0-1.27,2d_cat_multi_stim_exp1,2022-4-25,10:37:21,25,75,3,9,10,40,30,120,899,20,"[""Asian""]",No,Female,4305094,null,null,,,,clear_screen,,,,,,,,,,,,,,,,,,,,,,,,,,
,,,,,canvas-keyboard-response,149,407257,0.0-12.0-2.27,2d_cat_multi_stim_exp1,2022-4-25,10:37:21,25,75,3,9,10,40,30,120,899,20,"[""Asian""]",No,Female,4305094,1065,i,learn,,,learn_trial,33.3333,110,out,0,1,,,,,,,,,,,,,,,,,,,,,
,,,,,canvas-keyboard-response,150,407766,0.0-12.0-3.27,2d_cat_multi_stim_exp1,2022-4-25,10:37:21,25,75,3,9,10,40,30,120,899,20,"[""Asian""]",No,Female,4305094,null,null,learn_feedback,,,learn_feedback,33.3333,110,out,,,,,,,,,,,,,,,,,,,,,,,
,,,,,canvas-keyboard-response,151,407823,0.0-12.0-4.27,2d_cat_multi_stim_exp1,2022-4-25,10:37:21,25,75,3,9,10,40,30,120,899,20,"[""Asian""]",No,Female,4305094,null,null,,,,clear_screen,,,,,,,,,,,,,,,,,,,,,,,,,,
,,,,,canvas-keyboard-response,152,408333,0.0-12.0-0.28,2d_cat_multi_stim_exp1,2022-4-25,10:37:21,25,75,3,9,10,40,30,120,899,20,"[""Asian""]",No,Female,4305094,null,null,,,,fixation,,,,,,,,,,,,,,,,,,,,,,,,,,
,,,,,canvas-keyboard-response,153,408842,0.0-12.0-1.28,2d_cat_multi_stim_exp1,2022-4-25,10:37:21,25,75,3,9,10,40,30,120,899,20,"[""Asian""]",No,Female,4305094,null,null,,,,clear_screen,,,,,,,,,,,,,,,,,,,,,,,,,,
,,,,,canvas-keyboard-response,154,409577,0.0-12.0-2.28,2d_cat_multi_stim_exp1,2022-4-25,10:37:21,25,75,3,9,10,40,30,120,899,20,"[""Asian""]",No,Female,4305094,725,i,learn,,,learn_trial,33.3333,40,out,0,1,,,,,,,,,,,,,,,,,,,,,
,,,,,canvas-keyboard-response,155,410085,0.0-12.0-3.28,2d_cat_multi_stim_exp1,2022-4-25,10:37:21,25,75,3,9,10,40,30,120,899,20,"[""Asian""]",No,Female,4305094,null,null,learn_feedback,,,learn_feedback,33.3333,40,out,,,,,,,,,,,,,,,,,,,,,,,
,,,,,canvas-keyboard-response,156,410144,0.0-12.0-4.28,2d_cat_multi_stim_exp1,2022-4-25,10:37:21,25,75,3,9,10,40,30,120,899,20,"[""Asian""]",No,Female,4305094,null,null,,,,clear_screen,,,,,,,,,,,,,,,,,,,,,,,,,,
,,,,,canvas-keyboard-response,157,410652,0.0-12.0-0.29,2d_cat_multi_stim_exp1,2022-4-25,10:37:21,25,75,3,9,10,40,30,120,899,20,"[""Asian""]",No,Female,4305094,null,null,,,,fixation,,,,,,,,,,,,,,,,,,,,,,,,,,
,,,,,canvas-keyboard-response,158,411163,0.0-12.0-1.29,2d_cat_multi_stim_exp1,2022-4-25,10:37:21,25,75,3,9,10,40,30,120,899,20,"[""Asian""]",No,Female,4305094,null,null,,,,clear_screen,,,,,,,,,,,,,,,,,,,,,,,,,,
,,,,,canvas-keyboard-response,159,413865,0.0-12.0-2.29,2d_cat_multi_stim_exp1,2022-4-25,10:37:21,25,75,3,9,10,40,30,120,899,20,"[""Asian""]",No,Female,4305094,2694,u,learn,,,learn_trial,24.8654,83.9909,in,1,1,,,,,,,,,,,,,,,,,,,,,
,,,,,canvas-keyboard-response,160,414374,0.0-12.0-3.29,2d_cat_multi_stim_exp1,2022-4-25,10:37:21,25,75,3,9,10,40,30,120,899,20,"[""Asian""]",No,Female,4305094,null,null,learn_feedback,,,learn_feedback,24.8654,83.9909,in,,,,,,,,,,,,,,,,,,,,,,,
,,,,,canvas-keyboard-response,161,414432,0.0-12.0-4.29,2d_cat_multi_stim_exp1,2022-4-25,10:37:21,25,75,3,9,10,40,30,120,899,20,"[""Asian""]",No,Female,4305094,null,null,,,,clear_screen,,,,,,,,,,,,,,,,,,,,,,,,,,
,,,,,canvas-keyboard-response,162,414941,0.0-12.0-0.30,2d_cat_multi_stim_exp1,2022-4-25,10:37:21,25,75,3,9,10,40,30,120,899,20,"[""Asian""]",No,Female,4305094,null,null,,,,fixation,,,,,,,,,,,,,,,,,,,,,,,,,,
,,,,,canvas-keyboard-response,163,415452,0.0-12.0-1.30,2d_cat_multi_stim_exp1,2022-4-25,10:37:21,25,75,3,9,10,40,30,120,899,20,"[""Asian""]",No,Female,4305094,null,null,,,,clear_screen,,,,,,,,,,,,,,,,,,,,,,,,,,
,,,,,canvas-keyboard-response,164,416129,0.0-12.0-2.30,2d_cat_multi_stim_exp1,2022-4-25,10:37:21,25,75,3,9,10,40,30,120,899,20,"[""Asian""]",No,Female,4305094,666,i,learn,,,learn_trial,16.6667,30,out,0,1,,,,,,,,,,,,,,,,,,,,,
,,,,,canvas-keyboard-response,165,416640,0.0-12.0-3.30,2d_cat_multi_stim_exp1,2022-4-25,10:37:21,25,75,3,9,10,40,30,120,899,20,"[""Asian""]",No,Female,4305094,null,null,learn_feedback,,,learn_feedback,16.6667,30,out,,,,,,,,,,,,,,,,,,,,,,,
,,,,,canvas-keyboard-response,166,416700,0.0-12.0-4.30,2d_cat_multi_stim_exp1,2022-4-25,10:37:21,25,75,3,9,10,40,30,120,899,20,"[""Asian""]",No,Female,4305094,null,null,,,,clear_screen,,,,,,,,,,,,,,,,,,,,,,,,,,
,,,,,canvas-keyboard-response,167,417208,0.0-12.0-0.31,2d_cat_multi_stim_exp1,2022-4-25,10:37:21,25,75,3,9,10,40,30,120,899,20,"[""Asian""]",No,Female,4305094,null,null,,,,fixation,,,,,,,,,,,,,,,,,,,,,,,,,,
,,,,,canvas-keyboard-response,168,417719,0.0-12.0-1.31,2d_cat_multi_stim_exp1,2022-4-25,10:37:21,25,75,3,9,10,40,30,120,899,20,"[""Asian""]",No,Female,4305094,null,null,,,,clear_screen,,,,,,,,,,,,,,,,,,,,,,,,,,
,,,,,canvas-keyboard-response,169,419105,0.0-12.0-2.31,2d_cat_multi_stim_exp1,2022-4-25,10:37:21,25,75,3,9,10,40,30,120,899,20,"[""Asian""]",No,Female,4305094,1373,i,learn,,,learn_trial,33.3333,60,out,0,1,,,,,,,,,,,,,,,,,,,,,
,,,,,canvas-keyboard-response,170,419615,0.0-12.0-3.31,2d_cat_multi_stim_exp1,2022-4-25,10:37:21,25,75,3,9,10,40,30,120,899,20,"[""Asian""]",No,Female,4305094,null,null,learn_feedback,,,learn_feedback,33.3333,60,out,,,,,,,,,,,,,,,,,,,,,,,
,,,,,canvas-keyboard-response,171,419674,0.0-12.0-4.31,2d_cat_multi_stim_exp1,2022-4-25,10:37:21,25,75,3,9,10,40,30,120,899,20,"[""Asian""]",No,Female,4305094,null,null,,,,clear_screen,,,,,,,,,,,,,,,,,,,,,,,,,,
,,,,,canvas-keyboard-response,172,420183,0.0-12.0-0.32,2d_cat_multi_stim_exp1,2022-4-25,10:37:21,25,75,3,9,10,40,30,120,899,20,"[""Asian""]",No,Female,4305094,null,null,,,,fixation,,,,,,,,,,,,,,,,,,,,,,,,,,
,,,,,canvas-keyboard-response,173,420692,0.0-12.0-1.32,2d_cat_multi_stim_exp1,2022-4-25,10:37:21,25,75,3,9,10,40,30,120,899,20,"[""Asian""]",No,Female,4305094,null,null,,,,clear_screen,,,,,,,,,,,,,,,,,,,,,,,,,,
,,,,,canvas-keyboard-response,174,422617,0.0-12.0-2.32,2d_cat_multi_stim_exp1,2022-4-25,10:37:21,25,75,3,9,10,40,30,120,899,20,"[""Asian""]",No,Female,4305094,1915,u,learn,,,learn_trial,27.5753,70.3839,in,1,1,,,,,,,,,,,,,,,,,,,,,
,,,,,canvas-keyboard-response,175,423126,0.0-12.0-3.32,2d_cat_multi_stim_exp1,2022-4-25,10:37:21,25,75,3,9,10,40,30,120,899,20,"[""Asian""]",No,Female,4305094,null,null,learn_feedback,,,learn_feedback,27.5753,70.3839,in,,,,,,,,,,,,,,,,,,,,,,,
,,,,,canvas-keyboard-response,176,423185,0.0-12.0-4.32,2d_cat_multi_stim_exp1,2022-4-25,10:37:21,25,75,3,9,10,40,30,120,899,20,"[""Asian""]",No,Female,4305094,null,null,,,,clear_screen,,,,,,,,,,,,,,,,,,,,,,,,,,
,,,,,canvas-keyboard-response,177,423693,0.0-12.0-0.33,2d_cat_multi_stim_exp1,2022-4-25,10:37:21,25,75,3,9,10,40,30,120,899,20,"[""Asian""]",No,Female,4305094,null,null,,,,fixation,,,,,,,,,,,,,,,,,,,,,,,,,,
,,,,,canvas-keyboard-response,178,424202,0.0-12.0-1.33,2d_cat_multi_stim_exp1,2022-4-25,10:37:21,25,75,3,9,10,40,30,120,899,20,"[""Asian""]",No,Female,4305094,null,null,,,,clear_screen,,,,,,,,,,,,,,,,,,,,,,,,,,
,,,,,canvas-keyboard-response,179,425793,0.0-12.0-2.33,2d_cat_multi_stim_exp1,2022-4-25,10:37:21,25,75,3,9,10,40,30,120,899,20,"[""Asian""]",No,Female,4305094,1583,u,learn,,,learn_trial,26.6667,70,out,1,0,,,,,,,,,,,,,,,,,,,,,
,,,,,canvas-keyboard-response,180,426802,0.0-12.0-3.33,2d_cat_multi_stim_exp1,2022-4-25,10:37:21,25,75,3,9,10,40,30,120,899,20,"[""Asian""]",No,Female,4305094,null,null,learn_feedback,,,learn_feedback,26.6667,70,out,,,,,,,,,,,,,,,,,,,,,,,
,,,,,canvas-keyboard-response,181,426861,0.0-12.0-4.33,2d_cat_multi_stim_exp1,2022-4-25,10:37:21,25,75,3,9,10,40,30,120,899,20,"[""Asian""]",No,Female,4305094,null,null,,,,clear_screen,,,,,,,,,,,,,,,,,,,,,,,,,,
,,,,,canvas-keyboard-response,182,427369,0.0-12.0-0.34,2d_cat_multi_stim_exp1,2022-4-25,10:37:21,25,75,3,9,10,40,30,120,899,20,"[""Asian""]",No,Female,4305094,null,null,,,,fixation,,,,,,,,,,,,,,,,,,,,,,,,,,
,,,,,canvas-keyboard-response,183,427878,0.0-12.0-1.34,2d_cat_multi_stim_exp1,2022-4-25,10:37:21,25,75,3,9,10,40,30,120,899,20,"[""Asian""]",No,Female,4305094,null,null,,,,clear_screen,,,,,,,,,,,,,,,,,,,,,,,,,,
,,,,,canvas-keyboard-response,184,429585,0.0-12.0-2.34,2d_cat_multi_stim_exp1,2022-4-25,10:37:21,25,75,3,9,10,40,30,120,899,20,"[""Asian""]",No,Female,4305094,1696,u,learn,,,learn_trial,25,75,in,1,1,,,,,,,,,,,,,,,,,,,,,
,,,,,canvas-keyboard-response,185,430094,0.0-12.0-3.34,2d_cat_multi_stim_exp1,2022-4-25,10:37:21,25,75,3,9,10,40,30,120,899,20,"[""Asian""]",No,Female,4305094,null,null,learn_feedback,,,learn_feedback,25,75,in,,,,,,,,,,,,,,,,,,,,,,,
,,,,,canvas-keyboard-response,186,430152,0.0-12.0-4.34,2d_cat_multi_stim_exp1,2022-4-25,10:37:21,25,75,3,9,10,40,30,120,899,20,"[""Asian""]",No,Female,4305094,null,null,,,,clear_screen,,,,,,,,,,,,,,,,,,,,,,,,,,
,,,,,canvas-keyboard-response,187,430660,0.0-12.0-0.35,2d_cat_multi_stim_exp1,2022-4-25,10:37:21,25,75,3,9,10,40,30,120,899,20,"[""Asian""]",No,Female,4305094,null,null,,,,fixation,,,,,,,,,,,,,,,,,,,,,,,,,,
,,,,,canvas-keyboard-response,188,431169,0.0-12.0-1.35,2d_cat_multi_stim_exp1,2022-4-25,10:37:21,25,75,3,9,10,40,30,120,899,20,"[""Asian""]",No,Female,4305094,null,null,,,,clear_screen,,,,,,,,,,,,,,,,,,,,,,,,,,
,,,,,canvas-keyboard-response,189,432249,0.0-12.0-2.35,2d_cat_multi_stim_exp1,2022-4-25,10:37:21,25,75,3,9,10,40,30,120,899,20,"[""Asian""]",No,Female,4305094,1072,i,learn,,,learn_trial,23.8209,83.2757,in,0,0,,,,,,,,,,,,,,,,,,,,,
,,,,,canvas-keyboard-response,190,433258,0.0-12.0-3.35,2d_cat_multi_stim_exp1,2022-4-25,10:37:21,25,75,3,9,10,40,30,120,899,20,"[""Asian""]",No,Female,4305094,null,null,learn_feedback,,,learn_feedback,23.8209,83.2757,in,,,,,,,,,,,,,,,,,,,,,,,
,,,,,canvas-keyboard-response,191,433316,0.0-12.0-4.35,2d_cat_multi_stim_exp1,2022-4-25,10:37:21,25,75,3,9,10,40,30,120,899,20,"[""Asian""]",No,Female,4305094,null,null,,,,clear_screen,,,,,,,,,,,,,,,,,,,,,,,,,,
,,,,,canvas-keyboard-response,192,433824,0.0-12.0-0.36,2d_cat_multi_stim_exp1,2022-4-25,10:37:21,25,75,3,9,10,40,30,120,899,20,"[""Asian""]",No,Female,4305094,null,null,,,,fixation,,,,,,,,,,,,,,,,,,,,,,,,,,
,,,,,canvas-keyboard-response,193,434334,0.0-12.0-1.36,2d_cat_multi_stim_exp1,2022-4-25,10:37:21,25,75,3,9,10,40,30,120,899,20,"[""Asian""]",No,Female,4305094,null,null,,,,clear_screen,,,,,,,,,,,,,,,,,,,,,,,,,,
,,,,,canvas-keyboard-response,194,451457,0.0-12.0-2.36,2d_cat_multi_stim_exp1,2022-4-25,10:37:21,25,75,3,9,10,40,30,120,899,20,"[""Asian""]",No,Female,4305094,17115,u,learn,,,learn_trial,25,75,in,1,1,,,,,,,,,,,,,,,,,,,,,
,,,,,canvas-keyboard-response,195,451966,0.0-12.0-3.36,2d_cat_multi_stim_exp1,2022-4-25,10:37:21,25,75,3,9,10,40,30,120,899,20,"[""Asian""]",No,Female,4305094,null,null,learn_feedback,,,learn_feedback,25,75,in,,,,,,,,,,,,,,,,,,,,,,,
,,,,,canvas-keyboard-response,196,452024,0.0-12.0-4.36,2d_cat_multi_stim_exp1,2022-4-25,10:37:21,25,75,3,9,10,40,30,120,899,20,"[""Asian""]",No,Female,4305094,null,null,,,,clear_screen,,,,,,,,,,,,,,,,,,,,,,,,,,
,,,,,canvas-keyboard-response,197,452531,0.0-12.0-0.37,2d_cat_multi_stim_exp1,2022-4-25,10:37:21,25,75,3,9,10,40,30,120,899,20,"[""Asian""]",No,Female,4305094,null,null,,,,fixation,,,,,,,,,,,,,,,,,,,,,,,,,,
,,,,,canvas-keyboard-response,198,453040,0.0-12.0-1.37,2d_cat_multi_stim_exp1,2022-4-25,10:37:21,25,75,3,9,10,40,30,120,899,20,"[""Asian""]",No,Female,4305094,null,null,,,,clear_screen,,,,,,,,,,,,,,,,,,,,,,,,,,
,,,,,canvas-keyboard-response,199,453938,0.0-12.0-2.37,2d_cat_multi_stim_exp1,2022-4-25,10:37:21,25,75,3,9,10,40,30,120,899,20,"[""Asian""]",No,Female,4305094,888,i,learn,,,learn_trial,10,120,out,0,1,,,,,,,,,,,,,,,,,,,,,
,,,,,canvas-keyboard-response,200,454451,0.0-12.0-3.37,2d_cat_multi_stim_exp1,2022-4-25,10:37:21,25,75,3,9,10,40,30,120,899,20,"[""Asian""]",No,Female,4305094,null,null,learn_feedback,,,learn_feedback,10,120,out,,,,,,,,,,,,,,,,,,,,,,,
,,,,,canvas-keyboard-response,201,454511,0.0-12.0-4.37,2d_cat_multi_stim_exp1,2022-4-25,10:37:21,25,75,3,9,10,40,30,120,899,20,"[""Asian""]",No,Female,4305094,null,null,,,,clear_screen,,,,,,,,,,,,,,,,,,,,,,,,,,
,,,,,canvas-keyboard-response,202,455021,0.0-12.0-0.38,2d_cat_multi_stim_exp1,2022-4-25,10:37:21,25,75,3,9,10,40,30,120,899,20,"[""Asian""]",No,Female,4305094,null,null,,,,fixation,,,,,,,,,,,,,,,,,,,,,,,,,,
,,,,,canvas-keyboard-response,203,455531,0.0-12.0-1.38,2d_cat_multi_stim_exp1,2022-4-25,10:37:21,25,75,3,9,10,40,30,120,899,20,"[""Asian""]",No,Female,4305094,null,null,,,,clear_screen,,,,,,,,,,,,,,,,,,,,,,,,,,
,,,,,canvas-keyboard-response,204,459001,0.0-12.0-2.38,2d_cat_multi_stim_exp1,2022-4-25,10:37:21,25,75,3,9,10,40,30,120,899,20,"[""Asian""]",No,Female,4305094,3460,u,learn,,,learn_trial,25,75,in,1,1,,,,,,,,,,,,,,,,,,,,,
,,,,,canvas-keyboard-response,205,459510,0.0-12.0-3.38,2d_cat_multi_stim_exp1,2022-4-25,10:37:21,25,75,3,9,10,40,30,120,899,20,"[""Asian""]",No,Female,4305094,null,null,learn_feedback,,,learn_feedback,25,75,in,,,,,,,,,,,,,,,,,,,,,,,
,,,,,canvas-keyboard-response,206,459569,0.0-12.0-4.38,2d_cat_multi_stim_exp1,2022-4-25,10:37:21,25,75,3,9,10,40,30,120,899,20,"[""Asian""]",No,Female,4305094,null,null,,,,clear_screen,,,,,,,,,,,,,,,,,,,,,,,,,,
,,,,,canvas-keyboard-response,207,460077,0.0-12.0-0.39,2d_cat_multi_stim_exp1,2022-4-25,10:37:21,25,75,3,9,10,40,30,120,899,20,"[""Asian""]",No,Female,4305094,null,null,,,,fixation,,,,,,,,,,,,,,,,,,,,,,,,,,
,,,,,canvas-keyboard-response,208,460587,0.0-12.0-1.39,2d_cat_multi_stim_exp1,2022-4-25,10:37:21,25,75,3,9,10,40,30,120,899,20,"[""Asian""]",No,Female,4305094,null,null,,,,clear_screen,,,,,,,,,,,,,,,,,,,,,,,,,,
,,,,,canvas-keyboard-response,209,463409,0.0-12.0-2.39,2d_cat_multi_stim_exp1,2022-4-25,10:37:21,25,75,3,9,10,40,30,120,899,20,"[""Asian""]",No,Female,4305094,2813,i,learn,,,learn_trial,23.3333,90,out,0,1,,,,,,,,,,,,,,,,,,,,,
,,,,,canvas-keyboard-response,210,463919,0.0-12.0-3.39,2d_cat_multi_stim_exp1,2022-4-25,10:37:21,25,75,3,9,10,40,30,120,899,20,"[""Asian""]",No,Female,4305094,null,null,learn_feedback,,,learn_feedback,23.3333,90,out,,,,,,,,,,,,,,,,,,,,,,,
,,,,,canvas-keyboard-response,211,463978,0.0-12.0-4.39,2d_cat_multi_stim_exp1,2022-4-25,10:37:21,25,75,3,9,10,40,30,120,899,20,"[""Asian""]",No,Female,4305094,null,null,,,,clear_screen,,,,,,,,,,,,,,,,,,,,,,,,,,
,,,,,canvas-keyboard-response,212,464486,0.0-12.0-0.40,2d_cat_multi_stim_exp1,2022-4-25,10:37:21,25,75,3,9,10,40,30,120,899,20,"[""Asian""]",No,Female,4305094,null,null,,,,fixation,,,,,,,,,,,,,,,,,,,,,,,,,,
,,,,,canvas-keyboard-response,213,464994,0.0-12.0-1.40,2d_cat_multi_stim_exp1,2022-4-25,10:37:21,25,75,3,9,10,40,30,120,899,20,"[""Asian""]",No,Female,4305094,null,null,,,,clear_screen,,,,,,,,,,,,,,,,,,,,,,,,,,
,,,,,canvas-keyboard-response,214,465818,0.0-12.0-2.40,2d_cat_multi_stim_exp1,2022-4-25,10:37:21,25,75,3,9,10,40,30,120,899,20,"[""Asian""]",No,Female,4305094,814,i,learn,,,learn_trial,10,100,out,0,1,,,,,,,,,,,,,,,,,,,,,
,,,,,canvas-keyboard-response,215,466326,0.0-12.0-3.40,2d_cat_multi_stim_exp1,2022-4-25,10:37:21,25,75,3,9,10,40,30,120,899,20,"[""Asian""]",No,Female,4305094,null,null,learn_feedback,,,learn_feedback,10,100,out,,,,,,,,,,,,,,,,,,,,,,,
,,,,,canvas-keyboard-response,216,466385,0.0-12.0-4.40,2d_cat_multi_stim_exp1,2022-4-25,10:37:21,25,75,3,9,10,40,30,120,899,20,"[""Asian""]",No,Female,4305094,null,null,,,,clear_screen,,,,,,,,,,,,,,,,,,,,,,,,,,
,,,,,canvas-keyboard-response,217,466891,0.0-12.0-0.41,2d_cat_multi_stim_exp1,2022-4-25,10:37:21,25,75,3,9,10,40,30,120,899,20,"[""Asian""]",No,Female,4305094,null,null,,,,fixation,,,,,,,,,,,,,,,,,,,,,,,,,,
,,,,,canvas-keyboard-response,218,467400,0.0-12.0-1.41,2d_cat_multi_stim_exp1,2022-4-25,10:37:21,25,75,3,9,10,40,30,120,899,20,"[""Asian""]",No,Female,4305094,null,null,,,,clear_screen,,,,,,,,,,,,,,,,,,,,,,,,,,
,,,,,canvas-keyboard-response,219,468881,0.0-12.0-2.41,2d_cat_multi_stim_exp1,2022-4-25,10:37:21,25,75,3,9,10,40,30,120,899,20,"[""Asian""]",No,Female,4305094,1471,i,learn,,,learn_trial,23.3333,50,out,0,1,,,,,,,,,,,,,,,,,,,,,
,,,,,canvas-keyboard-response,220,469389,0.0-12.0-3.41,2d_cat_multi_stim_exp1,2022-4-25,10:37:21,25,75,3,9,10,40,30,120,899,20,"[""Asian""]",No,Female,4305094,null,null,learn_feedback,,,learn_feedback,23.3333,50,out,,,,,,,,,,,,,,,,,,,,,,,
,,,,,canvas-keyboard-response,221,469447,0.0-12.0-4.41,2d_cat_multi_stim_exp1,2022-4-25,10:37:21,25,75,3,9,10,40,30,120,899,20,"[""Asian""]",No,Female,4305094,null,null,,,,clear_screen,,,,,,,,,,,,,,,,,,,,,,,,,,
,,,,,canvas-keyboard-response,222,469956,0.0-12.0-0.42,2d_cat_multi_stim_exp1,2022-4-25,10:37:21,25,75,3,9,10,40,30,120,899,20,"[""Asian""]",No,Female,4305094,null,null,,,,fixation,,,,,,,,,,,,,,,,,,,,,,,,,,
,,,,,canvas-keyboard-response,223,470464,0.0-12.0-1.42,2d_cat_multi_stim_exp1,2022-4-25,10:37:21,25,75,3,9,10,40,30,120,899,20,"[""Asian""]",No,Female,4305094,null,null,,,,clear_screen,,,,,,,,,,,,,,,,,,,,,,,,,,
,,,,,canvas-keyboard-response,224,471776,0.0-12.0-2.42,2d_cat_multi_stim_exp1,2022-4-25,10:37:21,25,75,3,9,10,40,30,120,899,20,"[""Asian""]",No,Female,4305094,1304,i,learn,,,learn_trial,13.3333,50,out,0,1,,,,,,,,,,,,,,,,,,,,,
,,,,,canvas-keyboard-response,225,472285,0.0-12.0-3.42,2d_cat_multi_stim_exp1,2022-4-25,10:37:21,25,75,3,9,10,40,30,120,899,20,"[""Asian""]",No,Female,4305094,null,null,learn_feedback,,,learn_feedback,13.3333,50,out,,,,,,,,,,,,,,,,,,,,,,,
,,,,,canvas-keyboard-response,226,472344,0.0-12.0-4.42,2d_cat_multi_stim_exp1,2022-4-25,10:37:21,25,75,3,9,10,40,30,120,899,20,"[""Asian""]",No,Female,4305094,null,null,,,,clear_screen,,,,,,,,,,,,,,,,,,,,,,,,,,
,,,,,canvas-keyboard-response,227,472852,0.0-12.0-0.43,2d_cat_multi_stim_exp1,2022-4-25,10:37:21,25,75,3,9,10,40,30,120,899,20,"[""Asian""]",No,Female,4305094,null,null,,,,fixation,,,,,,,,,,,,,,,,,,,,,,,,,,
,,,,,canvas-keyboard-response,228,473361,0.0-12.0-1.43,2d_cat_multi_stim_exp1,2022-4-25,10:37:21,25,75,3,9,10,40,30,120,899,20,"[""Asian""]",No,Female,4305094,null,null,,,,clear_screen,,,,,,,,,,,,,,,,,,,,,,,,,,
,,,,,canvas-keyboard-response,229,474760,0.0-12.0-2.43,2d_cat_multi_stim_exp1,2022-4-25,10:37:21,25,75,3,9,10,40,30,120,899,20,"[""Asian""]",No,Female,4305094,1390,i,learn,,,learn_trial,36.6667,110,out,0,1,,,,,,,,,,,,,,,,,,,,,
,,,,,canvas-keyboard-response,230,475270,0.0-12.0-3.43,2d_cat_multi_stim_exp1,2022-4-25,10:37:21,25,75,3,9,10,40,30,120,899,20,"[""Asian""]",No,Female,4305094,null,null,learn_feedback,,,learn_feedback,36.6667,110,out,,,,,,,,,,,,,,,,,,,,,,,
,,,,,canvas-keyboard-response,231,475330,0.0-12.0-4.43,2d_cat_multi_stim_exp1,2022-4-25,10:37:21,25,75,3,9,10,40,30,120,899,20,"[""Asian""]",No,Female,4305094,null,null,,,,clear_screen,,,,,,,,,,,,,,,,,,,,,,,,,,
,,,,,canvas-keyboard-response,232,475837,0.0-12.0-0.44,2d_cat_multi_stim_exp1,2022-4-25,10:37:21,25,75,3,9,10,40,30,120,899,20,"[""Asian""]",No,Female,4305094,null,null,,,,fixation,,,,,,,,,,,,,,,,,,,,,,,,,,
,,,,,canvas-keyboard-response,233,476346,0.0-12.0-1.44,2d_cat_multi_stim_exp1,2022-4-25,10:37:21,25,75,3,9,10,40,30,120,899,20,"[""Asian""]",No,Female,4305094,null,null,,,,clear_screen,,,,,,,,,,,,,,,,,,,,,,,,,,
,,,,,canvas-keyboard-response,234,478146,0.0-12.0-2.44,2d_cat_multi_stim_exp1,2022-4-25,10:37:21,25,75,3,9,10,40,30,120,899,20,"[""Asian""]",No,Female,4305094,1791,i,learn,,,learn_trial,23.3473,82.5112,in,0,0,,,,,,,,,,,,,,,,,,,,,
,,,,,canvas-keyboard-response,235,479159,0.0-12.0-3.44,2d_cat_multi_stim_exp1,2022-4-25,10:37:21,25,75,3,9,10,40,30,120,899,20,"[""Asian""]",No,Female,4305094,null,null,learn_feedback,,,learn_feedback,23.3473,82.5112,in,,,,,,,,,,,,,,,,,,,,,,,
,,,,,canvas-keyboard-response,236,479219,0.0-12.0-4.44,2d_cat_multi_stim_exp1,2022-4-25,10:37:21,25,75,3,9,10,40,30,120,899,20,"[""Asian""]",No,Female,4305094,null,null,,,,clear_screen,,,,,,,,,,,,,,,,,,,,,,,,,,
,,,,,canvas-keyboard-response,237,479730,0.0-12.0-0.45,2d_cat_multi_stim_exp1,2022-4-25,10:37:21,25,75,3,9,10,40,30,120,899,20,"[""Asian""]",No,Female,4305094,null,null,,,,fixation,,,,,,,,,,,,,,,,,,,,,,,,,,
,,,,,canvas-keyboard-response,238,480240,0.0-12.0-1.45,2d_cat_multi_stim_exp1,2022-4-25,10:37:21,25,75,3,9,10,40,30,120,899,20,"[""Asian""]",No,Female,4305094,null,null,,,,clear_screen,,,,,,,,,,,,,,,,,,,,,,,,,,
,,,,,canvas-keyboard-response,239,482329,0.0-12.0-2.45,2d_cat_multi_stim_exp1,2022-4-25,10:37:21,25,75,3,9,10,40,30,120,899,20,"[""Asian""]",No,Female,4305094,2080,i,learn,,,learn_trial,10,60,out,0,1,,,,,,,,,,,,,,,,,,,,,
,,,,,canvas-keyboard-response,240,482838,0.0-12.0-3.45,2d_cat_multi_stim_exp1,2022-4-25,10:37:21,25,75,3,9,10,40,30,120,899,20,"[""Asian""]",No,Female,4305094,null,null,learn_feedback,,,learn_feedback,10,60,out,,,,,,,,,,,,,,,,,,,,,,,
,,,,,canvas-keyboard-response,241,482900,0.0-12.0-4.45,2d_cat_multi_stim_exp1,2022-4-25,10:37:21,25,75,3,9,10,40,30,120,899,20,"[""Asian""]",No,Female,4305094,null,null,,,,clear_screen,,,,,,,,,,,,,,,,,,,,,,,,,,
,,,,,canvas-keyboard-response,242,483410,0.0-12.0-0.46,2d_cat_multi_stim_exp1,2022-4-25,10:37:21,25,75,3,9,10,40,30,120,899,20,"[""Asian""]",No,Female,4305094,null,null,,,,fixation,,,,,,,,,,,,,,,,,,,,,,,,,,
,,,,,canvas-keyboard-response,243,483919,0.0-12.0-1.46,2d_cat_multi_stim_exp1,2022-4-25,10:37:21,25,75,3,9,10,40,30,120,899,20,"[""Asian""]",No,Female,4305094,null,null,,,,clear_screen,,,,,,,,,,,,,,,,,,,,,,,,,,
,,,,,canvas-keyboard-response,244,487993,0.0-12.0-2.46,2d_cat_multi_stim_exp1,2022-4-25,10:37:21,25,75,3,9,10,40,30,120,899,20,"[""Asian""]",No,Female,4305094,4064,i,learn,,,learn_trial,13.3333,70,out,0,1,,,,,,,,,,,,,,,,,,,,,
,,,,,canvas-keyboard-response,245,488503,0.0-12.0-3.46,2d_cat_multi_stim_exp1,2022-4-25,10:37:21,25,75,3,9,10,40,30,120,899,20,"[""Asian""]",No,Female,4305094,null,null,learn_feedback,,,learn_feedback,13.3333,70,out,,,,,,,,,,,,,,,,,,,,,,,
,,,,,canvas-keyboard-response,246,488561,0.0-12.0-4.46,2d_cat_multi_stim_exp1,2022-4-25,10:37:21,25,75,3,9,10,40,30,120,899,20,"[""Asian""]",No,Female,4305094,null,null,,,,clear_screen,,,,,,,,,,,,,,,,,,,,,,,,,,
,,,,,canvas-keyboard-response,247,489070,0.0-12.0-0.47,2d_cat_multi_stim_exp1,2022-4-25,10:37:21,25,75,3,9,10,40,30,120,899,20,"[""Asian""]",No,Female,4305094,null,null,,,,fixation,,,,,,,,,,,,,,,,,,,,,,,,,,
,,,,,canvas-keyboard-response,248,489579,0.0-12.0-1.47,2d_cat_multi_stim_exp1,2022-4-25,10:37:21,25,75,3,9,10,40,30,120,899,20,"[""Asian""]",No,Female,4305094,null,null,,,,clear_screen,,,,,,,,,,,,,,,,,,,,,,,,,,
,,,,,canvas-keyboard-response,249,490945,0.0-12.0-2.47,2d_cat_multi_stim_exp1,2022-4-25,10:37:21,25,75,3,9,10,40,30,120,899,20,"[""Asian""]",No,Female,4305094,1356,i,learn,,,learn_trial,40,50,out,0,1,,,,,,,,,,,,,,,,,,,,,
,,,,,canvas-keyboard-response,250,491454,0.0-12.0-3.47,2d_cat_multi_stim_exp1,2022-4-25,10:37:21,25,75,3,9,10,40,30,120,899,20,"[""Asian""]",No,Female,4305094,null,null,learn_feedback,,,learn_feedback,40,50,out,,,,,,,,,,,,,,,,,,,,,,,
,,,,,canvas-keyboard-response,251,491512,0.0-12.0-4.47,2d_cat_multi_stim_exp1,2022-4-25,10:37:21,25,75,3,9,10,40,30,120,899,20,"[""Asian""]",No,Female,4305094,null,null,,,,clear_screen,,,,,,,,,,,,,,,,,,,,,,,,,,
,,,,,canvas-keyboard-response,252,492020,0.0-12.0-0.48,2d_cat_multi_stim_exp1,2022-4-25,10:37:21,25,75,3,9,10,40,30,120,899,20,"[""Asian""]",No,Female,4305094,null,null,,,,fixation,,,,,,,,,,,,,,,,,,,,,,,,,,
,,,,,canvas-keyboard-response,253,492529,0.0-12.0-1.48,2d_cat_multi_stim_exp1,2022-4-25,10:37:21,25,75,3,9,10,40,30,120,899,20,"[""Asian""]",No,Female,4305094,null,null,,,,clear_screen,,,,,,,,,,,,,,,,,,,,,,,,,,
,,,,,canvas-keyboard-response,254,494864,0.0-12.0-2.48,2d_cat_multi_stim_exp1,2022-4-25,10:37:21,25,75,3,9,10,40,30,120,899,20,"[""Asian""]",No,Female,4305094,2327,i,learn,,,learn_trial,40,80,out,0,1,,,,,,,,,,,,,,,,,,,,,
,,,,,canvas-keyboard-response,255,495374,0.0-12.0-3.48,2d_cat_multi_stim_exp1,2022-4-25,10:37:21,25,75,3,9,10,40,30,120,899,20,"[""Asian""]",No,Female,4305094,null,null,learn_feedback,,,learn_feedback,40,80,out,,,,,,,,,,,,,,,,,,,,,,,
,,,,,canvas-keyboard-response,256,495432,0.0-12.0-4.48,2d_cat_multi_stim_exp1,2022-4-25,10:37:21,25,75,3,9,10,40,30,120,899,20,"[""Asian""]",No,Female,4305094,null,null,,,,clear_screen,,,,,,,,,,,,,,,,,,,,,,,,,,
,,,,,canvas-keyboard-response,257,495941,0.0-12.0-0.49,2d_cat_multi_stim_exp1,2022-4-25,10:37:21,25,75,3,9,10,40,30,120,899,20,"[""Asian""]",No,Female,4305094,null,null,,,,fixation,,,,,,,,,,,,,,,,,,,,,,,,,,
,,,,,canvas-keyboard-response,258,496449,0.0-12.0-1.49,2d_cat_multi_stim_exp1,2022-4-25,10:37:21,25,75,3,9,10,40,30,120,899,20,"[""Asian""]",No,Female,4305094,null,null,,,,clear_screen,,,,,,,,,,,,,,,,,,,,,,,,,,
,,,,,canvas-keyboard-response,259,497833,0.0-12.0-2.49,2d_cat_multi_stim_exp1,2022-4-25,10:37:21,25,75,3,9,10,40,30,120,899,20,"[""Asian""]",No,Female,4305094,1375,i,learn,,,learn_trial,30,50,out,0,1,,,,,,,,,,,,,,,,,,,,,
,,,,,canvas-keyboard-response,260,498342,0.0-12.0-3.49,2d_cat_multi_stim_exp1,2022-4-25,10:37:21,25,75,3,9,10,40,30,120,899,20,"[""Asian""]",No,Female,4305094,null,null,learn_feedback,,,learn_feedback,30,50,out,,,,,,,,,,,,,,,,,,,,,,,
,,,,,canvas-keyboard-response,261,498401,0.0-12.0-4.49,2d_cat_multi_stim_exp1,2022-4-25,10:37:21,25,75,3,9,10,40,30,120,899,20,"[""Asian""]",No,Female,4305094,null,null,,,,clear_screen,,,,,,,,,,,,,,,,,,,,,,,,,,
,,,,,canvas-keyboard-response,262,498908,0.0-12.0-0.50,2d_cat_multi_stim_exp1,2022-4-25,10:37:21,25,75,3,9,10,40,30,120,899,20,"[""Asian""]",No,Female,4305094,null,null,,,,fixation,,,,,,,,,,,,,,,,,,,,,,,,,,
,,,,,canvas-keyboard-response,263,499417,0.0-12.0-1.50,2d_cat_multi_stim_exp1,2022-4-25,10:37:21,25,75,3,9,10,40,30,120,899,20,"[""Asian""]",No,Female,4305094,null,null,,,,clear_screen,,,,,,,,,,,,,,,,,,,,,,,,,,
,,,,,canvas-keyboard-response,264,500856,0.0-12.0-2.50,2d_cat_multi_stim_exp1,2022-4-25,10:37:21,25,75,3,9,10,40,30,120,899,20,"[""Asian""]",No,Female,4305094,1429,i,learn,,,learn_trial,10,110,out,0,1,,,,,,,,,,,,,,,,,,,,,
,,,,,canvas-keyboard-response,265,501366,0.0-12.0-3.50,2d_cat_multi_stim_exp1,2022-4-25,10:37:21,25,75,3,9,10,40,30,120,899,20,"[""Asian""]",No,Female,4305094,null,null,learn_feedback,,,learn_feedback,10,110,out,,,,,,,,,,,,,,,,,,,,,,,
,,,,,canvas-keyboard-response,266,501424,0.0-12.0-4.50,2d_cat_multi_stim_exp1,2022-4-25,10:37:21,25,75,3,9,10,40,30,120,899,20,"[""Asian""]",No,Female,4305094,null,null,,,,clear_screen,,,,,,,,,,,,,,,,,,,,,,,,,,
,,,,,canvas-keyboard-response,267,501932,0.0-12.0-0.51,2d_cat_multi_stim_exp1,2022-4-25,10:37:21,25,75,3,9,10,40,30,120,899,20,"[""Asian""]",No,Female,4305094,null,null,,,,fixation,,,,,,,,,,,,,,,,,,,,,,,,,,
,,,,,canvas-keyboard-response,268,502441,0.0-12.0-1.51,2d_cat_multi_stim_exp1,2022-4-25,10:37:21,25,75,3,9,10,40,30,120,899,20,"[""Asian""]",No,Female,4305094,null,null,,,,clear_screen,,,,,,,,,,,,,,,,,,,,,,,,,,
,,,,,canvas-keyboard-response,269,524216,0.0-12.0-2.51,2d_cat_multi_stim_exp1,2022-4-25,10:37:21,25,75,3,9,10,40,30,120,899,20,"[""Asian""]",No,Female,4305094,21766,u,learn,,,learn_trial,29.2426,87.7279,in,1,1,,,,,,,,,,,,,,,,,,,,,
,,,,,canvas-keyboard-response,270,524725,0.0-12.0-3.51,2d_cat_multi_stim_exp1,2022-4-25,10:37:21,25,75,3,9,10,40,30,120,899,20,"[""Asian""]",No,Female,4305094,null,null,learn_feedback,,,learn_feedback,29.2426,87.7279,in,,,,,,,,,,,,,,,,,,,,,,,
,,,,,canvas-keyboard-response,271,524783,0.0-12.0-4.51,2d_cat_multi_stim_exp1,2022-4-25,10:37:21,25,75,3,9,10,40,30,120,899,20,"[""Asian""]",No,Female,4305094,null,null,,,,clear_screen,,,,,,,,,,,,,,,,,,,,,,,,,,
,,,,,canvas-keyboard-response,272,525293,0.0-12.0-0.52,2d_cat_multi_stim_exp1,2022-4-25,10:37:21,25,75,3,9,10,40,30,120,899,20,"[""Asian""]",No,Female,4305094,null,null,,,,fixation,,,,,,,,,,,,,,,,,,,,,,,,,,
,,,,,canvas-keyboard-response,273,525805,0.0-12.0-1.52,2d_cat_multi_stim_exp1,2022-4-25,10:37:21,25,75,3,9,10,40,30,120,899,20,"[""Asian""]",No,Female,4305094,null,null,,,,clear_screen,,,,,,,,,,,,,,,,,,,,,,,,,,
,,,,,canvas-keyboard-response,274,527792,0.0-12.0-2.52,2d_cat_multi_stim_exp1,2022-4-25,10:37:21,25,75,3,9,10,40,30,120,899,20,"[""Asian""]",No,Female,4305094,1974,i,learn,,,learn_trial,25.9271,66.4405,in,0,0,,,,,,,,,,,,,,,,,,,,,
,,,,,canvas-keyboard-response,275,528803,0.0-12.0-3.52,2d_cat_multi_stim_exp1,2022-4-25,10:37:21,25,75,3,9,10,40,30,120,899,20,"[""Asian""]",No,Female,4305094,null,null,learn_feedback,,,learn_feedback,25.9271,66.4405,in,,,,,,,,,,,,,,,,,,,,,,,
,,,,,canvas-keyboard-response,276,528862,0.0-12.0-4.52,2d_cat_multi_stim_exp1,2022-4-25,10:37:21,25,75,3,9,10,40,30,120,899,20,"[""Asian""]",No,Female,4305094,null,null,,,,clear_screen,,,,,,,,,,,,,,,,,,,,,,,,,,
,,,,,canvas-keyboard-response,277,529371,0.0-12.0-0.53,2d_cat_multi_stim_exp1,2022-4-25,10:37:21,25,75,3,9,10,40,30,120,899,20,"[""Asian""]",No,Female,4305094,null,null,,,,fixation,,,,,,,,,,,,,,,,,,,,,,,,,,
,,,,,canvas-keyboard-response,278,529881,0.0-12.0-1.53,2d_cat_multi_stim_exp1,2022-4-25,10:37:21,25,75,3,9,10,40,30,120,899,20,"[""Asian""]",No,Female,4305094,null,null,,,,clear_screen,,,,,,,,,,,,,,,,,,,,,,,,,,
,,,,,canvas-keyboard-response,279,530831,0.0-12.0-2.53,2d_cat_multi_stim_exp1,2022-4-25,10:37:21,25,75,3,9,10,40,30,120,899,20,"[""Asian""]",No,Female,4305094,943,u,learn,,,learn_trial,36.6667,90,out,1,0,,,,,,,,,,,,,,,,,,,,,
,,,,,canvas-keyboard-response,280,531841,0.0-12.0-3.53,2d_cat_multi_stim_exp1,2022-4-25,10:37:21,25,75,3,9,10,40,30,120,899,20,"[""Asian""]",No,Female,4305094,null,null,learn_feedback,,,learn_feedback,36.6667,90,out,,,,,,,,,,,,,,,,,,,,,,,
,,,,,canvas-keyboard-response,281,531899,0.0-12.0-4.53,2d_cat_multi_stim_exp1,2022-4-25,10:37:21,25,75,3,9,10,40,30,120,899,20,"[""Asian""]",No,Female,4305094,null,null,,,,clear_screen,,,,,,,,,,,,,,,,,,,,,,,,,,
,,,,,canvas-keyboard-response,282,532408,0.0-12.0-0.54,2d_cat_multi_stim_exp1,2022-4-25,10:37:21,25,75,3,9,10,40,30,120,899,20,"[""Asian""]",No,Female,4305094,null,null,,,,fixation,,,,,,,,,,,,,,,,,,,,,,,,,,
,,,,,canvas-keyboard-response,283,532918,0.0-12.0-1.54,2d_cat_multi_stim_exp1,2022-4-25,10:37:21,25,75,3,9,10,40,30,120,899,20,"[""Asian""]",No,Female,4305094,null,null,,,,clear_screen,,,,,,,,,,,,,,,,,,,,,,,,,,
,,,,,canvas-keyboard-response,284,533929,0.0-12.0-2.54,2d_cat_multi_stim_exp1,2022-4-25,10:37:21,25,75,3,9,10,40,30,120,899,20,"[""Asian""]",No,Female,4305094,1002,u,learn,,,learn_trial,26.8705,82.0365,in,1,1,,,,,,,,,,,,,,,,,,,,,
,,,,,canvas-keyboard-response,285,534439,0.0-12.0-3.54,2d_cat_multi_stim_exp1,2022-4-25,10:37:21,25,75,3,9,10,40,30,120,899,20,"[""Asian""]",No,Female,4305094,null,null,learn_feedback,,,learn_feedback,26.8705,82.0365,in,,,,,,,,,,,,,,,,,,,,,,,
,,,,,canvas-keyboard-response,286,534496,0.0-12.0-4.54,2d_cat_multi_stim_exp1,2022-4-25,10:37:21,25,75,3,9,10,40,30,120,899,20,"[""Asian""]",No,Female,4305094,null,null,,,,clear_screen,,,,,,,,,,,,,,,,,,,,,,,,,,
,,,,,canvas-keyboard-response,287,535005,0.0-12.0-0.55,2d_cat_multi_stim_exp1,2022-4-25,10:37:21,25,75,3,9,10,40,30,120,899,20,"[""Asian""]",No,Female,4305094,null,null,,,,fixation,,,,,,,,,,,,,,,,,,,,,,,,,,
,,,,,canvas-keyboard-response,288,535517,0.0-12.0-1.55,2d_cat_multi_stim_exp1,2022-4-25,10:37:21,25,75,3,9,10,40,30,120,899,20,"[""Asian""]",No,Female,4305094,null,null,,,,clear_screen,,,,,,,,,,,,,,,,,,,,,,,,,,
,,,,,canvas-keyboard-response,289,537688,0.0-12.0-2.55,2d_cat_multi_stim_exp1,2022-4-25,10:37:21,25,75,3,9,10,40,30,120,899,20,"[""Asian""]",No,Female,4305094,2163,u,learn,,,learn_trial,25,75,in,1,1,,,,,,,,,,,,,,,,,,,,,
,,,,,canvas-keyboard-response,290,538197,0.0-12.0-3.55,2d_cat_multi_stim_exp1,2022-4-25,10:37:21,25,75,3,9,10,40,30,120,899,20,"[""Asian""]",No,Female,4305094,null,null,learn_feedback,,,learn_feedback,25,75,in,,,,,,,,,,,,,,,,,,,,,,,
,,,,,canvas-keyboard-response,291,538255,0.0-12.0-4.55,2d_cat_multi_stim_exp1,2022-4-25,10:37:21,25,75,3,9,10,40,30,120,899,20,"[""Asian""]",No,Female,4305094,null,null,,,,clear_screen,,,,,,,,,,,,,,,,,,,,,,,,,,
,,,,,canvas-keyboard-response,292,538764,0.0-12.0-0.56,2d_cat_multi_stim_exp1,2022-4-25,10:37:21,25,75,3,9,10,40,30,120,899,20,"[""Asian""]",No,Female,4305094,null,null,,,,fixation,,,,,,,,,,,,,,,,,,,,,,,,,,
,,,,,canvas-keyboard-response,293,539273,0.0-12.0-1.56,2d_cat_multi_stim_exp1,2022-4-25,10:37:21,25,75,3,9,10,40,30,120,899,20,"[""Asian""]",No,Female,4305094,null,null,,,,clear_screen,,,,,,,,,,,,,,,,,,,,,,,,,,
,,,,,canvas-keyboard-response,294,540288,0.0-12.0-2.56,2d_cat_multi_stim_exp1,2022-4-25,10:37:21,25,75,3,9,10,40,30,120,899,20,"[""Asian""]",No,Female,4305094,1006,u,learn,,,learn_trial,25,75,in,1,1,,,,,,,,,,,,,,,,,,,,,
,,,,,canvas-keyboard-response,295,540797,0.0-12.0-3.56,2d_cat_multi_stim_exp1,2022-4-25,10:37:21,25,75,3,9,10,40,30,120,899,20,"[""Asian""]",No,Female,4305094,null,null,learn_feedback,,,learn_feedback,25,75,in,,,,,,,,,,,,,,,,,,,,,,,
,,,,,canvas-keyboard-response,296,540855,0.0-12.0-4.56,2d_cat_multi_stim_exp1,2022-4-25,10:37:21,25,75,3,9,10,40,30,120,899,20,"[""Asian""]",No,Female,4305094,null,null,,,,clear_screen,,,,,,,,,,,,,,,,,,,,,,,,,,
,,,,,canvas-keyboard-response,297,541363,0.0-12.0-0.57,2d_cat_multi_stim_exp1,2022-4-25,10:37:21,25,75,3,9,10,40,30,120,899,20,"[""Asian""]",No,Female,4305094,null,null,,,,fixation,,,,,,,,,,,,,,,,,,,,,,,,,,
,,,,,canvas-keyboard-response,298,541872,0.0-12.0-1.57,2d_cat_multi_stim_exp1,2022-4-25,10:37:21,25,75,3,9,10,40,30,120,899,20,"[""Asian""]",No,Female,4305094,null,null,,,,clear_screen,,,,,,,,,,,,,,,,,,,,,,,,,,
,,,,,canvas-keyboard-response,299,544457,0.0-12.0-2.57,2d_cat_multi_stim_exp1,2022-4-25,10:37:21,25,75,3,9,10,40,30,120,899,20,"[""Asian""]",No,Female,4305094,2575,u,learn,,,learn_trial,27.9518,76.607,in,1,1,,,,,,,,,,,,,,,,,,,,,
,,,,,canvas-keyboard-response,300,544970,0.0-12.0-3.57,2d_cat_multi_stim_exp1,2022-4-25,10:37:21,25,75,3,9,10,40,30,120,899,20,"[""Asian""]",No,Female,4305094,null,null,learn_feedback,,,learn_feedback,27.9518,76.607,in,,,,,,,,,,,,,,,,,,,,,,,
,,,,,canvas-keyboard-response,301,545032,0.0-12.0-4.57,2d_cat_multi_stim_exp1,2022-4-25,10:37:21,25,75,3,9,10,40,30,120,899,20,"[""Asian""]",No,Female,4305094,null,null,,,,clear_screen,,,,,,,,,,,,,,,,,,,,,,,,,,
,,,,,canvas-keyboard-response,302,545542,0.0-12.0-0.58,2d_cat_multi_stim_exp1,2022-4-25,10:37:21,25,75,3,9,10,40,30,120,899,20,"[""Asian""]",No,Female,4305094,null,null,,,,fixation,,,,,,,,,,,,,,,,,,,,,,,,,,
,,,,,canvas-keyboard-response,303,546053,0.0-12.0-1.58,2d_cat_multi_stim_exp1,2022-4-25,10:37:21,25,75,3,9,10,40,30,120,899,20,"[""Asian""]",No,Female,4305094,null,null,,,,clear_screen,,,,,,,,,,,,,,,,,,,,,,,,,,
,,,,,canvas-keyboard-response,304,547449,0.0-12.0-2.58,2d_cat_multi_stim_exp1,2022-4-25,10:37:21,25,75,3,9,10,40,30,120,899,20,"[""Asian""]",No,Female,4305094,1385,u,learn,,,learn_trial,31,75,in,1,1,,,,,,,,,,,,,,,,,,,,,
,,,,,canvas-keyboard-response,305,547958,0.0-12.0-3.58,2d_cat_multi_stim_exp1,2022-4-25,10:37:21,25,75,3,9,10,40,30,120,899,20,"[""Asian""]",No,Female,4305094,null,null,learn_feedback,,,learn_feedback,31,75,in,,,,,,,,,,,,,,,,,,,,,,,
,,,,,canvas-keyboard-response,306,548018,0.0-12.0-4.58,2d_cat_multi_stim_exp1,2022-4-25,10:37:21,25,75,3,9,10,40,30,120,899,20,"[""Asian""]",No,Female,4305094,null,null,,,,clear_screen,,,,,,,,,,,,,,,,,,,,,,,,,,
,,,,,canvas-keyboard-response,307,548528,0.0-12.0-0.59,2d_cat_multi_stim_exp1,2022-4-25,10:37:21,25,75,3,9,10,40,30,120,899,20,"[""Asian""]",No,Female,4305094,null,null,,,,fixation,,,,,,,,,,,,,,,,,,,,,,,,,,
,,,,,canvas-keyboard-response,308,549037,0.0-12.0-1.59,2d_cat_multi_stim_exp1,2022-4-25,10:37:21,25,75,3,9,10,40,30,120,899,20,"[""Asian""]",No,Female,4305094,null,null,,,,clear_screen,,,,,,,,,,,,,,,,,,,,,,,,,,
,,,,,canvas-keyboard-response,309,553696,0.0-12.0-2.59,2d_cat_multi_stim_exp1,2022-4-25,10:37:21,25,75,3,9,10,40,30,120,899,20,"[""Asian""]",No,Female,4305094,4650,i,learn,,,learn_trial,33.3333,70,out,0,1,,,,,,,,,,,,,,,,,,,,,
,,,,,canvas-keyboard-response,310,554206,0.0-12.0-3.59,2d_cat_multi_stim_exp1,2022-4-25,10:37:21,25,75,3,9,10,40,30,120,899,20,"[""Asian""]",No,Female,4305094,null,null,learn_feedback,,,learn_feedback,33.3333,70,out,,,,,,,,,,,,,,,,,,,,,,,
,,,,,canvas-keyboard-response,311,554265,0.0-12.0-4.59,2d_cat_multi_stim_exp1,2022-4-25,10:37:21,25,75,3,9,10,40,30,120,899,20,"[""Asian""]",No,Female,4305094,null,null,,,,clear_screen,,,,,,,,,,,,,,,,,,,,,,,,,,
,,,,,canvas-keyboard-response,312,554775,0.0-12.0-0.60,2d_cat_multi_stim_exp1,2022-4-25,10:37:21,25,75,3,9,10,40,30,120,899,20,"[""Asian""]",No,Female,4305094,null,null,,,,fixation,,,,,,,,,,,,,,,,,,,,,,,,,,
,,,,,canvas-keyboard-response,313,555283,0.0-12.0-1.60,2d_cat_multi_stim_exp1,2022-4-25,10:37:21,25,75,3,9,10,40,30,120,899,20,"[""Asian""]",No,Female,4305094,null,null,,,,clear_screen,,,,,,,,,,,,,,,,,,,,,,,,,,
,,,,,canvas-keyboard-response,314,558040,0.0-12.0-2.60,2d_cat_multi_stim_exp1,2022-4-25,10:37:21,25,75,3,9,10,40,30,120,899,20,"[""Asian""]",No,Female,4305094,2748,u,learn,,,learn_trial,25,75,in,1,1,,,,,,,,,,,,,,,,,,,,,
,,,,,canvas-keyboard-response,315,558549,0.0-12.0-3.60,2d_cat_multi_stim_exp1,2022-4-25,10:37:21,25,75,3,9,10,40,30,120,899,20,"[""Asian""]",No,Female,4305094,null,null,learn_feedback,,,learn_feedback,25,75,in,,,,,,,,,,,,,,,,,,,,,,,
,,,,,canvas-keyboard-response,316,558608,0.0-12.0-4.60,2d_cat_multi_stim_exp1,2022-4-25,10:37:21,25,75,3,9,10,40,30,120,899,20,"[""Asian""]",No,Female,4305094,null,null,,,,clear_screen,,,,,,,,,,,,,,,,,,,,,,,,,,
,,,,,canvas-keyboard-response,317,559115,0.0-12.0-0.61,2d_cat_multi_stim_exp1,2022-4-25,10:37:21,25,75,3,9,10,40,30,120,899,20,"[""Asian""]",No,Female,4305094,null,null,,,,fixation,,,,,,,,,,,,,,,,,,,,,,,,,,
,,,,,canvas-keyboard-response,318,559624,0.0-12.0-1.61,2d_cat_multi_stim_exp1,2022-4-25,10:37:21,25,75,3,9,10,40,30,120,899,20,"[""Asian""]",No,Female,4305094,null,null,,,,clear_screen,,,,,,,,,,,,,,,,,,,,,,,,,,
,,,,,canvas-keyboard-response,319,561184,0.0-12.0-2.61,2d_cat_multi_stim_exp1,2022-4-25,10:37:21,25,75,3,9,10,40,30,120,899,20,"[""Asian""]",No,Female,4305094,1552,i,learn,,,learn_trial,16.6667,70,out,0,1,,,,,,,,,,,,,,,,,,,,,
,,,,,canvas-keyboard-response,320,561693,0.0-12.0-3.61,2d_cat_multi_stim_exp1,2022-4-25,10:37:21,25,75,3,9,10,40,30,120,899,20,"[""Asian""]",No,Female,4305094,null,null,learn_feedback,,,learn_feedback,16.6667,70,out,,,,,,,,,,,,,,,,,,,,,,,
,,,,,canvas-keyboard-response,321,561751,0.0-12.0-4.61,2d_cat_multi_stim_exp1,2022-4-25,10:37:21,25,75,3,9,10,40,30,120,899,20,"[""Asian""]",No,Female,4305094,null,null,,,,clear_screen,,,,,,,,,,,,,,,,,,,,,,,,,,
,,,,,canvas-keyboard-response,322,562260,0.0-12.0-0.62,2d_cat_multi_stim_exp1,2022-4-25,10:37:21,25,75,3,9,10,40,30,120,899,20,"[""Asian""]",No,Female,4305094,null,null,,,,fixation,,,,,,,,,,,,,,,,,,,,,,,,,,
,,,,,canvas-keyboard-response,323,562769,0.0-12.0-1.62,2d_cat_multi_stim_exp1,2022-4-25,10:37:21,25,75,3,9,10,40,30,120,899,20,"[""Asian""]",No,Female,4305094,null,null,,,,clear_screen,,,,,,,,,,,,,,,,,,,,,,,,,,
,,,,,canvas-keyboard-response,324,567040,0.0-12.0-2.62,2d_cat_multi_stim_exp1,2022-4-25,10:37:21,25,75,3,9,10,40,30,120,899,20,"[""Asian""]",No,Female,4305094,4263,i,learn,,,learn_trial,25,57,in,0,0,,,,,,,,,,,,,,,,,,,,,
,,,,,canvas-keyboard-response,325,568050,0.0-12.0-3.62,2d_cat_multi_stim_exp1,2022-4-25,10:37:21,25,75,3,9,10,40,30,120,899,20,"[""Asian""]",No,Female,4305094,null,null,learn_feedback,,,learn_feedback,25,57,in,,,,,,,,,,,,,,,,,,,,,,,
,,,,,canvas-keyboard-response,326,568108,0.0-12.0-4.62,2d_cat_multi_stim_exp1,2022-4-25,10:37:21,25,75,3,9,10,40,30,120,899,20,"[""Asian""]",No,Female,4305094,null,null,,,,clear_screen,,,,,,,,,,,,,,,,,,,,,,,,,,
,,,,,canvas-keyboard-response,327,568616,0.0-12.0-0.63,2d_cat_multi_stim_exp1,2022-4-25,10:37:21,25,75,3,9,10,40,30,120,899,20,"[""Asian""]",No,Female,4305094,null,null,,,,fixation,,,,,,,,,,,,,,,,,,,,,,,,,,
,,,,,canvas-keyboard-response,328,569126,0.0-12.0-1.63,2d_cat_multi_stim_exp1,2022-4-25,10:37:21,25,75,3,9,10,40,30,120,899,20,"[""Asian""]",No,Female,4305094,null,null,,,,clear_screen,,,,,,,,,,,,,,,,,,,,,,,,,,
,,,,,canvas-keyboard-response,329,570592,0.0-12.0-2.63,2d_cat_multi_stim_exp1,2022-4-25,10:37:21,25,75,3,9,10,40,30,120,899,20,"[""Asian""]",No,Female,4305094,1457,u,learn,,,learn_trial,25,75,in,1,1,,,,,,,,,,,,,,,,,,,,,
,,,,,canvas-keyboard-response,330,571100,0.0-12.0-3.63,2d_cat_multi_stim_exp1,2022-4-25,10:37:21,25,75,3,9,10,40,30,120,899,20,"[""Asian""]",No,Female,4305094,null,null,learn_feedback,,,learn_feedback,25,75,in,,,,,,,,,,,,,,,,,,,,,,,
,,,,,canvas-keyboard-response,331,571159,0.0-12.0-4.63,2d_cat_multi_stim_exp1,2022-4-25,10:37:21,25,75,3,9,10,40,30,120,899,20,"[""Asian""]",No,Female,4305094,null,null,,,,clear_screen,,,,,,,,,,,,,,,,,,,,,,,,,,
,,,,,canvas-keyboard-response,332,571668,0.0-12.0-0.64,2d_cat_multi_stim_exp1,2022-4-25,10:37:21,25,75,3,9,10,40,30,120,899,20,"[""Asian""]",No,Female,4305094,null,null,,,,fixation,,,,,,,,,,,,,,,,,,,,,,,,,,
,,,,,canvas-keyboard-response,333,572176,0.0-12.0-1.64,2d_cat_multi_stim_exp1,2022-4-25,10:37:21,25,75,3,9,10,40,30,120,899,20,"[""Asian""]",No,Female,4305094,null,null,,,,clear_screen,,,,,,,,,,,,,,,,,,,,,,,,,,
,,,,,canvas-keyboard-response,334,577104,0.0-12.0-2.64,2d_cat_multi_stim_exp1,2022-4-25,10:37:21,25,75,3,9,10,40,30,120,899,20,"[""Asian""]",No,Female,4305094,4920,u,learn,,,learn_trial,25,75,in,1,1,,,,,,,,,,,,,,,,,,,,,
,,,,,canvas-keyboard-response,335,577613,0.0-12.0-3.64,2d_cat_multi_stim_exp1,2022-4-25,10:37:21,25,75,3,9,10,40,30,120,899,20,"[""Asian""]",No,Female,4305094,null,null,learn_feedback,,,learn_feedback,25,75,in,,,,,,,,,,,,,,,,,,,,,,,
,,,,,canvas-keyboard-response,336,577671,0.0-12.0-4.64,2d_cat_multi_stim_exp1,2022-4-25,10:37:21,25,75,3,9,10,40,30,120,899,20,"[""Asian""]",No,Female,4305094,null,null,,,,clear_screen,,,,,,,,,,,,,,,,,,,,,,,,,,
,,,,,canvas-keyboard-response,337,578179,0.0-12.0-0.65,2d_cat_multi_stim_exp1,2022-4-25,10:37:21,25,75,3,9,10,40,30,120,899,20,"[""Asian""]",No,Female,4305094,null,null,,,,fixation,,,,,,,,,,,,,,,,,,,,,,,,,,
,,,,,canvas-keyboard-response,338,578688,0.0-12.0-1.65,2d_cat_multi_stim_exp1,2022-4-25,10:37:21,25,75,3,9,10,40,30,120,899,20,"[""Asian""]",No,Female,4305094,null,null,,,,clear_screen,,,,,,,,,,,,,,,,,,,,,,,,,,
,,,,,canvas-keyboard-response,339,580832,0.0-12.0-2.65,2d_cat_multi_stim_exp1,2022-4-25,10:37:21,25,75,3,9,10,40,30,120,899,20,"[""Asian""]",No,Female,4305094,2134,i,learn,,,learn_trial,19,75,in,0,0,,,,,,,,,,,,,,,,,,,,,
,,,,,canvas-keyboard-response,340,581840,0.0-12.0-3.65,2d_cat_multi_stim_exp1,2022-4-25,10:37:21,25,75,3,9,10,40,30,120,899,20,"[""Asian""]",No,Female,4305094,null,null,learn_feedback,,,learn_feedback,19,75,in,,,,,,,,,,,,,,,,,,,,,,,
,,,,,canvas-keyboard-response,341,581899,0.0-12.0-4.65,2d_cat_multi_stim_exp1,2022-4-25,10:37:21,25,75,3,9,10,40,30,120,899,20,"[""Asian""]",No,Female,4305094,null,null,,,,clear_screen,,,,,,,,,,,,,,,,,,,,,,,,,,
,,,,,canvas-keyboard-response,342,582407,0.0-12.0-0.66,2d_cat_multi_stim_exp1,2022-4-25,10:37:21,25,75,3,9,10,40,30,120,899,20,"[""Asian""]",No,Female,4305094,null,null,,,,fixation,,,,,,,,,,,,,,,,,,,,,,,,,,
,,,,,canvas-keyboard-response,343,582916,0.0-12.0-1.66,2d_cat_multi_stim_exp1,2022-4-25,10:37:21,25,75,3,9,10,40,30,120,899,20,"[""Asian""]",No,Female,4305094,null,null,,,,clear_screen,,,,,,,,,,,,,,,,,,,,,,,,,,
,,,,,canvas-keyboard-response,344,584472,0.0-12.0-2.66,2d_cat_multi_stim_exp1,2022-4-25,10:37:21,25,75,3,9,10,40,30,120,899,20,"[""Asian""]",No,Female,4305094,1542,u,learn,,,learn_trial,25,75,in,1,1,,,,,,,,,,,,,,,,,,,,,
,,,,,canvas-keyboard-response,345,584984,0.0-12.0-3.66,2d_cat_multi_stim_exp1,2022-4-25,10:37:21,25,75,3,9,10,40,30,120,899,20,"[""Asian""]",No,Female,4305094,null,null,learn_feedback,,,learn_feedback,25,75,in,,,,,,,,,,,,,,,,,,,,,,,
,,,,,canvas-keyboard-response,346,585044,0.0-12.0-4.66,2d_cat_multi_stim_exp1,2022-4-25,10:37:21,25,75,3,9,10,40,30,120,899,20,"[""Asian""]",No,Female,4305094,null,null,,,,clear_screen,,,,,,,,,,,,,,,,,,,,,,,,,,
,,,,,canvas-keyboard-response,347,585553,0.0-12.0-0.67,2d_cat_multi_stim_exp1,2022-4-25,10:37:21,25,75,3,9,10,40,30,120,899,20,"[""Asian""]",No,Female,4305094,null,null,,,,fixation,,,,,,,,,,,,,,,,,,,,,,,,,,
,,,,,canvas-keyboard-response,348,586063,0.0-12.0-1.67,2d_cat_multi_stim_exp1,2022-4-25,10:37:21,25,75,3,9,10,40,30,120,899,20,"[""Asian""]",No,Female,4305094,null,null,,,,clear_screen,,,,,,,,,,,,,,,,,,,,,,,,,,
,,,,,canvas-keyboard-response,349,587232,0.0-12.0-2.67,2d_cat_multi_stim_exp1,2022-4-25,10:37:21,25,75,3,9,10,40,30,120,899,20,"[""Asian""]",No,Female,4305094,1161,u,learn,,,learn_trial,25,75,in,1,1,,,,,,,,,,,,,,,,,,,,,
,,,,,canvas-keyboard-response,350,587743,0.0-12.0-3.67,2d_cat_multi_stim_exp1,2022-4-25,10:37:21,25,75,3,9,10,40,30,120,899,20,"[""Asian""]",No,Female,4305094,null,null,learn_feedback,,,learn_feedback,25,75,in,,,,,,,,,,,,,,,,,,,,,,,
,,,,,canvas-keyboard-response,351,587801,0.0-12.0-4.67,2d_cat_multi_stim_exp1,2022-4-25,10:37:21,25,75,3,9,10,40,30,120,899,20,"[""Asian""]",No,Female,4305094,null,null,,,,clear_screen,,,,,,,,,,,,,,,,,,,,,,,,,,
,,,,,canvas-keyboard-response,352,588310,0.0-12.0-0.68,2d_cat_multi_stim_exp1,2022-4-25,10:37:21,25,75,3,9,10,40,30,120,899,20,"[""Asian""]",No,Female,4305094,null,null,,,,fixation,,,,,,,,,,,,,,,,,,,,,,,,,,
,,,,,canvas-keyboard-response,353,588819,0.0-12.0-1.68,2d_cat_multi_stim_exp1,2022-4-25,10:37:21,25,75,3,9,10,40,30,120,899,20,"[""Asian""]",No,Female,4305094,null,null,,,,clear_screen,,,,,,,,,,,,,,,,,,,,,,,,,,
,,,,,canvas-keyboard-response,354,589584,0.0-12.0-2.68,2d_cat_multi_stim_exp1,2022-4-25,10:37:21,25,75,3,9,10,40,30,120,899,20,"[""Asian""]",No,Female,4305094,756,u,learn,,,learn_trial,22.9268,81.5052,in,1,1,,,,,,,,,,,,,,,,,,,,,
,,,,,canvas-keyboard-response,355,590093,0.0-12.0-3.68,2d_cat_multi_stim_exp1,2022-4-25,10:37:21,25,75,3,9,10,40,30,120,899,20,"[""Asian""]",No,Female,4305094,null,null,learn_feedback,,,learn_feedback,22.9268,81.5052,in,,,,,,,,,,,,,,,,,,,,,,,
,,,,,canvas-keyboard-response,356,590157,0.0-12.0-4.68,2d_cat_multi_stim_exp1,2022-4-25,10:37:21,25,75,3,9,10,40,30,120,899,20,"[""Asian""]",No,Female,4305094,null,null,,,,clear_screen,,,,,,,,,,,,,,,,,,,,,,,,,,
,,,,,canvas-keyboard-response,357,590665,0.0-12.0-0.69,2d_cat_multi_stim_exp1,2022-4-25,10:37:21,25,75,3,9,10,40,30,120,899,20,"[""Asian""]",No,Female,4305094,null,null,,,,fixation,,,,,,,,,,,,,,,,,,,,,,,,,,
,,,,,canvas-keyboard-response,358,591174,0.0-12.0-1.69,2d_cat_multi_stim_exp1,2022-4-25,10:37:21,25,75,3,9,10,40,30,120,899,20,"[""Asian""]",No,Female,4305094,null,null,,,,clear_screen,,,,,,,,,,,,,,,,,,,,,,,,,,
,,,,,canvas-keyboard-response,359,592712,0.0-12.0-2.69,2d_cat_multi_stim_exp1,2022-4-25,10:37:21,25,75,3,9,10,40,30,120,899,20,"[""Asian""]",No,Female,4305094,1527,u,learn,,,learn_trial,25,75,in,1,1,,,,,,,,,,,,,,,,,,,,,
,,,,,canvas-keyboard-response,360,593221,0.0-12.0-3.69,2d_cat_multi_stim_exp1,2022-4-25,10:37:21,25,75,3,9,10,40,30,120,899,20,"[""Asian""]",No,Female,4305094,null,null,learn_feedback,,,learn_feedback,25,75,in,,,,,,,,,,,,,,,,,,,,,,,
,,,,,canvas-keyboard-response,361,593280,0.0-12.0-4.69,2d_cat_multi_stim_exp1,2022-4-25,10:37:21,25,75,3,9,10,40,30,120,899,20,"[""Asian""]",No,Female,4305094,null,null,,,,clear_screen,,,,,,,,,,,,,,,,,,,,,,,,,,
,,,,,canvas-keyboard-response,362,593787,0.0-12.0-0.70,2d_cat_multi_stim_exp1,2022-4-25,10:37:21,25,75,3,9,10,40,30,120,899,20,"[""Asian""]",No,Female,4305094,null,null,,,,fixation,,,,,,,,,,,,,,,,,,,,,,,,,,
,,,,,canvas-keyboard-response,363,594296,0.0-12.0-1.70,2d_cat_multi_stim_exp1,2022-4-25,10:37:21,25,75,3,9,10,40,30,120,899,20,"[""Asian""]",No,Female,4305094,null,null,,,,clear_screen,,,,,,,,,,,,,,,,,,,,,,,,,,
,,,,,canvas-keyboard-response,364,595200,0.0-12.0-2.70,2d_cat_multi_stim_exp1,2022-4-25,10:37:21,25,75,3,9,10,40,30,120,899,20,"[""Asian""]",No,Female,4305094,895,i,learn,,,learn_trial,13.3333,80,out,0,1,,,,,,,,,,,,,,,,,,,,,
,,,,,canvas-keyboard-response,365,595709,0.0-12.0-3.70,2d_cat_multi_stim_exp1,2022-4-25,10:37:21,25,75,3,9,10,40,30,120,899,20,"[""Asian""]",No,Female,4305094,null,null,learn_feedback,,,learn_feedback,13.3333,80,out,,,,,,,,,,,,,,,,,,,,,,,
,,,,,canvas-keyboard-response,366,595767,0.0-12.0-4.70,2d_cat_multi_stim_exp1,2022-4-25,10:37:21,25,75,3,9,10,40,30,120,899,20,"[""Asian""]",No,Female,4305094,null,null,,,,clear_screen,,,,,,,,,,,,,,,,,,,,,,,,,,
,,,,,canvas-keyboard-response,367,596275,0.0-12.0-0.71,2d_cat_multi_stim_exp1,2022-4-25,10:37:21,25,75,3,9,10,40,30,120,899,20,"[""Asian""]",No,Female,4305094,null,null,,,,fixation,,,,,,,,,,,,,,,,,,,,,,,,,,
,,,,,canvas-keyboard-response,368,596784,0.0-12.0-1.71,2d_cat_multi_stim_exp1,2022-4-25,10:37:21,25,75,3,9,10,40,30,120,899,20,"[""Asian""]",No,Female,4305094,null,null,,,,clear_screen,,,,,,,,,,,,,,,,,,,,,,,,,,
,,,,,canvas-keyboard-response,369,597767,0.0-12.0-2.71,2d_cat_multi_stim_exp1,2022-4-25,10:37:21,25,75,3,9,10,40,30,120,899,20,"[""Asian""]",No,Female,4305094,975,u,learn,,,learn_trial,27.2592,80.9214,in,1,1,,,,,,,,,,,,,,,,,,,,,
,,,,,canvas-keyboard-response,370,598277,0.0-12.0-3.71,2d_cat_multi_stim_exp1,2022-4-25,10:37:21,25,75,3,9,10,40,30,120,899,20,"[""Asian""]",No,Female,4305094,null,null,learn_feedback,,,learn_feedback,27.2592,80.9214,in,,,,,,,,,,,,,,,,,,,,,,,
,,,,,canvas-keyboard-response,371,598335,0.0-12.0-4.71,2d_cat_multi_stim_exp1,2022-4-25,10:37:21,25,75,3,9,10,40,30,120,899,20,"[""Asian""]",No,Female,4305094,null,null,,,,clear_screen,,,,,,,,,,,,,,,,,,,,,,,,,,
,,,,,canvas-keyboard-response,372,598843,0.0-12.0-0.72,2d_cat_multi_stim_exp1,2022-4-25,10:37:21,25,75,3,9,10,40,30,120,899,20,"[""Asian""]",No,Female,4305094,null,null,,,,fixation,,,,,,,,,,,,,,,,,,,,,,,,,,
,,,,,canvas-keyboard-response,373,599351,0.0-12.0-1.72,2d_cat_multi_stim_exp1,2022-4-25,10:37:21,25,75,3,9,10,40,30,120,899,20,"[""Asian""]",No,Female,4305094,null,null,,,,clear_screen,,,,,,,,,,,,,,,,,,,,,,,,,,
,,,,,canvas-keyboard-response,374,600503,0.0-12.0-2.72,2d_cat_multi_stim_exp1,2022-4-25,10:37:21,25,75,3,9,10,40,30,120,899,20,"[""Asian""]",No,Female,4305094,1144,i,learn,,,learn_trial,26.8705,67.9635,in,0,0,,,,,,,,,,,,,,,,,,,,,
,,,,,canvas-keyboard-response,375,601512,0.0-12.0-3.72,2d_cat_multi_stim_exp1,2022-4-25,10:37:21,25,75,3,9,10,40,30,120,899,20,"[""Asian""]",No,Female,4305094,null,null,learn_feedback,,,learn_feedback,26.8705,67.9635,in,,,,,,,,,,,,,,,,,,,,,,,
,,,,,canvas-keyboard-response,376,601571,0.0-12.0-4.72,2d_cat_multi_stim_exp1,2022-4-25,10:37:21,25,75,3,9,10,40,30,120,899,20,"[""Asian""]",No,Female,4305094,null,null,,,,clear_screen,,,,,,,,,,,,,,,,,,,,,,,,,,
,,,,,canvas-keyboard-response,377,602080,0.0-12.0-0.73,2d_cat_multi_stim_exp1,2022-4-25,10:37:21,25,75,3,9,10,40,30,120,899,20,"[""Asian""]",No,Female,4305094,null,null,,,,fixation,,,,,,,,,,,,,,,,,,,,,,,,,,
,,,,,canvas-keyboard-response,378,602589,0.0-12.0-1.73,2d_cat_multi_stim_exp1,2022-4-25,10:37:21,25,75,3,9,10,40,30,120,899,20,"[""Asian""]",No,Female,4305094,null,null,,,,clear_screen,,,,,,,,,,,,,,,,,,,,,,,,,,
,,,,,canvas-keyboard-response,379,603871,0.0-12.0-2.73,2d_cat_multi_stim_exp1,2022-4-25,10:37:21,25,75,3,9,10,40,30,120,899,20,"[""Asian""]",No,Female,4305094,1274,i,learn,,,learn_trial,26.6667,120,out,0,1,,,,,,,,,,,,,,,,,,,,,
,,,,,canvas-keyboard-response,380,604381,0.0-12.0-3.73,2d_cat_multi_stim_exp1,2022-4-25,10:37:21,25,75,3,9,10,40,30,120,899,20,"[""Asian""]",No,Female,4305094,null,null,learn_feedback,,,learn_feedback,26.6667,120,out,,,,,,,,,,,,,,,,,,,,,,,
,,,,,canvas-keyboard-response,381,604438,0.0-12.0-4.73,2d_cat_multi_stim_exp1,2022-4-25,10:37:21,25,75,3,9,10,40,30,120,899,20,"[""Asian""]",No,Female,4305094,null,null,,,,clear_screen,,,,,,,,,,,,,,,,,,,,,,,,,,
,,,,,canvas-keyboard-response,382,604947,0.0-12.0-0.74,2d_cat_multi_stim_exp1,2022-4-25,10:37:21,25,75,3,9,10,40,30,120,899,20,"[""Asian""]",No,Female,4305094,null,null,,,,fixation,,,,,,,,,,,,,,,,,,,,,,,,,,
,,,,,canvas-keyboard-response,383,605456,0.0-12.0-1.74,2d_cat_multi_stim_exp1,2022-4-25,10:37:21,25,75,3,9,10,40,30,120,899,20,"[""Asian""]",No,Female,4305094,null,null,,,,clear_screen,,,,,,,,,,,,,,,,,,,,,,,,,,
,,,,,canvas-keyboard-response,384,606311,0.0-12.0-2.74,2d_cat_multi_stim_exp1,2022-4-25,10:37:21,25,75,3,9,10,40,30,120,899,20,"[""Asian""]",No,Female,4305094,848,i,learn,,,learn_trial,20,30,out,0,1,,,,,,,,,,,,,,,,,,,,,
,,,,,canvas-keyboard-response,385,606820,0.0-12.0-3.74,2d_cat_multi_stim_exp1,2022-4-25,10:37:21,25,75,3,9,10,40,30,120,899,20,"[""Asian""]",No,Female,4305094,null,null,learn_feedback,,,learn_feedback,20,30,out,,,,,,,,,,,,,,,,,,,,,,,
,,,,,canvas-keyboard-response,386,606878,0.0-12.0-4.74,2d_cat_multi_stim_exp1,2022-4-25,10:37:21,25,75,3,9,10,40,30,120,899,20,"[""Asian""]",No,Female,4305094,null,null,,,,clear_screen,,,,,,,,,,,,,,,,,,,,,,,,,,
,,,,,canvas-keyboard-response,387,607386,0.0-12.0-0.75,2d_cat_multi_stim_exp1,2022-4-25,10:37:21,25,75,3,9,10,40,30,120,899,20,"[""Asian""]",No,Female,4305094,null,null,,,,fixation,,,,,,,,,,,,,,,,,,,,,,,,,,
,,,,,canvas-keyboard-response,388,607896,0.0-12.0-1.75,2d_cat_multi_stim_exp1,2022-4-25,10:37:21,25,75,3,9,10,40,30,120,899,20,"[""Asian""]",No,Female,4305094,null,null,,,,clear_screen,,,,,,,,,,,,,,,,,,,,,,,,,,
,,,,,canvas-keyboard-response,389,609568,0.0-12.0-2.75,2d_cat_multi_stim_exp1,2022-4-25,10:37:21,25,75,3,9,10,40,30,120,899,20,"[""Asian""]",No,Female,4305094,1663,i,learn,,,learn_trial,20,120,out,0,1,,,,,,,,,,,,,,,,,,,,,
,,,,,canvas-keyboard-response,390,610078,0.0-12.0-3.75,2d_cat_multi_stim_exp1,2022-4-25,10:37:21,25,75,3,9,10,40,30,120,899,20,"[""Asian""]",No,Female,4305094,null,null,learn_feedback,,,learn_feedback,20,120,out,,,,,,,,,,,,,,,,,,,,,,,
,,,,,canvas-keyboard-response,391,610136,0.0-12.0-4.75,2d_cat_multi_stim_exp1,2022-4-25,10:37:21,25,75,3,9,10,40,30,120,899,20,"[""Asian""]",No,Female,4305094,null,null,,,,clear_screen,,,,,,,,,,,,,,,,,,,,,,,,,,
,,,,,canvas-keyboard-response,392,610644,0.0-12.0-0.76,2d_cat_multi_stim_exp1,2022-4-25,10:37:21,25,75,3,9,10,40,30,120,899,20,"[""Asian""]",No,Female,4305094,null,null,,,,fixation,,,,,,,,,,,,,,,,,,,,,,,,,,
,,,,,canvas-keyboard-response,393,611153,0.0-12.0-1.76,2d_cat_multi_stim_exp1,2022-4-25,10:37:21,25,75,3,9,10,40,30,120,899,20,"[""Asian""]",No,Female,4305094,null,null,,,,clear_screen,,,,,,,,,,,,,,,,,,,,,,,,,,
,,,,,canvas-keyboard-response,394,612488,0.0-12.0-2.76,2d_cat_multi_stim_exp1,2022-4-25,10:37:21,25,75,3,9,10,40,30,120,899,20,"[""Asian""]",No,Female,4305094,1320,i,learn,,,learn_trial,10,90,out,0,1,,,,,,,,,,,,,,,,,,,,,
,,,,,canvas-keyboard-response,395,612996,0.0-12.0-3.76,2d_cat_multi_stim_exp1,2022-4-25,10:37:21,25,75,3,9,10,40,30,120,899,20,"[""Asian""]",No,Female,4305094,null,null,learn_feedback,,,learn_feedback,10,90,out,,,,,,,,,,,,,,,,,,,,,,,
,,,,,canvas-keyboard-response,396,613055,0.0-12.0-4.76,2d_cat_multi_stim_exp1,2022-4-25,10:37:21,25,75,3,9,10,40,30,120,899,20,"[""Asian""]",No,Female,4305094,null,null,,,,clear_screen,,,,,,,,,,,,,,,,,,,,,,,,,,
,,,,,canvas-keyboard-response,397,613562,0.0-12.0-0.77,2d_cat_multi_stim_exp1,2022-4-25,10:37:21,25,75,3,9,10,40,30,120,899,20,"[""Asian""]",No,Female,4305094,null,null,,,,fixation,,,,,,,,,,,,,,,,,,,,,,,,,,
,,,,,canvas-keyboard-response,398,614071,0.0-12.0-1.77,2d_cat_multi_stim_exp1,2022-4-25,10:37:21,25,75,3,9,10,40,30,120,899,20,"[""Asian""]",No,Female,4305094,null,null,,,,clear_screen,,,,,,,,,,,,,,,,,,,,,,,,,,
,,,,,canvas-keyboard-response,399,614800,0.0-12.0-2.77,2d_cat_multi_stim_exp1,2022-4-25,10:37:21,25,75,3,9,10,40,30,120,899,20,"[""Asian""]",No,Female,4305094,719,i,learn,,,learn_trial,10,30,out,0,1,,,,,,,,,,,,,,,,,,,,,
,,,,,canvas-keyboard-response,400,615309,0.0-12.0-3.77,2d_cat_multi_stim_exp1,2022-4-25,10:37:21,25,75,3,9,10,40,30,120,899,20,"[""Asian""]",No,Female,4305094,null,null,learn_feedback,,,learn_feedback,10,30,out,,,,,,,,,,,,,,,,,,,,,,,
,,,,,canvas-keyboard-response,401,615367,0.0-12.0-4.77,2d_cat_multi_stim_exp1,2022-4-25,10:37:21,25,75,3,9,10,40,30,120,899,20,"[""Asian""]",No,Female,4305094,null,null,,,,clear_screen,,,,,,,,,,,,,,,,,,,,,,,,,,
,,,,,canvas-keyboard-response,402,615875,0.0-12.0-0.78,2d_cat_multi_stim_exp1,2022-4-25,10:37:21,25,75,3,9,10,40,30,120,899,20,"[""Asian""]",No,Female,4305094,null,null,,,,fixation,,,,,,,,,,,,,,,,,,,,,,,,,,
,,,,,canvas-keyboard-response,403,616383,0.0-12.0-1.78,2d_cat_multi_stim_exp1,2022-4-25,10:37:21,25,75,3,9,10,40,30,120,899,20,"[""Asian""]",No,Female,4305094,null,null,,,,clear_screen,,,,,,,,,,,,,,,,,,,,,,,,,,
,,,,,canvas-keyboard-response,404,618663,0.0-12.0-2.78,2d_cat_multi_stim_exp1,2022-4-25,10:37:21,25,75,3,9,10,40,30,120,899,20,"[""Asian""]",No,Female,4305094,2270,i,learn,,,learn_trial,20,80,out,0,1,,,,,,,,,,,,,,,,,,,,,
,,,,,canvas-keyboard-response,405,619172,0.0-12.0-3.78,2d_cat_multi_stim_exp1,2022-4-25,10:37:21,25,75,3,9,10,40,30,120,899,20,"[""Asian""]",No,Female,4305094,null,null,learn_feedback,,,learn_feedback,20,80,out,,,,,,,,,,,,,,,,,,,,,,,
,,,,,canvas-keyboard-response,406,619231,0.0-12.0-4.78,2d_cat_multi_stim_exp1,2022-4-25,10:37:21,25,75,3,9,10,40,30,120,899,20,"[""Asian""]",No,Female,4305094,null,null,,,,clear_screen,,,,,,,,,,,,,,,,,,,,,,,,,,
,,,,,canvas-keyboard-response,407,619739,0.0-12.0-0.79,2d_cat_multi_stim_exp1,2022-4-25,10:37:21,25,75,3,9,10,40,30,120,899,20,"[""Asian""]",No,Female,4305094,null,null,,,,fixation,,,,,,,,,,,,,,,,,,,,,,,,,,
,,,,,canvas-keyboard-response,408,620247,0.0-12.0-1.79,2d_cat_multi_stim_exp1,2022-4-25,10:37:21,25,75,3,9,10,40,30,120,899,20,"[""Asian""]",No,Female,4305094,null,null,,,,clear_screen,,,,,,,,,,,,,,,,,,,,,,,,,,
,,,,,canvas-keyboard-response,409,621713,0.0-12.0-2.79,2d_cat_multi_stim_exp1,2022-4-25,10:37:21,25,75,3,9,10,40,30,120,899,20,"[""Asian""]",No,Female,4305094,1456,u,learn,,,learn_trial,25,75,in,1,1,,,,,,,,,,,,,,,,,,,,,
,,,,,canvas-keyboard-response,410,622225,0.0-12.0-3.79,2d_cat_multi_stim_exp1,2022-4-25,10:37:21,25,75,3,9,10,40,30,120,899,20,"[""Asian""]",No,Female,4305094,null,null,learn_feedback,,,learn_feedback,25,75,in,,,,,,,,,,,,,,,,,,,,,,,
,,,,,canvas-keyboard-response,411,622286,0.0-12.0-4.79,2d_cat_multi_stim_exp1,2022-4-25,10:37:21,25,75,3,9,10,40,30,120,899,20,"[""Asian""]",No,Female,4305094,null,null,,,,clear_screen,,,,,,,,,,,,,,,,,,,,,,,,,,
,,,,,canvas-keyboard-response,412,622796,0.0-12.0-0.80,2d_cat_multi_stim_exp1,2022-4-25,10:37:21,25,75,3,9,10,40,30,120,899,20,"[""Asian""]",No,Female,4305094,null,null,,,,fixation,,,,,,,,,,,,,,,,,,,,,,,,,,
,,,,,canvas-keyboard-response,413,623305,0.0-12.0-1.80,2d_cat_multi_stim_exp1,2022-4-25,10:37:21,25,75,3,9,10,40,30,120,899,20,"[""Asian""]",No,Female,4305094,null,null,,,,clear_screen,,,,,,,,,,,,,,,,,,,,,,,,,,
,,,,,canvas-keyboard-response,414,624176,0.0-12.0-2.80,2d_cat_multi_stim_exp1,2022-4-25,10:37:21,25,75,3,9,10,40,30,120,899,20,"[""Asian""]",No,Female,4305094,858,i,learn,,,learn_trial,10,80,out,0,1,,,,,,,,,,,,,,,,,,,,,
,,,,,canvas-keyboard-response,415,624686,0.0-12.0-3.80,2d_cat_multi_stim_exp1,2022-4-25,10:37:21,25,75,3,9,10,40,30,120,899,20,"[""Asian""]",No,Female,4305094,null,null,learn_feedback,,,learn_feedback,10,80,out,,,,,,,,,,,,,,,,,,,,,,,
,,,,,canvas-keyboard-response,416,624745,0.0-12.0-4.80,2d_cat_multi_stim_exp1,2022-4-25,10:37:21,25,75,3,9,10,40,30,120,899,20,"[""Asian""]",No,Female,4305094,null,null,,,,clear_screen,,,,,,,,,,,,,,,,,,,,,,,,,,
,,,,,canvas-keyboard-response,417,625254,0.0-12.0-0.81,2d_cat_multi_stim_exp1,2022-4-25,10:37:21,25,75,3,9,10,40,30,120,899,20,"[""Asian""]",No,Female,4305094,null,null,,,,fixation,,,,,,,,,,,,,,,,,,,,,,,,,,
,,,,,canvas-keyboard-response,418,625763,0.0-12.0-1.81,2d_cat_multi_stim_exp1,2022-4-25,10:37:21,25,75,3,9,10,40,30,120,899,20,"[""Asian""]",No,Female,4305094,null,null,,,,clear_screen,,,,,,,,,,,,,,,,,,,,,,,,,,
,,,,,canvas-keyboard-response,419,626600,0.0-12.0-2.81,2d_cat_multi_stim_exp1,2022-4-25,10:37:21,25,75,3,9,10,40,30,120,899,20,"[""Asian""]",No,Female,4305094,828,u,learn,,,learn_trial,25,75,in,1,1,,,,,,,,,,,,,,,,,,,,,
,,,,,canvas-keyboard-response,420,627110,0.0-12.0-3.81,2d_cat_multi_stim_exp1,2022-4-25,10:37:21,25,75,3,9,10,40,30,120,899,20,"[""Asian""]",No,Female,4305094,null,null,learn_feedback,,,learn_feedback,25,75,in,,,,,,,,,,,,,,,,,,,,,,,
,,,,,canvas-keyboard-response,421,627169,0.0-12.0-4.81,2d_cat_multi_stim_exp1,2022-4-25,10:37:21,25,75,3,9,10,40,30,120,899,20,"[""Asian""]",No,Female,4305094,null,null,,,,clear_screen,,,,,,,,,,,,,,,,,,,,,,,,,,
,,,,,canvas-keyboard-response,422,627678,0.0-12.0-0.82,2d_cat_multi_stim_exp1,2022-4-25,10:37:21,25,75,3,9,10,40,30,120,899,20,"[""Asian""]",No,Female,4305094,null,null,,,,fixation,,,,,,,,,,,,,,,,,,,,,,,,,,
,,,,,canvas-keyboard-response,423,628188,0.0-12.0-1.82,2d_cat_multi_stim_exp1,2022-4-25,10:37:21,25,75,3,9,10,40,30,120,899,20,"[""Asian""]",No,Female,4305094,null,null,,,,clear_screen,,,,,,,,,,,,,,,,,,,,,,,,,,
,,,,,canvas-keyboard-response,424,629671,0.0-12.0-2.82,2d_cat_multi_stim_exp1,2022-4-25,10:37:21,25,75,3,9,10,40,30,120,899,20,"[""Asian""]",No,Female,4305094,1475,u,learn,,,learn_trial,23.3333,80,out,1,0,,,,,,,,,,,,,,,,,,,,,
,,,,,canvas-keyboard-response,425,630683,0.0-12.0-3.82,2d_cat_multi_stim_exp1,2022-4-25,10:37:21,25,75,3,9,10,40,30,120,899,20,"[""Asian""]",No,Female,4305094,null,null,learn_feedback,,,learn_feedback,23.3333,80,out,,,,,,,,,,,,,,,,,,,,,,,
,,,,,canvas-keyboard-response,426,630747,0.0-12.0-4.82,2d_cat_multi_stim_exp1,2022-4-25,10:37:21,25,75,3,9,10,40,30,120,899,20,"[""Asian""]",No,Female,4305094,null,null,,,,clear_screen,,,,,,,,,,,,,,,,,,,,,,,,,,
,,,,,canvas-keyboard-response,427,631255,0.0-12.0-0.83,2d_cat_multi_stim_exp1,2022-4-25,10:37:21,25,75,3,9,10,40,30,120,899,20,"[""Asian""]",No,Female,4305094,null,null,,,,fixation,,,,,,,,,,,,,,,,,,,,,,,,,,
,,,,,canvas-keyboard-response,428,631764,0.0-12.0-1.83,2d_cat_multi_stim_exp1,2022-4-25,10:37:21,25,75,3,9,10,40,30,120,899,20,"[""Asian""]",No,Female,4305094,null,null,,,,clear_screen,,,,,,,,,,,,,,,,,,,,,,,,,,
,,,,,canvas-keyboard-response,429,634359,0.0-12.0-2.83,2d_cat_multi_stim_exp1,2022-4-25,10:37:21,25,75,3,9,10,40,30,120,899,20,"[""Asian""]",No,Female,4305094,2585,u,learn,,,learn_trial,25,75,in,1,1,,,,,,,,,,,,,,,,,,,,,
,,,,,canvas-keyboard-response,430,634868,0.0-12.0-3.83,2d_cat_multi_stim_exp1,2022-4-25,10:37:21,25,75,3,9,10,40,30,120,899,20,"[""Asian""]",No,Female,4305094,null,null,learn_feedback,,,learn_feedback,25,75,in,,,,,,,,,,,,,,,,,,,,,,,
,,,,,canvas-keyboard-response,431,634926,0.0-12.0-4.83,2d_cat_multi_stim_exp1,2022-4-25,10:37:21,25,75,3,9,10,40,30,120,899,20,"[""Asian""]",No,Female,4305094,null,null,,,,clear_screen,,,,,,,,,,,,,,,,,,,,,,,,,,
,,,,,canvas-keyboard-response,432,635434,0.0-12.0-0.84,2d_cat_multi_stim_exp1,2022-4-25,10:37:21,25,75,3,9,10,40,30,120,899,20,"[""Asian""]",No,Female,4305094,null,null,,,,fixation,,,,,,,,,,,,,,,,,,,,,,,,,,
,,,,,canvas-keyboard-response,433,635943,0.0-12.0-1.84,2d_cat_multi_stim_exp1,2022-4-25,10:37:21,25,75,3,9,10,40,30,120,899,20,"[""Asian""]",No,Female,4305094,null,null,,,,clear_screen,,,,,,,,,,,,,,,,,,,,,,,,,,
,,,,,canvas-keyboard-response,434,637775,0.0-12.0-2.84,2d_cat_multi_stim_exp1,2022-4-25,10:37:21,25,75,3,9,10,40,30,120,899,20,"[""Asian""]",No,Female,4305094,1823,i,learn,,,learn_trial,16.6667,90,out,0,1,,,,,,,,,,,,,,,,,,,,,
,,,,,canvas-keyboard-response,435,638284,0.0-12.0-3.84,2d_cat_multi_stim_exp1,2022-4-25,10:37:21,25,75,3,9,10,40,30,120,899,20,"[""Asian""]",No,Female,4305094,null,null,learn_feedback,,,learn_feedback,16.6667,90,out,,,,,,,,,,,,,,,,,,,,,,,
,,,,,canvas-keyboard-response,436,638342,0.0-12.0-4.84,2d_cat_multi_stim_exp1,2022-4-25,10:37:21,25,75,3,9,10,40,30,120,899,20,"[""Asian""]",No,Female,4305094,null,null,,,,clear_screen,,,,,,,,,,,,,,,,,,,,,,,,,,
,,,,,canvas-keyboard-response,437,638851,0.0-12.0-0.85,2d_cat_multi_stim_exp1,2022-4-25,10:37:21,25,75,3,9,10,40,30,120,899,20,"[""Asian""]",No,Female,4305094,null,null,,,,fixation,,,,,,,,,,,,,,,,,,,,,,,,,,
,,,,,canvas-keyboard-response,438,639359,0.0-12.0-1.85,2d_cat_multi_stim_exp1,2022-4-25,10:37:21,25,75,3,9,10,40,30,120,899,20,"[""Asian""]",No,Female,4305094,null,null,,,,clear_screen,,,,,,,,,,,,,,,,,,,,,,,,,,
,,,,,canvas-keyboard-response,439,640120,0.0-12.0-2.85,2d_cat_multi_stim_exp1,2022-4-25,10:37:21,25,75,3,9,10,40,30,120,899,20,"[""Asian""]",No,Female,4305094,753,u,learn,,,learn_trial,30,70,out,1,0,,,,,,,,,,,,,,,,,,,,,
,,,,,canvas-keyboard-response,440,641131,0.0-12.0-3.85,2d_cat_multi_stim_exp1,2022-4-25,10:37:21,25,75,3,9,10,40,30,120,899,20,"[""Asian""]",No,Female,4305094,null,null,learn_feedback,,,learn_feedback,30,70,out,,,,,,,,,,,,,,,,,,,,,,,
,,,,,canvas-keyboard-response,441,641189,0.0-12.0-4.85,2d_cat_multi_stim_exp1,2022-4-25,10:37:21,25,75,3,9,10,40,30,120,899,20,"[""Asian""]",No,Female,4305094,null,null,,,,clear_screen,,,,,,,,,,,,,,,,,,,,,,,,,,
,,,,,canvas-keyboard-response,442,641698,0.0-12.0-0.86,2d_cat_multi_stim_exp1,2022-4-25,10:37:21,25,75,3,9,10,40,30,120,899,20,"[""Asian""]",No,Female,4305094,null,null,,,,fixation,,,,,,,,,,,,,,,,,,,,,,,,,,
,,,,,canvas-keyboard-response,443,642207,0.0-12.0-1.86,2d_cat_multi_stim_exp1,2022-4-25,10:37:21,25,75,3,9,10,40,30,120,899,20,"[""Asian""]",No,Female,4305094,null,null,,,,clear_screen,,,,,,,,,,,,,,,,,,,,,,,,,,
,,,,,canvas-keyboard-response,444,643504,0.0-12.0-2.86,2d_cat_multi_stim_exp1,2022-4-25,10:37:21,25,75,3,9,10,40,30,120,899,20,"[""Asian""]",No,Female,4305094,1287,u,learn,,,learn_trial,33.3333,90,out,1,0,,,,,,,,,,,,,,,,,,,,,
,,,,,canvas-keyboard-response,445,644513,0.0-12.0-3.86,2d_cat_multi_stim_exp1,2022-4-25,10:37:21,25,75,3,9,10,40,30,120,899,20,"[""Asian""]",No,Female,4305094,null,null,learn_feedback,,,learn_feedback,33.3333,90,out,,,,,,,,,,,,,,,,,,,,,,,
,,,,,canvas-keyboard-response,446,644571,0.0-12.0-4.86,2d_cat_multi_stim_exp1,2022-4-25,10:37:21,25,75,3,9,10,40,30,120,899,20,"[""Asian""]",No,Female,4305094,null,null,,,,clear_screen,,,,,,,,,,,,,,,,,,,,,,,,,,
,,,,,canvas-keyboard-response,447,645079,0.0-12.0-0.87,2d_cat_multi_stim_exp1,2022-4-25,10:37:21,25,75,3,9,10,40,30,120,899,20,"[""Asian""]",No,Female,4305094,null,null,,,,fixation,,,,,,,,,,,,,,,,,,,,,,,,,,
,,,,,canvas-keyboard-response,448,645588,0.0-12.0-1.87,2d_cat_multi_stim_exp1,2022-4-25,10:37:21,25,75,3,9,10,40,30,120,899,20,"[""Asian""]",No,Female,4305094,null,null,,,,clear_screen,,,,,,,,,,,,,,,,,,,,,,,,,,
,,,,,canvas-keyboard-response,449,646359,0.0-12.0-2.87,2d_cat_multi_stim_exp1,2022-4-25,10:37:21,25,75,3,9,10,40,30,120,899,20,"[""Asian""]",No,Female,4305094,763,u,learn,,,learn_trial,25,75,in,1,1,,,,,,,,,,,,,,,,,,,,,
,,,,,canvas-keyboard-response,450,646869,0.0-12.0-3.87,2d_cat_multi_stim_exp1,2022-4-25,10:37:21,25,75,3,9,10,40,30,120,899,20,"[""Asian""]",No,Female,4305094,null,null,learn_feedback,,,learn_feedback,25,75,in,,,,,,,,,,,,,,,,,,,,,,,
,,,,,canvas-keyboard-response,451,646927,0.0-12.0-4.87,2d_cat_multi_stim_exp1,2022-4-25,10:37:21,25,75,3,9,10,40,30,120,899,20,"[""Asian""]",No,Female,4305094,null,null,,,,clear_screen,,,,,,,,,,,,,,,,,,,,,,,,,,
,,,,,canvas-keyboard-response,452,647435,0.0-12.0-0.88,2d_cat_multi_stim_exp1,2022-4-25,10:37:21,25,75,3,9,10,40,30,120,899,20,"[""Asian""]",No,Female,4305094,null,null,,,,fixation,,,,,,,,,,,,,,,,,,,,,,,,,,
