"success","timeout","failed_images","failed_audio","failed_video","trial_type","trial_index","time_elapsed","internal_node_id","exp_name","date","time","angle_mean_in","radius_mean_in","angle_sd_in","radius_sd_in","angle_min_out","angle_max_out","radius_min_out","radius_max_out","sub_n","age","race","ethnicity","gender","exp_duration","rt","response","exp_trial_type","stimulus","view_history","screen_id","angle","radius","distribution","choice","correct","order","angle_a","radius_a","angle_b","radius_b","jkl_correct","transfer_trial_type","choice_set","abc_correct","tc_correct","tc_angle","tdc_a","tdc_b","tdc_c","pair","category_a","category_b","category_c","angle_c","radius_c","question_order"
"true","false","[]","[]","[]","preload","0","21","0.0-0.0","2d_cat_multi_stim_exp1","2022-4-26","15:21:53","25","75","3","9","10","40","30","120","59","18","[""Black or African-American""]","No","Female","2198374","","","","","","","","","","","","","","","","","","","","","","","","","","","","","","","",""
"","","","","","survey-html-form","1","2670","0.0-1.0","2d_cat_multi_stim_exp1","2022-4-26","15:21:53","25","75","3","9","10","40","30","120","59","18","[""Black or African-American""]","No","Female","2198374","2635","{""response"":""59""}","enter-sub-number","","","","","","","","","","","","","","","","","","","","","","","","","","","","",""
"true","","","","","fullscreen","2","4578","0.0-2.0","2d_cat_multi_stim_exp1","2022-4-26","15:21:53","25","75","3","9","10","40","30","120","59","18","[""Black or African-American""]","No","Female","2198374","","","","","","","","","","","","","","","","","","","","","","","","","","","","","","","",""
"","","","","","image-button-response","3","105033","0.0-3.0","2d_cat_multi_stim_exp1","2022-4-26","15:21:53","25","75","3","9","10","40","30","120","59","18","[""Black or African-American""]","No","Female","2198374","100449","0","","consent.png","","","","","","","","","","","","","","","","","","","","","","","","","","","",""
"","","","","","html-button-response","4","112880","0.0-4.0","2d_cat_multi_stim_exp1","2022-4-26","15:21:53","25","75","3","9","10","40","30","120","59","18","[""Black or African-American""]","No","Female","2198374","7842","0","","<div style= ""font-size:25px;"" <p> <strong> Welcome to the experiment! </strong><br> <p style=""color:#8B0000; font-size:25px;""><strong> Please do NOT exit full screen until you are done with the experiment. </strong> </p><p style=""font-size:25px;color:#8B0000;""> <strong> The experiment will be canceled and your data will be lost <br> if you try to go back or refresh the page at any point during the experiment.</strong> </p><br><p> <strong> Thanks in advance for your contribution to our research! </strong></p>","","","","","","","","","","","","","","","","","","","","","","","","","","","",""
"","","","","","instructions","5","163233","0.0-5.0","2d_cat_multi_stim_exp1","2022-4-26","15:21:53","25","75","3","9","10","40","30","120","59","18","[""Black or African-American""]","No","Female","2198374","50347","","","","[{""page_index"":0,""viewing_time"":10058},{""page_index"":1,""viewing_time"":5048},{""page_index"":2,""viewing_time"":13176},{""page_index"":3,""viewing_time"":22065}]","instructions_1","","","","","","","","","","","","","","","","","","","","","","","","","",""
"","","","","","instructions","6","166176","0.0-6.0","2d_cat_multi_stim_exp1","2022-4-26","15:21:53","25","75","3","9","10","40","30","120","59","18","[""Black or African-American""]","No","Female","2198374","2940","","","","[{""page_index"":0,""viewing_time"":2940}]","Click to see the kinds of turtles that will appear in the study.","","","","","","","","","","","","","","","","","","","","","","","","","",""
"","","","","","canvas-keyboard-response","7","181192","0.0-7.0","2d_cat_multi_stim_exp1","2022-4-26","15:21:53","25","75","3","9","10","40","30","120","59","18","[""Black or African-American""]","No","Female","2198374","null","null","","","","demo_range","","","","","","","","","","","","","","","","","","","","","","","","","",""
"","","","","","instructions","8","184368","0.0-8.0","2d_cat_multi_stim_exp1","2022-4-26","15:21:53","25","75","3","9","10","40","30","120","59","18","[""Black or African-American""]","No","Female","2198374","2675","","","","[{""page_index"":0,""viewing_time"":2674}]","Click to see some turtles in the subspecies.","","","","","","","","","","","","","","","","","","","","","","","","","",""
"","","","","","canvas-keyboard-response","9","199387","0.0-9.0","2d_cat_multi_stim_exp1","2022-4-26","15:21:53","25","75","3","9","10","40","30","120","59","18","[""Black or African-American""]","No","Female","2198374","null","null","","","","demo_in","","","","","","","","","","","","","","","","","","","","","","","","","",""
"","","","","","instructions","10","236825","0.0-10.0","2d_cat_multi_stim_exp1","2022-4-26","15:21:53","25","75","3","9","10","40","30","120","59","18","[""Black or African-American""]","No","Female","2198374","36936","","","","[{""page_index"":0,""viewing_time"":7951},{""page_index"":1,""viewing_time"":21464},{""page_index"":2,""viewing_time"":7520}]","instructions_2","","","","","","","","","","","","","","","","","","","","","","","","","",""
"","","","","","instructions","11","239225","0.0-11.0","2d_cat_multi_stim_exp1","2022-4-26","15:21:53","25","75","3","9","10","40","30","120","59","18","[""Black or African-American""]","No","Female","2198374","2396","","","","[{""page_index"":0,""viewing_time"":2396}]","Click to begin the first phase of the experiment.","","","","","","","","","","","","","","","","","","","","","","","","","",""
"","","","","","canvas-keyboard-response","12","239735","0.0-12.0-0.0","2d_cat_multi_stim_exp1","2022-4-26","15:21:53","25","75","3","9","10","40","30","120","59","18","[""Black or African-American""]","No","Female","2198374","null","null","","","","fixation","","","","","","","","","","","","","","","","","","","","","","","","","",""
"","","","","","canvas-keyboard-response","13","240245","0.0-12.0-1.0","2d_cat_multi_stim_exp1","2022-4-26","15:21:53","25","75","3","9","10","40","30","120","59","18","[""Black or African-American""]","No","Female","2198374","null","null","","","","clear_screen","","","","","","","","","","","","","","","","","","","","","","","","","",""
"","","","","","canvas-keyboard-response","14","246113","0.0-12.0-2.0","2d_cat_multi_stim_exp1","2022-4-26","15:21:53","25","75","3","9","10","40","30","120","59","18","[""Black or African-American""]","No","Female","2198374","5858","i","learn","","","learn_trial","10","50","out","0","1","","","","","","","","","","","","","","","","","","","","",""
"","","","","","canvas-keyboard-response","15","246625","0.0-12.0-3.0","2d_cat_multi_stim_exp1","2022-4-26","15:21:53","25","75","3","9","10","40","30","120","59","18","[""Black or African-American""]","No","Female","2198374","null","null","learn_feedback","","","learn_feedback","10","50","out","","","","","","","","","","","","","","","","","","","","","","",""
"","","","","","canvas-keyboard-response","16","246685","0.0-12.0-4.0","2d_cat_multi_stim_exp1","2022-4-26","15:21:53","25","75","3","9","10","40","30","120","59","18","[""Black or African-American""]","No","Female","2198374","null","null","","","","clear_screen","","","","","","","","","","","","","","","","","","","","","","","","","",""
"","","","","","canvas-keyboard-response","17","247197","0.0-12.0-0.1","2d_cat_multi_stim_exp1","2022-4-26","15:21:53","25","75","3","9","10","40","30","120","59","18","[""Black or African-American""]","No","Female","2198374","null","null","","","","fixation","","","","","","","","","","","","","","","","","","","","","","","","","",""
"","","","","","canvas-keyboard-response","18","247707","0.0-12.0-1.1","2d_cat_multi_stim_exp1","2022-4-26","15:21:53","25","75","3","9","10","40","30","120","59","18","[""Black or African-American""]","No","Female","2198374","null","null","","","","clear_screen","","","","","","","","","","","","","","","","","","","","","","","","","",""
"","","","","","canvas-keyboard-response","19","254424","0.0-12.0-2.1","2d_cat_multi_stim_exp1","2022-4-26","15:21:53","25","75","3","9","10","40","30","120","59","18","[""Black or African-American""]","No","Female","2198374","6709","i","learn","","","learn_trial","25","57","in","0","0","","","","","","","","","","","","","","","","","","","","",""
"","","","","","canvas-keyboard-response","20","255435","0.0-12.0-3.1","2d_cat_multi_stim_exp1","2022-4-26","15:21:53","25","75","3","9","10","40","30","120","59","18","[""Black or African-American""]","No","Female","2198374","null","null","learn_feedback","","","learn_feedback","25","57","in","","","","","","","","","","","","","","","","","","","","","","",""
"","","","","","canvas-keyboard-response","21","255496","0.0-12.0-4.1","2d_cat_multi_stim_exp1","2022-4-26","15:21:53","25","75","3","9","10","40","30","120","59","18","[""Black or African-American""]","No","Female","2198374","null","null","","","","clear_screen","","","","","","","","","","","","","","","","","","","","","","","","","",""
"","","","","","canvas-keyboard-response","22","256005","0.0-12.0-0.2","2d_cat_multi_stim_exp1","2022-4-26","15:21:53","25","75","3","9","10","40","30","120","59","18","[""Black or African-American""]","No","Female","2198374","null","null","","","","fixation","","","","","","","","","","","","","","","","","","","","","","","","","",""
"","","","","","canvas-keyboard-response","23","256519","0.0-12.0-1.2","2d_cat_multi_stim_exp1","2022-4-26","15:21:53","25","75","3","9","10","40","30","120","59","18","[""Black or African-American""]","No","Female","2198374","null","null","","","","clear_screen","","","","","","","","","","","","","","","","","","","","","","","","","",""
"","","","","","canvas-keyboard-response","24","258192","0.0-12.0-2.2","2d_cat_multi_stim_exp1","2022-4-26","15:21:53","25","75","3","9","10","40","30","120","59","18","[""Black or African-American""]","No","Female","2198374","1663","i","learn","","","learn_trial","26.6667","30","out","0","1","","","","","","","","","","","","","","","","","","","","",""
"","","","","","canvas-keyboard-response","25","258702","0.0-12.0-3.2","2d_cat_multi_stim_exp1","2022-4-26","15:21:53","25","75","3","9","10","40","30","120","59","18","[""Black or African-American""]","No","Female","2198374","null","null","learn_feedback","","","learn_feedback","26.6667","30","out","","","","","","","","","","","","","","","","","","","","","","",""
"","","","","","canvas-keyboard-response","26","258764","0.0-12.0-4.2","2d_cat_multi_stim_exp1","2022-4-26","15:21:53","25","75","3","9","10","40","30","120","59","18","[""Black or African-American""]","No","Female","2198374","null","null","","","","clear_screen","","","","","","","","","","","","","","","","","","","","","","","","","",""
"","","","","","canvas-keyboard-response","27","259274","0.0-12.0-0.3","2d_cat_multi_stim_exp1","2022-4-26","15:21:53","25","75","3","9","10","40","30","120","59","18","[""Black or African-American""]","No","Female","2198374","null","null","","","","fixation","","","","","","","","","","","","","","","","","","","","","","","","","",""
"","","","","","canvas-keyboard-response","28","259788","0.0-12.0-1.3","2d_cat_multi_stim_exp1","2022-4-26","15:21:53","25","75","3","9","10","40","30","120","59","18","[""Black or African-American""]","No","Female","2198374","null","null","","","","clear_screen","","","","","","","","","","","","","","","","","","","","","","","","","",""
"","","","","","canvas-keyboard-response","29","260912","0.0-12.0-2.3","2d_cat_multi_stim_exp1","2022-4-26","15:21:53","25","75","3","9","10","40","30","120","59","18","[""Black or African-American""]","No","Female","2198374","1113","u","learn","","","learn_trial","22.1081","72.6057","in","1","1","","","","","","","","","","","","","","","","","","","","",""
"","","","","","canvas-keyboard-response","30","261421","0.0-12.0-3.3","2d_cat_multi_stim_exp1","2022-4-26","15:21:53","25","75","3","9","10","40","30","120","59","18","[""Black or African-American""]","No","Female","2198374","null","null","learn_feedback","","","learn_feedback","22.1081","72.6057","in","","","","","","","","","","","","","","","","","","","","","","",""
"","","","","","canvas-keyboard-response","31","261482","0.0-12.0-4.3","2d_cat_multi_stim_exp1","2022-4-26","15:21:53","25","75","3","9","10","40","30","120","59","18","[""Black or African-American""]","No","Female","2198374","null","null","","","","clear_screen","","","","","","","","","","","","","","","","","","","","","","","","","",""
"","","","","","canvas-keyboard-response","32","261991","0.0-12.0-0.4","2d_cat_multi_stim_exp1","2022-4-26","15:21:53","25","75","3","9","10","40","30","120","59","18","[""Black or African-American""]","No","Female","2198374","null","null","","","","fixation","","","","","","","","","","","","","","","","","","","","","","","","","",""
"","","","","","canvas-keyboard-response","33","262501","0.0-12.0-1.4","2d_cat_multi_stim_exp1","2022-4-26","15:21:53","25","75","3","9","10","40","30","120","59","18","[""Black or African-American""]","No","Female","2198374","null","null","","","","clear_screen","","","","","","","","","","","","","","","","","","","","","","","","","",""
"","","","","","canvas-keyboard-response","34","263792","0.0-12.0-2.4","2d_cat_multi_stim_exp1","2022-4-26","15:21:53","25","75","3","9","10","40","30","120","59","18","[""Black or African-American""]","No","Female","2198374","1281","u","learn","","","learn_trial","22.2971","71.095","in","1","1","","","","","","","","","","","","","","","","","","","","",""
"","","","","","canvas-keyboard-response","35","264301","0.0-12.0-3.4","2d_cat_multi_stim_exp1","2022-4-26","15:21:53","25","75","3","9","10","40","30","120","59","18","[""Black or African-American""]","No","Female","2198374","null","null","learn_feedback","","","learn_feedback","22.2971","71.095","in","","","","","","","","","","","","","","","","","","","","","","",""
"","","","","","canvas-keyboard-response","36","264361","0.0-12.0-4.4","2d_cat_multi_stim_exp1","2022-4-26","15:21:53","25","75","3","9","10","40","30","120","59","18","[""Black or African-American""]","No","Female","2198374","null","null","","","","clear_screen","","","","","","","","","","","","","","","","","","","","","","","","","",""
"","","","","","canvas-keyboard-response","37","264868","0.0-12.0-0.5","2d_cat_multi_stim_exp1","2022-4-26","15:21:53","25","75","3","9","10","40","30","120","59","18","[""Black or African-American""]","No","Female","2198374","null","null","","","","fixation","","","","","","","","","","","","","","","","","","","","","","","","","",""
"","","","","","canvas-keyboard-response","38","265378","0.0-12.0-1.5","2d_cat_multi_stim_exp1","2022-4-26","15:21:53","25","75","3","9","10","40","30","120","59","18","[""Black or African-American""]","No","Female","2198374","null","null","","","","clear_screen","","","","","","","","","","","","","","","","","","","","","","","","","",""
"","","","","","canvas-keyboard-response","39","266640","0.0-12.0-2.5","2d_cat_multi_stim_exp1","2022-4-26","15:21:53","25","75","3","9","10","40","30","120","59","18","[""Black or African-American""]","No","Female","2198374","1253","i","learn","","","learn_trial","23.3333","110","out","0","1","","","","","","","","","","","","","","","","","","","","",""
"","","","","","canvas-keyboard-response","40","267150","0.0-12.0-3.5","2d_cat_multi_stim_exp1","2022-4-26","15:21:53","25","75","3","9","10","40","30","120","59","18","[""Black or African-American""]","No","Female","2198374","null","null","learn_feedback","","","learn_feedback","23.3333","110","out","","","","","","","","","","","","","","","","","","","","","","",""
"","","","","","canvas-keyboard-response","41","267213","0.0-12.0-4.5","2d_cat_multi_stim_exp1","2022-4-26","15:21:53","25","75","3","9","10","40","30","120","59","18","[""Black or African-American""]","No","Female","2198374","null","null","","","","clear_screen","","","","","","","","","","","","","","","","","","","","","","","","","",""
"","","","","","canvas-keyboard-response","42","267721","0.0-12.0-0.6","2d_cat_multi_stim_exp1","2022-4-26","15:21:53","25","75","3","9","10","40","30","120","59","18","[""Black or African-American""]","No","Female","2198374","null","null","","","","fixation","","","","","","","","","","","","","","","","","","","","","","","","","",""
"","","","","","canvas-keyboard-response","43","268232","0.0-12.0-1.6","2d_cat_multi_stim_exp1","2022-4-26","15:21:53","25","75","3","9","10","40","30","120","59","18","[""Black or African-American""]","No","Female","2198374","null","null","","","","clear_screen","","","","","","","","","","","","","","","","","","","","","","","","","",""
"","","","","","canvas-keyboard-response","44","269168","0.0-12.0-2.6","2d_cat_multi_stim_exp1","2022-4-26","15:21:53","25","75","3","9","10","40","30","120","59","18","[""Black or African-American""]","No","Female","2198374","924","u","learn","","","learn_trial","25","75","in","1","1","","","","","","","","","","","","","","","","","","","","",""
"","","","","","canvas-keyboard-response","45","269673","0.0-12.0-3.6","2d_cat_multi_stim_exp1","2022-4-26","15:21:53","25","75","3","9","10","40","30","120","59","18","[""Black or African-American""]","No","Female","2198374","null","null","learn_feedback","","","learn_feedback","25","75","in","","","","","","","","","","","","","","","","","","","","","","",""
"","","","","","canvas-keyboard-response","46","269731","0.0-12.0-4.6","2d_cat_multi_stim_exp1","2022-4-26","15:21:53","25","75","3","9","10","40","30","120","59","18","[""Black or African-American""]","No","Female","2198374","null","null","","","","clear_screen","","","","","","","","","","","","","","","","","","","","","","","","","",""
"","","","","","canvas-keyboard-response","47","270240","0.0-12.0-0.7","2d_cat_multi_stim_exp1","2022-4-26","15:21:53","25","75","3","9","10","40","30","120","59","18","[""Black or African-American""]","No","Female","2198374","null","null","","","","fixation","","","","","","","","","","","","","","","","","","","","","","","","","",""
"","","","","","canvas-keyboard-response","48","270752","0.0-12.0-1.7","2d_cat_multi_stim_exp1","2022-4-26","15:21:53","25","75","3","9","10","40","30","120","59","18","[""Black or African-American""]","No","Female","2198374","null","null","","","","clear_screen","","","","","","","","","","","","","","","","","","","","","","","","","",""
"","","","","","canvas-keyboard-response","49","271560","0.0-12.0-2.7","2d_cat_multi_stim_exp1","2022-4-26","15:21:53","25","75","3","9","10","40","30","120","59","18","[""Black or African-American""]","No","Female","2198374","798","u","learn","","","learn_trial","25.4027","83.9185","in","1","1","","","","","","","","","","","","","","","","","","","","",""
"","","","","","canvas-keyboard-response","50","272070","0.0-12.0-3.7","2d_cat_multi_stim_exp1","2022-4-26","15:21:53","25","75","3","9","10","40","30","120","59","18","[""Black or African-American""]","No","Female","2198374","null","null","learn_feedback","","","learn_feedback","25.4027","83.9185","in","","","","","","","","","","","","","","","","","","","","","","",""
"","","","","","canvas-keyboard-response","51","272128","0.0-12.0-4.7","2d_cat_multi_stim_exp1","2022-4-26","15:21:53","25","75","3","9","10","40","30","120","59","18","[""Black or African-American""]","No","Female","2198374","null","null","","","","clear_screen","","","","","","","","","","","","","","","","","","","","","","","","","",""
"","","","","","canvas-keyboard-response","52","272638","0.0-12.0-0.8","2d_cat_multi_stim_exp1","2022-4-26","15:21:53","25","75","3","9","10","40","30","120","59","18","[""Black or African-American""]","No","Female","2198374","null","null","","","","fixation","","","","","","","","","","","","","","","","","","","","","","","","","",""
"","","","","","canvas-keyboard-response","53","273149","0.0-12.0-1.8","2d_cat_multi_stim_exp1","2022-4-26","15:21:53","25","75","3","9","10","40","30","120","59","18","[""Black or African-American""]","No","Female","2198374","null","null","","","","clear_screen","","","","","","","","","","","","","","","","","","","","","","","","","",""
"","","","","","canvas-keyboard-response","54","274192","0.0-12.0-2.8","2d_cat_multi_stim_exp1","2022-4-26","15:21:53","25","75","3","9","10","40","30","120","59","18","[""Black or African-American""]","No","Female","2198374","1034","u","learn","","","learn_trial","25","75","in","1","1","","","","","","","","","","","","","","","","","","","","",""
"","","","","","canvas-keyboard-response","55","274701","0.0-12.0-3.8","2d_cat_multi_stim_exp1","2022-4-26","15:21:53","25","75","3","9","10","40","30","120","59","18","[""Black or African-American""]","No","Female","2198374","null","null","learn_feedback","","","learn_feedback","25","75","in","","","","","","","","","","","","","","","","","","","","","","",""
"","","","","","canvas-keyboard-response","56","274761","0.0-12.0-4.8","2d_cat_multi_stim_exp1","2022-4-26","15:21:53","25","75","3","9","10","40","30","120","59","18","[""Black or African-American""]","No","Female","2198374","null","null","","","","clear_screen","","","","","","","","","","","","","","","","","","","","","","","","","",""
"","","","","","canvas-keyboard-response","57","275269","0.0-12.0-0.9","2d_cat_multi_stim_exp1","2022-4-26","15:21:53","25","75","3","9","10","40","30","120","59","18","[""Black or African-American""]","No","Female","2198374","null","null","","","","fixation","","","","","","","","","","","","","","","","","","","","","","","","","",""
"","","","","","canvas-keyboard-response","58","275780","0.0-12.0-1.9","2d_cat_multi_stim_exp1","2022-4-26","15:21:53","25","75","3","9","10","40","30","120","59","18","[""Black or African-American""]","No","Female","2198374","null","null","","","","clear_screen","","","","","","","","","","","","","","","","","","","","","","","","","",""
"","","","","","canvas-keyboard-response","59","276400","0.0-12.0-2.9","2d_cat_multi_stim_exp1","2022-4-26","15:21:53","25","75","3","9","10","40","30","120","59","18","[""Black or African-American""]","No","Female","2198374","607","u","learn","","","learn_trial","25","75","in","1","1","","","","","","","","","","","","","","","","","","","","",""
"","","","","","canvas-keyboard-response","60","276913","0.0-12.0-3.9","2d_cat_multi_stim_exp1","2022-4-26","15:21:53","25","75","3","9","10","40","30","120","59","18","[""Black or African-American""]","No","Female","2198374","null","null","learn_feedback","","","learn_feedback","25","75","in","","","","","","","","","","","","","","","","","","","","","","",""
"","","","","","canvas-keyboard-response","61","276973","0.0-12.0-4.9","2d_cat_multi_stim_exp1","2022-4-26","15:21:53","25","75","3","9","10","40","30","120","59","18","[""Black or African-American""]","No","Female","2198374","null","null","","","","clear_screen","","","","","","","","","","","","","","","","","","","","","","","","","",""
"","","","","","canvas-keyboard-response","62","277482","0.0-12.0-0.10","2d_cat_multi_stim_exp1","2022-4-26","15:21:53","25","75","3","9","10","40","30","120","59","18","[""Black or African-American""]","No","Female","2198374","null","null","","","","fixation","","","","","","","","","","","","","","","","","","","","","","","","","",""
"","","","","","canvas-keyboard-response","63","277997","0.0-12.0-1.10","2d_cat_multi_stim_exp1","2022-4-26","15:21:53","25","75","3","9","10","40","30","120","59","18","[""Black or African-American""]","No","Female","2198374","null","null","","","","clear_screen","","","","","","","","","","","","","","","","","","","","","","","","","",""
"","","","","","canvas-keyboard-response","64","279081","0.0-12.0-2.10","2d_cat_multi_stim_exp1","2022-4-26","15:21:53","25","75","3","9","10","40","30","120","59","18","[""Black or African-American""]","No","Female","2198374","1070","u","learn","","","learn_trial","25","75","in","1","1","","","","","","","","","","","","","","","","","","","","",""
"","","","","","canvas-keyboard-response","65","279594","0.0-12.0-3.10","2d_cat_multi_stim_exp1","2022-4-26","15:21:53","25","75","3","9","10","40","30","120","59","18","[""Black or African-American""]","No","Female","2198374","null","null","learn_feedback","","","learn_feedback","25","75","in","","","","","","","","","","","","","","","","","","","","","","",""
"","","","","","canvas-keyboard-response","66","279657","0.0-12.0-4.10","2d_cat_multi_stim_exp1","2022-4-26","15:21:53","25","75","3","9","10","40","30","120","59","18","[""Black or African-American""]","No","Female","2198374","null","null","","","","clear_screen","","","","","","","","","","","","","","","","","","","","","","","","","",""
"","","","","","canvas-keyboard-response","67","280165","0.0-12.0-0.11","2d_cat_multi_stim_exp1","2022-4-26","15:21:53","25","75","3","9","10","40","30","120","59","18","[""Black or African-American""]","No","Female","2198374","null","null","","","","fixation","","","","","","","","","","","","","","","","","","","","","","","","","",""
"","","","","","canvas-keyboard-response","68","280679","0.0-12.0-1.11","2d_cat_multi_stim_exp1","2022-4-26","15:21:53","25","75","3","9","10","40","30","120","59","18","[""Black or African-American""]","No","Female","2198374","null","null","","","","clear_screen","","","","","","","","","","","","","","","","","","","","","","","","","",""
"","","","","","canvas-keyboard-response","69","281495","0.0-12.0-2.11","2d_cat_multi_stim_exp1","2022-4-26","15:21:53","25","75","3","9","10","40","30","120","59","18","[""Black or African-American""]","No","Female","2198374","807","i","learn","","","learn_trial","13.3333","40","out","0","1","","","","","","","","","","","","","","","","","","","","",""
"","","","","","canvas-keyboard-response","70","282007","0.0-12.0-3.11","2d_cat_multi_stim_exp1","2022-4-26","15:21:53","25","75","3","9","10","40","30","120","59","18","[""Black or African-American""]","No","Female","2198374","null","null","learn_feedback","","","learn_feedback","13.3333","40","out","","","","","","","","","","","","","","","","","","","","","","",""
"","","","","","canvas-keyboard-response","71","282066","0.0-12.0-4.11","2d_cat_multi_stim_exp1","2022-4-26","15:21:53","25","75","3","9","10","40","30","120","59","18","[""Black or African-American""]","No","Female","2198374","null","null","","","","clear_screen","","","","","","","","","","","","","","","","","","","","","","","","","",""
"","","","","","canvas-keyboard-response","72","282577","0.0-12.0-0.12","2d_cat_multi_stim_exp1","2022-4-26","15:21:53","25","75","3","9","10","40","30","120","59","18","[""Black or African-American""]","No","Female","2198374","null","null","","","","fixation","","","","","","","","","","","","","","","","","","","","","","","","","",""
"","","","","","canvas-keyboard-response","73","283091","0.0-12.0-1.12","2d_cat_multi_stim_exp1","2022-4-26","15:21:53","25","75","3","9","10","40","30","120","59","18","[""Black or African-American""]","No","Female","2198374","null","null","","","","clear_screen","","","","","","","","","","","","","","","","","","","","","","","","","",""
"","","","","","canvas-keyboard-response","74","283776","0.0-12.0-2.12","2d_cat_multi_stim_exp1","2022-4-26","15:21:53","25","75","3","9","10","40","30","120","59","18","[""Black or African-American""]","No","Female","2198374","672","i","learn","","","learn_trial","10","30","out","0","1","","","","","","","","","","","","","","","","","","","","",""
"","","","","","canvas-keyboard-response","75","284286","0.0-12.0-3.12","2d_cat_multi_stim_exp1","2022-4-26","15:21:53","25","75","3","9","10","40","30","120","59","18","[""Black or African-American""]","No","Female","2198374","null","null","learn_feedback","","","learn_feedback","10","30","out","","","","","","","","","","","","","","","","","","","","","","",""
"","","","","","canvas-keyboard-response","76","284351","0.0-12.0-4.12","2d_cat_multi_stim_exp1","2022-4-26","15:21:53","25","75","3","9","10","40","30","120","59","18","[""Black or African-American""]","No","Female","2198374","null","null","","","","clear_screen","","","","","","","","","","","","","","","","","","","","","","","","","",""
"","","","","","canvas-keyboard-response","77","284862","0.0-12.0-0.13","2d_cat_multi_stim_exp1","2022-4-26","15:21:53","25","75","3","9","10","40","30","120","59","18","[""Black or African-American""]","No","Female","2198374","null","null","","","","fixation","","","","","","","","","","","","","","","","","","","","","","","","","",""
"","","","","","canvas-keyboard-response","78","285369","0.0-12.0-1.13","2d_cat_multi_stim_exp1","2022-4-26","15:21:53","25","75","3","9","10","40","30","120","59","18","[""Black or African-American""]","No","Female","2198374","null","null","","","","clear_screen","","","","","","","","","","","","","","","","","","","","","","","","","",""
"","","","","","canvas-keyboard-response","79","286736","0.0-12.0-2.13","2d_cat_multi_stim_exp1","2022-4-26","15:21:53","25","75","3","9","10","40","30","120","59","18","[""Black or African-American""]","No","Female","2198374","1357","u","learn","","","learn_trial","25","75","in","1","1","","","","","","","","","","","","","","","","","","","","",""
"","","","","","canvas-keyboard-response","80","287246","0.0-12.0-3.13","2d_cat_multi_stim_exp1","2022-4-26","15:21:53","25","75","3","9","10","40","30","120","59","18","[""Black or African-American""]","No","Female","2198374","null","null","learn_feedback","","","learn_feedback","25","75","in","","","","","","","","","","","","","","","","","","","","","","",""
"","","","","","canvas-keyboard-response","81","287307","0.0-12.0-4.13","2d_cat_multi_stim_exp1","2022-4-26","15:21:53","25","75","3","9","10","40","30","120","59","18","[""Black or African-American""]","No","Female","2198374","null","null","","","","clear_screen","","","","","","","","","","","","","","","","","","","","","","","","","",""
"","","","","","canvas-keyboard-response","82","287819","0.0-12.0-0.14","2d_cat_multi_stim_exp1","2022-4-26","15:21:53","25","75","3","9","10","40","30","120","59","18","[""Black or African-American""]","No","Female","2198374","null","null","","","","fixation","","","","","","","","","","","","","","","","","","","","","","","","","",""
"","","","","","canvas-keyboard-response","83","288328","0.0-12.0-1.14","2d_cat_multi_stim_exp1","2022-4-26","15:21:53","25","75","3","9","10","40","30","120","59","18","[""Black or African-American""]","No","Female","2198374","null","null","","","","clear_screen","","","","","","","","","","","","","","","","","","","","","","","","","",""
"","","","","","canvas-keyboard-response","84","289208","0.0-12.0-2.14","2d_cat_multi_stim_exp1","2022-4-26","15:21:53","25","75","3","9","10","40","30","120","59","18","[""Black or African-American""]","No","Female","2198374","872","u","learn","","","learn_trial","29.2426","87.7279","in","1","1","","","","","","","","","","","","","","","","","","","","",""
"","","","","","canvas-keyboard-response","85","289719","0.0-12.0-3.14","2d_cat_multi_stim_exp1","2022-4-26","15:21:53","25","75","3","9","10","40","30","120","59","18","[""Black or African-American""]","No","Female","2198374","null","null","learn_feedback","","","learn_feedback","29.2426","87.7279","in","","","","","","","","","","","","","","","","","","","","","","",""
"","","","","","canvas-keyboard-response","86","289780","0.0-12.0-4.14","2d_cat_multi_stim_exp1","2022-4-26","15:21:53","25","75","3","9","10","40","30","120","59","18","[""Black or African-American""]","No","Female","2198374","null","null","","","","clear_screen","","","","","","","","","","","","","","","","","","","","","","","","","",""
"","","","","","canvas-keyboard-response","87","290288","0.0-12.0-0.15","2d_cat_multi_stim_exp1","2022-4-26","15:21:53","25","75","3","9","10","40","30","120","59","18","[""Black or African-American""]","No","Female","2198374","null","null","","","","fixation","","","","","","","","","","","","","","","","","","","","","","","","","",""
"","","","","","canvas-keyboard-response","88","290801","0.0-12.0-1.15","2d_cat_multi_stim_exp1","2022-4-26","15:21:53","25","75","3","9","10","40","30","120","59","18","[""Black or African-American""]","No","Female","2198374","null","null","","","","clear_screen","","","","","","","","","","","","","","","","","","","","","","","","","",""
"","","","","","canvas-keyboard-response","89","291391","0.0-12.0-2.15","2d_cat_multi_stim_exp1","2022-4-26","15:21:53","25","75","3","9","10","40","30","120","59","18","[""Black or African-American""]","No","Female","2198374","579","u","learn","","","learn_trial","25.9271","83.5595","in","1","1","","","","","","","","","","","","","","","","","","","","",""
"","","","","","canvas-keyboard-response","90","291900","0.0-12.0-3.15","2d_cat_multi_stim_exp1","2022-4-26","15:21:53","25","75","3","9","10","40","30","120","59","18","[""Black or African-American""]","No","Female","2198374","null","null","learn_feedback","","","learn_feedback","25.9271","83.5595","in","","","","","","","","","","","","","","","","","","","","","","",""
"","","","","","canvas-keyboard-response","91","291962","0.0-12.0-4.15","2d_cat_multi_stim_exp1","2022-4-26","15:21:53","25","75","3","9","10","40","30","120","59","18","[""Black or African-American""]","No","Female","2198374","null","null","","","","clear_screen","","","","","","","","","","","","","","","","","","","","","","","","","",""
"","","","","","canvas-keyboard-response","92","292472","0.0-12.0-0.16","2d_cat_multi_stim_exp1","2022-4-26","15:21:53","25","75","3","9","10","40","30","120","59","18","[""Black or African-American""]","No","Female","2198374","null","null","","","","fixation","","","","","","","","","","","","","","","","","","","","","","","","","",""
"","","","","","canvas-keyboard-response","93","292981","0.0-12.0-1.16","2d_cat_multi_stim_exp1","2022-4-26","15:21:53","25","75","3","9","10","40","30","120","59","18","[""Black or African-American""]","No","Female","2198374","null","null","","","","clear_screen","","","","","","","","","","","","","","","","","","","","","","","","","",""
"","","","","","canvas-keyboard-response","94","295000","0.0-12.0-2.16","2d_cat_multi_stim_exp1","2022-4-26","15:21:53","25","75","3","9","10","40","30","120","59","18","[""Black or African-American""]","No","Female","2198374","2006","u","learn","","","learn_trial","13.3333","50","out","1","0","","","","","","","","","","","","","","","","","","","","",""
"","","","","","canvas-keyboard-response","95","296014","0.0-12.0-3.16","2d_cat_multi_stim_exp1","2022-4-26","15:21:53","25","75","3","9","10","40","30","120","59","18","[""Black or African-American""]","No","Female","2198374","null","null","learn_feedback","","","learn_feedback","13.3333","50","out","","","","","","","","","","","","","","","","","","","","","","",""
"","","","","","canvas-keyboard-response","96","296072","0.0-12.0-4.16","2d_cat_multi_stim_exp1","2022-4-26","15:21:53","25","75","3","9","10","40","30","120","59","18","[""Black or African-American""]","No","Female","2198374","null","null","","","","clear_screen","","","","","","","","","","","","","","","","","","","","","","","","","",""
"","","","","","canvas-keyboard-response","97","296583","0.0-12.0-0.17","2d_cat_multi_stim_exp1","2022-4-26","15:21:53","25","75","3","9","10","40","30","120","59","18","[""Black or African-American""]","No","Female","2198374","null","null","","","","fixation","","","","","","","","","","","","","","","","","","","","","","","","","",""
"","","","","","canvas-keyboard-response","98","297096","0.0-12.0-1.17","2d_cat_multi_stim_exp1","2022-4-26","15:21:53","25","75","3","9","10","40","30","120","59","18","[""Black or African-American""]","No","Female","2198374","null","null","","","","clear_screen","","","","","","","","","","","","","","","","","","","","","","","","","",""
"","","","","","canvas-keyboard-response","99","297855","0.0-12.0-2.17","2d_cat_multi_stim_exp1","2022-4-26","15:21:53","25","75","3","9","10","40","30","120","59","18","[""Black or African-American""]","No","Female","2198374","749","u","learn","","","learn_trial","25","75","in","1","1","","","","","","","","","","","","","","","","","","","","",""
"","","","","","canvas-keyboard-response","100","298367","0.0-12.0-3.17","2d_cat_multi_stim_exp1","2022-4-26","15:21:53","25","75","3","9","10","40","30","120","59","18","[""Black or African-American""]","No","Female","2198374","null","null","learn_feedback","","","learn_feedback","25","75","in","","","","","","","","","","","","","","","","","","","","","","",""
"","","","","","canvas-keyboard-response","101","298425","0.0-12.0-4.17","2d_cat_multi_stim_exp1","2022-4-26","15:21:53","25","75","3","9","10","40","30","120","59","18","[""Black or African-American""]","No","Female","2198374","null","null","","","","clear_screen","","","","","","","","","","","","","","","","","","","","","","","","","",""
"","","","","","canvas-keyboard-response","102","298934","0.0-12.0-0.18","2d_cat_multi_stim_exp1","2022-4-26","15:21:53","25","75","3","9","10","40","30","120","59","18","[""Black or African-American""]","No","Female","2198374","null","null","","","","fixation","","","","","","","","","","","","","","","","","","","","","","","","","",""
"","","","","","canvas-keyboard-response","103","299442","0.0-12.0-1.18","2d_cat_multi_stim_exp1","2022-4-26","15:21:53","25","75","3","9","10","40","30","120","59","18","[""Black or African-American""]","No","Female","2198374","null","null","","","","clear_screen","","","","","","","","","","","","","","","","","","","","","","","","","",""
"","","","","","canvas-keyboard-response","104","300312","0.0-12.0-2.18","2d_cat_multi_stim_exp1","2022-4-26","15:21:53","25","75","3","9","10","40","30","120","59","18","[""Black or African-American""]","No","Female","2198374","861","u","learn","","","learn_trial","19","75","in","1","1","","","","","","","","","","","","","","","","","","","","",""
"","","","","","canvas-keyboard-response","105","300822","0.0-12.0-3.18","2d_cat_multi_stim_exp1","2022-4-26","15:21:53","25","75","3","9","10","40","30","120","59","18","[""Black or African-American""]","No","Female","2198374","null","null","learn_feedback","","","learn_feedback","19","75","in","","","","","","","","","","","","","","","","","","","","","","",""
"","","","","","canvas-keyboard-response","106","300881","0.0-12.0-4.18","2d_cat_multi_stim_exp1","2022-4-26","15:21:53","25","75","3","9","10","40","30","120","59","18","[""Black or African-American""]","No","Female","2198374","null","null","","","","clear_screen","","","","","","","","","","","","","","","","","","","","","","","","","",""
"","","","","","canvas-keyboard-response","107","301390","0.0-12.0-0.19","2d_cat_multi_stim_exp1","2022-4-26","15:21:53","25","75","3","9","10","40","30","120","59","18","[""Black or African-American""]","No","Female","2198374","null","null","","","","fixation","","","","","","","","","","","","","","","","","","","","","","","","","",""
"","","","","","canvas-keyboard-response","108","301900","0.0-12.0-1.19","2d_cat_multi_stim_exp1","2022-4-26","15:21:53","25","75","3","9","10","40","30","120","59","18","[""Black or African-American""]","No","Female","2198374","null","null","","","","clear_screen","","","","","","","","","","","","","","","","","","","","","","","","","",""
"","","","","","canvas-keyboard-response","109","303616","0.0-12.0-2.19","2d_cat_multi_stim_exp1","2022-4-26","15:21:53","25","75","3","9","10","40","30","120","59","18","[""Black or African-American""]","No","Female","2198374","1704","i","learn","","","learn_trial","10","80","out","0","1","","","","","","","","","","","","","","","","","","","","",""
"","","","","","canvas-keyboard-response","110","304126","0.0-12.0-3.19","2d_cat_multi_stim_exp1","2022-4-26","15:21:53","25","75","3","9","10","40","30","120","59","18","[""Black or African-American""]","No","Female","2198374","null","null","learn_feedback","","","learn_feedback","10","80","out","","","","","","","","","","","","","","","","","","","","","","",""
"","","","","","canvas-keyboard-response","111","304186","0.0-12.0-4.19","2d_cat_multi_stim_exp1","2022-4-26","15:21:53","25","75","3","9","10","40","30","120","59","18","[""Black or African-American""]","No","Female","2198374","null","null","","","","clear_screen","","","","","","","","","","","","","","","","","","","","","","","","","",""
"","","","","","canvas-keyboard-response","112","304697","0.0-12.0-0.20","2d_cat_multi_stim_exp1","2022-4-26","15:21:53","25","75","3","9","10","40","30","120","59","18","[""Black or African-American""]","No","Female","2198374","null","null","","","","fixation","","","","","","","","","","","","","","","","","","","","","","","","","",""
"","","","","","canvas-keyboard-response","113","305207","0.0-12.0-1.20","2d_cat_multi_stim_exp1","2022-4-26","15:21:53","25","75","3","9","10","40","30","120","59","18","[""Black or African-American""]","No","Female","2198374","null","null","","","","clear_screen","","","","","","","","","","","","","","","","","","","","","","","","","",""
"","","","","","canvas-keyboard-response","114","306208","0.0-12.0-2.20","2d_cat_multi_stim_exp1","2022-4-26","15:21:53","25","75","3","9","10","40","30","120","59","18","[""Black or African-American""]","No","Female","2198374","991","i","learn","","","learn_trial","10","120","out","0","1","","","","","","","","","","","","","","","","","","","","",""
"","","","","","canvas-keyboard-response","115","306716","0.0-12.0-3.20","2d_cat_multi_stim_exp1","2022-4-26","15:21:53","25","75","3","9","10","40","30","120","59","18","[""Black or African-American""]","No","Female","2198374","null","null","learn_feedback","","","learn_feedback","10","120","out","","","","","","","","","","","","","","","","","","","","","","",""
"","","","","","canvas-keyboard-response","116","306775","0.0-12.0-4.20","2d_cat_multi_stim_exp1","2022-4-26","15:21:53","25","75","3","9","10","40","30","120","59","18","[""Black or African-American""]","No","Female","2198374","null","null","","","","clear_screen","","","","","","","","","","","","","","","","","","","","","","","","","",""
"","","","","","canvas-keyboard-response","117","307286","0.0-12.0-0.21","2d_cat_multi_stim_exp1","2022-4-26","15:21:53","25","75","3","9","10","40","30","120","59","18","[""Black or African-American""]","No","Female","2198374","null","null","","","","fixation","","","","","","","","","","","","","","","","","","","","","","","","","",""
"","","","","","canvas-keyboard-response","118","307796","0.0-12.0-1.21","2d_cat_multi_stim_exp1","2022-4-26","15:21:53","25","75","3","9","10","40","30","120","59","18","[""Black or African-American""]","No","Female","2198374","null","null","","","","clear_screen","","","","","","","","","","","","","","","","","","","","","","","","","",""
"","","","","","canvas-keyboard-response","119","310240","0.0-12.0-2.21","2d_cat_multi_stim_exp1","2022-4-26","15:21:53","25","75","3","9","10","40","30","120","59","18","[""Black or African-American""]","No","Female","2198374","2433","u","learn","","","learn_trial","23.3333","70","out","1","0","","","","","","","","","","","","","","","","","","","","",""
"","","","","","canvas-keyboard-response","120","311251","0.0-12.0-3.21","2d_cat_multi_stim_exp1","2022-4-26","15:21:53","25","75","3","9","10","40","30","120","59","18","[""Black or African-American""]","No","Female","2198374","null","null","learn_feedback","","","learn_feedback","23.3333","70","out","","","","","","","","","","","","","","","","","","","","","","",""
"","","","","","canvas-keyboard-response","121","311311","0.0-12.0-4.21","2d_cat_multi_stim_exp1","2022-4-26","15:21:53","25","75","3","9","10","40","30","120","59","18","[""Black or African-American""]","No","Female","2198374","null","null","","","","clear_screen","","","","","","","","","","","","","","","","","","","","","","","","","",""
"","","","","","canvas-keyboard-response","122","311822","0.0-12.0-0.22","2d_cat_multi_stim_exp1","2022-4-26","15:21:53","25","75","3","9","10","40","30","120","59","18","[""Black or African-American""]","No","Female","2198374","null","null","","","","fixation","","","","","","","","","","","","","","","","","","","","","","","","","",""
"","","","","","canvas-keyboard-response","123","312336","0.0-12.0-1.22","2d_cat_multi_stim_exp1","2022-4-26","15:21:53","25","75","3","9","10","40","30","120","59","18","[""Black or African-American""]","No","Female","2198374","null","null","","","","clear_screen","","","","","","","","","","","","","","","","","","","","","","","","","",""
"","","","","","canvas-keyboard-response","124","313767","0.0-12.0-2.22","2d_cat_multi_stim_exp1","2022-4-26","15:21:53","25","75","3","9","10","40","30","120","59","18","[""Black or African-American""]","No","Female","2198374","1418","i","learn","","","learn_trial","33.3333","80","out","0","1","","","","","","","","","","","","","","","","","","","","",""
"","","","","","canvas-keyboard-response","125","314278","0.0-12.0-3.22","2d_cat_multi_stim_exp1","2022-4-26","15:21:53","25","75","3","9","10","40","30","120","59","18","[""Black or African-American""]","No","Female","2198374","null","null","learn_feedback","","","learn_feedback","33.3333","80","out","","","","","","","","","","","","","","","","","","","","","","",""
"","","","","","canvas-keyboard-response","126","314340","0.0-12.0-4.22","2d_cat_multi_stim_exp1","2022-4-26","15:21:53","25","75","3","9","10","40","30","120","59","18","[""Black or African-American""]","No","Female","2198374","null","null","","","","clear_screen","","","","","","","","","","","","","","","","","","","","","","","","","",""
"","","","","","canvas-keyboard-response","127","314849","0.0-12.0-0.23","2d_cat_multi_stim_exp1","2022-4-26","15:21:53","25","75","3","9","10","40","30","120","59","18","[""Black or African-American""]","No","Female","2198374","null","null","","","","fixation","","","","","","","","","","","","","","","","","","","","","","","","","",""
"","","","","","canvas-keyboard-response","128","315364","0.0-12.0-1.23","2d_cat_multi_stim_exp1","2022-4-26","15:21:53","25","75","3","9","10","40","30","120","59","18","[""Black or African-American""]","No","Female","2198374","null","null","","","","clear_screen","","","","","","","","","","","","","","","","","","","","","","","","","",""
"","","","","","canvas-keyboard-response","129","316095","0.0-12.0-2.23","2d_cat_multi_stim_exp1","2022-4-26","15:21:53","25","75","3","9","10","40","30","120","59","18","[""Black or African-American""]","No","Female","2198374","720","i","learn","","","learn_trial","23.3333","30","out","0","1","","","","","","","","","","","","","","","","","","","","",""
"","","","","","canvas-keyboard-response","130","316605","0.0-12.0-3.23","2d_cat_multi_stim_exp1","2022-4-26","15:21:53","25","75","3","9","10","40","30","120","59","18","[""Black or African-American""]","No","Female","2198374","null","null","learn_feedback","","","learn_feedback","23.3333","30","out","","","","","","","","","","","","","","","","","","","","","","",""
"","","","","","canvas-keyboard-response","131","316668","0.0-12.0-4.23","2d_cat_multi_stim_exp1","2022-4-26","15:21:53","25","75","3","9","10","40","30","120","59","18","[""Black or African-American""]","No","Female","2198374","null","null","","","","clear_screen","","","","","","","","","","","","","","","","","","","","","","","","","",""
"","","","","","canvas-keyboard-response","132","317177","0.0-12.0-0.24","2d_cat_multi_stim_exp1","2022-4-26","15:21:53","25","75","3","9","10","40","30","120","59","18","[""Black or African-American""]","No","Female","2198374","null","null","","","","fixation","","","","","","","","","","","","","","","","","","","","","","","","","",""
"","","","","","canvas-keyboard-response","133","317692","0.0-12.0-1.24","2d_cat_multi_stim_exp1","2022-4-26","15:21:53","25","75","3","9","10","40","30","120","59","18","[""Black or African-American""]","No","Female","2198374","null","null","","","","clear_screen","","","","","","","","","","","","","","","","","","","","","","","","","",""
"","","","","","canvas-keyboard-response","134","321064","0.0-12.0-2.24","2d_cat_multi_stim_exp1","2022-4-26","15:21:53","25","75","3","9","10","40","30","120","59","18","[""Black or African-American""]","No","Female","2198374","3362","i","learn","","","learn_trial","13.3333","70","out","0","1","","","","","","","","","","","","","","","","","","","","",""
"","","","","","canvas-keyboard-response","135","321573","0.0-12.0-3.24","2d_cat_multi_stim_exp1","2022-4-26","15:21:53","25","75","3","9","10","40","30","120","59","18","[""Black or African-American""]","No","Female","2198374","null","null","learn_feedback","","","learn_feedback","13.3333","70","out","","","","","","","","","","","","","","","","","","","","","","",""
"","","","","","canvas-keyboard-response","136","321636","0.0-12.0-4.24","2d_cat_multi_stim_exp1","2022-4-26","15:21:53","25","75","3","9","10","40","30","120","59","18","[""Black or African-American""]","No","Female","2198374","null","null","","","","clear_screen","","","","","","","","","","","","","","","","","","","","","","","","","",""
"","","","","","canvas-keyboard-response","137","322145","0.0-12.0-0.25","2d_cat_multi_stim_exp1","2022-4-26","15:21:53","25","75","3","9","10","40","30","120","59","18","[""Black or African-American""]","No","Female","2198374","null","null","","","","fixation","","","","","","","","","","","","","","","","","","","","","","","","","",""
"","","","","","canvas-keyboard-response","138","322655","0.0-12.0-1.25","2d_cat_multi_stim_exp1","2022-4-26","15:21:53","25","75","3","9","10","40","30","120","59","18","[""Black or African-American""]","No","Female","2198374","null","null","","","","clear_screen","","","","","","","","","","","","","","","","","","","","","","","","","",""
"","","","","","canvas-keyboard-response","139","324807","0.0-12.0-2.25","2d_cat_multi_stim_exp1","2022-4-26","15:21:53","25","75","3","9","10","40","30","120","59","18","[""Black or African-American""]","No","Female","2198374","2139","u","learn","","","learn_trial","25","75","in","1","1","","","","","","","","","","","","","","","","","","","","",""
"","","","","","canvas-keyboard-response","140","325316","0.0-12.0-3.25","2d_cat_multi_stim_exp1","2022-4-26","15:21:53","25","75","3","9","10","40","30","120","59","18","[""Black or African-American""]","No","Female","2198374","null","null","learn_feedback","","","learn_feedback","25","75","in","","","","","","","","","","","","","","","","","","","","","","",""
"","","","","","canvas-keyboard-response","141","325379","0.0-12.0-4.25","2d_cat_multi_stim_exp1","2022-4-26","15:21:53","25","75","3","9","10","40","30","120","59","18","[""Black or African-American""]","No","Female","2198374","null","null","","","","clear_screen","","","","","","","","","","","","","","","","","","","","","","","","","",""
"","","","","","canvas-keyboard-response","142","325888","0.0-12.0-0.26","2d_cat_multi_stim_exp1","2022-4-26","15:21:53","25","75","3","9","10","40","30","120","59","18","[""Black or African-American""]","No","Female","2198374","null","null","","","","fixation","","","","","","","","","","","","","","","","","","","","","","","","","",""
"","","","","","canvas-keyboard-response","143","326403","0.0-12.0-1.26","2d_cat_multi_stim_exp1","2022-4-26","15:21:53","25","75","3","9","10","40","30","120","59","18","[""Black or African-American""]","No","Female","2198374","null","null","","","","clear_screen","","","","","","","","","","","","","","","","","","","","","","","","","",""
"","","","","","canvas-keyboard-response","144","327080","0.0-12.0-2.26","2d_cat_multi_stim_exp1","2022-4-26","15:21:53","25","75","3","9","10","40","30","120","59","18","[""Black or African-American""]","No","Female","2198374","668","u","learn","","","learn_trial","25","75","in","1","1","","","","","","","","","","","","","","","","","","","","",""
"","","","","","canvas-keyboard-response","145","327591","0.0-12.0-3.26","2d_cat_multi_stim_exp1","2022-4-26","15:21:53","25","75","3","9","10","40","30","120","59","18","[""Black or African-American""]","No","Female","2198374","null","null","learn_feedback","","","learn_feedback","25","75","in","","","","","","","","","","","","","","","","","","","","","","",""
"","","","","","canvas-keyboard-response","146","327653","0.0-12.0-4.26","2d_cat_multi_stim_exp1","2022-4-26","15:21:53","25","75","3","9","10","40","30","120","59","18","[""Black or African-American""]","No","Female","2198374","null","null","","","","clear_screen","","","","","","","","","","","","","","","","","","","","","","","","","",""
"","","","","","canvas-keyboard-response","147","328163","0.0-12.0-0.27","2d_cat_multi_stim_exp1","2022-4-26","15:21:53","25","75","3","9","10","40","30","120","59","18","[""Black or African-American""]","No","Female","2198374","null","null","","","","fixation","","","","","","","","","","","","","","","","","","","","","","","","","",""
"","","","","","canvas-keyboard-response","148","328675","0.0-12.0-1.27","2d_cat_multi_stim_exp1","2022-4-26","15:21:53","25","75","3","9","10","40","30","120","59","18","[""Black or African-American""]","No","Female","2198374","null","null","","","","clear_screen","","","","","","","","","","","","","","","","","","","","","","","","","",""
"","","","","","canvas-keyboard-response","149","329360","0.0-12.0-2.27","2d_cat_multi_stim_exp1","2022-4-26","15:21:53","25","75","3","9","10","40","30","120","59","18","[""Black or African-American""]","No","Female","2198374","677","u","learn","","","learn_trial","25","75","in","1","1","","","","","","","","","","","","","","","","","","","","",""
"","","","","","canvas-keyboard-response","150","329874","0.0-12.0-3.27","2d_cat_multi_stim_exp1","2022-4-26","15:21:53","25","75","3","9","10","40","30","120","59","18","[""Black or African-American""]","No","Female","2198374","null","null","learn_feedback","","","learn_feedback","25","75","in","","","","","","","","","","","","","","","","","","","","","","",""
"","","","","","canvas-keyboard-response","151","329933","0.0-12.0-4.27","2d_cat_multi_stim_exp1","2022-4-26","15:21:53","25","75","3","9","10","40","30","120","59","18","[""Black or African-American""]","No","Female","2198374","null","null","","","","clear_screen","","","","","","","","","","","","","","","","","","","","","","","","","",""
"","","","","","canvas-keyboard-response","152","330441","0.0-12.0-0.28","2d_cat_multi_stim_exp1","2022-4-26","15:21:53","25","75","3","9","10","40","30","120","59","18","[""Black or African-American""]","No","Female","2198374","null","null","","","","fixation","","","","","","","","","","","","","","","","","","","","","","","","","",""
"","","","","","canvas-keyboard-response","153","330955","0.0-12.0-1.28","2d_cat_multi_stim_exp1","2022-4-26","15:21:53","25","75","3","9","10","40","30","120","59","18","[""Black or African-American""]","No","Female","2198374","null","null","","","","clear_screen","","","","","","","","","","","","","","","","","","","","","","","","","",""
"","","","","","canvas-keyboard-response","154","332583","0.0-12.0-2.28","2d_cat_multi_stim_exp1","2022-4-26","15:21:53","25","75","3","9","10","40","30","120","59","18","[""Black or African-American""]","No","Female","2198374","1622","u","learn","","","learn_trial","20","100","out","1","0","","","","","","","","","","","","","","","","","","","","",""
"","","","","","canvas-keyboard-response","155","333595","0.0-12.0-3.28","2d_cat_multi_stim_exp1","2022-4-26","15:21:53","25","75","3","9","10","40","30","120","59","18","[""Black or African-American""]","No","Female","2198374","null","null","learn_feedback","","","learn_feedback","20","100","out","","","","","","","","","","","","","","","","","","","","","","",""
"","","","","","canvas-keyboard-response","156","333655","0.0-12.0-4.28","2d_cat_multi_stim_exp1","2022-4-26","15:21:53","25","75","3","9","10","40","30","120","59","18","[""Black or African-American""]","No","Female","2198374","null","null","","","","clear_screen","","","","","","","","","","","","","","","","","","","","","","","","","",""
"","","","","","canvas-keyboard-response","157","334164","0.0-12.0-0.29","2d_cat_multi_stim_exp1","2022-4-26","15:21:53","25","75","3","9","10","40","30","120","59","18","[""Black or African-American""]","No","Female","2198374","null","null","","","","fixation","","","","","","","","","","","","","","","","","","","","","","","","","",""
"","","","","","canvas-keyboard-response","158","334676","0.0-12.0-1.29","2d_cat_multi_stim_exp1","2022-4-26","15:21:53","25","75","3","9","10","40","30","120","59","18","[""Black or African-American""]","No","Female","2198374","null","null","","","","clear_screen","","","","","","","","","","","","","","","","","","","","","","","","","",""
"","","","","","canvas-keyboard-response","159","336696","0.0-12.0-2.29","2d_cat_multi_stim_exp1","2022-4-26","15:21:53","25","75","3","9","10","40","30","120","59","18","[""Black or African-American""]","No","Female","2198374","2009","u","learn","","","learn_trial","25","75","in","1","1","","","","","","","","","","","","","","","","","","","","",""
"","","","","","canvas-keyboard-response","160","337207","0.0-12.0-3.29","2d_cat_multi_stim_exp1","2022-4-26","15:21:53","25","75","3","9","10","40","30","120","59","18","[""Black or African-American""]","No","Female","2198374","null","null","learn_feedback","","","learn_feedback","25","75","in","","","","","","","","","","","","","","","","","","","","","","",""
"","","","","","canvas-keyboard-response","161","337265","0.0-12.0-4.29","2d_cat_multi_stim_exp1","2022-4-26","15:21:53","25","75","3","9","10","40","30","120","59","18","[""Black or African-American""]","No","Female","2198374","null","null","","","","clear_screen","","","","","","","","","","","","","","","","","","","","","","","","","",""
"","","","","","canvas-keyboard-response","162","337774","0.0-12.0-0.30","2d_cat_multi_stim_exp1","2022-4-26","15:21:53","25","75","3","9","10","40","30","120","59","18","[""Black or African-American""]","No","Female","2198374","null","null","","","","fixation","","","","","","","","","","","","","","","","","","","","","","","","","",""
"","","","","","canvas-keyboard-response","163","338287","0.0-12.0-1.30","2d_cat_multi_stim_exp1","2022-4-26","15:21:53","25","75","3","9","10","40","30","120","59","18","[""Black or African-American""]","No","Female","2198374","null","null","","","","clear_screen","","","","","","","","","","","","","","","","","","","","","","","","","",""
"","","","","","canvas-keyboard-response","164","339009","0.0-12.0-2.30","2d_cat_multi_stim_exp1","2022-4-26","15:21:53","25","75","3","9","10","40","30","120","59","18","[""Black or African-American""]","No","Female","2198374","710","u","learn","","","learn_trial","16.6667","70","out","1","0","","","","","","","","","","","","","","","","","","","","",""
"","","","","","canvas-keyboard-response","165","340016","0.0-12.0-3.30","2d_cat_multi_stim_exp1","2022-4-26","15:21:53","25","75","3","9","10","40","30","120","59","18","[""Black or African-American""]","No","Female","2198374","null","null","learn_feedback","","","learn_feedback","16.6667","70","out","","","","","","","","","","","","","","","","","","","","","","",""
"","","","","","canvas-keyboard-response","166","340076","0.0-12.0-4.30","2d_cat_multi_stim_exp1","2022-4-26","15:21:53","25","75","3","9","10","40","30","120","59","18","[""Black or African-American""]","No","Female","2198374","null","null","","","","clear_screen","","","","","","","","","","","","","","","","","","","","","","","","","",""
"","","","","","canvas-keyboard-response","167","340586","0.0-12.0-0.31","2d_cat_multi_stim_exp1","2022-4-26","15:21:53","25","75","3","9","10","40","30","120","59","18","[""Black or African-American""]","No","Female","2198374","null","null","","","","fixation","","","","","","","","","","","","","","","","","","","","","","","","","",""
"","","","","","canvas-keyboard-response","168","341094","0.0-12.0-1.31","2d_cat_multi_stim_exp1","2022-4-26","15:21:53","25","75","3","9","10","40","30","120","59","18","[""Black or African-American""]","No","Female","2198374","null","null","","","","clear_screen","","","","","","","","","","","","","","","","","","","","","","","","","",""
"","","","","","canvas-keyboard-response","169","341896","0.0-12.0-2.31","2d_cat_multi_stim_exp1","2022-4-26","15:21:53","25","75","3","9","10","40","30","120","59","18","[""Black or African-American""]","No","Female","2198374","791","i","learn","","","learn_trial","30","30","out","0","1","","","","","","","","","","","","","","","","","","","","",""
"","","","","","canvas-keyboard-response","170","342408","0.0-12.0-3.31","2d_cat_multi_stim_exp1","2022-4-26","15:21:53","25","75","3","9","10","40","30","120","59","18","[""Black or African-American""]","No","Female","2198374","null","null","learn_feedback","","","learn_feedback","30","30","out","","","","","","","","","","","","","","","","","","","","","","",""
"","","","","","canvas-keyboard-response","171","342468","0.0-12.0-4.31","2d_cat_multi_stim_exp1","2022-4-26","15:21:53","25","75","3","9","10","40","30","120","59","18","[""Black or African-American""]","No","Female","2198374","null","null","","","","clear_screen","","","","","","","","","","","","","","","","","","","","","","","","","",""
"","","","","","canvas-keyboard-response","172","342980","0.0-12.0-0.32","2d_cat_multi_stim_exp1","2022-4-26","15:21:53","25","75","3","9","10","40","30","120","59","18","[""Black or African-American""]","No","Female","2198374","null","null","","","","fixation","","","","","","","","","","","","","","","","","","","","","","","","","",""
"","","","","","canvas-keyboard-response","173","343496","0.0-12.0-1.32","2d_cat_multi_stim_exp1","2022-4-26","15:21:53","25","75","3","9","10","40","30","120","59","18","[""Black or African-American""]","No","Female","2198374","null","null","","","","clear_screen","","","","","","","","","","","","","","","","","","","","","","","","","",""
"","","","","","canvas-keyboard-response","174","344518","0.0-12.0-2.32","2d_cat_multi_stim_exp1","2022-4-26","15:21:53","25","75","3","9","10","40","30","120","59","18","[""Black or African-American""]","No","Female","2198374","1010","i","learn","","","learn_trial","36.6667","80","out","0","1","","","","","","","","","","","","","","","","","","","","",""
"","","","","","canvas-keyboard-response","175","345025","0.0-12.0-3.32","2d_cat_multi_stim_exp1","2022-4-26","15:21:53","25","75","3","9","10","40","30","120","59","18","[""Black or African-American""]","No","Female","2198374","null","null","learn_feedback","","","learn_feedback","36.6667","80","out","","","","","","","","","","","","","","","","","","","","","","",""
"","","","","","canvas-keyboard-response","176","345084","0.0-12.0-4.32","2d_cat_multi_stim_exp1","2022-4-26","15:21:53","25","75","3","9","10","40","30","120","59","18","[""Black or African-American""]","No","Female","2198374","null","null","","","","clear_screen","","","","","","","","","","","","","","","","","","","","","","","","","",""
"","","","","","canvas-keyboard-response","177","345594","0.0-12.0-0.33","2d_cat_multi_stim_exp1","2022-4-26","15:21:53","25","75","3","9","10","40","30","120","59","18","[""Black or African-American""]","No","Female","2198374","null","null","","","","fixation","","","","","","","","","","","","","","","","","","","","","","","","","",""
"","","","","","canvas-keyboard-response","178","346103","0.0-12.0-1.33","2d_cat_multi_stim_exp1","2022-4-26","15:21:53","25","75","3","9","10","40","30","120","59","18","[""Black or African-American""]","No","Female","2198374","null","null","","","","clear_screen","","","","","","","","","","","","","","","","","","","","","","","","","",""
"","","","","","canvas-keyboard-response","179","347072","0.0-12.0-2.33","2d_cat_multi_stim_exp1","2022-4-26","15:21:53","25","75","3","9","10","40","30","120","59","18","[""Black or African-American""]","No","Female","2198374","958","u","learn","","","learn_trial","13.3333","90","out","1","0","","","","","","","","","","","","","","","","","","","","",""
"","","","","","canvas-keyboard-response","180","348083","0.0-12.0-3.33","2d_cat_multi_stim_exp1","2022-4-26","15:21:53","25","75","3","9","10","40","30","120","59","18","[""Black or African-American""]","No","Female","2198374","null","null","learn_feedback","","","learn_feedback","13.3333","90","out","","","","","","","","","","","","","","","","","","","","","","",""
"","","","","","canvas-keyboard-response","181","348143","0.0-12.0-4.33","2d_cat_multi_stim_exp1","2022-4-26","15:21:53","25","75","3","9","10","40","30","120","59","18","[""Black or African-American""]","No","Female","2198374","null","null","","","","clear_screen","","","","","","","","","","","","","","","","","","","","","","","","","",""
"","","","","","canvas-keyboard-response","182","348654","0.0-12.0-0.34","2d_cat_multi_stim_exp1","2022-4-26","15:21:53","25","75","3","9","10","40","30","120","59","18","[""Black or African-American""]","No","Female","2198374","null","null","","","","fixation","","","","","","","","","","","","","","","","","","","","","","","","","",""
"","","","","","canvas-keyboard-response","183","349165","0.0-12.0-1.34","2d_cat_multi_stim_exp1","2022-4-26","15:21:53","25","75","3","9","10","40","30","120","59","18","[""Black or African-American""]","No","Female","2198374","null","null","","","","clear_screen","","","","","","","","","","","","","","","","","","","","","","","","","",""
"","","","","","canvas-keyboard-response","184","350632","0.0-12.0-2.34","2d_cat_multi_stim_exp1","2022-4-26","15:21:53","25","75","3","9","10","40","30","120","59","18","[""Black or African-American""]","No","Female","2198374","1455","i","learn","","","learn_trial","33.3333","50","out","0","1","","","","","","","","","","","","","","","","","","","","",""
"","","","","","canvas-keyboard-response","185","351143","0.0-12.0-3.34","2d_cat_multi_stim_exp1","2022-4-26","15:21:53","25","75","3","9","10","40","30","120","59","18","[""Black or African-American""]","No","Female","2198374","null","null","learn_feedback","","","learn_feedback","33.3333","50","out","","","","","","","","","","","","","","","","","","","","","","",""
"","","","","","canvas-keyboard-response","186","351202","0.0-12.0-4.34","2d_cat_multi_stim_exp1","2022-4-26","15:21:53","25","75","3","9","10","40","30","120","59","18","[""Black or African-American""]","No","Female","2198374","null","null","","","","clear_screen","","","","","","","","","","","","","","","","","","","","","","","","","",""
"","","","","","canvas-keyboard-response","187","351713","0.0-12.0-0.35","2d_cat_multi_stim_exp1","2022-4-26","15:21:53","25","75","3","9","10","40","30","120","59","18","[""Black or African-American""]","No","Female","2198374","null","null","","","","fixation","","","","","","","","","","","","","","","","","","","","","","","","","",""
"","","","","","canvas-keyboard-response","188","352224","0.0-12.0-1.35","2d_cat_multi_stim_exp1","2022-4-26","15:21:53","25","75","3","9","10","40","30","120","59","18","[""Black or African-American""]","No","Female","2198374","null","null","","","","clear_screen","","","","","","","","","","","","","","","","","","","","","","","","","",""
"","","","","","canvas-keyboard-response","189","352760","0.0-12.0-2.35","2d_cat_multi_stim_exp1","2022-4-26","15:21:53","25","75","3","9","10","40","30","120","59","18","[""Black or African-American""]","No","Female","2198374","526","i","learn","","","learn_trial","40","40","out","0","1","","","","","","","","","","","","","","","","","","","","",""
"","","","","","canvas-keyboard-response","190","353271","0.0-12.0-3.35","2d_cat_multi_stim_exp1","2022-4-26","15:21:53","25","75","3","9","10","40","30","120","59","18","[""Black or African-American""]","No","Female","2198374","null","null","learn_feedback","","","learn_feedback","40","40","out","","","","","","","","","","","","","","","","","","","","","","",""
"","","","","","canvas-keyboard-response","191","353332","0.0-12.0-4.35","2d_cat_multi_stim_exp1","2022-4-26","15:21:53","25","75","3","9","10","40","30","120","59","18","[""Black or African-American""]","No","Female","2198374","null","null","","","","clear_screen","","","","","","","","","","","","","","","","","","","","","","","","","",""
"","","","","","canvas-keyboard-response","192","353843","0.0-12.0-0.36","2d_cat_multi_stim_exp1","2022-4-26","15:21:53","25","75","3","9","10","40","30","120","59","18","[""Black or African-American""]","No","Female","2198374","null","null","","","","fixation","","","","","","","","","","","","","","","","","","","","","","","","","",""
"","","","","","canvas-keyboard-response","193","354357","0.0-12.0-1.36","2d_cat_multi_stim_exp1","2022-4-26","15:21:53","25","75","3","9","10","40","30","120","59","18","[""Black or African-American""]","No","Female","2198374","null","null","","","","clear_screen","","","","","","","","","","","","","","","","","","","","","","","","","",""
"","","","","","canvas-keyboard-response","194","355224","0.0-12.0-2.36","2d_cat_multi_stim_exp1","2022-4-26","15:21:53","25","75","3","9","10","40","30","120","59","18","[""Black or African-American""]","No","Female","2198374","858","u","learn","","","learn_trial","25","75","in","1","1","","","","","","","","","","","","","","","","","","","","",""
"","","","","","canvas-keyboard-response","195","355735","0.0-12.0-3.36","2d_cat_multi_stim_exp1","2022-4-26","15:21:53","25","75","3","9","10","40","30","120","59","18","[""Black or African-American""]","No","Female","2198374","null","null","learn_feedback","","","learn_feedback","25","75","in","","","","","","","","","","","","","","","","","","","","","","",""
"","","","","","canvas-keyboard-response","196","355794","0.0-12.0-4.36","2d_cat_multi_stim_exp1","2022-4-26","15:21:53","25","75","3","9","10","40","30","120","59","18","[""Black or African-American""]","No","Female","2198374","null","null","","","","clear_screen","","","","","","","","","","","","","","","","","","","","","","","","","",""
"","","","","","canvas-keyboard-response","197","356302","0.0-12.0-0.37","2d_cat_multi_stim_exp1","2022-4-26","15:21:53","25","75","3","9","10","40","30","120","59","18","[""Black or African-American""]","No","Female","2198374","null","null","","","","fixation","","","","","","","","","","","","","","","","","","","","","","","","","",""
"","","","","","canvas-keyboard-response","198","356816","0.0-12.0-1.37","2d_cat_multi_stim_exp1","2022-4-26","15:21:53","25","75","3","9","10","40","30","120","59","18","[""Black or African-American""]","No","Female","2198374","null","null","","","","clear_screen","","","","","","","","","","","","","","","","","","","","","","","","","",""
"","","","","","canvas-keyboard-response","199","358183","0.0-12.0-2.37","2d_cat_multi_stim_exp1","2022-4-26","15:21:53","25","75","3","9","10","40","30","120","59","18","[""Black or African-American""]","No","Female","2198374","1359","u","learn","","","learn_trial","25","75","in","1","1","","","","","","","","","","","","","","","","","","","","",""
"","","","","","canvas-keyboard-response","200","358696","0.0-12.0-3.37","2d_cat_multi_stim_exp1","2022-4-26","15:21:53","25","75","3","9","10","40","30","120","59","18","[""Black or African-American""]","No","Female","2198374","null","null","learn_feedback","","","learn_feedback","25","75","in","","","","","","","","","","","","","","","","","","","","","","",""
"","","","","","canvas-keyboard-response","201","358757","0.0-12.0-4.37","2d_cat_multi_stim_exp1","2022-4-26","15:21:53","25","75","3","9","10","40","30","120","59","18","[""Black or African-American""]","No","Female","2198374","null","null","","","","clear_screen","","","","","","","","","","","","","","","","","","","","","","","","","",""
"","","","","","canvas-keyboard-response","202","359265","0.0-12.0-0.38","2d_cat_multi_stim_exp1","2022-4-26","15:21:53","25","75","3","9","10","40","30","120","59","18","[""Black or African-American""]","No","Female","2198374","null","null","","","","fixation","","","","","","","","","","","","","","","","","","","","","","","","","",""
"","","","","","canvas-keyboard-response","203","359774","0.0-12.0-1.38","2d_cat_multi_stim_exp1","2022-4-26","15:21:53","25","75","3","9","10","40","30","120","59","18","[""Black or African-American""]","No","Female","2198374","null","null","","","","clear_screen","","","","","","","","","","","","","","","","","","","","","","","","","",""
"","","","","","canvas-keyboard-response","204","360520","0.0-12.0-2.38","2d_cat_multi_stim_exp1","2022-4-26","15:21:53","25","75","3","9","10","40","30","120","59","18","[""Black or African-American""]","No","Female","2198374","736","i","learn","","","learn_trial","36.6667","60","out","0","1","","","","","","","","","","","","","","","","","","","","",""
"","","","","","canvas-keyboard-response","205","361031","0.0-12.0-3.38","2d_cat_multi_stim_exp1","2022-4-26","15:21:53","25","75","3","9","10","40","30","120","59","18","[""Black or African-American""]","No","Female","2198374","null","null","learn_feedback","","","learn_feedback","36.6667","60","out","","","","","","","","","","","","","","","","","","","","","","",""
"","","","","","canvas-keyboard-response","206","361095","0.0-12.0-4.38","2d_cat_multi_stim_exp1","2022-4-26","15:21:53","25","75","3","9","10","40","30","120","59","18","[""Black or African-American""]","No","Female","2198374","null","null","","","","clear_screen","","","","","","","","","","","","","","","","","","","","","","","","","",""
"","","","","","canvas-keyboard-response","207","361606","0.0-12.0-0.39","2d_cat_multi_stim_exp1","2022-4-26","15:21:53","25","75","3","9","10","40","30","120","59","18","[""Black or African-American""]","No","Female","2198374","null","null","","","","fixation","","","","","","","","","","","","","","","","","","","","","","","","","",""
"","","","","","canvas-keyboard-response","208","362118","0.0-12.0-1.39","2d_cat_multi_stim_exp1","2022-4-26","15:21:53","25","75","3","9","10","40","30","120","59","18","[""Black or African-American""]","No","Female","2198374","null","null","","","","clear_screen","","","","","","","","","","","","","","","","","","","","","","","","","",""
"","","","","","canvas-keyboard-response","209","364032","0.0-12.0-2.39","2d_cat_multi_stim_exp1","2022-4-26","15:21:53","25","75","3","9","10","40","30","120","59","18","[""Black or African-American""]","No","Female","2198374","1902","i","learn","","","learn_trial","13.3333","60","out","0","1","","","","","","","","","","","","","","","","","","","","",""
"","","","","","canvas-keyboard-response","210","364541","0.0-12.0-3.39","2d_cat_multi_stim_exp1","2022-4-26","15:21:53","25","75","3","9","10","40","30","120","59","18","[""Black or African-American""]","No","Female","2198374","null","null","learn_feedback","","","learn_feedback","13.3333","60","out","","","","","","","","","","","","","","","","","","","","","","",""
"","","","","","canvas-keyboard-response","211","364604","0.0-12.0-4.39","2d_cat_multi_stim_exp1","2022-4-26","15:21:53","25","75","3","9","10","40","30","120","59","18","[""Black or African-American""]","No","Female","2198374","null","null","","","","clear_screen","","","","","","","","","","","","","","","","","","","","","","","","","",""
"","","","","","canvas-keyboard-response","212","365111","0.0-12.0-0.40","2d_cat_multi_stim_exp1","2022-4-26","15:21:53","25","75","3","9","10","40","30","120","59","18","[""Black or African-American""]","No","Female","2198374","null","null","","","","fixation","","","","","","","","","","","","","","","","","","","","","","","","","",""
"","","","","","canvas-keyboard-response","213","365620","0.0-12.0-1.40","2d_cat_multi_stim_exp1","2022-4-26","15:21:53","25","75","3","9","10","40","30","120","59","18","[""Black or African-American""]","No","Female","2198374","null","null","","","","clear_screen","","","","","","","","","","","","","","","","","","","","","","","","","",""
"","","","","","canvas-keyboard-response","214","367775","0.0-12.0-2.40","2d_cat_multi_stim_exp1","2022-4-26","15:21:53","25","75","3","9","10","40","30","120","59","18","[""Black or African-American""]","No","Female","2198374","2147","i","learn","","","learn_trial","24.3324","66.2256","in","0","0","","","","","","","","","","","","","","","","","","","","",""
"","","","","","canvas-keyboard-response","215","368786","0.0-12.0-3.40","2d_cat_multi_stim_exp1","2022-4-26","15:21:53","25","75","3","9","10","40","30","120","59","18","[""Black or African-American""]","No","Female","2198374","null","null","learn_feedback","","","learn_feedback","24.3324","66.2256","in","","","","","","","","","","","","","","","","","","","","","","",""
"","","","","","canvas-keyboard-response","216","368845","0.0-12.0-4.40","2d_cat_multi_stim_exp1","2022-4-26","15:21:53","25","75","3","9","10","40","30","120","59","18","[""Black or African-American""]","No","Female","2198374","null","null","","","","clear_screen","","","","","","","","","","","","","","","","","","","","","","","","","",""
"","","","","","canvas-keyboard-response","217","369355","0.0-12.0-0.41","2d_cat_multi_stim_exp1","2022-4-26","15:21:53","25","75","3","9","10","40","30","120","59","18","[""Black or African-American""]","No","Female","2198374","null","null","","","","fixation","","","","","","","","","","","","","","","","","","","","","","","","","",""
"","","","","","canvas-keyboard-response","218","369864","0.0-12.0-1.41","2d_cat_multi_stim_exp1","2022-4-26","15:21:53","25","75","3","9","10","40","30","120","59","18","[""Black or African-American""]","No","Female","2198374","null","null","","","","clear_screen","","","","","","","","","","","","","","","","","","","","","","","","","",""
"","","","","","canvas-keyboard-response","219","370984","0.0-12.0-2.41","2d_cat_multi_stim_exp1","2022-4-26","15:21:53","25","75","3","9","10","40","30","120","59","18","[""Black or African-American""]","No","Female","2198374","1110","u","learn","","","learn_trial","26.6667","70","out","1","0","","","","","","","","","","","","","","","","","","","","",""
"","","","","","canvas-keyboard-response","220","371995","0.0-12.0-3.41","2d_cat_multi_stim_exp1","2022-4-26","15:21:53","25","75","3","9","10","40","30","120","59","18","[""Black or African-American""]","No","Female","2198374","null","null","learn_feedback","","","learn_feedback","26.6667","70","out","","","","","","","","","","","","","","","","","","","","","","",""
"","","","","","canvas-keyboard-response","221","372053","0.0-12.0-4.41","2d_cat_multi_stim_exp1","2022-4-26","15:21:53","25","75","3","9","10","40","30","120","59","18","[""Black or African-American""]","No","Female","2198374","null","null","","","","clear_screen","","","","","","","","","","","","","","","","","","","","","","","","","",""
"","","","","","canvas-keyboard-response","222","372562","0.0-12.0-0.42","2d_cat_multi_stim_exp1","2022-4-26","15:21:53","25","75","3","9","10","40","30","120","59","18","[""Black or African-American""]","No","Female","2198374","null","null","","","","fixation","","","","","","","","","","","","","","","","","","","","","","","","","",""
"","","","","","canvas-keyboard-response","223","373071","0.0-12.0-1.42","2d_cat_multi_stim_exp1","2022-4-26","15:21:53","25","75","3","9","10","40","30","120","59","18","[""Black or African-American""]","No","Female","2198374","null","null","","","","clear_screen","","","","","","","","","","","","","","","","","","","","","","","","","",""
"","","","","","canvas-keyboard-response","224","374447","0.0-12.0-2.42","2d_cat_multi_stim_exp1","2022-4-26","15:21:53","25","75","3","9","10","40","30","120","59","18","[""Black or African-American""]","No","Female","2198374","1366","i","learn","","","learn_trial","13.3333","100","out","0","1","","","","","","","","","","","","","","","","","","","","",""
"","","","","","canvas-keyboard-response","225","374959","0.0-12.0-3.42","2d_cat_multi_stim_exp1","2022-4-26","15:21:53","25","75","3","9","10","40","30","120","59","18","[""Black or African-American""]","No","Female","2198374","null","null","learn_feedback","","","learn_feedback","13.3333","100","out","","","","","","","","","","","","","","","","","","","","","","",""
"","","","","","canvas-keyboard-response","226","375019","0.0-12.0-4.42","2d_cat_multi_stim_exp1","2022-4-26","15:21:53","25","75","3","9","10","40","30","120","59","18","[""Black or African-American""]","No","Female","2198374","null","null","","","","clear_screen","","","","","","","","","","","","","","","","","","","","","","","","","",""
"","","","","","canvas-keyboard-response","227","375528","0.0-12.0-0.43","2d_cat_multi_stim_exp1","2022-4-26","15:21:53","25","75","3","9","10","40","30","120","59","18","[""Black or African-American""]","No","Female","2198374","null","null","","","","fixation","","","","","","","","","","","","","","","","","","","","","","","","","",""
"","","","","","canvas-keyboard-response","228","376039","0.0-12.0-1.43","2d_cat_multi_stim_exp1","2022-4-26","15:21:53","25","75","3","9","10","40","30","120","59","18","[""Black or African-American""]","No","Female","2198374","null","null","","","","clear_screen","","","","","","","","","","","","","","","","","","","","","","","","","",""
"","","","","","canvas-keyboard-response","229","376879","0.0-12.0-2.43","2d_cat_multi_stim_exp1","2022-4-26","15:21:53","25","75","3","9","10","40","30","120","59","18","[""Black or African-American""]","No","Female","2198374","829","i","learn","","","learn_trial","26.6667","50","out","0","1","","","","","","","","","","","","","","","","","","","","",""
"","","","","","canvas-keyboard-response","230","377393","0.0-12.0-3.43","2d_cat_multi_stim_exp1","2022-4-26","15:21:53","25","75","3","9","10","40","30","120","59","18","[""Black or African-American""]","No","Female","2198374","null","null","learn_feedback","","","learn_feedback","26.6667","50","out","","","","","","","","","","","","","","","","","","","","","","",""
"","","","","","canvas-keyboard-response","231","377453","0.0-12.0-4.43","2d_cat_multi_stim_exp1","2022-4-26","15:21:53","25","75","3","9","10","40","30","120","59","18","[""Black or African-American""]","No","Female","2198374","null","null","","","","clear_screen","","","","","","","","","","","","","","","","","","","","","","","","","",""
"","","","","","canvas-keyboard-response","232","377965","0.0-12.0-0.44","2d_cat_multi_stim_exp1","2022-4-26","15:21:53","25","75","3","9","10","40","30","120","59","18","[""Black or African-American""]","No","Female","2198374","null","null","","","","fixation","","","","","","","","","","","","","","","","","","","","","","","","","",""
"","","","","","canvas-keyboard-response","233","378477","0.0-12.0-1.44","2d_cat_multi_stim_exp1","2022-4-26","15:21:53","25","75","3","9","10","40","30","120","59","18","[""Black or African-American""]","No","Female","2198374","null","null","","","","clear_screen","","","","","","","","","","","","","","","","","","","","","","","","","",""
"","","","","","canvas-keyboard-response","234","379671","0.0-12.0-2.44","2d_cat_multi_stim_exp1","2022-4-26","15:21:53","25","75","3","9","10","40","30","120","59","18","[""Black or African-American""]","No","Female","2198374","1183","i","learn","","","learn_trial","20","50","out","0","1","","","","","","","","","","","","","","","","","","","","",""
"","","","","","canvas-keyboard-response","235","380180","0.0-12.0-3.44","2d_cat_multi_stim_exp1","2022-4-26","15:21:53","25","75","3","9","10","40","30","120","59","18","[""Black or African-American""]","No","Female","2198374","null","null","learn_feedback","","","learn_feedback","20","50","out","","","","","","","","","","","","","","","","","","","","","","",""
"","","","","","canvas-keyboard-response","236","380239","0.0-12.0-4.44","2d_cat_multi_stim_exp1","2022-4-26","15:21:53","25","75","3","9","10","40","30","120","59","18","[""Black or African-American""]","No","Female","2198374","null","null","","","","clear_screen","","","","","","","","","","","","","","","","","","","","","","","","","",""
"","","","","","canvas-keyboard-response","237","380753","0.0-12.0-0.45","2d_cat_multi_stim_exp1","2022-4-26","15:21:53","25","75","3","9","10","40","30","120","59","18","[""Black or African-American""]","No","Female","2198374","null","null","","","","fixation","","","","","","","","","","","","","","","","","","","","","","","","","",""
"","","","","","canvas-keyboard-response","238","381266","0.0-12.0-1.45","2d_cat_multi_stim_exp1","2022-4-26","15:21:53","25","75","3","9","10","40","30","120","59","18","[""Black or African-American""]","No","Female","2198374","null","null","","","","clear_screen","","","","","","","","","","","","","","","","","","","","","","","","","",""
"","","","","","canvas-keyboard-response","239","381849","0.0-12.0-2.45","2d_cat_multi_stim_exp1","2022-4-26","15:21:53","25","75","3","9","10","40","30","120","59","18","[""Black or African-American""]","No","Female","2198374","573","i","learn","","","learn_trial","23.3333","50","out","0","1","","","","","","","","","","","","","","","","","","","","",""
"","","","","","canvas-keyboard-response","240","382359","0.0-12.0-3.45","2d_cat_multi_stim_exp1","2022-4-26","15:21:53","25","75","3","9","10","40","30","120","59","18","[""Black or African-American""]","No","Female","2198374","null","null","learn_feedback","","","learn_feedback","23.3333","50","out","","","","","","","","","","","","","","","","","","","","","","",""
"","","","","","canvas-keyboard-response","241","382423","0.0-12.0-4.45","2d_cat_multi_stim_exp1","2022-4-26","15:21:53","25","75","3","9","10","40","30","120","59","18","[""Black or African-American""]","No","Female","2198374","null","null","","","","clear_screen","","","","","","","","","","","","","","","","","","","","","","","","","",""
"","","","","","canvas-keyboard-response","242","382930","0.0-12.0-0.46","2d_cat_multi_stim_exp1","2022-4-26","15:21:53","25","75","3","9","10","40","30","120","59","18","[""Black or African-American""]","No","Female","2198374","null","null","","","","fixation","","","","","","","","","","","","","","","","","","","","","","","","","",""
"","","","","","canvas-keyboard-response","243","383441","0.0-12.0-1.46","2d_cat_multi_stim_exp1","2022-4-26","15:21:53","25","75","3","9","10","40","30","120","59","18","[""Black or African-American""]","No","Female","2198374","null","null","","","","clear_screen","","","","","","","","","","","","","","","","","","","","","","","","","",""
"","","","","","canvas-keyboard-response","244","385464","0.0-12.0-2.46","2d_cat_multi_stim_exp1","2022-4-26","15:21:53","25","75","3","9","10","40","30","120","59","18","[""Black or African-American""]","No","Female","2198374","2010","i","learn","","","learn_trial","26.8705","82.0365","in","0","0","","","","","","","","","","","","","","","","","","","","",""
"","","","","","canvas-keyboard-response","245","386477","0.0-12.0-3.46","2d_cat_multi_stim_exp1","2022-4-26","15:21:53","25","75","3","9","10","40","30","120","59","18","[""Black or African-American""]","No","Female","2198374","null","null","learn_feedback","","","learn_feedback","26.8705","82.0365","in","","","","","","","","","","","","","","","","","","","","","","",""
"","","","","","canvas-keyboard-response","246","386535","0.0-12.0-4.46","2d_cat_multi_stim_exp1","2022-4-26","15:21:53","25","75","3","9","10","40","30","120","59","18","[""Black or African-American""]","No","Female","2198374","null","null","","","","clear_screen","","","","","","","","","","","","","","","","","","","","","","","","","",""
"","","","","","canvas-keyboard-response","247","387046","0.0-12.0-0.47","2d_cat_multi_stim_exp1","2022-4-26","15:21:53","25","75","3","9","10","40","30","120","59","18","[""Black or African-American""]","No","Female","2198374","null","null","","","","fixation","","","","","","","","","","","","","","","","","","","","","","","","","",""
"","","","","","canvas-keyboard-response","248","387558","0.0-12.0-1.47","2d_cat_multi_stim_exp1","2022-4-26","15:21:53","25","75","3","9","10","40","30","120","59","18","[""Black or African-American""]","No","Female","2198374","null","null","","","","clear_screen","","","","","","","","","","","","","","","","","","","","","","","","","",""
"","","","","","canvas-keyboard-response","249","389287","0.0-12.0-2.47","2d_cat_multi_stim_exp1","2022-4-26","15:21:53","25","75","3","9","10","40","30","120","59","18","[""Black or African-American""]","No","Female","2198374","1721","i","learn","","","learn_trial","26.6667","120","out","0","1","","","","","","","","","","","","","","","","","","","","",""
"","","","","","canvas-keyboard-response","250","389797","0.0-12.0-3.47","2d_cat_multi_stim_exp1","2022-4-26","15:21:53","25","75","3","9","10","40","30","120","59","18","[""Black or African-American""]","No","Female","2198374","null","null","learn_feedback","","","learn_feedback","26.6667","120","out","","","","","","","","","","","","","","","","","","","","","","",""
"","","","","","canvas-keyboard-response","251","389859","0.0-12.0-4.47","2d_cat_multi_stim_exp1","2022-4-26","15:21:53","25","75","3","9","10","40","30","120","59","18","[""Black or African-American""]","No","Female","2198374","null","null","","","","clear_screen","","","","","","","","","","","","","","","","","","","","","","","","","",""
"","","","","","canvas-keyboard-response","252","390368","0.0-12.0-0.48","2d_cat_multi_stim_exp1","2022-4-26","15:21:53","25","75","3","9","10","40","30","120","59","18","[""Black or African-American""]","No","Female","2198374","null","null","","","","fixation","","","","","","","","","","","","","","","","","","","","","","","","","",""
"","","","","","canvas-keyboard-response","253","390880","0.0-12.0-1.48","2d_cat_multi_stim_exp1","2022-4-26","15:21:53","25","75","3","9","10","40","30","120","59","18","[""Black or African-American""]","No","Female","2198374","null","null","","","","clear_screen","","","","","","","","","","","","","","","","","","","","","","","","","",""
"","","","","","canvas-keyboard-response","254","392176","0.0-12.0-2.48","2d_cat_multi_stim_exp1","2022-4-26","15:21:53","25","75","3","9","10","40","30","120","59","18","[""Black or African-American""]","No","Female","2198374","1285","u","learn","","","learn_trial","25","75","in","1","1","","","","","","","","","","","","","","","","","","","","",""
"","","","","","canvas-keyboard-response","255","392686","0.0-12.0-3.48","2d_cat_multi_stim_exp1","2022-4-26","15:21:53","25","75","3","9","10","40","30","120","59","18","[""Black or African-American""]","No","Female","2198374","null","null","learn_feedback","","","learn_feedback","25","75","in","","","","","","","","","","","","","","","","","","","","","","",""
"","","","","","canvas-keyboard-response","256","392745","0.0-12.0-4.48","2d_cat_multi_stim_exp1","2022-4-26","15:21:53","25","75","3","9","10","40","30","120","59","18","[""Black or African-American""]","No","Female","2198374","null","null","","","","clear_screen","","","","","","","","","","","","","","","","","","","","","","","","","",""
"","","","","","canvas-keyboard-response","257","393254","0.0-12.0-0.49","2d_cat_multi_stim_exp1","2022-4-26","15:21:53","25","75","3","9","10","40","30","120","59","18","[""Black or African-American""]","No","Female","2198374","null","null","","","","fixation","","","","","","","","","","","","","","","","","","","","","","","","","",""
"","","","","","canvas-keyboard-response","258","393763","0.0-12.0-1.49","2d_cat_multi_stim_exp1","2022-4-26","15:21:53","25","75","3","9","10","40","30","120","59","18","[""Black or African-American""]","No","Female","2198374","null","null","","","","clear_screen","","","","","","","","","","","","","","","","","","","","","","","","","",""
"","","","","","canvas-keyboard-response","259","394871","0.0-12.0-2.49","2d_cat_multi_stim_exp1","2022-4-26","15:21:53","25","75","3","9","10","40","30","120","59","18","[""Black or African-American""]","No","Female","2198374","1099","i","learn","","","learn_trial","25","75","in","0","0","","","","","","","","","","","","","","","","","","","","",""
"","","","","","canvas-keyboard-response","260","395882","0.0-12.0-3.49","2d_cat_multi_stim_exp1","2022-4-26","15:21:53","25","75","3","9","10","40","30","120","59","18","[""Black or African-American""]","No","Female","2198374","null","null","learn_feedback","","","learn_feedback","25","75","in","","","","","","","","","","","","","","","","","","","","","","",""
"","","","","","canvas-keyboard-response","261","395946","0.0-12.0-4.49","2d_cat_multi_stim_exp1","2022-4-26","15:21:53","25","75","3","9","10","40","30","120","59","18","[""Black or African-American""]","No","Female","2198374","null","null","","","","clear_screen","","","","","","","","","","","","","","","","","","","","","","","","","",""
"","","","","","canvas-keyboard-response","262","396457","0.0-12.0-0.50","2d_cat_multi_stim_exp1","2022-4-26","15:21:53","25","75","3","9","10","40","30","120","59","18","[""Black or African-American""]","No","Female","2198374","null","null","","","","fixation","","","","","","","","","","","","","","","","","","","","","","","","","",""
"","","","","","canvas-keyboard-response","263","396967","0.0-12.0-1.50","2d_cat_multi_stim_exp1","2022-4-26","15:21:53","25","75","3","9","10","40","30","120","59","18","[""Black or African-American""]","No","Female","2198374","null","null","","","","clear_screen","","","","","","","","","","","","","","","","","","","","","","","","","",""
"","","","","","canvas-keyboard-response","264","397751","0.0-12.0-2.50","2d_cat_multi_stim_exp1","2022-4-26","15:21:53","25","75","3","9","10","40","30","120","59","18","[""Black or African-American""]","No","Female","2198374","775","i","learn","","","learn_trial","40","60","out","0","1","","","","","","","","","","","","","","","","","","","","",""
"","","","","","canvas-keyboard-response","265","398263","0.0-12.0-3.50","2d_cat_multi_stim_exp1","2022-4-26","15:21:53","25","75","3","9","10","40","30","120","59","18","[""Black or African-American""]","No","Female","2198374","null","null","learn_feedback","","","learn_feedback","40","60","out","","","","","","","","","","","","","","","","","","","","","","",""
"","","","","","canvas-keyboard-response","266","398324","0.0-12.0-4.50","2d_cat_multi_stim_exp1","2022-4-26","15:21:53","25","75","3","9","10","40","30","120","59","18","[""Black or African-American""]","No","Female","2198374","null","null","","","","clear_screen","","","","","","","","","","","","","","","","","","","","","","","","","",""
"","","","","","canvas-keyboard-response","267","398832","0.0-12.0-0.51","2d_cat_multi_stim_exp1","2022-4-26","15:21:53","25","75","3","9","10","40","30","120","59","18","[""Black or African-American""]","No","Female","2198374","null","null","","","","fixation","","","","","","","","","","","","","","","","","","","","","","","","","",""
"","","","","","canvas-keyboard-response","268","399342","0.0-12.0-1.51","2d_cat_multi_stim_exp1","2022-4-26","15:21:53","25","75","3","9","10","40","30","120","59","18","[""Black or African-American""]","No","Female","2198374","null","null","","","","clear_screen","","","","","","","","","","","","","","","","","","","","","","","","","",""
"","","","","","canvas-keyboard-response","269","400263","0.0-12.0-2.51","2d_cat_multi_stim_exp1","2022-4-26","15:21:53","25","75","3","9","10","40","30","120","59","18","[""Black or African-American""]","No","Female","2198374","910","u","learn","","","learn_trial","20.7574","87.7279","in","1","1","","","","","","","","","","","","","","","","","","","","",""
"","","","","","canvas-keyboard-response","270","400775","0.0-12.0-3.51","2d_cat_multi_stim_exp1","2022-4-26","15:21:53","25","75","3","9","10","40","30","120","59","18","[""Black or African-American""]","No","Female","2198374","null","null","learn_feedback","","","learn_feedback","20.7574","87.7279","in","","","","","","","","","","","","","","","","","","","","","","",""
"","","","","","canvas-keyboard-response","271","400835","0.0-12.0-4.51","2d_cat_multi_stim_exp1","2022-4-26","15:21:53","25","75","3","9","10","40","30","120","59","18","[""Black or African-American""]","No","Female","2198374","null","null","","","","clear_screen","","","","","","","","","","","","","","","","","","","","","","","","","",""
"","","","","","canvas-keyboard-response","272","401345","0.0-12.0-0.52","2d_cat_multi_stim_exp1","2022-4-26","15:21:53","25","75","3","9","10","40","30","120","59","18","[""Black or African-American""]","No","Female","2198374","null","null","","","","fixation","","","","","","","","","","","","","","","","","","","","","","","","","",""
"","","","","","canvas-keyboard-response","273","401859","0.0-12.0-1.52","2d_cat_multi_stim_exp1","2022-4-26","15:21:53","25","75","3","9","10","40","30","120","59","18","[""Black or African-American""]","No","Female","2198374","null","null","","","","clear_screen","","","","","","","","","","","","","","","","","","","","","","","","","",""
"","","","","","canvas-keyboard-response","274","403136","0.0-12.0-2.52","2d_cat_multi_stim_exp1","2022-4-26","15:21:53","25","75","3","9","10","40","30","120","59","18","[""Black or African-American""]","No","Female","2198374","1267","i","learn","","","learn_trial","10","60","out","0","1","","","","","","","","","","","","","","","","","","","","",""
"","","","","","canvas-keyboard-response","275","403646","0.0-12.0-3.52","2d_cat_multi_stim_exp1","2022-4-26","15:21:53","25","75","3","9","10","40","30","120","59","18","[""Black or African-American""]","No","Female","2198374","null","null","learn_feedback","","","learn_feedback","10","60","out","","","","","","","","","","","","","","","","","","","","","","",""
"","","","","","canvas-keyboard-response","276","403707","0.0-12.0-4.52","2d_cat_multi_stim_exp1","2022-4-26","15:21:53","25","75","3","9","10","40","30","120","59","18","[""Black or African-American""]","No","Female","2198374","null","null","","","","clear_screen","","","","","","","","","","","","","","","","","","","","","","","","","",""
"","","","","","canvas-keyboard-response","277","404217","0.0-12.0-0.53","2d_cat_multi_stim_exp1","2022-4-26","15:21:53","25","75","3","9","10","40","30","120","59","18","[""Black or African-American""]","No","Female","2198374","null","null","","","","fixation","","","","","","","","","","","","","","","","","","","","","","","","","",""
"","","","","","canvas-keyboard-response","278","404731","0.0-12.0-1.53","2d_cat_multi_stim_exp1","2022-4-26","15:21:53","25","75","3","9","10","40","30","120","59","18","[""Black or African-American""]","No","Female","2198374","null","null","","","","clear_screen","","","","","","","","","","","","","","","","","","","","","","","","","",""
"","","","","","canvas-keyboard-response","279","405632","0.0-12.0-2.53","2d_cat_multi_stim_exp1","2022-4-26","15:21:53","25","75","3","9","10","40","30","120","59","18","[""Black or African-American""]","No","Female","2198374","893","i","learn","","","learn_trial","13.3333","30","out","0","1","","","","","","","","","","","","","","","","","","","","",""
