"success","timeout","failed_images","failed_audio","failed_video","trial_type","trial_index","time_elapsed","internal_node_id","exp_name","date","time","angle_mean_in","radius_mean_in","angle_sd_in","radius_sd_in","angle_min_out","angle_max_out","radius_min_out","radius_max_out","sub_n","age","race","ethnicity","gender","exp_duration","rt","response","exp_trial_type","stimulus","view_history","screen_id","angle","radius","distribution","choice","correct","order","angle_a","radius_a","angle_b","radius_b","jkl_correct","transfer_trial_type","choice_set","abc_correct","tc_correct","tc_angle","tdc_a","tdc_b","tdc_c","pair","category_a","category_b","category_c","angle_c","radius_c","question_order"
"true","false","[]","[]","[]","preload","0","28","0.0-0.0","2d_cat_multi_stim_exp1","2022-4-13","13:2:49","25","75","3","9","10","40","30","120","34","19","[""Other""]","No","Female","1745514","","","","","","","","","","","","","","","","","","","","","","","","","","","","","","","",""
"","","","","","survey-html-form","1","4551","0.0-1.0","2d_cat_multi_stim_exp1","2022-4-13","13:2:49","25","75","3","9","10","40","30","120","34","19","[""Other""]","No","Female","1745514","4508","{""response"":""34""}","enter-sub-number","","","","","","","","","","","","","","","","","","","","","","","","","","","","",""
"true","","","","","fullscreen","2","7626","0.0-2.0","2d_cat_multi_stim_exp1","2022-4-13","13:2:49","25","75","3","9","10","40","30","120","34","19","[""Other""]","No","Female","1745514","","","","","","","","","","","","","","","","","","","","","","","","","","","","","","","",""
"","","","","","image-button-response","3","75738","0.0-3.0","2d_cat_multi_stim_exp1","2022-4-13","13:2:49","25","75","3","9","10","40","30","120","34","19","[""Other""]","No","Female","1745514","68103","0","","consent.png","","","","","","","","","","","","","","","","","","","","","","","","","","","",""
"","","","","","html-button-response","4","78394","0.0-4.0","2d_cat_multi_stim_exp1","2022-4-13","13:2:49","25","75","3","9","10","40","30","120","34","19","[""Other""]","No","Female","1745514","2648","0","","<div style= ""font-size:25px;"" <p> <strong> Welcome to the experiment! </strong><br> <p style=""color:#8B0000; font-size:25px;""><strong> Please do NOT exit full screen until you are done with the experiment. </strong> </p><p style=""font-size:25px;color:#8B0000;""> <strong> The experiment will be canceled and your data will be lost <br> if you try to go back or refresh the page at any point during the experiment.</strong> </p><br><p> <strong> Thanks in advance for your contribution to our research! </strong></p>","","","","","","","","","","","","","","","","","","","","","","","","","","","",""
"","","","","","instructions","5","130482","0.0-5.0","2d_cat_multi_stim_exp1","2022-4-13","13:2:49","25","75","3","9","10","40","30","120","34","19","[""Other""]","No","Female","1745514","52084","","","","[{""page_index"":0,""viewing_time"":7307},{""page_index"":1,""viewing_time"":2208},{""page_index"":2,""viewing_time"":19056},{""page_index"":3,""viewing_time"":23512}]","instructions_1","","","","","","","","","","","","","","","","","","","","","","","","","",""
"","","","","","instructions","6","131857","0.0-6.0","2d_cat_multi_stim_exp1","2022-4-13","13:2:49","25","75","3","9","10","40","30","120","34","19","[""Other""]","No","Female","1745514","1372","","","","[{""page_index"":0,""viewing_time"":1372}]","Click to see the kinds of turtles that will appear in the study.","","","","","","","","","","","","","","","","","","","","","","","","","",""
"","","","","","canvas-keyboard-response","7","146878","0.0-7.0","2d_cat_multi_stim_exp1","2022-4-13","13:2:49","25","75","3","9","10","40","30","120","34","19","[""Other""]","No","Female","1745514","null","null","","","","demo_range","","","","","","","","","","","","","","","","","","","","","","","","","",""
"","","","","","instructions","8","148643","0.0-8.0","2d_cat_multi_stim_exp1","2022-4-13","13:2:49","25","75","3","9","10","40","30","120","34","19","[""Other""]","No","Female","1745514","1264","","","","[{""page_index"":0,""viewing_time"":1263}]","Click to see some turtles in the subspecies.","","","","","","","","","","","","","","","","","","","","","","","","","",""
"","","","","","canvas-keyboard-response","9","163660","0.0-9.0","2d_cat_multi_stim_exp1","2022-4-13","13:2:49","25","75","3","9","10","40","30","120","34","19","[""Other""]","No","Female","1745514","null","null","","","","demo_in","","","","","","","","","","","","","","","","","","","","","","","","","",""
"","","","","","instructions","10","177514","0.0-10.0","2d_cat_multi_stim_exp1","2022-4-13","13:2:49","25","75","3","9","10","40","30","120","34","19","[""Other""]","No","Female","1745514","13352","","","","[{""page_index"":0,""viewing_time"":2830},{""page_index"":1,""viewing_time"":9225},{""page_index"":2,""viewing_time"":1297}]","instructions_2","","","","","","","","","","","","","","","","","","","","","","","","","",""
"","","","","","instructions","11","178561","0.0-11.0","2d_cat_multi_stim_exp1","2022-4-13","13:2:49","25","75","3","9","10","40","30","120","34","19","[""Other""]","No","Female","1745514","1044","","","","[{""page_index"":0,""viewing_time"":1044}]","Click to begin the first phase of the experiment.","","","","","","","","","","","","","","","","","","","","","","","","","",""
"","","","","","canvas-keyboard-response","12","179073","0.0-12.0-0.0","2d_cat_multi_stim_exp1","2022-4-13","13:2:49","25","75","3","9","10","40","30","120","34","19","[""Other""]","No","Female","1745514","null","null","","","","fixation","","","","","","","","","","","","","","","","","","","","","","","","","",""
"","","","","","canvas-keyboard-response","13","179590","0.0-12.0-1.0","2d_cat_multi_stim_exp1","2022-4-13","13:2:49","25","75","3","9","10","40","30","120","34","19","[""Other""]","No","Female","1745514","null","null","","","","clear_screen","","","","","","","","","","","","","","","","","","","","","","","","","",""
"","","","","","canvas-keyboard-response","14","183681","0.0-12.0-2.0","2d_cat_multi_stim_exp1","2022-4-13","13:2:49","25","75","3","9","10","40","30","120","34","19","[""Other""]","No","Female","1745514","4078","u","learn","","","learn_trial","25.9271","83.5595","in","1","1","","","","","","","","","","","","","","","","","","","","",""
"","","","","","canvas-keyboard-response","15","184193","0.0-12.0-3.0","2d_cat_multi_stim_exp1","2022-4-13","13:2:49","25","75","3","9","10","40","30","120","34","19","[""Other""]","No","Female","1745514","null","null","learn_feedback","","","learn_feedback","25.9271","83.5595","in","","","","","","","","","","","","","","","","","","","","","","",""
"","","","","","canvas-keyboard-response","16","184257","0.0-12.0-4.0","2d_cat_multi_stim_exp1","2022-4-13","13:2:49","25","75","3","9","10","40","30","120","34","19","[""Other""]","No","Female","1745514","null","null","","","","clear_screen","","","","","","","","","","","","","","","","","","","","","","","","","",""
"","","","","","canvas-keyboard-response","17","184769","0.0-12.0-0.1","2d_cat_multi_stim_exp1","2022-4-13","13:2:49","25","75","3","9","10","40","30","120","34","19","[""Other""]","No","Female","1745514","null","null","","","","fixation","","","","","","","","","","","","","","","","","","","","","","","","","",""
"","","","","","canvas-keyboard-response","18","185279","0.0-12.0-1.1","2d_cat_multi_stim_exp1","2022-4-13","13:2:49","25","75","3","9","10","40","30","120","34","19","[""Other""]","No","Female","1745514","null","null","","","","clear_screen","","","","","","","","","","","","","","","","","","","","","","","","","",""
"","","","","","canvas-keyboard-response","19","188825","0.0-12.0-2.1","2d_cat_multi_stim_exp1","2022-4-13","13:2:49","25","75","3","9","10","40","30","120","34","19","[""Other""]","No","Female","1745514","3533","u","learn","","","learn_trial","25","75","in","1","1","","","","","","","","","","","","","","","","","","","","",""
"","","","","","canvas-keyboard-response","20","189337","0.0-12.0-3.1","2d_cat_multi_stim_exp1","2022-4-13","13:2:49","25","75","3","9","10","40","30","120","34","19","[""Other""]","No","Female","1745514","null","null","learn_feedback","","","learn_feedback","25","75","in","","","","","","","","","","","","","","","","","","","","","","",""
"","","","","","canvas-keyboard-response","21","189396","0.0-12.0-4.1","2d_cat_multi_stim_exp1","2022-4-13","13:2:49","25","75","3","9","10","40","30","120","34","19","[""Other""]","No","Female","1745514","null","null","","","","clear_screen","","","","","","","","","","","","","","","","","","","","","","","","","",""
"","","","","","canvas-keyboard-response","22","189909","0.0-12.0-0.2","2d_cat_multi_stim_exp1","2022-4-13","13:2:49","25","75","3","9","10","40","30","120","34","19","[""Other""]","No","Female","1745514","null","null","","","","fixation","","","","","","","","","","","","","","","","","","","","","","","","","",""
"","","","","","canvas-keyboard-response","23","190421","0.0-12.0-1.2","2d_cat_multi_stim_exp1","2022-4-13","13:2:49","25","75","3","9","10","40","30","120","34","19","[""Other""]","No","Female","1745514","null","null","","","","clear_screen","","","","","","","","","","","","","","","","","","","","","","","","","",""
"","","","","","canvas-keyboard-response","24","193672","0.0-12.0-2.2","2d_cat_multi_stim_exp1","2022-4-13","13:2:49","25","75","3","9","10","40","30","120","34","19","[""Other""]","No","Female","1745514","3242","u","learn","","","learn_trial","30","110","out","1","0","","","","","","","","","","","","","","","","","","","","",""
"","","","","","canvas-keyboard-response","25","194684","0.0-12.0-3.2","2d_cat_multi_stim_exp1","2022-4-13","13:2:49","25","75","3","9","10","40","30","120","34","19","[""Other""]","No","Female","1745514","null","null","learn_feedback","","","learn_feedback","30","110","out","","","","","","","","","","","","","","","","","","","","","","",""
"","","","","","canvas-keyboard-response","26","194744","0.0-12.0-4.2","2d_cat_multi_stim_exp1","2022-4-13","13:2:49","25","75","3","9","10","40","30","120","34","19","[""Other""]","No","Female","1745514","null","null","","","","clear_screen","","","","","","","","","","","","","","","","","","","","","","","","","",""
"","","","","","canvas-keyboard-response","27","195258","0.0-12.0-0.3","2d_cat_multi_stim_exp1","2022-4-13","13:2:49","25","75","3","9","10","40","30","120","34","19","[""Other""]","No","Female","1745514","null","null","","","","fixation","","","","","","","","","","","","","","","","","","","","","","","","","",""
"","","","","","canvas-keyboard-response","28","195771","0.0-12.0-1.3","2d_cat_multi_stim_exp1","2022-4-13","13:2:49","25","75","3","9","10","40","30","120","34","19","[""Other""]","No","Female","1745514","null","null","","","","clear_screen","","","","","","","","","","","","","","","","","","","","","","","","","",""
"","","","","","canvas-keyboard-response","29","197441","0.0-12.0-2.3","2d_cat_multi_stim_exp1","2022-4-13","13:2:49","25","75","3","9","10","40","30","120","34","19","[""Other""]","No","Female","1745514","1658","u","learn","","","learn_trial","27.5753","79.6161","in","1","1","","","","","","","","","","","","","","","","","","","","",""
"","","","","","canvas-keyboard-response","30","197953","0.0-12.0-3.3","2d_cat_multi_stim_exp1","2022-4-13","13:2:49","25","75","3","9","10","40","30","120","34","19","[""Other""]","No","Female","1745514","null","null","learn_feedback","","","learn_feedback","27.5753","79.6161","in","","","","","","","","","","","","","","","","","","","","","","",""
"","","","","","canvas-keyboard-response","31","198014","0.0-12.0-4.3","2d_cat_multi_stim_exp1","2022-4-13","13:2:49","25","75","3","9","10","40","30","120","34","19","[""Other""]","No","Female","1745514","null","null","","","","clear_screen","","","","","","","","","","","","","","","","","","","","","","","","","",""
"","","","","","canvas-keyboard-response","32","198524","0.0-12.0-0.4","2d_cat_multi_stim_exp1","2022-4-13","13:2:49","25","75","3","9","10","40","30","120","34","19","[""Other""]","No","Female","1745514","null","null","","","","fixation","","","","","","","","","","","","","","","","","","","","","","","","","",""
"","","","","","canvas-keyboard-response","33","199035","0.0-12.0-1.4","2d_cat_multi_stim_exp1","2022-4-13","13:2:49","25","75","3","9","10","40","30","120","34","19","[""Other""]","No","Female","1745514","null","null","","","","clear_screen","","","","","","","","","","","","","","","","","","","","","","","","","",""
"","","","","","canvas-keyboard-response","34","200697","0.0-12.0-2.4","2d_cat_multi_stim_exp1","2022-4-13","13:2:49","25","75","3","9","10","40","30","120","34","19","[""Other""]","No","Female","1745514","1651","i","learn","","","learn_trial","10","110","out","0","1","","","","","","","","","","","","","","","","","","","","",""
"","","","","","canvas-keyboard-response","35","201209","0.0-12.0-3.4","2d_cat_multi_stim_exp1","2022-4-13","13:2:49","25","75","3","9","10","40","30","120","34","19","[""Other""]","No","Female","1745514","null","null","learn_feedback","","","learn_feedback","10","110","out","","","","","","","","","","","","","","","","","","","","","","",""
"","","","","","canvas-keyboard-response","36","201271","0.0-12.0-4.4","2d_cat_multi_stim_exp1","2022-4-13","13:2:49","25","75","3","9","10","40","30","120","34","19","[""Other""]","No","Female","1745514","null","null","","","","clear_screen","","","","","","","","","","","","","","","","","","","","","","","","","",""
"","","","","","canvas-keyboard-response","37","201782","0.0-12.0-0.5","2d_cat_multi_stim_exp1","2022-4-13","13:2:49","25","75","3","9","10","40","30","120","34","19","[""Other""]","No","Female","1745514","null","null","","","","fixation","","","","","","","","","","","","","","","","","","","","","","","","","",""
"","","","","","canvas-keyboard-response","38","202292","0.0-12.0-1.5","2d_cat_multi_stim_exp1","2022-4-13","13:2:49","25","75","3","9","10","40","30","120","34","19","[""Other""]","No","Female","1745514","null","null","","","","clear_screen","","","","","","","","","","","","","","","","","","","","","","","","","",""
"","","","","","canvas-keyboard-response","39","204009","0.0-12.0-2.5","2d_cat_multi_stim_exp1","2022-4-13","13:2:49","25","75","3","9","10","40","30","120","34","19","[""Other""]","No","Female","1745514","1706","u","learn","","","learn_trial","13.3333","90","out","1","0","","","","","","","","","","","","","","","","","","","","",""
"","","","","","canvas-keyboard-response","40","205017","0.0-12.0-3.5","2d_cat_multi_stim_exp1","2022-4-13","13:2:49","25","75","3","9","10","40","30","120","34","19","[""Other""]","No","Female","1745514","null","null","learn_feedback","","","learn_feedback","13.3333","90","out","","","","","","","","","","","","","","","","","","","","","","",""
"","","","","","canvas-keyboard-response","41","205077","0.0-12.0-4.5","2d_cat_multi_stim_exp1","2022-4-13","13:2:49","25","75","3","9","10","40","30","120","34","19","[""Other""]","No","Female","1745514","null","null","","","","clear_screen","","","","","","","","","","","","","","","","","","","","","","","","","",""
"","","","","","canvas-keyboard-response","42","205590","0.0-12.0-0.6","2d_cat_multi_stim_exp1","2022-4-13","13:2:49","25","75","3","9","10","40","30","120","34","19","[""Other""]","No","Female","1745514","null","null","","","","fixation","","","","","","","","","","","","","","","","","","","","","","","","","",""
"","","","","","canvas-keyboard-response","43","206100","0.0-12.0-1.6","2d_cat_multi_stim_exp1","2022-4-13","13:2:49","25","75","3","9","10","40","30","120","34","19","[""Other""]","No","Female","1745514","null","null","","","","clear_screen","","","","","","","","","","","","","","","","","","","","","","","","","",""
"","","","","","canvas-keyboard-response","44","207633","0.0-12.0-2.6","2d_cat_multi_stim_exp1","2022-4-13","13:2:49","25","75","3","9","10","40","30","120","34","19","[""Other""]","No","Female","1745514","1521","u","learn","","","learn_trial","20","70","out","1","0","","","","","","","","","","","","","","","","","","","","",""
"","","","","","canvas-keyboard-response","45","208643","0.0-12.0-3.6","2d_cat_multi_stim_exp1","2022-4-13","13:2:49","25","75","3","9","10","40","30","120","34","19","[""Other""]","No","Female","1745514","null","null","learn_feedback","","","learn_feedback","20","70","out","","","","","","","","","","","","","","","","","","","","","","",""
"","","","","","canvas-keyboard-response","46","208706","0.0-12.0-4.6","2d_cat_multi_stim_exp1","2022-4-13","13:2:49","25","75","3","9","10","40","30","120","34","19","[""Other""]","No","Female","1745514","null","null","","","","clear_screen","","","","","","","","","","","","","","","","","","","","","","","","","",""
"","","","","","canvas-keyboard-response","47","209215","0.0-12.0-0.7","2d_cat_multi_stim_exp1","2022-4-13","13:2:49","25","75","3","9","10","40","30","120","34","19","[""Other""]","No","Female","1745514","null","null","","","","fixation","","","","","","","","","","","","","","","","","","","","","","","","","",""
"","","","","","canvas-keyboard-response","48","209726","0.0-12.0-1.7","2d_cat_multi_stim_exp1","2022-4-13","13:2:49","25","75","3","9","10","40","30","120","34","19","[""Other""]","No","Female","1745514","null","null","","","","clear_screen","","","","","","","","","","","","","","","","","","","","","","","","","",""
"","","","","","canvas-keyboard-response","49","211177","0.0-12.0-2.7","2d_cat_multi_stim_exp1","2022-4-13","13:2:49","25","75","3","9","10","40","30","120","34","19","[""Other""]","No","Female","1745514","1441","i","learn","","","learn_trial","10","100","out","0","1","","","","","","","","","","","","","","","","","","","","",""
"","","","","","canvas-keyboard-response","50","211687","0.0-12.0-3.7","2d_cat_multi_stim_exp1","2022-4-13","13:2:49","25","75","3","9","10","40","30","120","34","19","[""Other""]","No","Female","1745514","null","null","learn_feedback","","","learn_feedback","10","100","out","","","","","","","","","","","","","","","","","","","","","","",""
"","","","","","canvas-keyboard-response","51","211747","0.0-12.0-4.7","2d_cat_multi_stim_exp1","2022-4-13","13:2:49","25","75","3","9","10","40","30","120","34","19","[""Other""]","No","Female","1745514","null","null","","","","clear_screen","","","","","","","","","","","","","","","","","","","","","","","","","",""
"","","","","","canvas-keyboard-response","52","212258","0.0-12.0-0.8","2d_cat_multi_stim_exp1","2022-4-13","13:2:49","25","75","3","9","10","40","30","120","34","19","[""Other""]","No","Female","1745514","null","null","","","","fixation","","","","","","","","","","","","","","","","","","","","","","","","","",""
"","","","","","canvas-keyboard-response","53","212772","0.0-12.0-1.8","2d_cat_multi_stim_exp1","2022-4-13","13:2:49","25","75","3","9","10","40","30","120","34","19","[""Other""]","No","Female","1745514","null","null","","","","clear_screen","","","","","","","","","","","","","","","","","","","","","","","","","",""
"","","","","","canvas-keyboard-response","54","214760","0.0-12.0-2.8","2d_cat_multi_stim_exp1","2022-4-13","13:2:49","25","75","3","9","10","40","30","120","34","19","[""Other""]","No","Female","1745514","1976","i","learn","","","learn_trial","25","75","in","0","0","","","","","","","","","","","","","","","","","","","","",""
"","","","","","canvas-keyboard-response","55","215770","0.0-12.0-3.8","2d_cat_multi_stim_exp1","2022-4-13","13:2:49","25","75","3","9","10","40","30","120","34","19","[""Other""]","No","Female","1745514","null","null","learn_feedback","","","learn_feedback","25","75","in","","","","","","","","","","","","","","","","","","","","","","",""
"","","","","","canvas-keyboard-response","56","215835","0.0-12.0-4.8","2d_cat_multi_stim_exp1","2022-4-13","13:2:49","25","75","3","9","10","40","30","120","34","19","[""Other""]","No","Female","1745514","null","null","","","","clear_screen","","","","","","","","","","","","","","","","","","","","","","","","","",""
"","","","","","canvas-keyboard-response","57","216343","0.0-12.0-0.9","2d_cat_multi_stim_exp1","2022-4-13","13:2:49","25","75","3","9","10","40","30","120","34","19","[""Other""]","No","Female","1745514","null","null","","","","fixation","","","","","","","","","","","","","","","","","","","","","","","","","",""
"","","","","","canvas-keyboard-response","58","216855","0.0-12.0-1.9","2d_cat_multi_stim_exp1","2022-4-13","13:2:49","25","75","3","9","10","40","30","120","34","19","[""Other""]","No","Female","1745514","null","null","","","","clear_screen","","","","","","","","","","","","","","","","","","","","","","","","","",""
"","","","","","canvas-keyboard-response","59","219169","0.0-12.0-2.9","2d_cat_multi_stim_exp1","2022-4-13","13:2:49","25","75","3","9","10","40","30","120","34","19","[""Other""]","No","Female","1745514","2302","u","learn","","","learn_trial","25","75","in","1","1","","","","","","","","","","","","","","","","","","","","",""
"","","","","","canvas-keyboard-response","60","219679","0.0-12.0-3.9","2d_cat_multi_stim_exp1","2022-4-13","13:2:49","25","75","3","9","10","40","30","120","34","19","[""Other""]","No","Female","1745514","null","null","learn_feedback","","","learn_feedback","25","75","in","","","","","","","","","","","","","","","","","","","","","","",""
"","","","","","canvas-keyboard-response","61","219742","0.0-12.0-4.9","2d_cat_multi_stim_exp1","2022-4-13","13:2:49","25","75","3","9","10","40","30","120","34","19","[""Other""]","No","Female","1745514","null","null","","","","clear_screen","","","","","","","","","","","","","","","","","","","","","","","","","",""
"","","","","","canvas-keyboard-response","62","220252","0.0-12.0-0.10","2d_cat_multi_stim_exp1","2022-4-13","13:2:49","25","75","3","9","10","40","30","120","34","19","[""Other""]","No","Female","1745514","null","null","","","","fixation","","","","","","","","","","","","","","","","","","","","","","","","","",""
"","","","","","canvas-keyboard-response","63","220765","0.0-12.0-1.10","2d_cat_multi_stim_exp1","2022-4-13","13:2:49","25","75","3","9","10","40","30","120","34","19","[""Other""]","No","Female","1745514","null","null","","","","clear_screen","","","","","","","","","","","","","","","","","","","","","","","","","",""
"","","","","","canvas-keyboard-response","64","222041","0.0-12.0-2.10","2d_cat_multi_stim_exp1","2022-4-13","13:2:49","25","75","3","9","10","40","30","120","34","19","[""Other""]","No","Female","1745514","1265","u","learn","","","learn_trial","24.8654","83.9909","in","1","1","","","","","","","","","","","","","","","","","","","","",""
"","","","","","canvas-keyboard-response","65","222554","0.0-12.0-3.10","2d_cat_multi_stim_exp1","2022-4-13","13:2:49","25","75","3","9","10","40","30","120","34","19","[""Other""]","No","Female","1745514","null","null","learn_feedback","","","learn_feedback","24.8654","83.9909","in","","","","","","","","","","","","","","","","","","","","","","",""
"","","","","","canvas-keyboard-response","66","222618","0.0-12.0-4.10","2d_cat_multi_stim_exp1","2022-4-13","13:2:49","25","75","3","9","10","40","30","120","34","19","[""Other""]","No","Female","1745514","null","null","","","","clear_screen","","","","","","","","","","","","","","","","","","","","","","","","","",""
"","","","","","canvas-keyboard-response","67","223127","0.0-12.0-0.11","2d_cat_multi_stim_exp1","2022-4-13","13:2:49","25","75","3","9","10","40","30","120","34","19","[""Other""]","No","Female","1745514","null","null","","","","fixation","","","","","","","","","","","","","","","","","","","","","","","","","",""
"","","","","","canvas-keyboard-response","68","223642","0.0-12.0-1.11","2d_cat_multi_stim_exp1","2022-4-13","13:2:49","25","75","3","9","10","40","30","120","34","19","[""Other""]","No","Female","1745514","null","null","","","","clear_screen","","","","","","","","","","","","","","","","","","","","","","","","","",""
"","","","","","canvas-keyboard-response","69","225689","0.0-12.0-2.11","2d_cat_multi_stim_exp1","2022-4-13","13:2:49","25","75","3","9","10","40","30","120","34","19","[""Other""]","No","Female","1745514","2036","i","learn","","","learn_trial","33.3333","30","out","0","1","","","","","","","","","","","","","","","","","","","","",""
"","","","","","canvas-keyboard-response","70","226201","0.0-12.0-3.11","2d_cat_multi_stim_exp1","2022-4-13","13:2:49","25","75","3","9","10","40","30","120","34","19","[""Other""]","No","Female","1745514","null","null","learn_feedback","","","learn_feedback","33.3333","30","out","","","","","","","","","","","","","","","","","","","","","","",""
"","","","","","canvas-keyboard-response","71","226261","0.0-12.0-4.11","2d_cat_multi_stim_exp1","2022-4-13","13:2:49","25","75","3","9","10","40","30","120","34","19","[""Other""]","No","Female","1745514","null","null","","","","clear_screen","","","","","","","","","","","","","","","","","","","","","","","","","",""
"","","","","","canvas-keyboard-response","72","226770","0.0-12.0-0.12","2d_cat_multi_stim_exp1","2022-4-13","13:2:49","25","75","3","9","10","40","30","120","34","19","[""Other""]","No","Female","1745514","null","null","","","","fixation","","","","","","","","","","","","","","","","","","","","","","","","","",""
"","","","","","canvas-keyboard-response","73","227282","0.0-12.0-1.12","2d_cat_multi_stim_exp1","2022-4-13","13:2:49","25","75","3","9","10","40","30","120","34","19","[""Other""]","No","Female","1745514","null","null","","","","clear_screen","","","","","","","","","","","","","","","","","","","","","","","","","",""
"","","","","","canvas-keyboard-response","74","228368","0.0-12.0-2.12","2d_cat_multi_stim_exp1","2022-4-13","13:2:49","25","75","3","9","10","40","30","120","34","19","[""Other""]","No","Female","1745514","1075","i","learn","","","learn_trial","23.3333","120","out","0","1","","","","","","","","","","","","","","","","","","","","",""
"","","","","","canvas-keyboard-response","75","228880","0.0-12.0-3.12","2d_cat_multi_stim_exp1","2022-4-13","13:2:49","25","75","3","9","10","40","30","120","34","19","[""Other""]","No","Female","1745514","null","null","learn_feedback","","","learn_feedback","23.3333","120","out","","","","","","","","","","","","","","","","","","","","","","",""
"","","","","","canvas-keyboard-response","76","228940","0.0-12.0-4.12","2d_cat_multi_stim_exp1","2022-4-13","13:2:49","25","75","3","9","10","40","30","120","34","19","[""Other""]","No","Female","1745514","null","null","","","","clear_screen","","","","","","","","","","","","","","","","","","","","","","","","","",""
"","","","","","canvas-keyboard-response","77","229451","0.0-12.0-0.13","2d_cat_multi_stim_exp1","2022-4-13","13:2:49","25","75","3","9","10","40","30","120","34","19","[""Other""]","No","Female","1745514","null","null","","","","fixation","","","","","","","","","","","","","","","","","","","","","","","","","",""
"","","","","","canvas-keyboard-response","78","229964","0.0-12.0-1.13","2d_cat_multi_stim_exp1","2022-4-13","13:2:49","25","75","3","9","10","40","30","120","34","19","[""Other""]","No","Female","1745514","null","null","","","","clear_screen","","","","","","","","","","","","","","","","","","","","","","","","","",""
"","","","","","canvas-keyboard-response","79","231848","0.0-12.0-2.13","2d_cat_multi_stim_exp1","2022-4-13","13:2:49","25","75","3","9","10","40","30","120","34","19","[""Other""]","No","Female","1745514","1872","u","learn","","","learn_trial","25","75","in","1","1","","","","","","","","","","","","","","","","","","","","",""
"","","","","","canvas-keyboard-response","80","232361","0.0-12.0-3.13","2d_cat_multi_stim_exp1","2022-4-13","13:2:49","25","75","3","9","10","40","30","120","34","19","[""Other""]","No","Female","1745514","null","null","learn_feedback","","","learn_feedback","25","75","in","","","","","","","","","","","","","","","","","","","","","","",""
"","","","","","canvas-keyboard-response","81","232424","0.0-12.0-4.13","2d_cat_multi_stim_exp1","2022-4-13","13:2:49","25","75","3","9","10","40","30","120","34","19","[""Other""]","No","Female","1745514","null","null","","","","clear_screen","","","","","","","","","","","","","","","","","","","","","","","","","",""
"","","","","","canvas-keyboard-response","82","232934","0.0-12.0-0.14","2d_cat_multi_stim_exp1","2022-4-13","13:2:49","25","75","3","9","10","40","30","120","34","19","[""Other""]","No","Female","1745514","null","null","","","","fixation","","","","","","","","","","","","","","","","","","","","","","","","","",""
"","","","","","canvas-keyboard-response","83","233446","0.0-12.0-1.14","2d_cat_multi_stim_exp1","2022-4-13","13:2:49","25","75","3","9","10","40","30","120","34","19","[""Other""]","No","Female","1745514","null","null","","","","clear_screen","","","","","","","","","","","","","","","","","","","","","","","","","",""
"","","","","","canvas-keyboard-response","84","234528","0.0-12.0-2.14","2d_cat_multi_stim_exp1","2022-4-13","13:2:49","25","75","3","9","10","40","30","120","34","19","[""Other""]","No","Female","1745514","1073","i","learn","","","learn_trial","20.7574","87.7279","in","0","0","","","","","","","","","","","","","","","","","","","","",""
"","","","","","canvas-keyboard-response","85","235538","0.0-12.0-3.14","2d_cat_multi_stim_exp1","2022-4-13","13:2:49","25","75","3","9","10","40","30","120","34","19","[""Other""]","No","Female","1745514","null","null","learn_feedback","","","learn_feedback","20.7574","87.7279","in","","","","","","","","","","","","","","","","","","","","","","",""
"","","","","","canvas-keyboard-response","86","235601","0.0-12.0-4.14","2d_cat_multi_stim_exp1","2022-4-13","13:2:49","25","75","3","9","10","40","30","120","34","19","[""Other""]","No","Female","1745514","null","null","","","","clear_screen","","","","","","","","","","","","","","","","","","","","","","","","","",""
"","","","","","canvas-keyboard-response","87","236115","0.0-12.0-0.15","2d_cat_multi_stim_exp1","2022-4-13","13:2:49","25","75","3","9","10","40","30","120","34","19","[""Other""]","No","Female","1745514","null","null","","","","fixation","","","","","","","","","","","","","","","","","","","","","","","","","",""
"","","","","","canvas-keyboard-response","88","236626","0.0-12.0-1.15","2d_cat_multi_stim_exp1","2022-4-13","13:2:49","25","75","3","9","10","40","30","120","34","19","[""Other""]","No","Female","1745514","null","null","","","","clear_screen","","","","","","","","","","","","","","","","","","","","","","","","","",""
"","","","","","canvas-keyboard-response","89","238096","0.0-12.0-2.15","2d_cat_multi_stim_exp1","2022-4-13","13:2:49","25","75","3","9","10","40","30","120","34","19","[""Other""]","No","Female","1745514","1461","u","learn","","","learn_trial","36.6667","100","out","1","0","","","","","","","","","","","","","","","","","","","","",""
"","","","","","canvas-keyboard-response","90","239108","0.0-12.0-3.15","2d_cat_multi_stim_exp1","2022-4-13","13:2:49","25","75","3","9","10","40","30","120","34","19","[""Other""]","No","Female","1745514","null","null","learn_feedback","","","learn_feedback","36.6667","100","out","","","","","","","","","","","","","","","","","","","","","","",""
"","","","","","canvas-keyboard-response","91","239171","0.0-12.0-4.15","2d_cat_multi_stim_exp1","2022-4-13","13:2:49","25","75","3","9","10","40","30","120","34","19","[""Other""]","No","Female","1745514","null","null","","","","clear_screen","","","","","","","","","","","","","","","","","","","","","","","","","",""
"","","","","","canvas-keyboard-response","92","239682","0.0-12.0-0.16","2d_cat_multi_stim_exp1","2022-4-13","13:2:49","25","75","3","9","10","40","30","120","34","19","[""Other""]","No","Female","1745514","null","null","","","","fixation","","","","","","","","","","","","","","","","","","","","","","","","","",""
"","","","","","canvas-keyboard-response","93","240198","0.0-12.0-1.16","2d_cat_multi_stim_exp1","2022-4-13","13:2:49","25","75","3","9","10","40","30","120","34","19","[""Other""]","No","Female","1745514","null","null","","","","clear_screen","","","","","","","","","","","","","","","","","","","","","","","","","",""
"","","","","","canvas-keyboard-response","94","241392","0.0-12.0-2.16","2d_cat_multi_stim_exp1","2022-4-13","13:2:49","25","75","3","9","10","40","30","120","34","19","[""Other""]","No","Female","1745514","1184","u","learn","","","learn_trial","25","75","in","1","1","","","","","","","","","","","","","","","","","","","","",""
"","","","","","canvas-keyboard-response","95","241905","0.0-12.0-3.16","2d_cat_multi_stim_exp1","2022-4-13","13:2:49","25","75","3","9","10","40","30","120","34","19","[""Other""]","No","Female","1745514","null","null","learn_feedback","","","learn_feedback","25","75","in","","","","","","","","","","","","","","","","","","","","","","",""
"","","","","","canvas-keyboard-response","96","241965","0.0-12.0-4.16","2d_cat_multi_stim_exp1","2022-4-13","13:2:49","25","75","3","9","10","40","30","120","34","19","[""Other""]","No","Female","1745514","null","null","","","","clear_screen","","","","","","","","","","","","","","","","","","","","","","","","","",""
"","","","","","canvas-keyboard-response","97","242477","0.0-12.0-0.17","2d_cat_multi_stim_exp1","2022-4-13","13:2:49","25","75","3","9","10","40","30","120","34","19","[""Other""]","No","Female","1745514","null","null","","","","fixation","","","","","","","","","","","","","","","","","","","","","","","","","",""
"","","","","","canvas-keyboard-response","98","242991","0.0-12.0-1.17","2d_cat_multi_stim_exp1","2022-4-13","13:2:49","25","75","3","9","10","40","30","120","34","19","[""Other""]","No","Female","1745514","null","null","","","","clear_screen","","","","","","","","","","","","","","","","","","","","","","","","","",""
"","","","","","canvas-keyboard-response","99","244314","0.0-12.0-2.17","2d_cat_multi_stim_exp1","2022-4-13","13:2:49","25","75","3","9","10","40","30","120","34","19","[""Other""]","No","Female","1745514","1310","i","learn","","","learn_trial","26.8705","82.0365","in","0","0","","","","","","","","","","","","","","","","","","","","",""
"","","","","","canvas-keyboard-response","100","245324","0.0-12.0-3.17","2d_cat_multi_stim_exp1","2022-4-13","13:2:49","25","75","3","9","10","40","30","120","34","19","[""Other""]","No","Female","1745514","null","null","learn_feedback","","","learn_feedback","26.8705","82.0365","in","","","","","","","","","","","","","","","","","","","","","","",""
"","","","","","canvas-keyboard-response","101","245386","0.0-12.0-4.17","2d_cat_multi_stim_exp1","2022-4-13","13:2:49","25","75","3","9","10","40","30","120","34","19","[""Other""]","No","Female","1745514","null","null","","","","clear_screen","","","","","","","","","","","","","","","","","","","","","","","","","",""
"","","","","","canvas-keyboard-response","102","245896","0.0-12.0-0.18","2d_cat_multi_stim_exp1","2022-4-13","13:2:49","25","75","3","9","10","40","30","120","34","19","[""Other""]","No","Female","1745514","null","null","","","","fixation","","","","","","","","","","","","","","","","","","","","","","","","","",""
"","","","","","canvas-keyboard-response","103","246410","0.0-12.0-1.18","2d_cat_multi_stim_exp1","2022-4-13","13:2:49","25","75","3","9","10","40","30","120","34","19","[""Other""]","No","Female","1745514","null","null","","","","clear_screen","","","","","","","","","","","","","","","","","","","","","","","","","",""
"","","","","","canvas-keyboard-response","104","247920","0.0-12.0-2.18","2d_cat_multi_stim_exp1","2022-4-13","13:2:49","25","75","3","9","10","40","30","120","34","19","[""Other""]","No","Female","1745514","1499","i","learn","","","learn_trial","25.4027","66.0815","in","0","0","","","","","","","","","","","","","","","","","","","","",""
"","","","","","canvas-keyboard-response","105","248933","0.0-12.0-3.18","2d_cat_multi_stim_exp1","2022-4-13","13:2:49","25","75","3","9","10","40","30","120","34","19","[""Other""]","No","Female","1745514","null","null","learn_feedback","","","learn_feedback","25.4027","66.0815","in","","","","","","","","","","","","","","","","","","","","","","",""
"","","","","","canvas-keyboard-response","106","248993","0.0-12.0-4.18","2d_cat_multi_stim_exp1","2022-4-13","13:2:49","25","75","3","9","10","40","30","120","34","19","[""Other""]","No","Female","1745514","null","null","","","","clear_screen","","","","","","","","","","","","","","","","","","","","","","","","","",""
"","","","","","canvas-keyboard-response","107","249502","0.0-12.0-0.19","2d_cat_multi_stim_exp1","2022-4-13","13:2:49","25","75","3","9","10","40","30","120","34","19","[""Other""]","No","Female","1745514","null","null","","","","fixation","","","","","","","","","","","","","","","","","","","","","","","","","",""
"","","","","","canvas-keyboard-response","108","250015","0.0-12.0-1.19","2d_cat_multi_stim_exp1","2022-4-13","13:2:49","25","75","3","9","10","40","30","120","34","19","[""Other""]","No","Female","1745514","null","null","","","","clear_screen","","","","","","","","","","","","","","","","","","","","","","","","","",""
"","","","","","canvas-keyboard-response","109","250969","0.0-12.0-2.19","2d_cat_multi_stim_exp1","2022-4-13","13:2:49","25","75","3","9","10","40","30","120","34","19","[""Other""]","No","Female","1745514","940","u","learn","","","learn_trial","25","75","in","1","1","","","","","","","","","","","","","","","","","","","","",""
"","","","","","canvas-keyboard-response","110","251478","0.0-12.0-3.19","2d_cat_multi_stim_exp1","2022-4-13","13:2:49","25","75","3","9","10","40","30","120","34","19","[""Other""]","No","Female","1745514","null","null","learn_feedback","","","learn_feedback","25","75","in","","","","","","","","","","","","","","","","","","","","","","",""
"","","","","","canvas-keyboard-response","111","251539","0.0-12.0-4.19","2d_cat_multi_stim_exp1","2022-4-13","13:2:49","25","75","3","9","10","40","30","120","34","19","[""Other""]","No","Female","1745514","null","null","","","","clear_screen","","","","","","","","","","","","","","","","","","","","","","","","","",""
"","","","","","canvas-keyboard-response","112","252050","0.0-12.0-0.20","2d_cat_multi_stim_exp1","2022-4-13","13:2:49","25","75","3","9","10","40","30","120","34","19","[""Other""]","No","Female","1745514","null","null","","","","fixation","","","","","","","","","","","","","","","","","","","","","","","","","",""
"","","","","","canvas-keyboard-response","113","252566","0.0-12.0-1.20","2d_cat_multi_stim_exp1","2022-4-13","13:2:49","25","75","3","9","10","40","30","120","34","19","[""Other""]","No","Female","1745514","null","null","","","","clear_screen","","","","","","","","","","","","","","","","","","","","","","","","","",""
"","","","","","canvas-keyboard-response","114","253504","0.0-12.0-2.20","2d_cat_multi_stim_exp1","2022-4-13","13:2:49","25","75","3","9","10","40","30","120","34","19","[""Other""]","No","Female","1745514","930","i","learn","","","learn_trial","23.3333","110","out","0","1","","","","","","","","","","","","","","","","","","","","",""
"","","","","","canvas-keyboard-response","115","254014","0.0-12.0-3.20","2d_cat_multi_stim_exp1","2022-4-13","13:2:49","25","75","3","9","10","40","30","120","34","19","[""Other""]","No","Female","1745514","null","null","learn_feedback","","","learn_feedback","23.3333","110","out","","","","","","","","","","","","","","","","","","","","","","",""
"","","","","","canvas-keyboard-response","116","254075","0.0-12.0-4.20","2d_cat_multi_stim_exp1","2022-4-13","13:2:49","25","75","3","9","10","40","30","120","34","19","[""Other""]","No","Female","1745514","null","null","","","","clear_screen","","","","","","","","","","","","","","","","","","","","","","","","","",""
"","","","","","canvas-keyboard-response","117","254585","0.0-12.0-0.21","2d_cat_multi_stim_exp1","2022-4-13","13:2:49","25","75","3","9","10","40","30","120","34","19","[""Other""]","No","Female","1745514","null","null","","","","fixation","","","","","","","","","","","","","","","","","","","","","","","","","",""
"","","","","","canvas-keyboard-response","118","255098","0.0-12.0-1.21","2d_cat_multi_stim_exp1","2022-4-13","13:2:49","25","75","3","9","10","40","30","120","34","19","[""Other""]","No","Female","1745514","null","null","","","","clear_screen","","","","","","","","","","","","","","","","","","","","","","","","","",""
"","","","","","canvas-keyboard-response","119","256345","0.0-12.0-2.21","2d_cat_multi_stim_exp1","2022-4-13","13:2:49","25","75","3","9","10","40","30","120","34","19","[""Other""]","No","Female","1745514","1233","i","learn","","","learn_trial","13.3333","50","out","0","1","","","","","","","","","","","","","","","","","","","","",""
"","","","","","canvas-keyboard-response","120","256857","0.0-12.0-3.21","2d_cat_multi_stim_exp1","2022-4-13","13:2:49","25","75","3","9","10","40","30","120","34","19","[""Other""]","No","Female","1745514","null","null","learn_feedback","","","learn_feedback","13.3333","50","out","","","","","","","","","","","","","","","","","","","","","","",""
"","","","","","canvas-keyboard-response","121","256921","0.0-12.0-4.21","2d_cat_multi_stim_exp1","2022-4-13","13:2:49","25","75","3","9","10","40","30","120","34","19","[""Other""]","No","Female","1745514","null","null","","","","clear_screen","","","","","","","","","","","","","","","","","","","","","","","","","",""
"","","","","","canvas-keyboard-response","122","257433","0.0-12.0-0.22","2d_cat_multi_stim_exp1","2022-4-13","13:2:49","25","75","3","9","10","40","30","120","34","19","[""Other""]","No","Female","1745514","null","null","","","","fixation","","","","","","","","","","","","","","","","","","","","","","","","","",""
"","","","","","canvas-keyboard-response","123","257947","0.0-12.0-1.22","2d_cat_multi_stim_exp1","2022-4-13","13:2:49","25","75","3","9","10","40","30","120","34","19","[""Other""]","No","Female","1745514","null","null","","","","clear_screen","","","","","","","","","","","","","","","","","","","","","","","","","",""
"","","","","","canvas-keyboard-response","124","258960","0.0-12.0-2.22","2d_cat_multi_stim_exp1","2022-4-13","13:2:49","25","75","3","9","10","40","30","120","34","19","[""Other""]","No","Female","1745514","1002","i","learn","","","learn_trial","20","30","out","0","1","","","","","","","","","","","","","","","","","","","","",""
"","","","","","canvas-keyboard-response","125","259471","0.0-12.0-3.22","2d_cat_multi_stim_exp1","2022-4-13","13:2:49","25","75","3","9","10","40","30","120","34","19","[""Other""]","No","Female","1745514","null","null","learn_feedback","","","learn_feedback","20","30","out","","","","","","","","","","","","","","","","","","","","","","",""
"","","","","","canvas-keyboard-response","126","259531","0.0-12.0-4.22","2d_cat_multi_stim_exp1","2022-4-13","13:2:49","25","75","3","9","10","40","30","120","34","19","[""Other""]","No","Female","1745514","null","null","","","","clear_screen","","","","","","","","","","","","","","","","","","","","","","","","","",""
"","","","","","canvas-keyboard-response","127","260042","0.0-12.0-0.23","2d_cat_multi_stim_exp1","2022-4-13","13:2:49","25","75","3","9","10","40","30","120","34","19","[""Other""]","No","Female","1745514","null","null","","","","fixation","","","","","","","","","","","","","","","","","","","","","","","","","",""
"","","","","","canvas-keyboard-response","128","260552","0.0-12.0-1.23","2d_cat_multi_stim_exp1","2022-4-13","13:2:49","25","75","3","9","10","40","30","120","34","19","[""Other""]","No","Female","1745514","null","null","","","","clear_screen","","","","","","","","","","","","","","","","","","","","","","","","","",""
"","","","","","canvas-keyboard-response","129","261033","0.0-12.0-2.23","2d_cat_multi_stim_exp1","2022-4-13","13:2:49","25","75","3","9","10","40","30","120","34","19","[""Other""]","No","Female","1745514","468","u","learn","","","learn_trial","30","80","out","1","0","","","","","","","","","","","","","","","","","","","","",""
"","","","","","canvas-keyboard-response","130","262045","0.0-12.0-3.23","2d_cat_multi_stim_exp1","2022-4-13","13:2:49","25","75","3","9","10","40","30","120","34","19","[""Other""]","No","Female","1745514","null","null","learn_feedback","","","learn_feedback","30","80","out","","","","","","","","","","","","","","","","","","","","","","",""
"","","","","","canvas-keyboard-response","131","262108","0.0-12.0-4.23","2d_cat_multi_stim_exp1","2022-4-13","13:2:49","25","75","3","9","10","40","30","120","34","19","[""Other""]","No","Female","1745514","null","null","","","","clear_screen","","","","","","","","","","","","","","","","","","","","","","","","","",""
"","","","","","canvas-keyboard-response","132","262619","0.0-12.0-0.24","2d_cat_multi_stim_exp1","2022-4-13","13:2:49","25","75","3","9","10","40","30","120","34","19","[""Other""]","No","Female","1745514","null","null","","","","fixation","","","","","","","","","","","","","","","","","","","","","","","","","",""
"","","","","","canvas-keyboard-response","133","263131","0.0-12.0-1.24","2d_cat_multi_stim_exp1","2022-4-13","13:2:49","25","75","3","9","10","40","30","120","34","19","[""Other""]","No","Female","1745514","null","null","","","","clear_screen","","","","","","","","","","","","","","","","","","","","","","","","","",""
"","","","","","canvas-keyboard-response","134","264529","0.0-12.0-2.24","2d_cat_multi_stim_exp1","2022-4-13","13:2:49","25","75","3","9","10","40","30","120","34","19","[""Other""]","No","Female","1745514","1386","i","learn","","","learn_trial","27.2592","80.9214","in","0","0","","","","","","","","","","","","","","","","","","","","",""
"","","","","","canvas-keyboard-response","135","265540","0.0-12.0-3.24","2d_cat_multi_stim_exp1","2022-4-13","13:2:49","25","75","3","9","10","40","30","120","34","19","[""Other""]","No","Female","1745514","null","null","learn_feedback","","","learn_feedback","27.2592","80.9214","in","","","","","","","","","","","","","","","","","","","","","","",""
"","","","","","canvas-keyboard-response","136","265605","0.0-12.0-4.24","2d_cat_multi_stim_exp1","2022-4-13","13:2:49","25","75","3","9","10","40","30","120","34","19","[""Other""]","No","Female","1745514","null","null","","","","clear_screen","","","","","","","","","","","","","","","","","","","","","","","","","",""
"","","","","","canvas-keyboard-response","137","266114","0.0-12.0-0.25","2d_cat_multi_stim_exp1","2022-4-13","13:2:49","25","75","3","9","10","40","30","120","34","19","[""Other""]","No","Female","1745514","null","null","","","","fixation","","","","","","","","","","","","","","","","","","","","","","","","","",""
"","","","","","canvas-keyboard-response","138","266626","0.0-12.0-1.25","2d_cat_multi_stim_exp1","2022-4-13","13:2:49","25","75","3","9","10","40","30","120","34","19","[""Other""]","No","Female","1745514","null","null","","","","clear_screen","","","","","","","","","","","","","","","","","","","","","","","","","",""
"","","","","","canvas-keyboard-response","139","267440","0.0-12.0-2.25","2d_cat_multi_stim_exp1","2022-4-13","13:2:49","25","75","3","9","10","40","30","120","34","19","[""Other""]","No","Female","1745514","803","u","learn","","","learn_trial","25","75","in","1","1","","","","","","","","","","","","","","","","","","","","",""
"","","","","","canvas-keyboard-response","140","267951","0.0-12.0-3.25","2d_cat_multi_stim_exp1","2022-4-13","13:2:49","25","75","3","9","10","40","30","120","34","19","[""Other""]","No","Female","1745514","null","null","learn_feedback","","","learn_feedback","25","75","in","","","","","","","","","","","","","","","","","","","","","","",""
"","","","","","canvas-keyboard-response","141","268014","0.0-12.0-4.25","2d_cat_multi_stim_exp1","2022-4-13","13:2:49","25","75","3","9","10","40","30","120","34","19","[""Other""]","No","Female","1745514","null","null","","","","clear_screen","","","","","","","","","","","","","","","","","","","","","","","","","",""
"","","","","","canvas-keyboard-response","142","268525","0.0-12.0-0.26","2d_cat_multi_stim_exp1","2022-4-13","13:2:49","25","75","3","9","10","40","30","120","34","19","[""Other""]","No","Female","1745514","null","null","","","","fixation","","","","","","","","","","","","","","","","","","","","","","","","","",""
"","","","","","canvas-keyboard-response","143","269036","0.0-12.0-1.26","2d_cat_multi_stim_exp1","2022-4-13","13:2:49","25","75","3","9","10","40","30","120","34","19","[""Other""]","No","Female","1745514","null","null","","","","clear_screen","","","","","","","","","","","","","","","","","","","","","","","","","",""
"","","","","","canvas-keyboard-response","144","270320","0.0-12.0-2.26","2d_cat_multi_stim_exp1","2022-4-13","13:2:49","25","75","3","9","10","40","30","120","34","19","[""Other""]","No","Female","1745514","1275","u","learn","","","learn_trial","25","75","in","1","1","","","","","","","","","","","","","","","","","","","","",""
"","","","","","canvas-keyboard-response","145","270830","0.0-12.0-3.26","2d_cat_multi_stim_exp1","2022-4-13","13:2:49","25","75","3","9","10","40","30","120","34","19","[""Other""]","No","Female","1745514","null","null","learn_feedback","","","learn_feedback","25","75","in","","","","","","","","","","","","","","","","","","","","","","",""
"","","","","","canvas-keyboard-response","146","270893","0.0-12.0-4.26","2d_cat_multi_stim_exp1","2022-4-13","13:2:49","25","75","3","9","10","40","30","120","34","19","[""Other""]","No","Female","1745514","null","null","","","","clear_screen","","","","","","","","","","","","","","","","","","","","","","","","","",""
"","","","","","canvas-keyboard-response","147","271402","0.0-12.0-0.27","2d_cat_multi_stim_exp1","2022-4-13","13:2:49","25","75","3","9","10","40","30","120","34","19","[""Other""]","No","Female","1745514","null","null","","","","fixation","","","","","","","","","","","","","","","","","","","","","","","","","",""
"","","","","","canvas-keyboard-response","148","271917","0.0-12.0-1.27","2d_cat_multi_stim_exp1","2022-4-13","13:2:49","25","75","3","9","10","40","30","120","34","19","[""Other""]","No","Female","1745514","null","null","","","","clear_screen","","","","","","","","","","","","","","","","","","","","","","","","","",""
"","","","","","canvas-keyboard-response","149","272944","0.0-12.0-2.27","2d_cat_multi_stim_exp1","2022-4-13","13:2:49","25","75","3","9","10","40","30","120","34","19","[""Other""]","No","Female","1745514","1016","i","learn","","","learn_trial","33.3333","60","out","0","1","","","","","","","","","","","","","","","","","","","","",""
"","","","","","canvas-keyboard-response","150","273454","0.0-12.0-3.27","2d_cat_multi_stim_exp1","2022-4-13","13:2:49","25","75","3","9","10","40","30","120","34","19","[""Other""]","No","Female","1745514","null","null","learn_feedback","","","learn_feedback","33.3333","60","out","","","","","","","","","","","","","","","","","","","","","","",""
"","","","","","canvas-keyboard-response","151","273518","0.0-12.0-4.27","2d_cat_multi_stim_exp1","2022-4-13","13:2:49","25","75","3","9","10","40","30","120","34","19","[""Other""]","No","Female","1745514","null","null","","","","clear_screen","","","","","","","","","","","","","","","","","","","","","","","","","",""
"","","","","","canvas-keyboard-response","152","274028","0.0-12.0-0.28","2d_cat_multi_stim_exp1","2022-4-13","13:2:49","25","75","3","9","10","40","30","120","34","19","[""Other""]","No","Female","1745514","null","null","","","","fixation","","","","","","","","","","","","","","","","","","","","","","","","","",""
"","","","","","canvas-keyboard-response","153","274542","0.0-12.0-1.28","2d_cat_multi_stim_exp1","2022-4-13","13:2:49","25","75","3","9","10","40","30","120","34","19","[""Other""]","No","Female","1745514","null","null","","","","clear_screen","","","","","","","","","","","","","","","","","","","","","","","","","",""
"","","","","","canvas-keyboard-response","154","275273","0.0-12.0-2.28","2d_cat_multi_stim_exp1","2022-4-13","13:2:49","25","75","3","9","10","40","30","120","34","19","[""Other""]","No","Female","1745514","717","u","learn","","","learn_trial","19","75","in","1","1","","","","","","","","","","","","","","","","","","","","",""
"","","","","","canvas-keyboard-response","155","275784","0.0-12.0-3.28","2d_cat_multi_stim_exp1","2022-4-13","13:2:49","25","75","3","9","10","40","30","120","34","19","[""Other""]","No","Female","1745514","null","null","learn_feedback","","","learn_feedback","19","75","in","","","","","","","","","","","","","","","","","","","","","","",""
"","","","","","canvas-keyboard-response","156","275847","0.0-12.0-4.28","2d_cat_multi_stim_exp1","2022-4-13","13:2:49","25","75","3","9","10","40","30","120","34","19","[""Other""]","No","Female","1745514","null","null","","","","clear_screen","","","","","","","","","","","","","","","","","","","","","","","","","",""
"","","","","","canvas-keyboard-response","157","276359","0.0-12.0-0.29","2d_cat_multi_stim_exp1","2022-4-13","13:2:49","25","75","3","9","10","40","30","120","34","19","[""Other""]","No","Female","1745514","null","null","","","","fixation","","","","","","","","","","","","","","","","","","","","","","","","","",""
"","","","","","canvas-keyboard-response","158","276871","0.0-12.0-1.29","2d_cat_multi_stim_exp1","2022-4-13","13:2:49","25","75","3","9","10","40","30","120","34","19","[""Other""]","No","Female","1745514","null","null","","","","clear_screen","","","","","","","","","","","","","","","","","","","","","","","","","",""
"","","","","","canvas-keyboard-response","159","277969","0.0-12.0-2.29","2d_cat_multi_stim_exp1","2022-4-13","13:2:49","25","75","3","9","10","40","30","120","34","19","[""Other""]","No","Female","1745514","1086","i","learn","","","learn_trial","30","30","out","0","1","","","","","","","","","","","","","","","","","","","","",""
"","","","","","canvas-keyboard-response","160","278481","0.0-12.0-3.29","2d_cat_multi_stim_exp1","2022-4-13","13:2:49","25","75","3","9","10","40","30","120","34","19","[""Other""]","No","Female","1745514","null","null","learn_feedback","","","learn_feedback","30","30","out","","","","","","","","","","","","","","","","","","","","","","",""
"","","","","","canvas-keyboard-response","161","278546","0.0-12.0-4.29","2d_cat_multi_stim_exp1","2022-4-13","13:2:49","25","75","3","9","10","40","30","120","34","19","[""Other""]","No","Female","1745514","null","null","","","","clear_screen","","","","","","","","","","","","","","","","","","","","","","","","","",""
"","","","","","canvas-keyboard-response","162","279056","0.0-12.0-0.30","2d_cat_multi_stim_exp1","2022-4-13","13:2:49","25","75","3","9","10","40","30","120","34","19","[""Other""]","No","Female","1745514","null","null","","","","fixation","","","","","","","","","","","","","","","","","","","","","","","","","",""
"","","","","","canvas-keyboard-response","163","279570","0.0-12.0-1.30","2d_cat_multi_stim_exp1","2022-4-13","13:2:49","25","75","3","9","10","40","30","120","34","19","[""Other""]","No","Female","1745514","null","null","","","","clear_screen","","","","","","","","","","","","","","","","","","","","","","","","","",""
"","","","","","canvas-keyboard-response","164","280456","0.0-12.0-2.30","2d_cat_multi_stim_exp1","2022-4-13","13:2:49","25","75","3","9","10","40","30","120","34","19","[""Other""]","No","Female","1745514","878","i","learn","","","learn_trial","25","93","in","0","0","","","","","","","","","","","","","","","","","","","","",""
"","","","","","canvas-keyboard-response","165","281469","0.0-12.0-3.30","2d_cat_multi_stim_exp1","2022-4-13","13:2:49","25","75","3","9","10","40","30","120","34","19","[""Other""]","No","Female","1745514","null","null","learn_feedback","","","learn_feedback","25","93","in","","","","","","","","","","","","","","","","","","","","","","",""
"","","","","","canvas-keyboard-response","166","281529","0.0-12.0-4.30","2d_cat_multi_stim_exp1","2022-4-13","13:2:49","25","75","3","9","10","40","30","120","34","19","[""Other""]","No","Female","1745514","null","null","","","","clear_screen","","","","","","","","","","","","","","","","","","","","","","","","","",""
"","","","","","canvas-keyboard-response","167","282038","0.0-12.0-0.31","2d_cat_multi_stim_exp1","2022-4-13","13:2:49","25","75","3","9","10","40","30","120","34","19","[""Other""]","No","Female","1745514","null","null","","","","fixation","","","","","","","","","","","","","","","","","","","","","","","","","",""
"","","","","","canvas-keyboard-response","168","282551","0.0-12.0-1.31","2d_cat_multi_stim_exp1","2022-4-13","13:2:49","25","75","3","9","10","40","30","120","34","19","[""Other""]","No","Female","1745514","null","null","","","","clear_screen","","","","","","","","","","","","","","","","","","","","","","","","","",""
"","","","","","canvas-keyboard-response","169","283273","0.0-12.0-2.31","2d_cat_multi_stim_exp1","2022-4-13","13:2:49","25","75","3","9","10","40","30","120","34","19","[""Other""]","No","Female","1745514","710","u","learn","","","learn_trial","22.2971","71.095","in","1","1","","","","","","","","","","","","","","","","","","","","",""
"","","","","","canvas-keyboard-response","170","283782","0.0-12.0-3.31","2d_cat_multi_stim_exp1","2022-4-13","13:2:49","25","75","3","9","10","40","30","120","34","19","[""Other""]","No","Female","1745514","null","null","learn_feedback","","","learn_feedback","22.2971","71.095","in","","","","","","","","","","","","","","","","","","","","","","",""
"","","","","","canvas-keyboard-response","171","283842","0.0-12.0-4.31","2d_cat_multi_stim_exp1","2022-4-13","13:2:49","25","75","3","9","10","40","30","120","34","19","[""Other""]","No","Female","1745514","null","null","","","","clear_screen","","","","","","","","","","","","","","","","","","","","","","","","","",""
"","","","","","canvas-keyboard-response","172","284355","0.0-12.0-0.32","2d_cat_multi_stim_exp1","2022-4-13","13:2:49","25","75","3","9","10","40","30","120","34","19","[""Other""]","No","Female","1745514","null","null","","","","fixation","","","","","","","","","","","","","","","","","","","","","","","","","",""
"","","","","","canvas-keyboard-response","173","284867","0.0-12.0-1.32","2d_cat_multi_stim_exp1","2022-4-13","13:2:49","25","75","3","9","10","40","30","120","34","19","[""Other""]","No","Female","1745514","null","null","","","","clear_screen","","","","","","","","","","","","","","","","","","","","","","","","","",""
"","","","","","canvas-keyboard-response","174","285624","0.0-12.0-2.32","2d_cat_multi_stim_exp1","2022-4-13","13:2:49","25","75","3","9","10","40","30","120","34","19","[""Other""]","No","Female","1745514","748","u","learn","","","learn_trial","25","75","in","1","1","","","","","","","","","","","","","","","","","","","","",""
"","","","","","canvas-keyboard-response","175","286133","0.0-12.0-3.32","2d_cat_multi_stim_exp1","2022-4-13","13:2:49","25","75","3","9","10","40","30","120","34","19","[""Other""]","No","Female","1745514","null","null","learn_feedback","","","learn_feedback","25","75","in","","","","","","","","","","","","","","","","","","","","","","",""
"","","","","","canvas-keyboard-response","176","286195","0.0-12.0-4.32","2d_cat_multi_stim_exp1","2022-4-13","13:2:49","25","75","3","9","10","40","30","120","34","19","[""Other""]","No","Female","1745514","null","null","","","","clear_screen","","","","","","","","","","","","","","","","","","","","","","","","","",""
"","","","","","canvas-keyboard-response","177","286704","0.0-12.0-0.33","2d_cat_multi_stim_exp1","2022-4-13","13:2:49","25","75","3","9","10","40","30","120","34","19","[""Other""]","No","Female","1745514","null","null","","","","fixation","","","","","","","","","","","","","","","","","","","","","","","","","",""
"","","","","","canvas-keyboard-response","178","287215","0.0-12.0-1.33","2d_cat_multi_stim_exp1","2022-4-13","13:2:49","25","75","3","9","10","40","30","120","34","19","[""Other""]","No","Female","1745514","null","null","","","","clear_screen","","","","","","","","","","","","","","","","","","","","","","","","","",""
"","","","","","canvas-keyboard-response","179","287994","0.0-12.0-2.33","2d_cat_multi_stim_exp1","2022-4-13","13:2:49","25","75","3","9","10","40","30","120","34","19","[""Other""]","No","Female","1745514","767","i","learn","","","learn_trial","36.6667","50","out","0","1","","","","","","","","","","","","","","","","","","","","",""
"","","","","","canvas-keyboard-response","180","288505","0.0-12.0-3.33","2d_cat_multi_stim_exp1","2022-4-13","13:2:49","25","75","3","9","10","40","30","120","34","19","[""Other""]","No","Female","1745514","null","null","learn_feedback","","","learn_feedback","36.6667","50","out","","","","","","","","","","","","","","","","","","","","","","",""
"","","","","","canvas-keyboard-response","181","288567","0.0-12.0-4.33","2d_cat_multi_stim_exp1","2022-4-13","13:2:49","25","75","3","9","10","40","30","120","34","19","[""Other""]","No","Female","1745514","null","null","","","","clear_screen","","","","","","","","","","","","","","","","","","","","","","","","","",""
"","","","","","canvas-keyboard-response","182","289075","0.0-12.0-0.34","2d_cat_multi_stim_exp1","2022-4-13","13:2:49","25","75","3","9","10","40","30","120","34","19","[""Other""]","No","Female","1745514","null","null","","","","fixation","","","","","","","","","","","","","","","","","","","","","","","","","",""
"","","","","","canvas-keyboard-response","183","289587","0.0-12.0-1.34","2d_cat_multi_stim_exp1","2022-4-13","13:2:49","25","75","3","9","10","40","30","120","34","19","[""Other""]","No","Female","1745514","null","null","","","","clear_screen","","","","","","","","","","","","","","","","","","","","","","","","","",""
"","","","","","canvas-keyboard-response","184","290665","0.0-12.0-2.34","2d_cat_multi_stim_exp1","2022-4-13","13:2:49","25","75","3","9","10","40","30","120","34","19","[""Other""]","No","Female","1745514","1063","u","learn","","","learn_trial","25","75","in","1","1","","","","","","","","","","","","","","","","","","","","",""
"","","","","","canvas-keyboard-response","185","291176","0.0-12.0-3.34","2d_cat_multi_stim_exp1","2022-4-13","13:2:49","25","75","3","9","10","40","30","120","34","19","[""Other""]","No","Female","1745514","null","null","learn_feedback","","","learn_feedback","25","75","in","","","","","","","","","","","","","","","","","","","","","","",""
"","","","","","canvas-keyboard-response","186","291241","0.0-12.0-4.34","2d_cat_multi_stim_exp1","2022-4-13","13:2:49","25","75","3","9","10","40","30","120","34","19","[""Other""]","No","Female","1745514","null","null","","","","clear_screen","","","","","","","","","","","","","","","","","","","","","","","","","",""
"","","","","","canvas-keyboard-response","187","291752","0.0-12.0-0.35","2d_cat_multi_stim_exp1","2022-4-13","13:2:49","25","75","3","9","10","40","30","120","34","19","[""Other""]","No","Female","1745514","null","null","","","","fixation","","","","","","","","","","","","","","","","","","","","","","","","","",""
"","","","","","canvas-keyboard-response","188","292263","0.0-12.0-1.35","2d_cat_multi_stim_exp1","2022-4-13","13:2:49","25","75","3","9","10","40","30","120","34","19","[""Other""]","No","Female","1745514","null","null","","","","clear_screen","","","","","","","","","","","","","","","","","","","","","","","","","",""
"","","","","","canvas-keyboard-response","189","293280","0.0-12.0-2.35","2d_cat_multi_stim_exp1","2022-4-13","13:2:49","25","75","3","9","10","40","30","120","34","19","[""Other""]","No","Female","1745514","1005","i","learn","","","learn_trial","20","50","out","0","1","","","","","","","","","","","","","","","","","","","","",""
"","","","","","canvas-keyboard-response","190","293790","0.0-12.0-3.35","2d_cat_multi_stim_exp1","2022-4-13","13:2:49","25","75","3","9","10","40","30","120","34","19","[""Other""]","No","Female","1745514","null","null","learn_feedback","","","learn_feedback","20","50","out","","","","","","","","","","","","","","","","","","","","","","",""
"","","","","","canvas-keyboard-response","191","293850","0.0-12.0-4.35","2d_cat_multi_stim_exp1","2022-4-13","13:2:49","25","75","3","9","10","40","30","120","34","19","[""Other""]","No","Female","1745514","null","null","","","","clear_screen","","","","","","","","","","","","","","","","","","","","","","","","","",""
"","","","","","canvas-keyboard-response","192","294360","0.0-12.0-0.36","2d_cat_multi_stim_exp1","2022-4-13","13:2:49","25","75","3","9","10","40","30","120","34","19","[""Other""]","No","Female","1745514","null","null","","","","fixation","","","","","","","","","","","","","","","","","","","","","","","","","",""
"","","","","","canvas-keyboard-response","193","294874","0.0-12.0-1.36","2d_cat_multi_stim_exp1","2022-4-13","13:2:49","25","75","3","9","10","40","30","120","34","19","[""Other""]","No","Female","1745514","null","null","","","","clear_screen","","","","","","","","","","","","","","","","","","","","","","","","","",""
"","","","","","canvas-keyboard-response","194","295737","0.0-12.0-2.36","2d_cat_multi_stim_exp1","2022-4-13","13:2:49","25","75","3","9","10","40","30","120","34","19","[""Other""]","No","Female","1745514","853","i","learn","","","learn_trial","30","120","out","0","1","","","","","","","","","","","","","","","","","","","","",""
"","","","","","canvas-keyboard-response","195","296248","0.0-12.0-3.36","2d_cat_multi_stim_exp1","2022-4-13","13:2:49","25","75","3","9","10","40","30","120","34","19","[""Other""]","No","Female","1745514","null","null","learn_feedback","","","learn_feedback","30","120","out","","","","","","","","","","","","","","","","","","","","","","",""
"","","","","","canvas-keyboard-response","196","296314","0.0-12.0-4.36","2d_cat_multi_stim_exp1","2022-4-13","13:2:49","25","75","3","9","10","40","30","120","34","19","[""Other""]","No","Female","1745514","null","null","","","","clear_screen","","","","","","","","","","","","","","","","","","","","","","","","","",""
"","","","","","canvas-keyboard-response","197","296825","0.0-12.0-0.37","2d_cat_multi_stim_exp1","2022-4-13","13:2:49","25","75","3","9","10","40","30","120","34","19","[""Other""]","No","Female","1745514","null","null","","","","fixation","","","","","","","","","","","","","","","","","","","","","","","","","",""
"","","","","","canvas-keyboard-response","198","297335","0.0-12.0-1.37","2d_cat_multi_stim_exp1","2022-4-13","13:2:49","25","75","3","9","10","40","30","120","34","19","[""Other""]","No","Female","1745514","null","null","","","","clear_screen","","","","","","","","","","","","","","","","","","","","","","","","","",""
"","","","","","canvas-keyboard-response","199","298017","0.0-12.0-2.37","2d_cat_multi_stim_exp1","2022-4-13","13:2:49","25","75","3","9","10","40","30","120","34","19","[""Other""]","No","Female","1745514","669","u","learn","","","learn_trial","22.5729","80.2901","in","1","1","","","","","","","","","","","","","","","","","","","","",""
"","","","","","canvas-keyboard-response","200","298528","0.0-12.0-3.37","2d_cat_multi_stim_exp1","2022-4-13","13:2:49","25","75","3","9","10","40","30","120","34","19","[""Other""]","No","Female","1745514","null","null","learn_feedback","","","learn_feedback","22.5729","80.2901","in","","","","","","","","","","","","","","","","","","","","","","",""
"","","","","","canvas-keyboard-response","201","298590","0.0-12.0-4.37","2d_cat_multi_stim_exp1","2022-4-13","13:2:49","25","75","3","9","10","40","30","120","34","19","[""Other""]","No","Female","1745514","null","null","","","","clear_screen","","","","","","","","","","","","","","","","","","","","","","","","","",""
"","","","","","canvas-keyboard-response","202","299100","0.0-12.0-0.38","2d_cat_multi_stim_exp1","2022-4-13","13:2:49","25","75","3","9","10","40","30","120","34","19","[""Other""]","No","Female","1745514","null","null","","","","fixation","","","","","","","","","","","","","","","","","","","","","","","","","",""
"","","","","","canvas-keyboard-response","203","299614","0.0-12.0-1.38","2d_cat_multi_stim_exp1","2022-4-13","13:2:49","25","75","3","9","10","40","30","120","34","19","[""Other""]","No","Female","1745514","null","null","","","","clear_screen","","","","","","","","","","","","","","","","","","","","","","","","","",""
"","","","","","canvas-keyboard-response","204","300152","0.0-12.0-2.38","2d_cat_multi_stim_exp1","2022-4-13","13:2:49","25","75","3","9","10","40","30","120","34","19","[""Other""]","No","Female","1745514","526","u","learn","","","learn_trial","24.3324","66.2256","in","1","1","","","","","","","","","","","","","","","","","","","","",""
"","","","","","canvas-keyboard-response","205","300662","0.0-12.0-3.38","2d_cat_multi_stim_exp1","2022-4-13","13:2:49","25","75","3","9","10","40","30","120","34","19","[""Other""]","No","Female","1745514","null","null","learn_feedback","","","learn_feedback","24.3324","66.2256","in","","","","","","","","","","","","","","","","","","","","","","",""
"","","","","","canvas-keyboard-response","206","300723","0.0-12.0-4.38","2d_cat_multi_stim_exp1","2022-4-13","13:2:49","25","75","3","9","10","40","30","120","34","19","[""Other""]","No","Female","1745514","null","null","","","","clear_screen","","","","","","","","","","","","","","","","","","","","","","","","","",""
"","","","","","canvas-keyboard-response","207","301234","0.0-12.0-0.39","2d_cat_multi_stim_exp1","2022-4-13","13:2:49","25","75","3","9","10","40","30","120","34","19","[""Other""]","No","Female","1745514","null","null","","","","fixation","","","","","","","","","","","","","","","","","","","","","","","","","",""
"","","","","","canvas-keyboard-response","208","301749","0.0-12.0-1.39","2d_cat_multi_stim_exp1","2022-4-13","13:2:49","25","75","3","9","10","40","30","120","34","19","[""Other""]","No","Female","1745514","null","null","","","","clear_screen","","","","","","","","","","","","","","","","","","","","","","","","","",""
"","","","","","canvas-keyboard-response","209","302528","0.0-12.0-2.39","2d_cat_multi_stim_exp1","2022-4-13","13:2:49","25","75","3","9","10","40","30","120","34","19","[""Other""]","No","Female","1745514","767","u","learn","","","learn_trial","16.6667","80","out","1","0","","","","","","","","","","","","","","","","","","","","",""
"","","","","","canvas-keyboard-response","210","303541","0.0-12.0-3.39","2d_cat_multi_stim_exp1","2022-4-13","13:2:49","25","75","3","9","10","40","30","120","34","19","[""Other""]","No","Female","1745514","null","null","learn_feedback","","","learn_feedback","16.6667","80","out","","","","","","","","","","","","","","","","","","","","","","",""
"","","","","","canvas-keyboard-response","211","303603","0.0-12.0-4.39","2d_cat_multi_stim_exp1","2022-4-13","13:2:49","25","75","3","9","10","40","30","120","34","19","[""Other""]","No","Female","1745514","null","null","","","","clear_screen","","","","","","","","","","","","","","","","","","","","","","","","","",""
"","","","","","canvas-keyboard-response","212","304114","0.0-12.0-0.40","2d_cat_multi_stim_exp1","2022-4-13","13:2:49","25","75","3","9","10","40","30","120","34","19","[""Other""]","No","Female","1745514","null","null","","","","fixation","","","","","","","","","","","","","","","","","","","","","","","","","",""
"","","","","","canvas-keyboard-response","213","304630","0.0-12.0-1.40","2d_cat_multi_stim_exp1","2022-4-13","13:2:49","25","75","3","9","10","40","30","120","34","19","[""Other""]","No","Female","1745514","null","null","","","","clear_screen","","","","","","","","","","","","","","","","","","","","","","","","","",""
"","","","","","canvas-keyboard-response","214","305569","0.0-12.0-2.40","2d_cat_multi_stim_exp1","2022-4-13","13:2:49","25","75","3","9","10","40","30","120","34","19","[""Other""]","No","Female","1745514","929","i","learn","","","learn_trial","20","40","out","0","1","","","","","","","","","","","","","","","","","","","","",""
"","","","","","canvas-keyboard-response","215","306081","0.0-12.0-3.40","2d_cat_multi_stim_exp1","2022-4-13","13:2:49","25","75","3","9","10","40","30","120","34","19","[""Other""]","No","Female","1745514","null","null","learn_feedback","","","learn_feedback","20","40","out","","","","","","","","","","","","","","","","","","","","","","",""
"","","","","","canvas-keyboard-response","216","306142","0.0-12.0-4.40","2d_cat_multi_stim_exp1","2022-4-13","13:2:49","25","75","3","9","10","40","30","120","34","19","[""Other""]","No","Female","1745514","null","null","","","","clear_screen","","","","","","","","","","","","","","","","","","","","","","","","","",""
"","","","","","canvas-keyboard-response","217","306652","0.0-12.0-0.41","2d_cat_multi_stim_exp1","2022-4-13","13:2:49","25","75","3","9","10","40","30","120","34","19","[""Other""]","No","Female","1745514","null","null","","","","fixation","","","","","","","","","","","","","","","","","","","","","","","","","",""
"","","","","","canvas-keyboard-response","218","307168","0.0-12.0-1.41","2d_cat_multi_stim_exp1","2022-4-13","13:2:49","25","75","3","9","10","40","30","120","34","19","[""Other""]","No","Female","1745514","null","null","","","","clear_screen","","","","","","","","","","","","","","","","","","","","","","","","","",""
"","","","","","canvas-keyboard-response","219","308136","0.0-12.0-2.41","2d_cat_multi_stim_exp1","2022-4-13","13:2:49","25","75","3","9","10","40","30","120","34","19","[""Other""]","No","Female","1745514","956","i","learn","","","learn_trial","27.9518","76.607","in","0","0","","","","","","","","","","","","","","","","","","","","",""
"","","","","","canvas-keyboard-response","220","309148","0.0-12.0-3.41","2d_cat_multi_stim_exp1","2022-4-13","13:2:49","25","75","3","9","10","40","30","120","34","19","[""Other""]","No","Female","1745514","null","null","learn_feedback","","","learn_feedback","27.9518","76.607","in","","","","","","","","","","","","","","","","","","","","","","",""
"","","","","","canvas-keyboard-response","221","309210","0.0-12.0-4.41","2d_cat_multi_stim_exp1","2022-4-13","13:2:49","25","75","3","9","10","40","30","120","34","19","[""Other""]","No","Female","1745514","null","null","","","","clear_screen","","","","","","","","","","","","","","","","","","","","","","","","","",""
"","","","","","canvas-keyboard-response","222","309720","0.0-12.0-0.42","2d_cat_multi_stim_exp1","2022-4-13","13:2:49","25","75","3","9","10","40","30","120","34","19","[""Other""]","No","Female","1745514","null","null","","","","fixation","","","","","","","","","","","","","","","","","","","","","","","","","",""
"","","","","","canvas-keyboard-response","223","310233","0.0-12.0-1.42","2d_cat_multi_stim_exp1","2022-4-13","13:2:49","25","75","3","9","10","40","30","120","34","19","[""Other""]","No","Female","1745514","null","null","","","","clear_screen","","","","","","","","","","","","","","","","","","","","","","","","","",""
"","","","","","canvas-keyboard-response","224","312081","0.0-12.0-2.42","2d_cat_multi_stim_exp1","2022-4-13","13:2:49","25","75","3","9","10","40","30","120","34","19","[""Other""]","No","Female","1745514","1836","u","learn","","","learn_trial","23.3473","82.5112","in","1","1","","","","","","","","","","","","","","","","","","","","",""
"","","","","","canvas-keyboard-response","225","312591","0.0-12.0-3.42","2d_cat_multi_stim_exp1","2022-4-13","13:2:49","25","75","3","9","10","40","30","120","34","19","[""Other""]","No","Female","1745514","null","null","learn_feedback","","","learn_feedback","23.3473","82.5112","in","","","","","","","","","","","","","","","","","","","","","","",""
"","","","","","canvas-keyboard-response","226","312652","0.0-12.0-4.42","2d_cat_multi_stim_exp1","2022-4-13","13:2:49","25","75","3","9","10","40","30","120","34","19","[""Other""]","No","Female","1745514","null","null","","","","clear_screen","","","","","","","","","","","","","","","","","","","","","","","","","",""
"","","","","","canvas-keyboard-response","227","313161","0.0-12.0-0.43","2d_cat_multi_stim_exp1","2022-4-13","13:2:49","25","75","3","9","10","40","30","120","34","19","[""Other""]","No","Female","1745514","null","null","","","","fixation","","","","","","","","","","","","","","","","","","","","","","","","","",""
"","","","","","canvas-keyboard-response","228","313672","0.0-12.0-1.43","2d_cat_multi_stim_exp1","2022-4-13","13:2:49","25","75","3","9","10","40","30","120","34","19","[""Other""]","No","Female","1745514","null","null","","","","clear_screen","","","","","","","","","","","","","","","","","","","","","","","","","",""
"","","","","","canvas-keyboard-response","229","314705","0.0-12.0-2.43","2d_cat_multi_stim_exp1","2022-4-13","13:2:49","25","75","3","9","10","40","30","120","34","19","[""Other""]","No","Female","1745514","1024","u","learn","","","learn_trial","26.6667","60","out","1","0","","","","","","","","","","","","","","","","","","","","",""
"","","","","","canvas-keyboard-response","230","315717","0.0-12.0-3.43","2d_cat_multi_stim_exp1","2022-4-13","13:2:49","25","75","3","9","10","40","30","120","34","19","[""Other""]","No","Female","1745514","null","null","learn_feedback","","","learn_feedback","26.6667","60","out","","","","","","","","","","","","","","","","","","","","","","",""
"","","","","","canvas-keyboard-response","231","315780","0.0-12.0-4.43","2d_cat_multi_stim_exp1","2022-4-13","13:2:49","25","75","3","9","10","40","30","120","34","19","[""Other""]","No","Female","1745514","null","null","","","","clear_screen","","","","","","","","","","","","","","","","","","","","","","","","","",""
"","","","","","canvas-keyboard-response","232","316291","0.0-12.0-0.44","2d_cat_multi_stim_exp1","2022-4-13","13:2:49","25","75","3","9","10","40","30","120","34","19","[""Other""]","No","Female","1745514","null","null","","","","fixation","","","","","","","","","","","","","","","","","","","","","","","","","",""
"","","","","","canvas-keyboard-response","233","316801","0.0-12.0-1.44","2d_cat_multi_stim_exp1","2022-4-13","13:2:49","25","75","3","9","10","40","30","120","34","19","[""Other""]","No","Female","1745514","null","null","","","","clear_screen","","","","","","","","","","","","","","","","","","","","","","","","","",""
"","","","","","canvas-keyboard-response","234","317465","0.0-12.0-2.44","2d_cat_multi_stim_exp1","2022-4-13","13:2:49","25","75","3","9","10","40","30","120","34","19","[""Other""]","No","Female","1745514","653","i","learn","","","learn_trial","33.3333","80","out","0","1","","","","","","","","","","","","","","","","","","","","",""
"","","","","","canvas-keyboard-response","235","317978","0.0-12.0-3.44","2d_cat_multi_stim_exp1","2022-4-13","13:2:49","25","75","3","9","10","40","30","120","34","19","[""Other""]","No","Female","1745514","null","null","learn_feedback","","","learn_feedback","33.3333","80","out","","","","","","","","","","","","","","","","","","","","","","",""
"","","","","","canvas-keyboard-response","236","318042","0.0-12.0-4.44","2d_cat_multi_stim_exp1","2022-4-13","13:2:49","25","75","3","9","10","40","30","120","34","19","[""Other""]","No","Female","1745514","null","null","","","","clear_screen","","","","","","","","","","","","","","","","","","","","","","","","","",""
"","","","","","canvas-keyboard-response","237","318554","0.0-12.0-0.45","2d_cat_multi_stim_exp1","2022-4-13","13:2:49","25","75","3","9","10","40","30","120","34","19","[""Other""]","No","Female","1745514","null","null","","","","fixation","","","","","","","","","","","","","","","","","","","","","","","","","",""
"","","","","","canvas-keyboard-response","238","319065","0.0-12.0-1.45","2d_cat_multi_stim_exp1","2022-4-13","13:2:49","25","75","3","9","10","40","30","120","34","19","[""Other""]","No","Female","1745514","null","null","","","","clear_screen","","","","","","","","","","","","","","","","","","","","","","","","","",""
"","","","","","canvas-keyboard-response","239","320000","0.0-12.0-2.45","2d_cat_multi_stim_exp1","2022-4-13","13:2:49","25","75","3","9","10","40","30","120","34","19","[""Other""]","No","Female","1745514","924","i","learn","","","learn_trial","27.2592","69.0786","in","0","0","","","","","","","","","","","","","","","","","","","","",""
"","","","","","canvas-keyboard-response","240","321010","0.0-12.0-3.45","2d_cat_multi_stim_exp1","2022-4-13","13:2:49","25","75","3","9","10","40","30","120","34","19","[""Other""]","No","Female","1745514","null","null","learn_feedback","","","learn_feedback","27.2592","69.0786","in","","","","","","","","","","","","","","","","","","","","","","",""
"","","","","","canvas-keyboard-response","241","321074","0.0-12.0-4.45","2d_cat_multi_stim_exp1","2022-4-13","13:2:49","25","75","3","9","10","40","30","120","34","19","[""Other""]","No","Female","1745514","null","null","","","","clear_screen","","","","","","","","","","","","","","","","","","","","","","","","","",""
"","","","","","canvas-keyboard-response","242","321581","0.0-12.0-0.46","2d_cat_multi_stim_exp1","2022-4-13","13:2:49","25","75","3","9","10","40","30","120","34","19","[""Other""]","No","Female","1745514","null","null","","","","fixation","","","","","","","","","","","","","","","","","","","","","","","","","",""
"","","","","","canvas-keyboard-response","243","322094","0.0-12.0-1.46","2d_cat_multi_stim_exp1","2022-4-13","13:2:49","25","75","3","9","10","40","30","120","34","19","[""Other""]","No","Female","1745514","null","null","","","","clear_screen","","","","","","","","","","","","","","","","","","","","","","","","","",""
"","","","","","canvas-keyboard-response","244","322777","0.0-12.0-2.46","2d_cat_multi_stim_exp1","2022-4-13","13:2:49","25","75","3","9","10","40","30","120","34","19","[""Other""]","No","Female","1745514","672","u","learn","","","learn_trial","25","57","in","1","1","","","","","","","","","","","","","","","","","","","","",""
"","","","","","canvas-keyboard-response","245","323288","0.0-12.0-3.46","2d_cat_multi_stim_exp1","2022-4-13","13:2:49","25","75","3","9","10","40","30","120","34","19","[""Other""]","No","Female","1745514","null","null","learn_feedback","","","learn_feedback","25","57","in","","","","","","","","","","","","","","","","","","","","","","",""
"","","","","","canvas-keyboard-response","246","323351","0.0-12.0-4.46","2d_cat_multi_stim_exp1","2022-4-13","13:2:49","25","75","3","9","10","40","30","120","34","19","[""Other""]","No","Female","1745514","null","null","","","","clear_screen","","","","","","","","","","","","","","","","","","","","","","","","","",""
"","","","","","canvas-keyboard-response","247","323861","0.0-12.0-0.47","2d_cat_multi_stim_exp1","2022-4-13","13:2:49","25","75","3","9","10","40","30","120","34","19","[""Other""]","No","Female","1745514","null","null","","","","fixation","","","","","","","","","","","","","","","","","","","","","","","","","",""
"","","","","","canvas-keyboard-response","248","324375","0.0-12.0-1.47","2d_cat_multi_stim_exp1","2022-4-13","13:2:49","25","75","3","9","10","40","30","120","34","19","[""Other""]","No","Female","1745514","null","null","","","","clear_screen","","","","","","","","","","","","","","","","","","","","","","","","","",""
"","","","","","canvas-keyboard-response","249","325168","0.0-12.0-2.47","2d_cat_multi_stim_exp1","2022-4-13","13:2:49","25","75","3","9","10","40","30","120","34","19","[""Other""]","No","Female","1745514","784","i","learn","","","learn_trial","33.3333","90","out","0","1","","","","","","","","","","","","","","","","","","","","",""
"","","","","","canvas-keyboard-response","250","325681","0.0-12.0-3.47","2d_cat_multi_stim_exp1","2022-4-13","13:2:49","25","75","3","9","10","40","30","120","34","19","[""Other""]","No","Female","1745514","null","null","learn_feedback","","","learn_feedback","33.3333","90","out","","","","","","","","","","","","","","","","","","","","","","",""
"","","","","","canvas-keyboard-response","251","325741","0.0-12.0-4.47","2d_cat_multi_stim_exp1","2022-4-13","13:2:49","25","75","3","9","10","40","30","120","34","19","[""Other""]","No","Female","1745514","null","null","","","","clear_screen","","","","","","","","","","","","","","","","","","","","","","","","","",""
"","","","","","canvas-keyboard-response","252","326250","0.0-12.0-0.48","2d_cat_multi_stim_exp1","2022-4-13","13:2:49","25","75","3","9","10","40","30","120","34","19","[""Other""]","No","Female","1745514","null","null","","","","fixation","","","","","","","","","","","","","","","","","","","","","","","","","",""
"","","","","","canvas-keyboard-response","253","326765","0.0-12.0-1.48","2d_cat_multi_stim_exp1","2022-4-13","13:2:49","25","75","3","9","10","40","30","120","34","19","[""Other""]","No","Female","1745514","null","null","","","","clear_screen","","","","","","","","","","","","","","","","","","","","","","","","","",""
"","","","","","canvas-keyboard-response","254","327529","0.0-12.0-2.48","2d_cat_multi_stim_exp1","2022-4-13","13:2:49","25","75","3","9","10","40","30","120","34","19","[""Other""]","No","Female","1745514","754","i","learn","","","learn_trial","26.6667","70","out","0","1","","","","","","","","","","","","","","","","","","","","",""
"","","","","","canvas-keyboard-response","255","328041","0.0-12.0-3.48","2d_cat_multi_stim_exp1","2022-4-13","13:2:49","25","75","3","9","10","40","30","120","34","19","[""Other""]","No","Female","1745514","null","null","learn_feedback","","","learn_feedback","26.6667","70","out","","","","","","","","","","","","","","","","","","","","","","",""
"","","","","","canvas-keyboard-response","256","328103","0.0-12.0-4.48","2d_cat_multi_stim_exp1","2022-4-13","13:2:49","25","75","3","9","10","40","30","120","34","19","[""Other""]","No","Female","1745514","null","null","","","","clear_screen","","","","","","","","","","","","","","","","","","","","","","","","","",""
"","","","","","canvas-keyboard-response","257","328612","0.0-12.0-0.49","2d_cat_multi_stim_exp1","2022-4-13","13:2:49","25","75","3","9","10","40","30","120","34","19","[""Other""]","No","Female","1745514","null","null","","","","fixation","","","","","","","","","","","","","","","","","","","","","","","","","",""
"","","","","","canvas-keyboard-response","258","329129","0.0-12.0-1.49","2d_cat_multi_stim_exp1","2022-4-13","13:2:49","25","75","3","9","10","40","30","120","34","19","[""Other""]","No","Female","1745514","null","null","","","","clear_screen","","","","","","","","","","","","","","","","","","","","","","","","","",""
"","","","","","canvas-keyboard-response","259","330208","0.0-12.0-2.49","2d_cat_multi_stim_exp1","2022-4-13","13:2:49","25","75","3","9","10","40","30","120","34","19","[""Other""]","No","Female","1745514","1070","u","learn","","","learn_trial","25","75","in","1","1","","","","","","","","","","","","","","","","","","","","",""
"","","","","","canvas-keyboard-response","260","330721","0.0-12.0-3.49","2d_cat_multi_stim_exp1","2022-4-13","13:2:49","25","75","3","9","10","40","30","120","34","19","[""Other""]","No","Female","1745514","null","null","learn_feedback","","","learn_feedback","25","75","in","","","","","","","","","","","","","","","","","","","","","","",""
"","","","","","canvas-keyboard-response","261","330783","0.0-12.0-4.49","2d_cat_multi_stim_exp1","2022-4-13","13:2:49","25","75","3","9","10","40","30","120","34","19","[""Other""]","No","Female","1745514","null","null","","","","clear_screen","","","","","","","","","","","","","","","","","","","","","","","","","",""
"","","","","","canvas-keyboard-response","262","331296","0.0-12.0-0.50","2d_cat_multi_stim_exp1","2022-4-13","13:2:49","25","75","3","9","10","40","30","120","34","19","[""Other""]","No","Female","1745514","null","null","","","","fixation","","","","","","","","","","","","","","","","","","","","","","","","","",""
"","","","","","canvas-keyboard-response","263","331808","0.0-12.0-1.50","2d_cat_multi_stim_exp1","2022-4-13","13:2:49","25","75","3","9","10","40","30","120","34","19","[""Other""]","No","Female","1745514","null","null","","","","clear_screen","","","","","","","","","","","","","","","","","","","","","","","","","",""
"","","","","","canvas-keyboard-response","264","332745","0.0-12.0-2.50","2d_cat_multi_stim_exp1","2022-4-13","13:2:49","25","75","3","9","10","40","30","120","34","19","[""Other""]","No","Female","1745514","925","i","learn","","","learn_trial","25","75","in","0","0","","","","","","","","","","","","","","","","","","","","",""
"","","","","","canvas-keyboard-response","265","333755","0.0-12.0-3.50","2d_cat_multi_stim_exp1","2022-4-13","13:2:49","25","75","3","9","10","40","30","120","34","19","[""Other""]","No","Female","1745514","null","null","learn_feedback","","","learn_feedback","25","75","in","","","","","","","","","","","","","","","","","","","","","","",""
"","","","","","canvas-keyboard-response","266","333818","0.0-12.0-4.50","2d_cat_multi_stim_exp1","2022-4-13","13:2:49","25","75","3","9","10","40","30","120","34","19","[""Other""]","No","Female","1745514","null","null","","","","clear_screen","","","","","","","","","","","","","","","","","","","","","","","","","",""
"","","","","","canvas-keyboard-response","267","334328","0.0-12.0-0.51","2d_cat_multi_stim_exp1","2022-4-13","13:2:49","25","75","3","9","10","40","30","120","34","19","[""Other""]","No","Female","1745514","null","null","","","","fixation","","","","","","","","","","","","","","","","","","","","","","","","","",""
"","","","","","canvas-keyboard-response","268","334841","0.0-12.0-1.51","2d_cat_multi_stim_exp1","2022-4-13","13:2:49","25","75","3","9","10","40","30","120","34","19","[""Other""]","No","Female","1745514","null","null","","","","clear_screen","","","","","","","","","","","","","","","","","","","","","","","","","",""
"","","","","","canvas-keyboard-response","269","335737","0.0-12.0-2.51","2d_cat_multi_stim_exp1","2022-4-13","13:2:49","25","75","3","9","10","40","30","120","34","19","[""Other""]","No","Female","1745514","882","i","learn","","","learn_trial","16.6667","110","out","0","1","","","","","","","","","","","","","","","","","","","","",""
"","","","","","canvas-keyboard-response","270","336248","0.0-12.0-3.51","2d_cat_multi_stim_exp1","2022-4-13","13:2:49","25","75","3","9","10","40","30","120","34","19","[""Other""]","No","Female","1745514","null","null","learn_feedback","","","learn_feedback","16.6667","110","out","","","","","","","","","","","","","","","","","","","","","","",""
"","","","","","canvas-keyboard-response","271","336310","0.0-12.0-4.51","2d_cat_multi_stim_exp1","2022-4-13","13:2:49","25","75","3","9","10","40","30","120","34","19","[""Other""]","No","Female","1745514","null","null","","","","clear_screen","","","","","","","","","","","","","","","","","","","","","","","","","",""
"","","","","","canvas-keyboard-response","272","336822","0.0-12.0-0.52","2d_cat_multi_stim_exp1","2022-4-13","13:2:49","25","75","3","9","10","40","30","120","34","19","[""Other""]","No","Female","1745514","null","null","","","","fixation","","","","","","","","","","","","","","","","","","","","","","","","","",""
"","","","","","canvas-keyboard-response","273","337337","0.0-12.0-1.52","2d_cat_multi_stim_exp1","2022-4-13","13:2:49","25","75","3","9","10","40","30","120","34","19","[""Other""]","No","Female","1745514","null","null","","","","clear_screen","","","","","","","","","","","","","","","","","","","","","","","","","",""
"","","","","","canvas-keyboard-response","274","338176","0.0-12.0-2.52","2d_cat_multi_stim_exp1","2022-4-13","13:2:49","25","75","3","9","10","40","30","120","34","19","[""Other""]","No","Female","1745514","828","i","learn","","","learn_trial","22.1081","72.6057","in","0","0","","","","","","","","","","","","","","","","","","","","",""
"","","","","","canvas-keyboard-response","275","339186","0.0-12.0-3.52","2d_cat_multi_stim_exp1","2022-4-13","13:2:49","25","75","3","9","10","40","30","120","34","19","[""Other""]","No","Female","1745514","null","null","learn_feedback","","","learn_feedback","22.1081","72.6057","in","","","","","","","","","","","","","","","","","","","","","","",""
"","","","","","canvas-keyboard-response","276","339245","0.0-12.0-4.52","2d_cat_multi_stim_exp1","2022-4-13","13:2:49","25","75","3","9","10","40","30","120","34","19","[""Other""]","No","Female","1745514","null","null","","","","clear_screen","","","","","","","","","","","","","","","","","","","","","","","","","",""
"","","","","","canvas-keyboard-response","277","339756","0.0-12.0-0.53","2d_cat_multi_stim_exp1","2022-4-13","13:2:49","25","75","3","9","10","40","30","120","34","19","[""Other""]","No","Female","1745514","null","null","","","","fixation","","","","","","","","","","","","","","","","","","","","","","","","","",""
"","","","","","canvas-keyboard-response","278","340268","0.0-12.0-1.53","2d_cat_multi_stim_exp1","2022-4-13","13:2:49","25","75","3","9","10","40","30","120","34","19","[""Other""]","No","Female","1745514","null","null","","","","clear_screen","","","","","","","","","","","","","","","","","","","","","","","","","",""
"","","","","","canvas-keyboard-response","279","340816","0.0-12.0-2.53","2d_cat_multi_stim_exp1","2022-4-13","13:2:49","25","75","3","9","10","40","30","120","34","19","[""Other""]","No","Female","1745514","535","u","learn","","","learn_trial","26.4216","67.0746","in","1","1","","","","","","","","","","","","","","","","","","","","",""
"","","","","","canvas-keyboard-response","280","341327","0.0-12.0-3.53","2d_cat_multi_stim_exp1","2022-4-13","13:2:49","25","75","3","9","10","40","30","120","34","19","[""Other""]","No","Female","1745514","null","null","learn_feedback","","","learn_feedback","26.4216","67.0746","in","","","","","","","","","","","","","","","","","","","","","","",""
"","","","","","canvas-keyboard-response","281","341390","0.0-12.0-4.53","2d_cat_multi_stim_exp1","2022-4-13","13:2:49","25","75","3","9","10","40","30","120","34","19","[""Other""]","No","Female","1745514","null","null","","","","clear_screen","","","","","","","","","","","","","","","","","","","","","","","","","",""
"","","","","","canvas-keyboard-response","282","341899","0.0-12.0-0.54","2d_cat_multi_stim_exp1","2022-4-13","13:2:49","25","75","3","9","10","40","30","120","34","19","[""Other""]","No","Female","1745514","null","null","","","","fixation","","","","","","","","","","","","","","","","","","","","","","","","","",""
"","","","","","canvas-keyboard-response","283","342414","0.0-12.0-1.54","2d_cat_multi_stim_exp1","2022-4-13","13:2:49","25","75","3","9","10","40","30","120","34","19","[""Other""]","No","Female","1745514","null","null","","","","clear_screen","","","","","","","","","","","","","","","","","","","","","","","","","",""
"","","","","","canvas-keyboard-response","284","343064","0.0-12.0-2.54","2d_cat_multi_stim_exp1","2022-4-13","13:2:49","25","75","3","9","10","40","30","120","34","19","[""Other""]","No","Female","1745514","639","u","learn","","","learn_trial","25","75","in","1","1","","","","","","","","","","","","","","","","","","","","",""
"","","","","","canvas-keyboard-response","285","343577","0.0-12.0-3.54","2d_cat_multi_stim_exp1","2022-4-13","13:2:49","25","75","3","9","10","40","30","120","34","19","[""Other""]","No","Female","1745514","null","null","learn_feedback","","","learn_feedback","25","75","in","","","","","","","","","","","","","","","","","","","","","","",""
"","","","","","canvas-keyboard-response","286","343639","0.0-12.0-4.54","2d_cat_multi_stim_exp1","2022-4-13","13:2:49","25","75","3","9","10","40","30","120","34","19","[""Other""]","No","Female","1745514","null","null","","","","clear_screen","","","","","","","","","","","","","","","","","","","","","","","","","",""
"","","","","","canvas-keyboard-response","287","344149","0.0-12.0-0.55","2d_cat_multi_stim_exp1","2022-4-13","13:2:49","25","75","3","9","10","40","30","120","34","19","[""Other""]","No","Female","1745514","null","null","","","","fixation","","","","","","","","","","","","","","","","","","","","","","","","","",""
"","","","","","canvas-keyboard-response","288","344664","0.0-12.0-1.55","2d_cat_multi_stim_exp1","2022-4-13","13:2:49","25","75","3","9","10","40","30","120","34","19","[""Other""]","No","Female","1745514","null","null","","","","clear_screen","","","","","","","","","","","","","","","","","","","","","","","","","",""
"","","","","","canvas-keyboard-response","289","345360","0.0-12.0-2.55","2d_cat_multi_stim_exp1","2022-4-13","13:2:49","25","75","3","9","10","40","30","120","34","19","[""Other""]","No","Female","1745514","684","i","learn","","","learn_trial","26.6667","100","out","0","1","","","","","","","","","","","","","","","","","","","","",""
"","","","","","canvas-keyboard-response","290","345873","0.0-12.0-3.55","2d_cat_multi_stim_exp1","2022-4-13","13:2:49","25","75","3","9","10","40","30","120","34","19","[""Other""]","No","Female","1745514","null","null","learn_feedback","","","learn_feedback","26.6667","100","out","","","","","","","","","","","","","","","","","","","","","","",""
"","","","","","canvas-keyboard-response","291","345936","0.0-12.0-4.55","2d_cat_multi_stim_exp1","2022-4-13","13:2:49","25","75","3","9","10","40","30","120","34","19","[""Other""]","No","Female","1745514","null","null","","","","clear_screen","","","","","","","","","","","","","","","","","","","","","","","","","",""
"","","","","","canvas-keyboard-response","292","346448","0.0-12.0-0.56","2d_cat_multi_stim_exp1","2022-4-13","13:2:49","25","75","3","9","10","40","30","120","34","19","[""Other""]","No","Female","1745514","null","null","","","","fixation","","","","","","","","","","","","","","","","","","","","","","","","","",""
"","","","","","canvas-keyboard-response","293","346962","0.0-12.0-1.56","2d_cat_multi_stim_exp1","2022-4-13","13:2:49","25","75","3","9","10","40","30","120","34","19","[""Other""]","No","Female","1745514","null","null","","","","clear_screen","","","","","","","","","","","","","","","","","","","","","","","","","",""
"","","","","","canvas-keyboard-response","294","348185","0.0-12.0-2.56","2d_cat_multi_stim_exp1","2022-4-13","13:2:49","25","75","3","9","10","40","30","120","34","19","[""Other""]","No","Female","1745514","1209","u","learn","","","learn_trial","25","75","in","1","1","","","","","","","","","","","","","","","","","","","","",""
"","","","","","canvas-keyboard-response","295","348696","0.0-12.0-3.56","2d_cat_multi_stim_exp1","2022-4-13","13:2:49","25","75","3","9","10","40","30","120","34","19","[""Other""]","No","Female","1745514","null","null","learn_feedback","","","learn_feedback","25","75","in","","","","","","","","","","","","","","","","","","","","","","",""
"","","","","","canvas-keyboard-response","296","348756","0.0-12.0-4.56","2d_cat_multi_stim_exp1","2022-4-13","13:2:49","25","75","3","9","10","40","30","120","34","19","[""Other""]","No","Female","1745514","null","null","","","","clear_screen","","","","","","","","","","","","","","","","","","","","","","","","","",""
"","","","","","canvas-keyboard-response","297","349269","0.0-12.0-0.57","2d_cat_multi_stim_exp1","2022-4-13","13:2:49","25","75","3","9","10","40","30","120","34","19","[""Other""]","No","Female","1745514","null","null","","","","fixation","","","","","","","","","","","","","","","","","","","","","","","","","",""
