"success","timeout","failed_images","failed_audio","failed_video","trial_type","trial_index","time_elapsed","internal_node_id","exp_name","date","time","angle_mean_in","radius_mean_in","angle_sd_in","radius_sd_in","angle_min_out","angle_max_out","radius_min_out","radius_max_out","sub_n","age","race","ethnicity","gender","exp_duration","rt","response","exp_trial_type","stimulus","view_history","screen_id","angle","radius","distribution","choice","correct","order","angle_a","radius_a","angle_b","radius_b","jkl_correct","transfer_trial_type","choice_set","abc_correct","tc_correct","tc_angle","tdc_a","tdc_b","tdc_c","pair","category_a","category_b","category_c","angle_c","radius_c","question_order"
"true","false","[]","[]","[]","preload","0","27","0.0-0.0","2d_cat_multi_stim_exp1","2022-4-5","12:31:12","25","75","3","9","10","40","30","120","12","19","[""White""]","No","Female","1818494","","","","","","","","","","","","","","","","","","","","","","","","","","","","","","","",""
"","","","","","survey-html-form","1","4012","0.0-1.0","2d_cat_multi_stim_exp1","2022-4-5","12:31:12","25","75","3","9","10","40","30","120","12","19","[""White""]","No","Female","1818494","3974","{""response"":""12""}","enter-sub-number","","","","","","","","","","","","","","","","","","","","","","","","","","","","",""
"true","","","","","fullscreen","2","6253","0.0-2.0","2d_cat_multi_stim_exp1","2022-4-5","12:31:12","25","75","3","9","10","40","30","120","12","19","[""White""]","No","Female","1818494","","","","","","","","","","","","","","","","","","","","","","","","","","","","","","","",""
"","","","","","image-button-response","3","22828","0.0-3.0","2d_cat_multi_stim_exp1","2022-4-5","12:31:12","25","75","3","9","10","40","30","120","12","19","[""White""]","No","Female","1818494","16564","0","","consent.png","","","","","","","","","","","","","","","","","","","","","","","","","","","",""
"","","","","","html-button-response","4","28397","0.0-4.0","2d_cat_multi_stim_exp1","2022-4-5","12:31:12","25","75","3","9","10","40","30","120","12","19","[""White""]","No","Female","1818494","5564","0","","<div style= ""font-size:25px;"" <p> <strong> Welcome to the experiment! </strong><br> <p style=""color:#8B0000; font-size:25px;""><strong> Please do NOT exit full screen until you are done with the experiment. </strong> </p><p style=""font-size:25px;color:#8B0000;""> <strong> The experiment will be canceled and your data will be lost <br> if you try to go back or refresh the page at any point during the experiment.</strong> </p><br><p> <strong> Thanks in advance for your contribution to our research! </strong></p>","","","","","","","","","","","","","","","","","","","","","","","","","","","",""
"","","","","","instructions","5","69406","0.0-5.0","2d_cat_multi_stim_exp1","2022-4-5","12:31:12","25","75","3","9","10","40","30","120","12","19","[""White""]","No","Female","1818494","41002","","","","[{""page_index"":0,""viewing_time"":6561},{""page_index"":1,""viewing_time"":3272},{""page_index"":2,""viewing_time"":7824},{""page_index"":3,""viewing_time"":23344}]","instructions_1","","","","","","","","","","","","","","","","","","","","","","","","","",""
"","","","","","instructions","6","72318","0.0-6.0","2d_cat_multi_stim_exp1","2022-4-5","12:31:12","25","75","3","9","10","40","30","120","12","19","[""White""]","No","Female","1818494","2909","","","","[{""page_index"":0,""viewing_time"":2908}]","Click to see the kinds of turtles that will appear in the study.","","","","","","","","","","","","","","","","","","","","","","","","","",""
"","","","","","canvas-keyboard-response","7","87338","0.0-7.0","2d_cat_multi_stim_exp1","2022-4-5","12:31:12","25","75","3","9","10","40","30","120","12","19","[""White""]","No","Female","1818494","null","null","","","","demo_range","","","","","","","","","","","","","","","","","","","","","","","","","",""
"","","","","","instructions","8","89725","0.0-8.0","2d_cat_multi_stim_exp1","2022-4-5","12:31:12","25","75","3","9","10","40","30","120","12","19","[""White""]","No","Female","1818494","1882","","","","[{""page_index"":0,""viewing_time"":1882}]","Click to see some turtles in the subspecies.","","","","","","","","","","","","","","","","","","","","","","","","","",""
"","","","","","canvas-keyboard-response","9","104743","0.0-9.0","2d_cat_multi_stim_exp1","2022-4-5","12:31:12","25","75","3","9","10","40","30","120","12","19","[""White""]","No","Female","1818494","null","null","","","","demo_in","","","","","","","","","","","","","","","","","","","","","","","","","",""
"","","","","","instructions","10","148205","0.0-10.0","2d_cat_multi_stim_exp1","2022-4-5","12:31:12","25","75","3","9","10","40","30","120","12","19","[""White""]","No","Female","1818494","42959","","","","[{""page_index"":0,""viewing_time"":7998},{""page_index"":1,""viewing_time"":29209},{""page_index"":2,""viewing_time"":5752}]","instructions_2","","","","","","","","","","","","","","","","","","","","","","","","","",""
"","","","","","instructions","11","149781","0.0-11.0","2d_cat_multi_stim_exp1","2022-4-5","12:31:12","25","75","3","9","10","40","30","120","12","19","[""White""]","No","Female","1818494","1572","","","","[{""page_index"":0,""viewing_time"":1572}]","Click to begin the first phase of the experiment.","","","","","","","","","","","","","","","","","","","","","","","","","",""
"","","","","","canvas-keyboard-response","12","150293","0.0-12.0-0.0","2d_cat_multi_stim_exp1","2022-4-5","12:31:12","25","75","3","9","10","40","30","120","12","19","[""White""]","No","Female","1818494","null","null","","","","fixation","","","","","","","","","","","","","","","","","","","","","","","","","",""
"","","","","","canvas-keyboard-response","13","150804","0.0-12.0-1.0","2d_cat_multi_stim_exp1","2022-4-5","12:31:12","25","75","3","9","10","40","30","120","12","19","[""White""]","No","Female","1818494","null","null","","","","clear_screen","","","","","","","","","","","","","","","","","","","","","","","","","",""
"","","","","","canvas-keyboard-response","14","153686","0.0-12.0-2.0","2d_cat_multi_stim_exp1","2022-4-5","12:31:12","25","75","3","9","10","40","30","120","12","19","[""White""]","No","Female","1818494","2871","u","learn","","","learn_trial","25","75","in","1","1","","","","","","","","","","","","","","","","","","","","",""
"","","","","","canvas-keyboard-response","15","154198","0.0-12.0-3.0","2d_cat_multi_stim_exp1","2022-4-5","12:31:12","25","75","3","9","10","40","30","120","12","19","[""White""]","No","Female","1818494","null","null","learn_feedback","","","learn_feedback","25","75","in","","","","","","","","","","","","","","","","","","","","","","",""
"","","","","","canvas-keyboard-response","16","154257","0.0-12.0-4.0","2d_cat_multi_stim_exp1","2022-4-5","12:31:12","25","75","3","9","10","40","30","120","12","19","[""White""]","No","Female","1818494","null","null","","","","clear_screen","","","","","","","","","","","","","","","","","","","","","","","","","",""
"","","","","","canvas-keyboard-response","17","154767","0.0-12.0-0.1","2d_cat_multi_stim_exp1","2022-4-5","12:31:12","25","75","3","9","10","40","30","120","12","19","[""White""]","No","Female","1818494","null","null","","","","fixation","","","","","","","","","","","","","","","","","","","","","","","","","",""
"","","","","","canvas-keyboard-response","18","155278","0.0-12.0-1.1","2d_cat_multi_stim_exp1","2022-4-5","12:31:12","25","75","3","9","10","40","30","120","12","19","[""White""]","No","Female","1818494","null","null","","","","clear_screen","","","","","","","","","","","","","","","","","","","","","","","","","",""
"","","","","","canvas-keyboard-response","19","158644","0.0-12.0-2.1","2d_cat_multi_stim_exp1","2022-4-5","12:31:12","25","75","3","9","10","40","30","120","12","19","[""White""]","No","Female","1818494","3357","i","learn","","","learn_trial","40","80","out","0","1","","","","","","","","","","","","","","","","","","","","",""
"","","","","","canvas-keyboard-response","20","159158","0.0-12.0-3.1","2d_cat_multi_stim_exp1","2022-4-5","12:31:12","25","75","3","9","10","40","30","120","12","19","[""White""]","No","Female","1818494","null","null","learn_feedback","","","learn_feedback","40","80","out","","","","","","","","","","","","","","","","","","","","","","",""
"","","","","","canvas-keyboard-response","21","159219","0.0-12.0-4.1","2d_cat_multi_stim_exp1","2022-4-5","12:31:12","25","75","3","9","10","40","30","120","12","19","[""White""]","No","Female","1818494","null","null","","","","clear_screen","","","","","","","","","","","","","","","","","","","","","","","","","",""
"","","","","","canvas-keyboard-response","22","159731","0.0-12.0-0.2","2d_cat_multi_stim_exp1","2022-4-5","12:31:12","25","75","3","9","10","40","30","120","12","19","[""White""]","No","Female","1818494","null","null","","","","fixation","","","","","","","","","","","","","","","","","","","","","","","","","",""
"","","","","","canvas-keyboard-response","23","160245","0.0-12.0-1.2","2d_cat_multi_stim_exp1","2022-4-5","12:31:12","25","75","3","9","10","40","30","120","12","19","[""White""]","No","Female","1818494","null","null","","","","clear_screen","","","","","","","","","","","","","","","","","","","","","","","","","",""
"","","","","","canvas-keyboard-response","24","162060","0.0-12.0-2.2","2d_cat_multi_stim_exp1","2022-4-5","12:31:12","25","75","3","9","10","40","30","120","12","19","[""White""]","No","Female","1818494","1805","u","learn","","","learn_trial","33.3333","80","out","1","0","","","","","","","","","","","","","","","","","","","","",""
"","","","","","canvas-keyboard-response","25","163070","0.0-12.0-3.2","2d_cat_multi_stim_exp1","2022-4-5","12:31:12","25","75","3","9","10","40","30","120","12","19","[""White""]","No","Female","1818494","null","null","learn_feedback","","","learn_feedback","33.3333","80","out","","","","","","","","","","","","","","","","","","","","","","",""
"","","","","","canvas-keyboard-response","26","163131","0.0-12.0-4.2","2d_cat_multi_stim_exp1","2022-4-5","12:31:12","25","75","3","9","10","40","30","120","12","19","[""White""]","No","Female","1818494","null","null","","","","clear_screen","","","","","","","","","","","","","","","","","","","","","","","","","",""
"","","","","","canvas-keyboard-response","27","163643","0.0-12.0-0.3","2d_cat_multi_stim_exp1","2022-4-5","12:31:12","25","75","3","9","10","40","30","120","12","19","[""White""]","No","Female","1818494","null","null","","","","fixation","","","","","","","","","","","","","","","","","","","","","","","","","",""
"","","","","","canvas-keyboard-response","28","164155","0.0-12.0-1.3","2d_cat_multi_stim_exp1","2022-4-5","12:31:12","25","75","3","9","10","40","30","120","12","19","[""White""]","No","Female","1818494","null","null","","","","clear_screen","","","","","","","","","","","","","","","","","","","","","","","","","",""
"","","","","","canvas-keyboard-response","29","165245","0.0-12.0-2.3","2d_cat_multi_stim_exp1","2022-4-5","12:31:12","25","75","3","9","10","40","30","120","12","19","[""White""]","No","Female","1818494","1078","u","learn","","","learn_trial","25.4027","83.9185","in","1","1","","","","","","","","","","","","","","","","","","","","",""
"","","","","","canvas-keyboard-response","30","165756","0.0-12.0-3.3","2d_cat_multi_stim_exp1","2022-4-5","12:31:12","25","75","3","9","10","40","30","120","12","19","[""White""]","No","Female","1818494","null","null","learn_feedback","","","learn_feedback","25.4027","83.9185","in","","","","","","","","","","","","","","","","","","","","","","",""
"","","","","","canvas-keyboard-response","31","165816","0.0-12.0-4.3","2d_cat_multi_stim_exp1","2022-4-5","12:31:12","25","75","3","9","10","40","30","120","12","19","[""White""]","No","Female","1818494","null","null","","","","clear_screen","","","","","","","","","","","","","","","","","","","","","","","","","",""
"","","","","","canvas-keyboard-response","32","166326","0.0-12.0-0.4","2d_cat_multi_stim_exp1","2022-4-5","12:31:12","25","75","3","9","10","40","30","120","12","19","[""White""]","No","Female","1818494","null","null","","","","fixation","","","","","","","","","","","","","","","","","","","","","","","","","",""
"","","","","","canvas-keyboard-response","33","166838","0.0-12.0-1.4","2d_cat_multi_stim_exp1","2022-4-5","12:31:12","25","75","3","9","10","40","30","120","12","19","[""White""]","No","Female","1818494","null","null","","","","clear_screen","","","","","","","","","","","","","","","","","","","","","","","","","",""
"","","","","","canvas-keyboard-response","34","168805","0.0-12.0-2.4","2d_cat_multi_stim_exp1","2022-4-5","12:31:12","25","75","3","9","10","40","30","120","12","19","[""White""]","No","Female","1818494","1959","u","learn","","","learn_trial","25","75","in","1","1","","","","","","","","","","","","","","","","","","","","",""
"","","","","","canvas-keyboard-response","35","169315","0.0-12.0-3.4","2d_cat_multi_stim_exp1","2022-4-5","12:31:12","25","75","3","9","10","40","30","120","12","19","[""White""]","No","Female","1818494","null","null","learn_feedback","","","learn_feedback","25","75","in","","","","","","","","","","","","","","","","","","","","","","",""
"","","","","","canvas-keyboard-response","36","169376","0.0-12.0-4.4","2d_cat_multi_stim_exp1","2022-4-5","12:31:12","25","75","3","9","10","40","30","120","12","19","[""White""]","No","Female","1818494","null","null","","","","clear_screen","","","","","","","","","","","","","","","","","","","","","","","","","",""
"","","","","","canvas-keyboard-response","37","169887","0.0-12.0-0.5","2d_cat_multi_stim_exp1","2022-4-5","12:31:12","25","75","3","9","10","40","30","120","12","19","[""White""]","No","Female","1818494","null","null","","","","fixation","","","","","","","","","","","","","","","","","","","","","","","","","",""
"","","","","","canvas-keyboard-response","38","170397","0.0-12.0-1.5","2d_cat_multi_stim_exp1","2022-4-5","12:31:12","25","75","3","9","10","40","30","120","12","19","[""White""]","No","Female","1818494","null","null","","","","clear_screen","","","","","","","","","","","","","","","","","","","","","","","","","",""
"","","","","","canvas-keyboard-response","39","172126","0.0-12.0-2.5","2d_cat_multi_stim_exp1","2022-4-5","12:31:12","25","75","3","9","10","40","30","120","12","19","[""White""]","No","Female","1818494","1719","i","learn","","","learn_trial","27.9518","73.393","in","0","0","","","","","","","","","","","","","","","","","","","","",""
"","","","","","canvas-keyboard-response","40","173138","0.0-12.0-3.5","2d_cat_multi_stim_exp1","2022-4-5","12:31:12","25","75","3","9","10","40","30","120","12","19","[""White""]","No","Female","1818494","null","null","learn_feedback","","","learn_feedback","27.9518","73.393","in","","","","","","","","","","","","","","","","","","","","","","",""
"","","","","","canvas-keyboard-response","41","173197","0.0-12.0-4.5","2d_cat_multi_stim_exp1","2022-4-5","12:31:12","25","75","3","9","10","40","30","120","12","19","[""White""]","No","Female","1818494","null","null","","","","clear_screen","","","","","","","","","","","","","","","","","","","","","","","","","",""
"","","","","","canvas-keyboard-response","42","173710","0.0-12.0-0.6","2d_cat_multi_stim_exp1","2022-4-5","12:31:12","25","75","3","9","10","40","30","120","12","19","[""White""]","No","Female","1818494","null","null","","","","fixation","","","","","","","","","","","","","","","","","","","","","","","","","",""
"","","","","","canvas-keyboard-response","43","174221","0.0-12.0-1.6","2d_cat_multi_stim_exp1","2022-4-5","12:31:12","25","75","3","9","10","40","30","120","12","19","[""White""]","No","Female","1818494","null","null","","","","clear_screen","","","","","","","","","","","","","","","","","","","","","","","","","",""
"","","","","","canvas-keyboard-response","44","175252","0.0-12.0-2.6","2d_cat_multi_stim_exp1","2022-4-5","12:31:12","25","75","3","9","10","40","30","120","12","19","[""White""]","No","Female","1818494","1019","i","learn","","","learn_trial","26.6667","120","out","0","1","","","","","","","","","","","","","","","","","","","","",""
"","","","","","canvas-keyboard-response","45","175765","0.0-12.0-3.6","2d_cat_multi_stim_exp1","2022-4-5","12:31:12","25","75","3","9","10","40","30","120","12","19","[""White""]","No","Female","1818494","null","null","learn_feedback","","","learn_feedback","26.6667","120","out","","","","","","","","","","","","","","","","","","","","","","",""
"","","","","","canvas-keyboard-response","46","175828","0.0-12.0-4.6","2d_cat_multi_stim_exp1","2022-4-5","12:31:12","25","75","3","9","10","40","30","120","12","19","[""White""]","No","Female","1818494","null","null","","","","clear_screen","","","","","","","","","","","","","","","","","","","","","","","","","",""
"","","","","","canvas-keyboard-response","47","176340","0.0-12.0-0.7","2d_cat_multi_stim_exp1","2022-4-5","12:31:12","25","75","3","9","10","40","30","120","12","19","[""White""]","No","Female","1818494","null","null","","","","fixation","","","","","","","","","","","","","","","","","","","","","","","","","",""
"","","","","","canvas-keyboard-response","48","176857","0.0-12.0-1.7","2d_cat_multi_stim_exp1","2022-4-5","12:31:12","25","75","3","9","10","40","30","120","12","19","[""White""]","No","Female","1818494","null","null","","","","clear_screen","","","","","","","","","","","","","","","","","","","","","","","","","",""
"","","","","","canvas-keyboard-response","49","177980","0.0-12.0-2.7","2d_cat_multi_stim_exp1","2022-4-5","12:31:12","25","75","3","9","10","40","30","120","12","19","[""White""]","No","Female","1818494","1114","u","learn","","","learn_trial","25","75","in","1","1","","","","","","","","","","","","","","","","","","","","",""
"","","","","","canvas-keyboard-response","50","178492","0.0-12.0-3.7","2d_cat_multi_stim_exp1","2022-4-5","12:31:12","25","75","3","9","10","40","30","120","12","19","[""White""]","No","Female","1818494","null","null","learn_feedback","","","learn_feedback","25","75","in","","","","","","","","","","","","","","","","","","","","","","",""
"","","","","","canvas-keyboard-response","51","178557","0.0-12.0-4.7","2d_cat_multi_stim_exp1","2022-4-5","12:31:12","25","75","3","9","10","40","30","120","12","19","[""White""]","No","Female","1818494","null","null","","","","clear_screen","","","","","","","","","","","","","","","","","","","","","","","","","",""
"","","","","","canvas-keyboard-response","52","179069","0.0-12.0-0.8","2d_cat_multi_stim_exp1","2022-4-5","12:31:12","25","75","3","9","10","40","30","120","12","19","[""White""]","No","Female","1818494","null","null","","","","fixation","","","","","","","","","","","","","","","","","","","","","","","","","",""
"","","","","","canvas-keyboard-response","53","179580","0.0-12.0-1.8","2d_cat_multi_stim_exp1","2022-4-5","12:31:12","25","75","3","9","10","40","30","120","12","19","[""White""]","No","Female","1818494","null","null","","","","clear_screen","","","","","","","","","","","","","","","","","","","","","","","","","",""
"","","","","","canvas-keyboard-response","54","180461","0.0-12.0-2.8","2d_cat_multi_stim_exp1","2022-4-5","12:31:12","25","75","3","9","10","40","30","120","12","19","[""White""]","No","Female","1818494","870","u","learn","","","learn_trial","25","75","in","1","1","","","","","","","","","","","","","","","","","","","","",""
"","","","","","canvas-keyboard-response","55","180971","0.0-12.0-3.8","2d_cat_multi_stim_exp1","2022-4-5","12:31:12","25","75","3","9","10","40","30","120","12","19","[""White""]","No","Female","1818494","null","null","learn_feedback","","","learn_feedback","25","75","in","","","","","","","","","","","","","","","","","","","","","","",""
"","","","","","canvas-keyboard-response","56","181033","0.0-12.0-4.8","2d_cat_multi_stim_exp1","2022-4-5","12:31:12","25","75","3","9","10","40","30","120","12","19","[""White""]","No","Female","1818494","null","null","","","","clear_screen","","","","","","","","","","","","","","","","","","","","","","","","","",""
"","","","","","canvas-keyboard-response","57","181542","0.0-12.0-0.9","2d_cat_multi_stim_exp1","2022-4-5","12:31:12","25","75","3","9","10","40","30","120","12","19","[""White""]","No","Female","1818494","null","null","","","","fixation","","","","","","","","","","","","","","","","","","","","","","","","","",""
"","","","","","canvas-keyboard-response","58","182052","0.0-12.0-1.9","2d_cat_multi_stim_exp1","2022-4-5","12:31:12","25","75","3","9","10","40","30","120","12","19","[""White""]","No","Female","1818494","null","null","","","","clear_screen","","","","","","","","","","","","","","","","","","","","","","","","","",""
"","","","","","canvas-keyboard-response","59","182884","0.0-12.0-2.9","2d_cat_multi_stim_exp1","2022-4-5","12:31:12","25","75","3","9","10","40","30","120","12","19","[""White""]","No","Female","1818494","820","u","learn","","","learn_trial","25","75","in","1","1","","","","","","","","","","","","","","","","","","","","",""
"","","","","","canvas-keyboard-response","60","183397","0.0-12.0-3.9","2d_cat_multi_stim_exp1","2022-4-5","12:31:12","25","75","3","9","10","40","30","120","12","19","[""White""]","No","Female","1818494","null","null","learn_feedback","","","learn_feedback","25","75","in","","","","","","","","","","","","","","","","","","","","","","",""
"","","","","","canvas-keyboard-response","61","183461","0.0-12.0-4.9","2d_cat_multi_stim_exp1","2022-4-5","12:31:12","25","75","3","9","10","40","30","120","12","19","[""White""]","No","Female","1818494","null","null","","","","clear_screen","","","","","","","","","","","","","","","","","","","","","","","","","",""
"","","","","","canvas-keyboard-response","62","183972","0.0-12.0-0.10","2d_cat_multi_stim_exp1","2022-4-5","12:31:12","25","75","3","9","10","40","30","120","12","19","[""White""]","No","Female","1818494","null","null","","","","fixation","","","","","","","","","","","","","","","","","","","","","","","","","",""
"","","","","","canvas-keyboard-response","63","184483","0.0-12.0-1.10","2d_cat_multi_stim_exp1","2022-4-5","12:31:12","25","75","3","9","10","40","30","120","12","19","[""White""]","No","Female","1818494","null","null","","","","clear_screen","","","","","","","","","","","","","","","","","","","","","","","","","",""
"","","","","","canvas-keyboard-response","64","185541","0.0-12.0-2.10","2d_cat_multi_stim_exp1","2022-4-5","12:31:12","25","75","3","9","10","40","30","120","12","19","[""White""]","No","Female","1818494","1048","i","learn","","","learn_trial","30","30","out","0","1","","","","","","","","","","","","","","","","","","","","",""
"","","","","","canvas-keyboard-response","65","186053","0.0-12.0-3.10","2d_cat_multi_stim_exp1","2022-4-5","12:31:12","25","75","3","9","10","40","30","120","12","19","[""White""]","No","Female","1818494","null","null","learn_feedback","","","learn_feedback","30","30","out","","","","","","","","","","","","","","","","","","","","","","",""
"","","","","","canvas-keyboard-response","66","186116","0.0-12.0-4.10","2d_cat_multi_stim_exp1","2022-4-5","12:31:12","25","75","3","9","10","40","30","120","12","19","[""White""]","No","Female","1818494","null","null","","","","clear_screen","","","","","","","","","","","","","","","","","","","","","","","","","",""
"","","","","","canvas-keyboard-response","67","186625","0.0-12.0-0.11","2d_cat_multi_stim_exp1","2022-4-5","12:31:12","25","75","3","9","10","40","30","120","12","19","[""White""]","No","Female","1818494","null","null","","","","fixation","","","","","","","","","","","","","","","","","","","","","","","","","",""
"","","","","","canvas-keyboard-response","68","187138","0.0-12.0-1.11","2d_cat_multi_stim_exp1","2022-4-5","12:31:12","25","75","3","9","10","40","30","120","12","19","[""White""]","No","Female","1818494","null","null","","","","clear_screen","","","","","","","","","","","","","","","","","","","","","","","","","",""
"","","","","","canvas-keyboard-response","69","187957","0.0-12.0-2.11","2d_cat_multi_stim_exp1","2022-4-5","12:31:12","25","75","3","9","10","40","30","120","12","19","[""White""]","No","Female","1818494","808","u","learn","","","learn_trial","25","75","in","1","1","","","","","","","","","","","","","","","","","","","","",""
"","","","","","canvas-keyboard-response","70","188469","0.0-12.0-3.11","2d_cat_multi_stim_exp1","2022-4-5","12:31:12","25","75","3","9","10","40","30","120","12","19","[""White""]","No","Female","1818494","null","null","learn_feedback","","","learn_feedback","25","75","in","","","","","","","","","","","","","","","","","","","","","","",""
"","","","","","canvas-keyboard-response","71","188529","0.0-12.0-4.11","2d_cat_multi_stim_exp1","2022-4-5","12:31:12","25","75","3","9","10","40","30","120","12","19","[""White""]","No","Female","1818494","null","null","","","","clear_screen","","","","","","","","","","","","","","","","","","","","","","","","","",""
"","","","","","canvas-keyboard-response","72","189039","0.0-12.0-0.12","2d_cat_multi_stim_exp1","2022-4-5","12:31:12","25","75","3","9","10","40","30","120","12","19","[""White""]","No","Female","1818494","null","null","","","","fixation","","","","","","","","","","","","","","","","","","","","","","","","","",""
"","","","","","canvas-keyboard-response","73","189553","0.0-12.0-1.12","2d_cat_multi_stim_exp1","2022-4-5","12:31:12","25","75","3","9","10","40","30","120","12","19","[""White""]","No","Female","1818494","null","null","","","","clear_screen","","","","","","","","","","","","","","","","","","","","","","","","","",""
"","","","","","canvas-keyboard-response","74","190301","0.0-12.0-2.12","2d_cat_multi_stim_exp1","2022-4-5","12:31:12","25","75","3","9","10","40","30","120","12","19","[""White""]","No","Female","1818494","739","u","learn","","","learn_trial","25","75","in","1","1","","","","","","","","","","","","","","","","","","","","",""
"","","","","","canvas-keyboard-response","75","190812","0.0-12.0-3.12","2d_cat_multi_stim_exp1","2022-4-5","12:31:12","25","75","3","9","10","40","30","120","12","19","[""White""]","No","Female","1818494","null","null","learn_feedback","","","learn_feedback","25","75","in","","","","","","","","","","","","","","","","","","","","","","",""
"","","","","","canvas-keyboard-response","76","190877","0.0-12.0-4.12","2d_cat_multi_stim_exp1","2022-4-5","12:31:12","25","75","3","9","10","40","30","120","12","19","[""White""]","No","Female","1818494","null","null","","","","clear_screen","","","","","","","","","","","","","","","","","","","","","","","","","",""
"","","","","","canvas-keyboard-response","77","191386","0.0-12.0-0.13","2d_cat_multi_stim_exp1","2022-4-5","12:31:12","25","75","3","9","10","40","30","120","12","19","[""White""]","No","Female","1818494","null","null","","","","fixation","","","","","","","","","","","","","","","","","","","","","","","","","",""
"","","","","","canvas-keyboard-response","78","191902","0.0-12.0-1.13","2d_cat_multi_stim_exp1","2022-4-5","12:31:12","25","75","3","9","10","40","30","120","12","19","[""White""]","No","Female","1818494","null","null","","","","clear_screen","","","","","","","","","","","","","","","","","","","","","","","","","",""
"","","","","","canvas-keyboard-response","79","192804","0.0-12.0-2.13","2d_cat_multi_stim_exp1","2022-4-5","12:31:12","25","75","3","9","10","40","30","120","12","19","[""White""]","No","Female","1818494","891","i","learn","","","learn_trial","13.3333","70","out","0","1","","","","","","","","","","","","","","","","","","","","",""
"","","","","","canvas-keyboard-response","80","193314","0.0-12.0-3.13","2d_cat_multi_stim_exp1","2022-4-5","12:31:12","25","75","3","9","10","40","30","120","12","19","[""White""]","No","Female","1818494","null","null","learn_feedback","","","learn_feedback","13.3333","70","out","","","","","","","","","","","","","","","","","","","","","","",""
"","","","","","canvas-keyboard-response","81","193373","0.0-12.0-4.13","2d_cat_multi_stim_exp1","2022-4-5","12:31:12","25","75","3","9","10","40","30","120","12","19","[""White""]","No","Female","1818494","null","null","","","","clear_screen","","","","","","","","","","","","","","","","","","","","","","","","","",""
"","","","","","canvas-keyboard-response","82","193884","0.0-12.0-0.14","2d_cat_multi_stim_exp1","2022-4-5","12:31:12","25","75","3","9","10","40","30","120","12","19","[""White""]","No","Female","1818494","null","null","","","","fixation","","","","","","","","","","","","","","","","","","","","","","","","","",""
"","","","","","canvas-keyboard-response","83","194395","0.0-12.0-1.14","2d_cat_multi_stim_exp1","2022-4-5","12:31:12","25","75","3","9","10","40","30","120","12","19","[""White""]","No","Female","1818494","null","null","","","","clear_screen","","","","","","","","","","","","","","","","","","","","","","","","","",""
"","","","","","canvas-keyboard-response","84","195229","0.0-12.0-2.14","2d_cat_multi_stim_exp1","2022-4-5","12:31:12","25","75","3","9","10","40","30","120","12","19","[""White""]","No","Female","1818494","824","i","learn","","","learn_trial","13.3333","90","out","0","1","","","","","","","","","","","","","","","","","","","","",""
"","","","","","canvas-keyboard-response","85","195741","0.0-12.0-3.14","2d_cat_multi_stim_exp1","2022-4-5","12:31:12","25","75","3","9","10","40","30","120","12","19","[""White""]","No","Female","1818494","null","null","learn_feedback","","","learn_feedback","13.3333","90","out","","","","","","","","","","","","","","","","","","","","","","",""
"","","","","","canvas-keyboard-response","86","195805","0.0-12.0-4.14","2d_cat_multi_stim_exp1","2022-4-5","12:31:12","25","75","3","9","10","40","30","120","12","19","[""White""]","No","Female","1818494","null","null","","","","clear_screen","","","","","","","","","","","","","","","","","","","","","","","","","",""
"","","","","","canvas-keyboard-response","87","196314","0.0-12.0-0.15","2d_cat_multi_stim_exp1","2022-4-5","12:31:12","25","75","3","9","10","40","30","120","12","19","[""White""]","No","Female","1818494","null","null","","","","fixation","","","","","","","","","","","","","","","","","","","","","","","","","",""
"","","","","","canvas-keyboard-response","88","196826","0.0-12.0-1.15","2d_cat_multi_stim_exp1","2022-4-5","12:31:12","25","75","3","9","10","40","30","120","12","19","[""White""]","No","Female","1818494","null","null","","","","clear_screen","","","","","","","","","","","","","","","","","","","","","","","","","",""
"","","","","","canvas-keyboard-response","89","198901","0.0-12.0-2.15","2d_cat_multi_stim_exp1","2022-4-5","12:31:12","25","75","3","9","10","40","30","120","12","19","[""White""]","No","Female","1818494","2061","i","learn","","","learn_trial","16.6667","120","out","0","1","","","","","","","","","","","","","","","","","","","","",""
"","","","","","canvas-keyboard-response","90","199412","0.0-12.0-3.15","2d_cat_multi_stim_exp1","2022-4-5","12:31:12","25","75","3","9","10","40","30","120","12","19","[""White""]","No","Female","1818494","null","null","learn_feedback","","","learn_feedback","16.6667","120","out","","","","","","","","","","","","","","","","","","","","","","",""
"","","","","","canvas-keyboard-response","91","199477","0.0-12.0-4.15","2d_cat_multi_stim_exp1","2022-4-5","12:31:12","25","75","3","9","10","40","30","120","12","19","[""White""]","No","Female","1818494","null","null","","","","clear_screen","","","","","","","","","","","","","","","","","","","","","","","","","",""
"","","","","","canvas-keyboard-response","92","199988","0.0-12.0-0.16","2d_cat_multi_stim_exp1","2022-4-5","12:31:12","25","75","3","9","10","40","30","120","12","19","[""White""]","No","Female","1818494","null","null","","","","fixation","","","","","","","","","","","","","","","","","","","","","","","","","",""
"","","","","","canvas-keyboard-response","93","200500","0.0-12.0-1.16","2d_cat_multi_stim_exp1","2022-4-5","12:31:12","25","75","3","9","10","40","30","120","12","19","[""White""]","No","Female","1818494","null","null","","","","clear_screen","","","","","","","","","","","","","","","","","","","","","","","","","",""
"","","","","","canvas-keyboard-response","94","201461","0.0-12.0-2.16","2d_cat_multi_stim_exp1","2022-4-5","12:31:12","25","75","3","9","10","40","30","120","12","19","[""White""]","No","Female","1818494","951","u","learn","","","learn_trial","22.1081","77.3943","in","1","1","","","","","","","","","","","","","","","","","","","","",""
"","","","","","canvas-keyboard-response","95","201973","0.0-12.0-3.16","2d_cat_multi_stim_exp1","2022-4-5","12:31:12","25","75","3","9","10","40","30","120","12","19","[""White""]","No","Female","1818494","null","null","learn_feedback","","","learn_feedback","22.1081","77.3943","in","","","","","","","","","","","","","","","","","","","","","","",""
"","","","","","canvas-keyboard-response","96","202035","0.0-12.0-4.16","2d_cat_multi_stim_exp1","2022-4-5","12:31:12","25","75","3","9","10","40","30","120","12","19","[""White""]","No","Female","1818494","null","null","","","","clear_screen","","","","","","","","","","","","","","","","","","","","","","","","","",""
"","","","","","canvas-keyboard-response","97","202546","0.0-12.0-0.17","2d_cat_multi_stim_exp1","2022-4-5","12:31:12","25","75","3","9","10","40","30","120","12","19","[""White""]","No","Female","1818494","null","null","","","","fixation","","","","","","","","","","","","","","","","","","","","","","","","","",""
"","","","","","canvas-keyboard-response","98","203059","0.0-12.0-1.17","2d_cat_multi_stim_exp1","2022-4-5","12:31:12","25","75","3","9","10","40","30","120","12","19","[""White""]","No","Female","1818494","null","null","","","","clear_screen","","","","","","","","","","","","","","","","","","","","","","","","","",""
"","","","","","canvas-keyboard-response","99","204301","0.0-12.0-2.17","2d_cat_multi_stim_exp1","2022-4-5","12:31:12","25","75","3","9","10","40","30","120","12","19","[""White""]","No","Female","1818494","1233","u","learn","","","learn_trial","25","75","in","1","1","","","","","","","","","","","","","","","","","","","","",""
"","","","","","canvas-keyboard-response","100","204812","0.0-12.0-3.17","2d_cat_multi_stim_exp1","2022-4-5","12:31:12","25","75","3","9","10","40","30","120","12","19","[""White""]","No","Female","1818494","null","null","learn_feedback","","","learn_feedback","25","75","in","","","","","","","","","","","","","","","","","","","","","","",""
"","","","","","canvas-keyboard-response","101","204874","0.0-12.0-4.17","2d_cat_multi_stim_exp1","2022-4-5","12:31:12","25","75","3","9","10","40","30","120","12","19","[""White""]","No","Female","1818494","null","null","","","","clear_screen","","","","","","","","","","","","","","","","","","","","","","","","","",""
"","","","","","canvas-keyboard-response","102","205383","0.0-12.0-0.18","2d_cat_multi_stim_exp1","2022-4-5","12:31:12","25","75","3","9","10","40","30","120","12","19","[""White""]","No","Female","1818494","null","null","","","","fixation","","","","","","","","","","","","","","","","","","","","","","","","","",""
"","","","","","canvas-keyboard-response","103","205898","0.0-12.0-1.18","2d_cat_multi_stim_exp1","2022-4-5","12:31:12","25","75","3","9","10","40","30","120","12","19","[""White""]","No","Female","1818494","null","null","","","","clear_screen","","","","","","","","","","","","","","","","","","","","","","","","","",""
"","","","","","canvas-keyboard-response","104","207764","0.0-12.0-2.18","2d_cat_multi_stim_exp1","2022-4-5","12:31:12","25","75","3","9","10","40","30","120","12","19","[""White""]","No","Female","1818494","1854","u","learn","","","learn_trial","25","75","in","1","1","","","","","","","","","","","","","","","","","","","","",""
"","","","","","canvas-keyboard-response","105","208277","0.0-12.0-3.18","2d_cat_multi_stim_exp1","2022-4-5","12:31:12","25","75","3","9","10","40","30","120","12","19","[""White""]","No","Female","1818494","null","null","learn_feedback","","","learn_feedback","25","75","in","","","","","","","","","","","","","","","","","","","","","","",""
"","","","","","canvas-keyboard-response","106","208342","0.0-12.0-4.18","2d_cat_multi_stim_exp1","2022-4-5","12:31:12","25","75","3","9","10","40","30","120","12","19","[""White""]","No","Female","1818494","null","null","","","","clear_screen","","","","","","","","","","","","","","","","","","","","","","","","","",""
"","","","","","canvas-keyboard-response","107","208850","0.0-12.0-0.19","2d_cat_multi_stim_exp1","2022-4-5","12:31:12","25","75","3","9","10","40","30","120","12","19","[""White""]","No","Female","1818494","null","null","","","","fixation","","","","","","","","","","","","","","","","","","","","","","","","","",""
"","","","","","canvas-keyboard-response","108","209362","0.0-12.0-1.19","2d_cat_multi_stim_exp1","2022-4-5","12:31:12","25","75","3","9","10","40","30","120","12","19","[""White""]","No","Female","1818494","null","null","","","","clear_screen","","","","","","","","","","","","","","","","","","","","","","","","","",""
"","","","","","canvas-keyboard-response","109","210332","0.0-12.0-2.19","2d_cat_multi_stim_exp1","2022-4-5","12:31:12","25","75","3","9","10","40","30","120","12","19","[""White""]","No","Female","1818494","958","u","learn","","","learn_trial","25","75","in","1","1","","","","","","","","","","","","","","","","","","","","",""
"","","","","","canvas-keyboard-response","110","210844","0.0-12.0-3.19","2d_cat_multi_stim_exp1","2022-4-5","12:31:12","25","75","3","9","10","40","30","120","12","19","[""White""]","No","Female","1818494","null","null","learn_feedback","","","learn_feedback","25","75","in","","","","","","","","","","","","","","","","","","","","","","",""
"","","","","","canvas-keyboard-response","111","210904","0.0-12.0-4.19","2d_cat_multi_stim_exp1","2022-4-5","12:31:12","25","75","3","9","10","40","30","120","12","19","[""White""]","No","Female","1818494","null","null","","","","clear_screen","","","","","","","","","","","","","","","","","","","","","","","","","",""
"","","","","","canvas-keyboard-response","112","211416","0.0-12.0-0.20","2d_cat_multi_stim_exp1","2022-4-5","12:31:12","25","75","3","9","10","40","30","120","12","19","[""White""]","No","Female","1818494","null","null","","","","fixation","","","","","","","","","","","","","","","","","","","","","","","","","",""
"","","","","","canvas-keyboard-response","113","211926","0.0-12.0-1.20","2d_cat_multi_stim_exp1","2022-4-5","12:31:12","25","75","3","9","10","40","30","120","12","19","[""White""]","No","Female","1818494","null","null","","","","clear_screen","","","","","","","","","","","","","","","","","","","","","","","","","",""
"","","","","","canvas-keyboard-response","114","212996","0.0-12.0-2.20","2d_cat_multi_stim_exp1","2022-4-5","12:31:12","25","75","3","9","10","40","30","120","12","19","[""White""]","No","Female","1818494","1061","i","learn","","","learn_trial","13.3333","50","out","0","1","","","","","","","","","","","","","","","","","","","","",""
"","","","","","canvas-keyboard-response","115","213506","0.0-12.0-3.20","2d_cat_multi_stim_exp1","2022-4-5","12:31:12","25","75","3","9","10","40","30","120","12","19","[""White""]","No","Female","1818494","null","null","learn_feedback","","","learn_feedback","13.3333","50","out","","","","","","","","","","","","","","","","","","","","","","",""
"","","","","","canvas-keyboard-response","116","213570","0.0-12.0-4.20","2d_cat_multi_stim_exp1","2022-4-5","12:31:12","25","75","3","9","10","40","30","120","12","19","[""White""]","No","Female","1818494","null","null","","","","clear_screen","","","","","","","","","","","","","","","","","","","","","","","","","",""
"","","","","","canvas-keyboard-response","117","214083","0.0-12.0-0.21","2d_cat_multi_stim_exp1","2022-4-5","12:31:12","25","75","3","9","10","40","30","120","12","19","[""White""]","No","Female","1818494","null","null","","","","fixation","","","","","","","","","","","","","","","","","","","","","","","","","",""
"","","","","","canvas-keyboard-response","118","214598","0.0-12.0-1.21","2d_cat_multi_stim_exp1","2022-4-5","12:31:12","25","75","3","9","10","40","30","120","12","19","[""White""]","No","Female","1818494","null","null","","","","clear_screen","","","","","","","","","","","","","","","","","","","","","","","","","",""
"","","","","","canvas-keyboard-response","119","215396","0.0-12.0-2.21","2d_cat_multi_stim_exp1","2022-4-5","12:31:12","25","75","3","9","10","40","30","120","12","19","[""White""]","No","Female","1818494","790","i","learn","","","learn_trial","33.3333","30","out","0","1","","","","","","","","","","","","","","","","","","","","",""
"","","","","","canvas-keyboard-response","120","215908","0.0-12.0-3.21","2d_cat_multi_stim_exp1","2022-4-5","12:31:12","25","75","3","9","10","40","30","120","12","19","[""White""]","No","Female","1818494","null","null","learn_feedback","","","learn_feedback","33.3333","30","out","","","","","","","","","","","","","","","","","","","","","","",""
"","","","","","canvas-keyboard-response","121","215968","0.0-12.0-4.21","2d_cat_multi_stim_exp1","2022-4-5","12:31:12","25","75","3","9","10","40","30","120","12","19","[""White""]","No","Female","1818494","null","null","","","","clear_screen","","","","","","","","","","","","","","","","","","","","","","","","","",""
"","","","","","canvas-keyboard-response","122","216478","0.0-12.0-0.22","2d_cat_multi_stim_exp1","2022-4-5","12:31:12","25","75","3","9","10","40","30","120","12","19","[""White""]","No","Female","1818494","null","null","","","","fixation","","","","","","","","","","","","","","","","","","","","","","","","","",""
"","","","","","canvas-keyboard-response","123","216993","0.0-12.0-1.22","2d_cat_multi_stim_exp1","2022-4-5","12:31:12","25","75","3","9","10","40","30","120","12","19","[""White""]","No","Female","1818494","null","null","","","","clear_screen","","","","","","","","","","","","","","","","","","","","","","","","","",""
"","","","","","canvas-keyboard-response","124","217877","0.0-12.0-2.22","2d_cat_multi_stim_exp1","2022-4-5","12:31:12","25","75","3","9","10","40","30","120","12","19","[""White""]","No","Female","1818494","872","i","learn","","","learn_trial","40","100","out","0","1","","","","","","","","","","","","","","","","","","","","",""
"","","","","","canvas-keyboard-response","125","218389","0.0-12.0-3.22","2d_cat_multi_stim_exp1","2022-4-5","12:31:12","25","75","3","9","10","40","30","120","12","19","[""White""]","No","Female","1818494","null","null","learn_feedback","","","learn_feedback","40","100","out","","","","","","","","","","","","","","","","","","","","","","",""
"","","","","","canvas-keyboard-response","126","218451","0.0-12.0-4.22","2d_cat_multi_stim_exp1","2022-4-5","12:31:12","25","75","3","9","10","40","30","120","12","19","[""White""]","No","Female","1818494","null","null","","","","clear_screen","","","","","","","","","","","","","","","","","","","","","","","","","",""
"","","","","","canvas-keyboard-response","127","218963","0.0-12.0-0.23","2d_cat_multi_stim_exp1","2022-4-5","12:31:12","25","75","3","9","10","40","30","120","12","19","[""White""]","No","Female","1818494","null","null","","","","fixation","","","","","","","","","","","","","","","","","","","","","","","","","",""
"","","","","","canvas-keyboard-response","128","219475","0.0-12.0-1.23","2d_cat_multi_stim_exp1","2022-4-5","12:31:12","25","75","3","9","10","40","30","120","12","19","[""White""]","No","Female","1818494","null","null","","","","clear_screen","","","","","","","","","","","","","","","","","","","","","","","","","",""
"","","","","","canvas-keyboard-response","129","220093","0.0-12.0-2.23","2d_cat_multi_stim_exp1","2022-4-5","12:31:12","25","75","3","9","10","40","30","120","12","19","[""White""]","No","Female","1818494","605","u","learn","","","learn_trial","25","75","in","1","1","","","","","","","","","","","","","","","","","","","","",""
"","","","","","canvas-keyboard-response","130","220602","0.0-12.0-3.23","2d_cat_multi_stim_exp1","2022-4-5","12:31:12","25","75","3","9","10","40","30","120","12","19","[""White""]","No","Female","1818494","null","null","learn_feedback","","","learn_feedback","25","75","in","","","","","","","","","","","","","","","","","","","","","","",""
"","","","","","canvas-keyboard-response","131","220662","0.0-12.0-4.23","2d_cat_multi_stim_exp1","2022-4-5","12:31:12","25","75","3","9","10","40","30","120","12","19","[""White""]","No","Female","1818494","null","null","","","","clear_screen","","","","","","","","","","","","","","","","","","","","","","","","","",""
"","","","","","canvas-keyboard-response","132","221173","0.0-12.0-0.24","2d_cat_multi_stim_exp1","2022-4-5","12:31:12","25","75","3","9","10","40","30","120","12","19","[""White""]","No","Female","1818494","null","null","","","","fixation","","","","","","","","","","","","","","","","","","","","","","","","","",""
"","","","","","canvas-keyboard-response","133","221686","0.0-12.0-1.24","2d_cat_multi_stim_exp1","2022-4-5","12:31:12","25","75","3","9","10","40","30","120","12","19","[""White""]","No","Female","1818494","null","null","","","","clear_screen","","","","","","","","","","","","","","","","","","","","","","","","","",""
"","","","","","canvas-keyboard-response","134","222757","0.0-12.0-2.24","2d_cat_multi_stim_exp1","2022-4-5","12:31:12","25","75","3","9","10","40","30","120","12","19","[""White""]","No","Female","1818494","1059","i","learn","","","learn_trial","36.6667","60","out","0","1","","","","","","","","","","","","","","","","","","","","",""
"","","","","","canvas-keyboard-response","135","223266","0.0-12.0-3.24","2d_cat_multi_stim_exp1","2022-4-5","12:31:12","25","75","3","9","10","40","30","120","12","19","[""White""]","No","Female","1818494","null","null","learn_feedback","","","learn_feedback","36.6667","60","out","","","","","","","","","","","","","","","","","","","","","","",""
"","","","","","canvas-keyboard-response","136","223325","0.0-12.0-4.24","2d_cat_multi_stim_exp1","2022-4-5","12:31:12","25","75","3","9","10","40","30","120","12","19","[""White""]","No","Female","1818494","null","null","","","","clear_screen","","","","","","","","","","","","","","","","","","","","","","","","","",""
"","","","","","canvas-keyboard-response","137","223834","0.0-12.0-0.25","2d_cat_multi_stim_exp1","2022-4-5","12:31:12","25","75","3","9","10","40","30","120","12","19","[""White""]","No","Female","1818494","null","null","","","","fixation","","","","","","","","","","","","","","","","","","","","","","","","","",""
"","","","","","canvas-keyboard-response","138","224350","0.0-12.0-1.25","2d_cat_multi_stim_exp1","2022-4-5","12:31:12","25","75","3","9","10","40","30","120","12","19","[""White""]","No","Female","1818494","null","null","","","","clear_screen","","","","","","","","","","","","","","","","","","","","","","","","","",""
"","","","","","canvas-keyboard-response","139","225461","0.0-12.0-2.25","2d_cat_multi_stim_exp1","2022-4-5","12:31:12","25","75","3","9","10","40","30","120","12","19","[""White""]","No","Female","1818494","1097","u","learn","","","learn_trial","29.2426","62.2721","in","1","1","","","","","","","","","","","","","","","","","","","","",""
"","","","","","canvas-keyboard-response","140","225973","0.0-12.0-3.25","2d_cat_multi_stim_exp1","2022-4-5","12:31:12","25","75","3","9","10","40","30","120","12","19","[""White""]","No","Female","1818494","null","null","learn_feedback","","","learn_feedback","29.2426","62.2721","in","","","","","","","","","","","","","","","","","","","","","","",""
"","","","","","canvas-keyboard-response","141","226032","0.0-12.0-4.25","2d_cat_multi_stim_exp1","2022-4-5","12:31:12","25","75","3","9","10","40","30","120","12","19","[""White""]","No","Female","1818494","null","null","","","","clear_screen","","","","","","","","","","","","","","","","","","","","","","","","","",""
"","","","","","canvas-keyboard-response","142","226543","0.0-12.0-0.26","2d_cat_multi_stim_exp1","2022-4-5","12:31:12","25","75","3","9","10","40","30","120","12","19","[""White""]","No","Female","1818494","null","null","","","","fixation","","","","","","","","","","","","","","","","","","","","","","","","","",""
"","","","","","canvas-keyboard-response","143","227058","0.0-12.0-1.26","2d_cat_multi_stim_exp1","2022-4-5","12:31:12","25","75","3","9","10","40","30","120","12","19","[""White""]","No","Female","1818494","null","null","","","","clear_screen","","","","","","","","","","","","","","","","","","","","","","","","","",""
"","","","","","canvas-keyboard-response","144","227764","0.0-12.0-2.26","2d_cat_multi_stim_exp1","2022-4-5","12:31:12","25","75","3","9","10","40","30","120","12","19","[""White""]","No","Female","1818494","698","u","learn","","","learn_trial","26.4216","67.0746","in","1","1","","","","","","","","","","","","","","","","","","","","",""
"","","","","","canvas-keyboard-response","145","228273","0.0-12.0-3.26","2d_cat_multi_stim_exp1","2022-4-5","12:31:12","25","75","3","9","10","40","30","120","12","19","[""White""]","No","Female","1818494","null","null","learn_feedback","","","learn_feedback","26.4216","67.0746","in","","","","","","","","","","","","","","","","","","","","","","",""
"","","","","","canvas-keyboard-response","146","228336","0.0-12.0-4.26","2d_cat_multi_stim_exp1","2022-4-5","12:31:12","25","75","3","9","10","40","30","120","12","19","[""White""]","No","Female","1818494","null","null","","","","clear_screen","","","","","","","","","","","","","","","","","","","","","","","","","",""
"","","","","","canvas-keyboard-response","147","228847","0.0-12.0-0.27","2d_cat_multi_stim_exp1","2022-4-5","12:31:12","25","75","3","9","10","40","30","120","12","19","[""White""]","No","Female","1818494","null","null","","","","fixation","","","","","","","","","","","","","","","","","","","","","","","","","",""
"","","","","","canvas-keyboard-response","148","229358","0.0-12.0-1.27","2d_cat_multi_stim_exp1","2022-4-5","12:31:12","25","75","3","9","10","40","30","120","12","19","[""White""]","No","Female","1818494","null","null","","","","clear_screen","","","","","","","","","","","","","","","","","","","","","","","","","",""
"","","","","","canvas-keyboard-response","149","231660","0.0-12.0-2.27","2d_cat_multi_stim_exp1","2022-4-5","12:31:12","25","75","3","9","10","40","30","120","12","19","[""White""]","No","Female","1818494","2291","u","learn","","","learn_trial","20","80","out","1","0","","","","","","","","","","","","","","","","","","","","",""
"","","","","","canvas-keyboard-response","150","232671","0.0-12.0-3.27","2d_cat_multi_stim_exp1","2022-4-5","12:31:12","25","75","3","9","10","40","30","120","12","19","[""White""]","No","Female","1818494","null","null","learn_feedback","","","learn_feedback","20","80","out","","","","","","","","","","","","","","","","","","","","","","",""
"","","","","","canvas-keyboard-response","151","232734","0.0-12.0-4.27","2d_cat_multi_stim_exp1","2022-4-5","12:31:12","25","75","3","9","10","40","30","120","12","19","[""White""]","No","Female","1818494","null","null","","","","clear_screen","","","","","","","","","","","","","","","","","","","","","","","","","",""
"","","","","","canvas-keyboard-response","152","233243","0.0-12.0-0.28","2d_cat_multi_stim_exp1","2022-4-5","12:31:12","25","75","3","9","10","40","30","120","12","19","[""White""]","No","Female","1818494","null","null","","","","fixation","","","","","","","","","","","","","","","","","","","","","","","","","",""
"","","","","","canvas-keyboard-response","153","233755","0.0-12.0-1.28","2d_cat_multi_stim_exp1","2022-4-5","12:31:12","25","75","3","9","10","40","30","120","12","19","[""White""]","No","Female","1818494","null","null","","","","clear_screen","","","","","","","","","","","","","","","","","","","","","","","","","",""
"","","","","","canvas-keyboard-response","154","234525","0.0-12.0-2.28","2d_cat_multi_stim_exp1","2022-4-5","12:31:12","25","75","3","9","10","40","30","120","12","19","[""White""]","No","Female","1818494","759","i","learn","","","learn_trial","23.3333","30","out","0","1","","","","","","","","","","","","","","","","","","","","",""
"","","","","","canvas-keyboard-response","155","235035","0.0-12.0-3.28","2d_cat_multi_stim_exp1","2022-4-5","12:31:12","25","75","3","9","10","40","30","120","12","19","[""White""]","No","Female","1818494","null","null","learn_feedback","","","learn_feedback","23.3333","30","out","","","","","","","","","","","","","","","","","","","","","","",""
"","","","","","canvas-keyboard-response","156","235097","0.0-12.0-4.28","2d_cat_multi_stim_exp1","2022-4-5","12:31:12","25","75","3","9","10","40","30","120","12","19","[""White""]","No","Female","1818494","null","null","","","","clear_screen","","","","","","","","","","","","","","","","","","","","","","","","","",""
"","","","","","canvas-keyboard-response","157","235610","0.0-12.0-0.29","2d_cat_multi_stim_exp1","2022-4-5","12:31:12","25","75","3","9","10","40","30","120","12","19","[""White""]","No","Female","1818494","null","null","","","","fixation","","","","","","","","","","","","","","","","","","","","","","","","","",""
"","","","","","canvas-keyboard-response","158","236122","0.0-12.0-1.29","2d_cat_multi_stim_exp1","2022-4-5","12:31:12","25","75","3","9","10","40","30","120","12","19","[""White""]","No","Female","1818494","null","null","","","","clear_screen","","","","","","","","","","","","","","","","","","","","","","","","","",""
"","","","","","canvas-keyboard-response","159","236988","0.0-12.0-2.29","2d_cat_multi_stim_exp1","2022-4-5","12:31:12","25","75","3","9","10","40","30","120","12","19","[""White""]","No","Female","1818494","856","u","learn","","","learn_trial","29.2426","87.7279","in","1","1","","","","","","","","","","","","","","","","","","","","",""
"","","","","","canvas-keyboard-response","160","237499","0.0-12.0-3.29","2d_cat_multi_stim_exp1","2022-4-5","12:31:12","25","75","3","9","10","40","30","120","12","19","[""White""]","No","Female","1818494","null","null","learn_feedback","","","learn_feedback","29.2426","87.7279","in","","","","","","","","","","","","","","","","","","","","","","",""
"","","","","","canvas-keyboard-response","161","237561","0.0-12.0-4.29","2d_cat_multi_stim_exp1","2022-4-5","12:31:12","25","75","3","9","10","40","30","120","12","19","[""White""]","No","Female","1818494","null","null","","","","clear_screen","","","","","","","","","","","","","","","","","","","","","","","","","",""
"","","","","","canvas-keyboard-response","162","238071","0.0-12.0-0.30","2d_cat_multi_stim_exp1","2022-4-5","12:31:12","25","75","3","9","10","40","30","120","12","19","[""White""]","No","Female","1818494","null","null","","","","fixation","","","","","","","","","","","","","","","","","","","","","","","","","",""
"","","","","","canvas-keyboard-response","163","238586","0.0-12.0-1.30","2d_cat_multi_stim_exp1","2022-4-5","12:31:12","25","75","3","9","10","40","30","120","12","19","[""White""]","No","Female","1818494","null","null","","","","clear_screen","","","","","","","","","","","","","","","","","","","","","","","","","",""
"","","","","","canvas-keyboard-response","164","239812","0.0-12.0-2.30","2d_cat_multi_stim_exp1","2022-4-5","12:31:12","25","75","3","9","10","40","30","120","12","19","[""White""]","No","Female","1818494","1215","u","learn","","","learn_trial","25","93","in","1","1","","","","","","","","","","","","","","","","","","","","",""
"","","","","","canvas-keyboard-response","165","240323","0.0-12.0-3.30","2d_cat_multi_stim_exp1","2022-4-5","12:31:12","25","75","3","9","10","40","30","120","12","19","[""White""]","No","Female","1818494","null","null","learn_feedback","","","learn_feedback","25","93","in","","","","","","","","","","","","","","","","","","","","","","",""
"","","","","","canvas-keyboard-response","166","240383","0.0-12.0-4.30","2d_cat_multi_stim_exp1","2022-4-5","12:31:12","25","75","3","9","10","40","30","120","12","19","[""White""]","No","Female","1818494","null","null","","","","clear_screen","","","","","","","","","","","","","","","","","","","","","","","","","",""
"","","","","","canvas-keyboard-response","167","240893","0.0-12.0-0.31","2d_cat_multi_stim_exp1","2022-4-5","12:31:12","25","75","3","9","10","40","30","120","12","19","[""White""]","No","Female","1818494","null","null","","","","fixation","","","","","","","","","","","","","","","","","","","","","","","","","",""
"","","","","","canvas-keyboard-response","168","241404","0.0-12.0-1.31","2d_cat_multi_stim_exp1","2022-4-5","12:31:12","25","75","3","9","10","40","30","120","12","19","[""White""]","No","Female","1818494","null","null","","","","clear_screen","","","","","","","","","","","","","","","","","","","","","","","","","",""
"","","","","","canvas-keyboard-response","169","242109","0.0-12.0-2.31","2d_cat_multi_stim_exp1","2022-4-5","12:31:12","25","75","3","9","10","40","30","120","12","19","[""White""]","No","Female","1818494","693","u","learn","","","learn_trial","25","75","in","1","1","","","","","","","","","","","","","","","","","","","","",""
"","","","","","canvas-keyboard-response","170","242618","0.0-12.0-3.31","2d_cat_multi_stim_exp1","2022-4-5","12:31:12","25","75","3","9","10","40","30","120","12","19","[""White""]","No","Female","1818494","null","null","learn_feedback","","","learn_feedback","25","75","in","","","","","","","","","","","","","","","","","","","","","","",""
"","","","","","canvas-keyboard-response","171","242679","0.0-12.0-4.31","2d_cat_multi_stim_exp1","2022-4-5","12:31:12","25","75","3","9","10","40","30","120","12","19","[""White""]","No","Female","1818494","null","null","","","","clear_screen","","","","","","","","","","","","","","","","","","","","","","","","","",""
"","","","","","canvas-keyboard-response","172","243189","0.0-12.0-0.32","2d_cat_multi_stim_exp1","2022-4-5","12:31:12","25","75","3","9","10","40","30","120","12","19","[""White""]","No","Female","1818494","null","null","","","","fixation","","","","","","","","","","","","","","","","","","","","","","","","","",""
"","","","","","canvas-keyboard-response","173","243701","0.0-12.0-1.32","2d_cat_multi_stim_exp1","2022-4-5","12:31:12","25","75","3","9","10","40","30","120","12","19","[""White""]","No","Female","1818494","null","null","","","","clear_screen","","","","","","","","","","","","","","","","","","","","","","","","","",""
"","","","","","canvas-keyboard-response","174","244516","0.0-12.0-2.32","2d_cat_multi_stim_exp1","2022-4-5","12:31:12","25","75","3","9","10","40","30","120","12","19","[""White""]","No","Female","1818494","806","u","learn","","","learn_trial","27.2592","80.9214","in","1","1","","","","","","","","","","","","","","","","","","","","",""
"","","","","","canvas-keyboard-response","175","245028","0.0-12.0-3.32","2d_cat_multi_stim_exp1","2022-4-5","12:31:12","25","75","3","9","10","40","30","120","12","19","[""White""]","No","Female","1818494","null","null","learn_feedback","","","learn_feedback","27.2592","80.9214","in","","","","","","","","","","","","","","","","","","","","","","",""
"","","","","","canvas-keyboard-response","176","245091","0.0-12.0-4.32","2d_cat_multi_stim_exp1","2022-4-5","12:31:12","25","75","3","9","10","40","30","120","12","19","[""White""]","No","Female","1818494","null","null","","","","clear_screen","","","","","","","","","","","","","","","","","","","","","","","","","",""
"","","","","","canvas-keyboard-response","177","245603","0.0-12.0-0.33","2d_cat_multi_stim_exp1","2022-4-5","12:31:12","25","75","3","9","10","40","30","120","12","19","[""White""]","No","Female","1818494","null","null","","","","fixation","","","","","","","","","","","","","","","","","","","","","","","","","",""
"","","","","","canvas-keyboard-response","178","246113","0.0-12.0-1.33","2d_cat_multi_stim_exp1","2022-4-5","12:31:12","25","75","3","9","10","40","30","120","12","19","[""White""]","No","Female","1818494","null","null","","","","clear_screen","","","","","","","","","","","","","","","","","","","","","","","","","",""
"","","","","","canvas-keyboard-response","179","247373","0.0-12.0-2.33","2d_cat_multi_stim_exp1","2022-4-5","12:31:12","25","75","3","9","10","40","30","120","12","19","[""White""]","No","Female","1818494","1250","i","learn","","","learn_trial","36.6667","50","out","0","1","","","","","","","","","","","","","","","","","","","","",""
"","","","","","canvas-keyboard-response","180","247883","0.0-12.0-3.33","2d_cat_multi_stim_exp1","2022-4-5","12:31:12","25","75","3","9","10","40","30","120","12","19","[""White""]","No","Female","1818494","null","null","learn_feedback","","","learn_feedback","36.6667","50","out","","","","","","","","","","","","","","","","","","","","","","",""
"","","","","","canvas-keyboard-response","181","247947","0.0-12.0-4.33","2d_cat_multi_stim_exp1","2022-4-5","12:31:12","25","75","3","9","10","40","30","120","12","19","[""White""]","No","Female","1818494","null","null","","","","clear_screen","","","","","","","","","","","","","","","","","","","","","","","","","",""
"","","","","","canvas-keyboard-response","182","248458","0.0-12.0-0.34","2d_cat_multi_stim_exp1","2022-4-5","12:31:12","25","75","3","9","10","40","30","120","12","19","[""White""]","No","Female","1818494","null","null","","","","fixation","","","","","","","","","","","","","","","","","","","","","","","","","",""
"","","","","","canvas-keyboard-response","183","248971","0.0-12.0-1.34","2d_cat_multi_stim_exp1","2022-4-5","12:31:12","25","75","3","9","10","40","30","120","12","19","[""White""]","No","Female","1818494","null","null","","","","clear_screen","","","","","","","","","","","","","","","","","","","","","","","","","",""
"","","","","","canvas-keyboard-response","184","249917","0.0-12.0-2.34","2d_cat_multi_stim_exp1","2022-4-5","12:31:12","25","75","3","9","10","40","30","120","12","19","[""White""]","No","Female","1818494","936","u","learn","","","learn_trial","25","75","in","1","1","","","","","","","","","","","","","","","","","","","","",""
"","","","","","canvas-keyboard-response","185","250428","0.0-12.0-3.34","2d_cat_multi_stim_exp1","2022-4-5","12:31:12","25","75","3","9","10","40","30","120","12","19","[""White""]","No","Female","1818494","null","null","learn_feedback","","","learn_feedback","25","75","in","","","","","","","","","","","","","","","","","","","","","","",""
"","","","","","canvas-keyboard-response","186","250491","0.0-12.0-4.34","2d_cat_multi_stim_exp1","2022-4-5","12:31:12","25","75","3","9","10","40","30","120","12","19","[""White""]","No","Female","1818494","null","null","","","","clear_screen","","","","","","","","","","","","","","","","","","","","","","","","","",""
"","","","","","canvas-keyboard-response","187","251002","0.0-12.0-0.35","2d_cat_multi_stim_exp1","2022-4-5","12:31:12","25","75","3","9","10","40","30","120","12","19","[""White""]","No","Female","1818494","null","null","","","","fixation","","","","","","","","","","","","","","","","","","","","","","","","","",""
"","","","","","canvas-keyboard-response","188","251518","0.0-12.0-1.35","2d_cat_multi_stim_exp1","2022-4-5","12:31:12","25","75","3","9","10","40","30","120","12","19","[""White""]","No","Female","1818494","null","null","","","","clear_screen","","","","","","","","","","","","","","","","","","","","","","","","","",""
"","","","","","canvas-keyboard-response","189","252348","0.0-12.0-2.35","2d_cat_multi_stim_exp1","2022-4-5","12:31:12","25","75","3","9","10","40","30","120","12","19","[""White""]","No","Female","1818494","820","u","learn","","","learn_trial","25","57","in","1","1","","","","","","","","","","","","","","","","","","","","",""
"","","","","","canvas-keyboard-response","190","252857","0.0-12.0-3.35","2d_cat_multi_stim_exp1","2022-4-5","12:31:12","25","75","3","9","10","40","30","120","12","19","[""White""]","No","Female","1818494","null","null","learn_feedback","","","learn_feedback","25","57","in","","","","","","","","","","","","","","","","","","","","","","",""
"","","","","","canvas-keyboard-response","191","252918","0.0-12.0-4.35","2d_cat_multi_stim_exp1","2022-4-5","12:31:12","25","75","3","9","10","40","30","120","12","19","[""White""]","No","Female","1818494","null","null","","","","clear_screen","","","","","","","","","","","","","","","","","","","","","","","","","",""
"","","","","","canvas-keyboard-response","192","253428","0.0-12.0-0.36","2d_cat_multi_stim_exp1","2022-4-5","12:31:12","25","75","3","9","10","40","30","120","12","19","[""White""]","No","Female","1818494","null","null","","","","fixation","","","","","","","","","","","","","","","","","","","","","","","","","",""
"","","","","","canvas-keyboard-response","193","253938","0.0-12.0-1.36","2d_cat_multi_stim_exp1","2022-4-5","12:31:12","25","75","3","9","10","40","30","120","12","19","[""White""]","No","Female","1818494","null","null","","","","clear_screen","","","","","","","","","","","","","","","","","","","","","","","","","",""
"","","","","","canvas-keyboard-response","194","254709","0.0-12.0-2.36","2d_cat_multi_stim_exp1","2022-4-5","12:31:12","25","75","3","9","10","40","30","120","12","19","[""White""]","No","Female","1818494","760","i","learn","","","learn_trial","10","30","out","0","1","","","","","","","","","","","","","","","","","","","","",""
"","","","","","canvas-keyboard-response","195","255218","0.0-12.0-3.36","2d_cat_multi_stim_exp1","2022-4-5","12:31:12","25","75","3","9","10","40","30","120","12","19","[""White""]","No","Female","1818494","null","null","learn_feedback","","","learn_feedback","10","30","out","","","","","","","","","","","","","","","","","","","","","","",""
"","","","","","canvas-keyboard-response","196","255278","0.0-12.0-4.36","2d_cat_multi_stim_exp1","2022-4-5","12:31:12","25","75","3","9","10","40","30","120","12","19","[""White""]","No","Female","1818494","null","null","","","","clear_screen","","","","","","","","","","","","","","","","","","","","","","","","","",""
"","","","","","canvas-keyboard-response","197","255788","0.0-12.0-0.37","2d_cat_multi_stim_exp1","2022-4-5","12:31:12","25","75","3","9","10","40","30","120","12","19","[""White""]","No","Female","1818494","null","null","","","","fixation","","","","","","","","","","","","","","","","","","","","","","","","","",""
"","","","","","canvas-keyboard-response","198","256299","0.0-12.0-1.37","2d_cat_multi_stim_exp1","2022-4-5","12:31:12","25","75","3","9","10","40","30","120","12","19","[""White""]","No","Female","1818494","null","null","","","","clear_screen","","","","","","","","","","","","","","","","","","","","","","","","","",""
"","","","","","canvas-keyboard-response","199","257037","0.0-12.0-2.37","2d_cat_multi_stim_exp1","2022-4-5","12:31:12","25","75","3","9","10","40","30","120","12","19","[""White""]","No","Female","1818494","726","i","learn","","","learn_trial","10","50","out","0","1","","","","","","","","","","","","","","","","","","","","",""
"","","","","","canvas-keyboard-response","200","257547","0.0-12.0-3.37","2d_cat_multi_stim_exp1","2022-4-5","12:31:12","25","75","3","9","10","40","30","120","12","19","[""White""]","No","Female","1818494","null","null","learn_feedback","","","learn_feedback","10","50","out","","","","","","","","","","","","","","","","","","","","","","",""
"","","","","","canvas-keyboard-response","201","257608","0.0-12.0-4.37","2d_cat_multi_stim_exp1","2022-4-5","12:31:12","25","75","3","9","10","40","30","120","12","19","[""White""]","No","Female","1818494","null","null","","","","clear_screen","","","","","","","","","","","","","","","","","","","","","","","","","",""
"","","","","","canvas-keyboard-response","202","258119","0.0-12.0-0.38","2d_cat_multi_stim_exp1","2022-4-5","12:31:12","25","75","3","9","10","40","30","120","12","19","[""White""]","No","Female","1818494","null","null","","","","fixation","","","","","","","","","","","","","","","","","","","","","","","","","",""
"","","","","","canvas-keyboard-response","203","258633","0.0-12.0-1.38","2d_cat_multi_stim_exp1","2022-4-5","12:31:12","25","75","3","9","10","40","30","120","12","19","[""White""]","No","Female","1818494","null","null","","","","clear_screen","","","","","","","","","","","","","","","","","","","","","","","","","",""
"","","","","","canvas-keyboard-response","204","259564","0.0-12.0-2.38","2d_cat_multi_stim_exp1","2022-4-5","12:31:12","25","75","3","9","10","40","30","120","12","19","[""White""]","No","Female","1818494","921","i","learn","","","learn_trial","26.6667","100","out","0","1","","","","","","","","","","","","","","","","","","","","",""
"","","","","","canvas-keyboard-response","205","260077","0.0-12.0-3.38","2d_cat_multi_stim_exp1","2022-4-5","12:31:12","25","75","3","9","10","40","30","120","12","19","[""White""]","No","Female","1818494","null","null","learn_feedback","","","learn_feedback","26.6667","100","out","","","","","","","","","","","","","","","","","","","","","","",""
"","","","","","canvas-keyboard-response","206","260138","0.0-12.0-4.38","2d_cat_multi_stim_exp1","2022-4-5","12:31:12","25","75","3","9","10","40","30","120","12","19","[""White""]","No","Female","1818494","null","null","","","","clear_screen","","","","","","","","","","","","","","","","","","","","","","","","","",""
"","","","","","canvas-keyboard-response","207","260651","0.0-12.0-0.39","2d_cat_multi_stim_exp1","2022-4-5","12:31:12","25","75","3","9","10","40","30","120","12","19","[""White""]","No","Female","1818494","null","null","","","","fixation","","","","","","","","","","","","","","","","","","","","","","","","","",""
"","","","","","canvas-keyboard-response","208","261162","0.0-12.0-1.39","2d_cat_multi_stim_exp1","2022-4-5","12:31:12","25","75","3","9","10","40","30","120","12","19","[""White""]","No","Female","1818494","null","null","","","","clear_screen","","","","","","","","","","","","","","","","","","","","","","","","","",""
"","","","","","canvas-keyboard-response","209","261989","0.0-12.0-2.39","2d_cat_multi_stim_exp1","2022-4-5","12:31:12","25","75","3","9","10","40","30","120","12","19","[""White""]","No","Female","1818494","814","u","learn","","","learn_trial","22.0121","74.1932","in","1","1","","","","","","","","","","","","","","","","","","","","",""
"","","","","","canvas-keyboard-response","210","262500","0.0-12.0-3.39","2d_cat_multi_stim_exp1","2022-4-5","12:31:12","25","75","3","9","10","40","30","120","12","19","[""White""]","No","Female","1818494","null","null","learn_feedback","","","learn_feedback","22.0121","74.1932","in","","","","","","","","","","","","","","","","","","","","","","",""
"","","","","","canvas-keyboard-response","211","262562","0.0-12.0-4.39","2d_cat_multi_stim_exp1","2022-4-5","12:31:12","25","75","3","9","10","40","30","120","12","19","[""White""]","No","Female","1818494","null","null","","","","clear_screen","","","","","","","","","","","","","","","","","","","","","","","","","",""
"","","","","","canvas-keyboard-response","212","263075","0.0-12.0-0.40","2d_cat_multi_stim_exp1","2022-4-5","12:31:12","25","75","3","9","10","40","30","120","12","19","[""White""]","No","Female","1818494","null","null","","","","fixation","","","","","","","","","","","","","","","","","","","","","","","","","",""
"","","","","","canvas-keyboard-response","213","263589","0.0-12.0-1.40","2d_cat_multi_stim_exp1","2022-4-5","12:31:12","25","75","3","9","10","40","30","120","12","19","[""White""]","No","Female","1818494","null","null","","","","clear_screen","","","","","","","","","","","","","","","","","","","","","","","","","",""
"","","","","","canvas-keyboard-response","214","264821","0.0-12.0-2.40","2d_cat_multi_stim_exp1","2022-4-5","12:31:12","25","75","3","9","10","40","30","120","12","19","[""White""]","No","Female","1818494","1220","u","learn","","","learn_trial","27.8087","71.8376","in","1","1","","","","","","","","","","","","","","","","","","","","",""
"","","","","","canvas-keyboard-response","215","265330","0.0-12.0-3.40","2d_cat_multi_stim_exp1","2022-4-5","12:31:12","25","75","3","9","10","40","30","120","12","19","[""White""]","No","Female","1818494","null","null","learn_feedback","","","learn_feedback","27.8087","71.8376","in","","","","","","","","","","","","","","","","","","","","","","",""
"","","","","","canvas-keyboard-response","216","265391","0.0-12.0-4.40","2d_cat_multi_stim_exp1","2022-4-5","12:31:12","25","75","3","9","10","40","30","120","12","19","[""White""]","No","Female","1818494","null","null","","","","clear_screen","","","","","","","","","","","","","","","","","","","","","","","","","",""
"","","","","","canvas-keyboard-response","217","265900","0.0-12.0-0.41","2d_cat_multi_stim_exp1","2022-4-5","12:31:12","25","75","3","9","10","40","30","120","12","19","[""White""]","No","Female","1818494","null","null","","","","fixation","","","","","","","","","","","","","","","","","","","","","","","","","",""
"","","","","","canvas-keyboard-response","218","266411","0.0-12.0-1.41","2d_cat_multi_stim_exp1","2022-4-5","12:31:12","25","75","3","9","10","40","30","120","12","19","[""White""]","No","Female","1818494","null","null","","","","clear_screen","","","","","","","","","","","","","","","","","","","","","","","","","",""
"","","","","","canvas-keyboard-response","219","267141","0.0-12.0-2.41","2d_cat_multi_stim_exp1","2022-4-5","12:31:12","25","75","3","9","10","40","30","120","12","19","[""White""]","No","Female","1818494","719","i","learn","","","learn_trial","23.3333","120","out","0","1","","","","","","","","","","","","","","","","","","","","",""
"","","","","","canvas-keyboard-response","220","267651","0.0-12.0-3.41","2d_cat_multi_stim_exp1","2022-4-5","12:31:12","25","75","3","9","10","40","30","120","12","19","[""White""]","No","Female","1818494","null","null","learn_feedback","","","learn_feedback","23.3333","120","out","","","","","","","","","","","","","","","","","","","","","","",""
"","","","","","canvas-keyboard-response","221","267711","0.0-12.0-4.41","2d_cat_multi_stim_exp1","2022-4-5","12:31:12","25","75","3","9","10","40","30","120","12","19","[""White""]","No","Female","1818494","null","null","","","","clear_screen","","","","","","","","","","","","","","","","","","","","","","","","","",""
"","","","","","canvas-keyboard-response","222","268221","0.0-12.0-0.42","2d_cat_multi_stim_exp1","2022-4-5","12:31:12","25","75","3","9","10","40","30","120","12","19","[""White""]","No","Female","1818494","null","null","","","","fixation","","","","","","","","","","","","","","","","","","","","","","","","","",""
"","","","","","canvas-keyboard-response","223","268738","0.0-12.0-1.42","2d_cat_multi_stim_exp1","2022-4-5","12:31:12","25","75","3","9","10","40","30","120","12","19","[""White""]","No","Female","1818494","null","null","","","","clear_screen","","","","","","","","","","","","","","","","","","","","","","","","","",""
"","","","","","canvas-keyboard-response","224","269508","0.0-12.0-2.42","2d_cat_multi_stim_exp1","2022-4-5","12:31:12","25","75","3","9","10","40","30","120","12","19","[""White""]","No","Female","1818494","761","u","learn","","","learn_trial","25","75","in","1","1","","","","","","","","","","","","","","","","","","","","",""
"","","","","","canvas-keyboard-response","225","270018","0.0-12.0-3.42","2d_cat_multi_stim_exp1","2022-4-5","12:31:12","25","75","3","9","10","40","30","120","12","19","[""White""]","No","Female","1818494","null","null","learn_feedback","","","learn_feedback","25","75","in","","","","","","","","","","","","","","","","","","","","","","",""
"","","","","","canvas-keyboard-response","226","270079","0.0-12.0-4.42","2d_cat_multi_stim_exp1","2022-4-5","12:31:12","25","75","3","9","10","40","30","120","12","19","[""White""]","No","Female","1818494","null","null","","","","clear_screen","","","","","","","","","","","","","","","","","","","","","","","","","",""
"","","","","","canvas-keyboard-response","227","270589","0.0-12.0-0.43","2d_cat_multi_stim_exp1","2022-4-5","12:31:12","25","75","3","9","10","40","30","120","12","19","[""White""]","No","Female","1818494","null","null","","","","fixation","","","","","","","","","","","","","","","","","","","","","","","","","",""
"","","","","","canvas-keyboard-response","228","271102","0.0-12.0-1.43","2d_cat_multi_stim_exp1","2022-4-5","12:31:12","25","75","3","9","10","40","30","120","12","19","[""White""]","No","Female","1818494","null","null","","","","clear_screen","","","","","","","","","","","","","","","","","","","","","","","","","",""
"","","","","","canvas-keyboard-response","229","272077","0.0-12.0-2.43","2d_cat_multi_stim_exp1","2022-4-5","12:31:12","25","75","3","9","10","40","30","120","12","19","[""White""]","No","Female","1818494","961","u","learn","","","learn_trial","23.3333","70","out","1","0","","","","","","","","","","","","","","","","","","","","",""
"","","","","","canvas-keyboard-response","230","273086","0.0-12.0-3.43","2d_cat_multi_stim_exp1","2022-4-5","12:31:12","25","75","3","9","10","40","30","120","12","19","[""White""]","No","Female","1818494","null","null","learn_feedback","","","learn_feedback","23.3333","70","out","","","","","","","","","","","","","","","","","","","","","","",""
"","","","","","canvas-keyboard-response","231","273148","0.0-12.0-4.43","2d_cat_multi_stim_exp1","2022-4-5","12:31:12","25","75","3","9","10","40","30","120","12","19","[""White""]","No","Female","1818494","null","null","","","","clear_screen","","","","","","","","","","","","","","","","","","","","","","","","","",""
"","","","","","canvas-keyboard-response","232","273659","0.0-12.0-0.44","2d_cat_multi_stim_exp1","2022-4-5","12:31:12","25","75","3","9","10","40","30","120","12","19","[""White""]","No","Female","1818494","null","null","","","","fixation","","","","","","","","","","","","","","","","","","","","","","","","","",""
"","","","","","canvas-keyboard-response","233","274170","0.0-12.0-1.44","2d_cat_multi_stim_exp1","2022-4-5","12:31:12","25","75","3","9","10","40","30","120","12","19","[""White""]","No","Female","1818494","null","null","","","","clear_screen","","","","","","","","","","","","","","","","","","","","","","","","","",""
"","","","","","canvas-keyboard-response","234","274804","0.0-12.0-2.44","2d_cat_multi_stim_exp1","2022-4-5","12:31:12","25","75","3","9","10","40","30","120","12","19","[""White""]","No","Female","1818494","624","i","learn","","","learn_trial","13.3333","80","out","0","1","","","","","","","","","","","","","","","","","","","","",""
"","","","","","canvas-keyboard-response","235","275317","0.0-12.0-3.44","2d_cat_multi_stim_exp1","2022-4-5","12:31:12","25","75","3","9","10","40","30","120","12","19","[""White""]","No","Female","1818494","null","null","learn_feedback","","","learn_feedback","13.3333","80","out","","","","","","","","","","","","","","","","","","","","","","",""
"","","","","","canvas-keyboard-response","236","275379","0.0-12.0-4.44","2d_cat_multi_stim_exp1","2022-4-5","12:31:12","25","75","3","9","10","40","30","120","12","19","[""White""]","No","Female","1818494","null","null","","","","clear_screen","","","","","","","","","","","","","","","","","","","","","","","","","",""
"","","","","","canvas-keyboard-response","237","275889","0.0-12.0-0.45","2d_cat_multi_stim_exp1","2022-4-5","12:31:12","25","75","3","9","10","40","30","120","12","19","[""White""]","No","Female","1818494","null","null","","","","fixation","","","","","","","","","","","","","","","","","","","","","","","","","",""
"","","","","","canvas-keyboard-response","238","276405","0.0-12.0-1.45","2d_cat_multi_stim_exp1","2022-4-5","12:31:12","25","75","3","9","10","40","30","120","12","19","[""White""]","No","Female","1818494","null","null","","","","clear_screen","","","","","","","","","","","","","","","","","","","","","","","","","",""
"","","","","","canvas-keyboard-response","239","277195","0.0-12.0-2.45","2d_cat_multi_stim_exp1","2022-4-5","12:31:12","25","75","3","9","10","40","30","120","12","19","[""White""]","No","Female","1818494","778","i","learn","","","learn_trial","10","80","out","0","1","","","","","","","","","","","","","","","","","","","","",""
"","","","","","canvas-keyboard-response","240","277700","0.0-12.0-3.45","2d_cat_multi_stim_exp1","2022-4-5","12:31:12","25","75","3","9","10","40","30","120","12","19","[""White""]","No","Female","1818494","null","null","learn_feedback","","","learn_feedback","10","80","out","","","","","","","","","","","","","","","","","","","","","","",""
"","","","","","canvas-keyboard-response","241","277763","0.0-12.0-4.45","2d_cat_multi_stim_exp1","2022-4-5","12:31:12","25","75","3","9","10","40","30","120","12","19","[""White""]","No","Female","1818494","null","null","","","","clear_screen","","","","","","","","","","","","","","","","","","","","","","","","","",""
"","","","","","canvas-keyboard-response","242","278273","0.0-12.0-0.46","2d_cat_multi_stim_exp1","2022-4-5","12:31:12","25","75","3","9","10","40","30","120","12","19","[""White""]","No","Female","1818494","null","null","","","","fixation","","","","","","","","","","","","","","","","","","","","","","","","","",""
"","","","","","canvas-keyboard-response","243","278783","0.0-12.0-1.46","2d_cat_multi_stim_exp1","2022-4-5","12:31:12","25","75","3","9","10","40","30","120","12","19","[""White""]","No","Female","1818494","null","null","","","","clear_screen","","","","","","","","","","","","","","","","","","","","","","","","","",""
"","","","","","canvas-keyboard-response","244","279565","0.0-12.0-2.46","2d_cat_multi_stim_exp1","2022-4-5","12:31:12","25","75","3","9","10","40","30","120","12","19","[""White""]","No","Female","1818494","770","u","learn","","","learn_trial","25","75","in","1","1","","","","","","","","","","","","","","","","","","","","",""
"","","","","","canvas-keyboard-response","245","280074","0.0-12.0-3.46","2d_cat_multi_stim_exp1","2022-4-5","12:31:12","25","75","3","9","10","40","30","120","12","19","[""White""]","No","Female","1818494","null","null","learn_feedback","","","learn_feedback","25","75","in","","","","","","","","","","","","","","","","","","","","","","",""
"","","","","","canvas-keyboard-response","246","280138","0.0-12.0-4.46","2d_cat_multi_stim_exp1","2022-4-5","12:31:12","25","75","3","9","10","40","30","120","12","19","[""White""]","No","Female","1818494","null","null","","","","clear_screen","","","","","","","","","","","","","","","","","","","","","","","","","",""
"","","","","","canvas-keyboard-response","247","280648","0.0-12.0-0.47","2d_cat_multi_stim_exp1","2022-4-5","12:31:12","25","75","3","9","10","40","30","120","12","19","[""White""]","No","Female","1818494","null","null","","","","fixation","","","","","","","","","","","","","","","","","","","","","","","","","",""
"","","","","","canvas-keyboard-response","248","281159","0.0-12.0-1.47","2d_cat_multi_stim_exp1","2022-4-5","12:31:12","25","75","3","9","10","40","30","120","12","19","[""White""]","No","Female","1818494","null","null","","","","clear_screen","","","","","","","","","","","","","","","","","","","","","","","","","",""
"","","","","","canvas-keyboard-response","249","282204","0.0-12.0-2.47","2d_cat_multi_stim_exp1","2022-4-5","12:31:12","25","75","3","9","10","40","30","120","12","19","[""White""]","No","Female","1818494","1036","i","learn","","","learn_trial","23.3333","50","out","0","1","","","","","","","","","","","","","","","","","","","","",""
"","","","","","canvas-keyboard-response","250","282714","0.0-12.0-3.47","2d_cat_multi_stim_exp1","2022-4-5","12:31:12","25","75","3","9","10","40","30","120","12","19","[""White""]","No","Female","1818494","null","null","learn_feedback","","","learn_feedback","23.3333","50","out","","","","","","","","","","","","","","","","","","","","","","",""
"","","","","","canvas-keyboard-response","251","282778","0.0-12.0-4.47","2d_cat_multi_stim_exp1","2022-4-5","12:31:12","25","75","3","9","10","40","30","120","12","19","[""White""]","No","Female","1818494","null","null","","","","clear_screen","","","","","","","","","","","","","","","","","","","","","","","","","",""
"","","","","","canvas-keyboard-response","252","283289","0.0-12.0-0.48","2d_cat_multi_stim_exp1","2022-4-5","12:31:12","25","75","3","9","10","40","30","120","12","19","[""White""]","No","Female","1818494","null","null","","","","fixation","","","","","","","","","","","","","","","","","","","","","","","","","",""
"","","","","","canvas-keyboard-response","253","283801","0.0-12.0-1.48","2d_cat_multi_stim_exp1","2022-4-5","12:31:12","25","75","3","9","10","40","30","120","12","19","[""White""]","No","Female","1818494","null","null","","","","clear_screen","","","","","","","","","","","","","","","","","","","","","","","","","",""
"","","","","","canvas-keyboard-response","254","284476","0.0-12.0-2.48","2d_cat_multi_stim_exp1","2022-4-5","12:31:12","25","75","3","9","10","40","30","120","12","19","[""White""]","No","Female","1818494","667","i","learn","","","learn_trial","20","30","out","0","1","","","","","","","","","","","","","","","","","","","","",""
"","","","","","canvas-keyboard-response","255","284989","0.0-12.0-3.48","2d_cat_multi_stim_exp1","2022-4-5","12:31:12","25","75","3","9","10","40","30","120","12","19","[""White""]","No","Female","1818494","null","null","learn_feedback","","","learn_feedback","20","30","out","","","","","","","","","","","","","","","","","","","","","","",""
"","","","","","canvas-keyboard-response","256","285049","0.0-12.0-4.48","2d_cat_multi_stim_exp1","2022-4-5","12:31:12","25","75","3","9","10","40","30","120","12","19","[""White""]","No","Female","1818494","null","null","","","","clear_screen","","","","","","","","","","","","","","","","","","","","","","","","","",""
"","","","","","canvas-keyboard-response","257","285561","0.0-12.0-0.49","2d_cat_multi_stim_exp1","2022-4-5","12:31:12","25","75","3","9","10","40","30","120","12","19","[""White""]","No","Female","1818494","null","null","","","","fixation","","","","","","","","","","","","","","","","","","","","","","","","","",""
"","","","","","canvas-keyboard-response","258","286072","0.0-12.0-1.49","2d_cat_multi_stim_exp1","2022-4-5","12:31:12","25","75","3","9","10","40","30","120","12","19","[""White""]","No","Female","1818494","null","null","","","","clear_screen","","","","","","","","","","","","","","","","","","","","","","","","","",""
"","","","","","canvas-keyboard-response","259","287012","0.0-12.0-2.49","2d_cat_multi_stim_exp1","2022-4-5","12:31:12","25","75","3","9","10","40","30","120","12","19","[""White""]","No","Female","1818494","930","i","learn","","","learn_trial","20","40","out","0","1","","","","","","","","","","","","","","","","","","","","",""
"","","","","","canvas-keyboard-response","260","287524","0.0-12.0-3.49","2d_cat_multi_stim_exp1","2022-4-5","12:31:12","25","75","3","9","10","40","30","120","12","19","[""White""]","No","Female","1818494","null","null","learn_feedback","","","learn_feedback","20","40","out","","","","","","","","","","","","","","","","","","","","","","",""
"","","","","","canvas-keyboard-response","261","287589","0.0-12.0-4.49","2d_cat_multi_stim_exp1","2022-4-5","12:31:12","25","75","3","9","10","40","30","120","12","19","[""White""]","No","Female","1818494","null","null","","","","clear_screen","","","","","","","","","","","","","","","","","","","","","","","","","",""
"","","","","","canvas-keyboard-response","262","288098","0.0-12.0-0.50","2d_cat_multi_stim_exp1","2022-4-5","12:31:12","25","75","3","9","10","40","30","120","12","19","[""White""]","No","Female","1818494","null","null","","","","fixation","","","","","","","","","","","","","","","","","","","","","","","","","",""
"","","","","","canvas-keyboard-response","263","288609","0.0-12.0-1.50","2d_cat_multi_stim_exp1","2022-4-5","12:31:12","25","75","3","9","10","40","30","120","12","19","[""White""]","No","Female","1818494","null","null","","","","clear_screen","","","","","","","","","","","","","","","","","","","","","","","","","",""
"","","","","","canvas-keyboard-response","264","289180","0.0-12.0-2.50","2d_cat_multi_stim_exp1","2022-4-5","12:31:12","25","75","3","9","10","40","30","120","12","19","[""White""]","No","Female","1818494","560","i","learn","","","learn_trial","16.6667","40","out","0","1","","","","","","","","","","","","","","","","","","","","",""
"","","","","","canvas-keyboard-response","265","289692","0.0-12.0-3.50","2d_cat_multi_stim_exp1","2022-4-5","12:31:12","25","75","3","9","10","40","30","120","12","19","[""White""]","No","Female","1818494","null","null","learn_feedback","","","learn_feedback","16.6667","40","out","","","","","","","","","","","","","","","","","","","","","","",""
"","","","","","canvas-keyboard-response","266","289752","0.0-12.0-4.50","2d_cat_multi_stim_exp1","2022-4-5","12:31:12","25","75","3","9","10","40","30","120","12","19","[""White""]","No","Female","1818494","null","null","","","","clear_screen","","","","","","","","","","","","","","","","","","","","","","","","","",""
"","","","","","canvas-keyboard-response","267","290263","0.0-12.0-0.51","2d_cat_multi_stim_exp1","2022-4-5","12:31:12","25","75","3","9","10","40","30","120","12","19","[""White""]","No","Female","1818494","null","null","","","","fixation","","","","","","","","","","","","","","","","","","","","","","","","","",""
"","","","","","canvas-keyboard-response","268","290778","0.0-12.0-1.51","2d_cat_multi_stim_exp1","2022-4-5","12:31:12","25","75","3","9","10","40","30","120","12","19","[""White""]","No","Female","1818494","null","null","","","","clear_screen","","","","","","","","","","","","","","","","","","","","","","","","","",""
"","","","","","canvas-keyboard-response","269","291565","0.0-12.0-2.51","2d_cat_multi_stim_exp1","2022-4-5","12:31:12","25","75","3","9","10","40","30","120","12","19","[""White""]","No","Female","1818494","778","i","learn","","","learn_trial","33.3333","100","out","0","1","","","","","","","","","","","","","","","","","","","","",""
"","","","","","canvas-keyboard-response","270","292077","0.0-12.0-3.51","2d_cat_multi_stim_exp1","2022-4-5","12:31:12","25","75","3","9","10","40","30","120","12","19","[""White""]","No","Female","1818494","null","null","learn_feedback","","","learn_feedback","33.3333","100","out","","","","","","","","","","","","","","","","","","","","","","",""
"","","","","","canvas-keyboard-response","271","292141","0.0-12.0-4.51","2d_cat_multi_stim_exp1","2022-4-5","12:31:12","25","75","3","9","10","40","30","120","12","19","[""White""]","No","Female","1818494","null","null","","","","clear_screen","","","","","","","","","","","","","","","","","","","","","","","","","",""
"","","","","","canvas-keyboard-response","272","292652","0.0-12.0-0.52","2d_cat_multi_stim_exp1","2022-4-5","12:31:12","25","75","3","9","10","40","30","120","12","19","[""White""]","No","Female","1818494","null","null","","","","fixation","","","","","","","","","","","","","","","","","","","","","","","","","",""
"","","","","","canvas-keyboard-response","273","293163","0.0-12.0-1.52","2d_cat_multi_stim_exp1","2022-4-5","12:31:12","25","75","3","9","10","40","30","120","12","19","[""White""]","No","Female","1818494","null","null","","","","clear_screen","","","","","","","","","","","","","","","","","","","","","","","","","",""
"","","","","","canvas-keyboard-response","274","293797","0.0-12.0-2.52","2d_cat_multi_stim_exp1","2022-4-5","12:31:12","25","75","3","9","10","40","30","120","12","19","[""White""]","No","Female","1818494","624","i","learn","","","learn_trial","30","110","out","0","1","","","","","","","","","","","","","","","","","","","","",""
"","","","","","canvas-keyboard-response","275","294306","0.0-12.0-3.52","2d_cat_multi_stim_exp1","2022-4-5","12:31:12","25","75","3","9","10","40","30","120","12","19","[""White""]","No","Female","1818494","null","null","learn_feedback","","","learn_feedback","30","110","out","","","","","","","","","","","","","","","","","","","","","","",""
"","","","","","canvas-keyboard-response","276","294367","0.0-12.0-4.52","2d_cat_multi_stim_exp1","2022-4-5","12:31:12","25","75","3","9","10","40","30","120","12","19","[""White""]","No","Female","1818494","null","null","","","","clear_screen","","","","","","","","","","","","","","","","","","","","","","","","","",""
"","","","","","canvas-keyboard-response","277","294876","0.0-12.0-0.53","2d_cat_multi_stim_exp1","2022-4-5","12:31:12","25","75","3","9","10","40","30","120","12","19","[""White""]","No","Female","1818494","null","null","","","","fixation","","","","","","","","","","","","","","","","","","","","","","","","","",""
"","","","","","canvas-keyboard-response","278","295388","0.0-12.0-1.53","2d_cat_multi_stim_exp1","2022-4-5","12:31:12","25","75","3","9","10","40","30","120","12","19","[""White""]","No","Female","1818494","null","null","","","","clear_screen","","","","","","","","","","","","","","","","","","","","","","","","","",""
"","","","","","canvas-keyboard-response","279","296148","0.0-12.0-2.53","2d_cat_multi_stim_exp1","2022-4-5","12:31:12","25","75","3","9","10","40","30","120","12","19","[""White""]","No","Female","1818494","754","i","learn","","","learn_trial","36.6667","90","out","0","1","","","","","","","","","","","","","","","","","","","","",""
"","","","","","canvas-keyboard-response","280","296658","0.0-12.0-3.53","2d_cat_multi_stim_exp1","2022-4-5","12:31:12","25","75","3","9","10","40","30","120","12","19","[""White""]","No","Female","1818494","null","null","learn_feedback","","","learn_feedback","36.6667","90","out","","","","","","","","","","","","","","","","","","","","","","",""
"","","","","","canvas-keyboard-response","281","296722","0.0-12.0-4.53","2d_cat_multi_stim_exp1","2022-4-5","12:31:12","25","75","3","9","10","40","30","120","12","19","[""White""]","No","Female","1818494","null","null","","","","clear_screen","","","","","","","","","","","","","","","","","","","","","","","","","",""
"","","","","","canvas-keyboard-response","282","297233","0.0-12.0-0.54","2d_cat_multi_stim_exp1","2022-4-5","12:31:12","25","75","3","9","10","40","30","120","12","19","[""White""]","No","Female","1818494","null","null","","","","fixation","","","","","","","","","","","","","","","","","","","","","","","","","",""
"","","","","","canvas-keyboard-response","283","297743","0.0-12.0-1.54","2d_cat_multi_stim_exp1","2022-4-5","12:31:12","25","75","3","9","10","40","30","120","12","19","[""White""]","No","Female","1818494","null","null","","","","clear_screen","","","","","","","","","","","","","","","","","","","","","","","","","",""
"","","","","","canvas-keyboard-response","284","298541","0.0-12.0-2.54","2d_cat_multi_stim_exp1","2022-4-5","12:31:12","25","75","3","9","10","40","30","120","12","19","[""White""]","No","Female","1818494","787","u","learn","","","learn_trial","25","75","in","1","1","","","","","","","","","","","","","","","","","","","","",""
"","","","","","canvas-keyboard-response","285","299052","0.0-12.0-3.54","2d_cat_multi_stim_exp1","2022-4-5","12:31:12","25","75","3","9","10","40","30","120","12","19","[""White""]","No","Female","1818494","null","null","learn_feedback","","","learn_feedback","25","75","in","","","","","","","","","","","","","","","","","","","","","","",""
"","","","","","canvas-keyboard-response","286","299111","0.0-12.0-4.54","2d_cat_multi_stim_exp1","2022-4-5","12:31:12","25","75","3","9","10","40","30","120","12","19","[""White""]","No","Female","1818494","null","null","","","","clear_screen","","","","","","","","","","","","","","","","","","","","","","","","","",""
"","","","","","canvas-keyboard-response","287","299621","0.0-12.0-0.55","2d_cat_multi_stim_exp1","2022-4-5","12:31:12","25","75","3","9","10","40","30","120","12","19","[""White""]","No","Female","1818494","null","null","","","","fixation","","","","","","","","","","","","","","","","","","","","","","","","","",""
"","","","","","canvas-keyboard-response","288","300132","0.0-12.0-1.55","2d_cat_multi_stim_exp1","2022-4-5","12:31:12","25","75","3","9","10","40","30","120","12","19","[""White""]","No","Female","1818494","null","null","","","","clear_screen","","","","","","","","","","","","","","","","","","","","","","","","","",""
"","","","","","canvas-keyboard-response","289","300908","0.0-12.0-2.55","2d_cat_multi_stim_exp1","2022-4-5","12:31:12","25","75","3","9","10","40","30","120","12","19","[""White""]","No","Female","1818494","768","i","learn","","","learn_trial","40","90","out","0","1","","","","","","","","","","","","","","","","","","","","",""
"","","","","","canvas-keyboard-response","290","301418","0.0-12.0-3.55","2d_cat_multi_stim_exp1","2022-4-5","12:31:12","25","75","3","9","10","40","30","120","12","19","[""White""]","No","Female","1818494","null","null","learn_feedback","","","learn_feedback","40","90","out","","","","","","","","","","","","","","","","","","","","","","",""
"","","","","","canvas-keyboard-response","291","301482","0.0-12.0-4.55","2d_cat_multi_stim_exp1","2022-4-5","12:31:12","25","75","3","9","10","40","30","120","12","19","[""White""]","No","Female","1818494","null","null","","","","clear_screen","","","","","","","","","","","","","","","","","","","","","","","","","",""
"","","","","","canvas-keyboard-response","292","301991","0.0-12.0-0.56","2d_cat_multi_stim_exp1","2022-4-5","12:31:12","25","75","3","9","10","40","30","120","12","19","[""White""]","No","Female","1818494","null","null","","","","fixation","","","","","","","","","","","","","","","","","","","","","","","","","",""
"","","","","","canvas-keyboard-response","293","302503","0.0-12.0-1.56","2d_cat_multi_stim_exp1","2022-4-5","12:31:12","25","75","3","9","10","40","30","120","12","19","[""White""]","No","Female","1818494","null","null","","","","clear_screen","","","","","","","","","","","","","","","","","","","","","","","","","",""
"","","","","","canvas-keyboard-response","294","303164","0.0-12.0-2.56","2d_cat_multi_stim_exp1","2022-4-5","12:31:12","25","75","3","9","10","40","30","120","12","19","[""White""]","No","Female","1818494","653","i","learn","","","learn_trial","10","40","out","0","1","","","","","","","","","","","","","","","","","","","","",""
"","","","","","canvas-keyboard-response","295","303674","0.0-12.0-3.56","2d_cat_multi_stim_exp1","2022-4-5","12:31:12","25","75","3","9","10","40","30","120","12","19","[""White""]","No","Female","1818494","null","null","learn_feedback","","","learn_feedback","10","40","out","","","","","","","","","","","","","","","","","","","","","","",""
"","","","","","canvas-keyboard-response","296","303738","0.0-12.0-4.56","2d_cat_multi_stim_exp1","2022-4-5","12:31:12","25","75","3","9","10","40","30","120","12","19","[""White""]","No","Female","1818494","null","null","","","","clear_screen","","","","","","","","","","","","","","","","","","","","","","","","","",""
"","","","","","canvas-keyboard-response","297","304250","0.0-12.0-0.57","2d_cat_multi_stim_exp1","2022-4-5","12:31:12","25","75","3","9","10","40","30","120","12","19","[""White""]","No","Female","1818494","null","null","","","","fixation","","","","","","","","","","","","","","","","","","","","","","","","","",""
