"success","timeout","failed_images","failed_audio","failed_video","trial_type","trial_index","time_elapsed","internal_node_id","exp_name","date","time","angle_mean_in","radius_mean_in","angle_sd_in","radius_sd_in","angle_min_out","angle_max_out","radius_min_out","radius_max_out","sub_n","age","race","ethnicity","gender","exp_duration","rt","stimulus","response","exp_trial_type","view_history","screen_id","angle","radius","distribution","choice","correct","order","angle_a","radius_a","angle_b","radius_b","jkl_correct","transfer_trial_type","choice_set","abc_correct","tc_correct","tc_angle","tdc_a","tdc_b","tdc_c","pair","category_a","category_b","category_c","angle_c","radius_c","question_order"
"true","false","[]","[]","[]","preload","0","18","0.0-0.0","2d_cat_multi_stim_exp1","2022-4-4","12:18:51","25","75","3","9","10","40","30","120","9","21","[""Black or African-American""]","Yes","Male","2065105","","","","","","","","","","","","","","","","","","","","","","","","","","","","","","","",""
"","","","","","html-button-response","1","2116","0.0-1.0","2d_cat_multi_stim_exp1","2022-4-4","12:18:51","25","75","3","9","10","40","30","120","9","21","[""Black or African-American""]","Yes","Male","2065105","2095","<p><b>WAIT!</b></p></p><p>Did you mean to start this experiment? Only Walker, Esther, and Sean are running participants on this experiment.</p>","0","","","","","","","","","","","","","","","","","","","","","","","","","","","","",""
"","","","","","survey-html-form","2","4739","0.0-2.0","2d_cat_multi_stim_exp1","2022-4-4","12:18:51","25","75","3","9","10","40","30","120","9","21","[""Black or African-American""]","Yes","Male","2065105","2617","","{""response"":""9""}","enter-sub-number","","","","","","","","","","","","","","","","","","","","","","","","","","","",""
"true","","","","","fullscreen","3","17059","0.0-3.0","2d_cat_multi_stim_exp1","2022-4-4","12:18:51","25","75","3","9","10","40","30","120","9","21","[""Black or African-American""]","Yes","Male","2065105","","","","","","","","","","","","","","","","","","","","","","","","","","","","","","","",""
"","","","","","image-button-response","4","45794","0.0-4.0","2d_cat_multi_stim_exp1","2022-4-4","12:18:51","25","75","3","9","10","40","30","120","9","21","[""Black or African-American""]","Yes","Male","2065105","28726","consent.png","0","","","","","","","","","","","","","","","","","","","","","","","","","","","","",""
"","","","","","html-button-response","5","48434","0.0-5.0","2d_cat_multi_stim_exp1","2022-4-4","12:18:51","25","75","3","9","10","40","30","120","9","21","[""Black or African-American""]","Yes","Male","2065105","2634","<div style= ""font-size:25px;"" <p> <strong> Welcome to the experiment! </strong><br> <p style=""color:#8B0000; font-size:25px;""><strong> Please do NOT exit full screen until you are done with the experiment. </strong> </p><p style=""font-size:25px;color:#8B0000;""> <strong> The experiment will be canceled and your data will be lost <br> if you try to go back or refresh the page at any point during the experiment.</strong> </p><br><p> <strong> Thanks in advance for your contribution to our research! </strong></p>","0","","","","","","","","","","","","","","","","","","","","","","","","","","","","",""
"","","","","","instructions","6","115867","0.0-6.0","2d_cat_multi_stim_exp1","2022-4-4","12:18:51","25","75","3","9","10","40","30","120","9","21","[""Black or African-American""]","Yes","Male","2065105","67428","","","","[{""page_index"":0,""viewing_time"":9179},{""page_index"":1,""viewing_time"":2958},{""page_index"":2,""viewing_time"":26241},{""page_index"":3,""viewing_time"":29049}]","instructions_1","","","","","","","","","","","","","","","","","","","","","","","","","",""
"","","","","","instructions","7","117730","0.0-7.0","2d_cat_multi_stim_exp1","2022-4-4","12:18:51","25","75","3","9","10","40","30","120","9","21","[""Black or African-American""]","Yes","Male","2065105","1860","","","","[{""page_index"":0,""viewing_time"":1859}]","Click to see the kinds of turtles that will appear in the study.","","","","","","","","","","","","","","","","","","","","","","","","","",""
"","","","","","canvas-keyboard-response","8","132747","0.0-8.0","2d_cat_multi_stim_exp1","2022-4-4","12:18:51","25","75","3","9","10","40","30","120","9","21","[""Black or African-American""]","Yes","Male","2065105","null","","null","","","demo_range","","","","","","","","","","","","","","","","","","","","","","","","","",""
"","","","","","instructions","9","136851","0.0-9.0","2d_cat_multi_stim_exp1","2022-4-4","12:18:51","25","75","3","9","10","40","30","120","9","21","[""Black or African-American""]","Yes","Male","2065105","3599","","","","[{""page_index"":0,""viewing_time"":3599}]","Click to see some turtles in the subspecies.","","","","","","","","","","","","","","","","","","","","","","","","","",""
"","","","","","canvas-keyboard-response","10","151867","0.0-10.0","2d_cat_multi_stim_exp1","2022-4-4","12:18:51","25","75","3","9","10","40","30","120","9","21","[""Black or African-American""]","Yes","Male","2065105","null","","null","","","demo_in","","","","","","","","","","","","","","","","","","","","","","","","","",""
"","","","","","instructions","11","200737","0.0-11.0","2d_cat_multi_stim_exp1","2022-4-4","12:18:51","25","75","3","9","10","40","30","120","9","21","[""Black or African-American""]","Yes","Male","2065105","48368","","","","[{""page_index"":0,""viewing_time"":11273},{""page_index"":1,""viewing_time"":32711},{""page_index"":2,""viewing_time"":4384}]","instructions_2","","","","","","","","","","","","","","","","","","","","","","","","","",""
"","","","","","instructions","12","201985","0.0-12.0","2d_cat_multi_stim_exp1","2022-4-4","12:18:51","25","75","3","9","10","40","30","120","9","21","[""Black or African-American""]","Yes","Male","2065105","1247","","","","[{""page_index"":0,""viewing_time"":1247}]","Click to begin the first phase of the experiment.","","","","","","","","","","","","","","","","","","","","","","","","","",""
"","","","","","canvas-keyboard-response","13","202497","0.0-13.0-0.0","2d_cat_multi_stim_exp1","2022-4-4","12:18:51","25","75","3","9","10","40","30","120","9","21","[""Black or African-American""]","Yes","Male","2065105","null","","null","","","fixation","","","","","","","","","","","","","","","","","","","","","","","","","",""
"","","","","","canvas-keyboard-response","14","203010","0.0-13.0-1.0","2d_cat_multi_stim_exp1","2022-4-4","12:18:51","25","75","3","9","10","40","30","120","9","21","[""Black or African-American""]","Yes","Male","2065105","null","","null","","","clear_screen","","","","","","","","","","","","","","","","","","","","","","","","","",""
"","","","","","canvas-keyboard-response","15","209697","0.0-13.0-2.0","2d_cat_multi_stim_exp1","2022-4-4","12:18:51","25","75","3","9","10","40","30","120","9","21","[""Black or African-American""]","Yes","Male","2065105","6678","","u","learn","","learn_trial","36.6667","40","out","1","0","","","","","","","","","","","","","","","","","","","","",""
"","","","","","canvas-keyboard-response","16","210712","0.0-13.0-3.0","2d_cat_multi_stim_exp1","2022-4-4","12:18:51","25","75","3","9","10","40","30","120","9","21","[""Black or African-American""]","Yes","Male","2065105","null","","null","learn_feedback","","learn_feedback","36.6667","40","out","","","","","","","","","","","","","","","","","","","","","","",""
"","","","","","canvas-keyboard-response","17","210775","0.0-13.0-4.0","2d_cat_multi_stim_exp1","2022-4-4","12:18:51","25","75","3","9","10","40","30","120","9","21","[""Black or African-American""]","Yes","Male","2065105","null","","null","","","clear_screen","","","","","","","","","","","","","","","","","","","","","","","","","",""
"","","","","","canvas-keyboard-response","18","211285","0.0-13.0-0.1","2d_cat_multi_stim_exp1","2022-4-4","12:18:51","25","75","3","9","10","40","30","120","9","21","[""Black or African-American""]","Yes","Male","2065105","null","","null","","","fixation","","","","","","","","","","","","","","","","","","","","","","","","","",""
"","","","","","canvas-keyboard-response","19","211799","0.0-13.0-1.1","2d_cat_multi_stim_exp1","2022-4-4","12:18:51","25","75","3","9","10","40","30","120","9","21","[""Black or African-American""]","Yes","Male","2065105","null","","null","","","clear_screen","","","","","","","","","","","","","","","","","","","","","","","","","",""
"","","","","","canvas-keyboard-response","20","215673","0.0-13.0-2.1","2d_cat_multi_stim_exp1","2022-4-4","12:18:51","25","75","3","9","10","40","30","120","9","21","[""Black or African-American""]","Yes","Male","2065105","3864","","i","learn","","learn_trial","30","30","out","0","1","","","","","","","","","","","","","","","","","","","","",""
"","","","","","canvas-keyboard-response","21","216185","0.0-13.0-3.1","2d_cat_multi_stim_exp1","2022-4-4","12:18:51","25","75","3","9","10","40","30","120","9","21","[""Black or African-American""]","Yes","Male","2065105","null","","null","learn_feedback","","learn_feedback","30","30","out","","","","","","","","","","","","","","","","","","","","","","",""
"","","","","","canvas-keyboard-response","22","216244","0.0-13.0-4.1","2d_cat_multi_stim_exp1","2022-4-4","12:18:51","25","75","3","9","10","40","30","120","9","21","[""Black or African-American""]","Yes","Male","2065105","null","","null","","","clear_screen","","","","","","","","","","","","","","","","","","","","","","","","","",""
"","","","","","canvas-keyboard-response","23","216754","0.0-13.0-0.2","2d_cat_multi_stim_exp1","2022-4-4","12:18:51","25","75","3","9","10","40","30","120","9","21","[""Black or African-American""]","Yes","Male","2065105","null","","null","","","fixation","","","","","","","","","","","","","","","","","","","","","","","","","",""
"","","","","","canvas-keyboard-response","24","217267","0.0-13.0-1.2","2d_cat_multi_stim_exp1","2022-4-4","12:18:51","25","75","3","9","10","40","30","120","9","21","[""Black or African-American""]","Yes","Male","2065105","null","","null","","","clear_screen","","","","","","","","","","","","","","","","","","","","","","","","","",""
"","","","","","canvas-keyboard-response","25","218874","0.0-13.0-2.2","2d_cat_multi_stim_exp1","2022-4-4","12:18:51","25","75","3","9","10","40","30","120","9","21","[""Black or African-American""]","Yes","Male","2065105","1599","","i","learn","","learn_trial","16.6667","40","out","0","1","","","","","","","","","","","","","","","","","","","","",""
"","","","","","canvas-keyboard-response","26","219386","0.0-13.0-3.2","2d_cat_multi_stim_exp1","2022-4-4","12:18:51","25","75","3","9","10","40","30","120","9","21","[""Black or African-American""]","Yes","Male","2065105","null","","null","learn_feedback","","learn_feedback","16.6667","40","out","","","","","","","","","","","","","","","","","","","","","","",""
"","","","","","canvas-keyboard-response","27","219448","0.0-13.0-4.2","2d_cat_multi_stim_exp1","2022-4-4","12:18:51","25","75","3","9","10","40","30","120","9","21","[""Black or African-American""]","Yes","Male","2065105","null","","null","","","clear_screen","","","","","","","","","","","","","","","","","","","","","","","","","",""
"","","","","","canvas-keyboard-response","28","219957","0.0-13.0-0.3","2d_cat_multi_stim_exp1","2022-4-4","12:18:51","25","75","3","9","10","40","30","120","9","21","[""Black or African-American""]","Yes","Male","2065105","null","","null","","","fixation","","","","","","","","","","","","","","","","","","","","","","","","","",""
"","","","","","canvas-keyboard-response","29","220468","0.0-13.0-1.3","2d_cat_multi_stim_exp1","2022-4-4","12:18:51","25","75","3","9","10","40","30","120","9","21","[""Black or African-American""]","Yes","Male","2065105","null","","null","","","clear_screen","","","","","","","","","","","","","","","","","","","","","","","","","",""
"","","","","","canvas-keyboard-response","30","221458","0.0-13.0-2.3","2d_cat_multi_stim_exp1","2022-4-4","12:18:51","25","75","3","9","10","40","30","120","9","21","[""Black or African-American""]","Yes","Male","2065105","980","","u","learn","","learn_trial","20","120","out","1","0","","","","","","","","","","","","","","","","","","","","",""
"","","","","","canvas-keyboard-response","31","222469","0.0-13.0-3.3","2d_cat_multi_stim_exp1","2022-4-4","12:18:51","25","75","3","9","10","40","30","120","9","21","[""Black or African-American""]","Yes","Male","2065105","null","","null","learn_feedback","","learn_feedback","20","120","out","","","","","","","","","","","","","","","","","","","","","","",""
"","","","","","canvas-keyboard-response","32","222531","0.0-13.0-4.3","2d_cat_multi_stim_exp1","2022-4-4","12:18:51","25","75","3","9","10","40","30","120","9","21","[""Black or African-American""]","Yes","Male","2065105","null","","null","","","clear_screen","","","","","","","","","","","","","","","","","","","","","","","","","",""
"","","","","","canvas-keyboard-response","33","223040","0.0-13.0-0.4","2d_cat_multi_stim_exp1","2022-4-4","12:18:51","25","75","3","9","10","40","30","120","9","21","[""Black or African-American""]","Yes","Male","2065105","null","","null","","","fixation","","","","","","","","","","","","","","","","","","","","","","","","","",""
"","","","","","canvas-keyboard-response","34","223552","0.0-13.0-1.4","2d_cat_multi_stim_exp1","2022-4-4","12:18:51","25","75","3","9","10","40","30","120","9","21","[""Black or African-American""]","Yes","Male","2065105","null","","null","","","clear_screen","","","","","","","","","","","","","","","","","","","","","","","","","",""
"","","","","","canvas-keyboard-response","35","225891","0.0-13.0-2.4","2d_cat_multi_stim_exp1","2022-4-4","12:18:51","25","75","3","9","10","40","30","120","9","21","[""Black or African-American""]","Yes","Male","2065105","2330","","i","learn","","learn_trial","13.3333","50","out","0","1","","","","","","","","","","","","","","","","","","","","",""
"","","","","","canvas-keyboard-response","36","226399","0.0-13.0-3.4","2d_cat_multi_stim_exp1","2022-4-4","12:18:51","25","75","3","9","10","40","30","120","9","21","[""Black or African-American""]","Yes","Male","2065105","null","","null","learn_feedback","","learn_feedback","13.3333","50","out","","","","","","","","","","","","","","","","","","","","","","",""
"","","","","","canvas-keyboard-response","37","226459","0.0-13.0-4.4","2d_cat_multi_stim_exp1","2022-4-4","12:18:51","25","75","3","9","10","40","30","120","9","21","[""Black or African-American""]","Yes","Male","2065105","null","","null","","","clear_screen","","","","","","","","","","","","","","","","","","","","","","","","","",""
"","","","","","canvas-keyboard-response","38","226969","0.0-13.0-0.5","2d_cat_multi_stim_exp1","2022-4-4","12:18:51","25","75","3","9","10","40","30","120","9","21","[""Black or African-American""]","Yes","Male","2065105","null","","null","","","fixation","","","","","","","","","","","","","","","","","","","","","","","","","",""
"","","","","","canvas-keyboard-response","39","227479","0.0-13.0-1.5","2d_cat_multi_stim_exp1","2022-4-4","12:18:51","25","75","3","9","10","40","30","120","9","21","[""Black or African-American""]","Yes","Male","2065105","null","","null","","","clear_screen","","","","","","","","","","","","","","","","","","","","","","","","","",""
"","","","","","canvas-keyboard-response","40","228321","0.0-13.0-2.5","2d_cat_multi_stim_exp1","2022-4-4","12:18:51","25","75","3","9","10","40","30","120","9","21","[""Black or African-American""]","Yes","Male","2065105","832","","i","learn","","learn_trial","25.9271","66.4405","in","0","0","","","","","","","","","","","","","","","","","","","","",""
"","","","","","canvas-keyboard-response","41","229330","0.0-13.0-3.5","2d_cat_multi_stim_exp1","2022-4-4","12:18:51","25","75","3","9","10","40","30","120","9","21","[""Black or African-American""]","Yes","Male","2065105","null","","null","learn_feedback","","learn_feedback","25.9271","66.4405","in","","","","","","","","","","","","","","","","","","","","","","",""
"","","","","","canvas-keyboard-response","42","229391","0.0-13.0-4.5","2d_cat_multi_stim_exp1","2022-4-4","12:18:51","25","75","3","9","10","40","30","120","9","21","[""Black or African-American""]","Yes","Male","2065105","null","","null","","","clear_screen","","","","","","","","","","","","","","","","","","","","","","","","","",""
"","","","","","canvas-keyboard-response","43","229899","0.0-13.0-0.6","2d_cat_multi_stim_exp1","2022-4-4","12:18:51","25","75","3","9","10","40","30","120","9","21","[""Black or African-American""]","Yes","Male","2065105","null","","null","","","fixation","","","","","","","","","","","","","","","","","","","","","","","","","",""
"","","","","","canvas-keyboard-response","44","230411","0.0-13.0-1.6","2d_cat_multi_stim_exp1","2022-4-4","12:18:51","25","75","3","9","10","40","30","120","9","21","[""Black or African-American""]","Yes","Male","2065105","null","","null","","","clear_screen","","","","","","","","","","","","","","","","","","","","","","","","","",""
"","","","","","canvas-keyboard-response","45","231002","0.0-13.0-2.6","2d_cat_multi_stim_exp1","2022-4-4","12:18:51","25","75","3","9","10","40","30","120","9","21","[""Black or African-American""]","Yes","Male","2065105","583","","u","learn","","learn_trial","27.5753","70.3839","in","1","1","","","","","","","","","","","","","","","","","","","","",""
"","","","","","canvas-keyboard-response","46","231511","0.0-13.0-3.6","2d_cat_multi_stim_exp1","2022-4-4","12:18:51","25","75","3","9","10","40","30","120","9","21","[""Black or African-American""]","Yes","Male","2065105","null","","null","learn_feedback","","learn_feedback","27.5753","70.3839","in","","","","","","","","","","","","","","","","","","","","","","",""
"","","","","","canvas-keyboard-response","47","231572","0.0-13.0-4.6","2d_cat_multi_stim_exp1","2022-4-4","12:18:51","25","75","3","9","10","40","30","120","9","21","[""Black or African-American""]","Yes","Male","2065105","null","","null","","","clear_screen","","","","","","","","","","","","","","","","","","","","","","","","","",""
"","","","","","canvas-keyboard-response","48","232081","0.0-13.0-0.7","2d_cat_multi_stim_exp1","2022-4-4","12:18:51","25","75","3","9","10","40","30","120","9","21","[""Black or African-American""]","Yes","Male","2065105","null","","null","","","fixation","","","","","","","","","","","","","","","","","","","","","","","","","",""
"","","","","","canvas-keyboard-response","49","232591","0.0-13.0-1.7","2d_cat_multi_stim_exp1","2022-4-4","12:18:51","25","75","3","9","10","40","30","120","9","21","[""Black or African-American""]","Yes","Male","2065105","null","","null","","","clear_screen","","","","","","","","","","","","","","","","","","","","","","","","","",""
"","","","","","canvas-keyboard-response","50","233578","0.0-13.0-2.7","2d_cat_multi_stim_exp1","2022-4-4","12:18:51","25","75","3","9","10","40","30","120","9","21","[""Black or African-American""]","Yes","Male","2065105","976","","i","learn","","learn_trial","36.6667","50","out","0","1","","","","","","","","","","","","","","","","","","","","",""
"","","","","","canvas-keyboard-response","51","234086","0.0-13.0-3.7","2d_cat_multi_stim_exp1","2022-4-4","12:18:51","25","75","3","9","10","40","30","120","9","21","[""Black or African-American""]","Yes","Male","2065105","null","","null","learn_feedback","","learn_feedback","36.6667","50","out","","","","","","","","","","","","","","","","","","","","","","",""
"","","","","","canvas-keyboard-response","52","234150","0.0-13.0-4.7","2d_cat_multi_stim_exp1","2022-4-4","12:18:51","25","75","3","9","10","40","30","120","9","21","[""Black or African-American""]","Yes","Male","2065105","null","","null","","","clear_screen","","","","","","","","","","","","","","","","","","","","","","","","","",""
"","","","","","canvas-keyboard-response","53","234659","0.0-13.0-0.8","2d_cat_multi_stim_exp1","2022-4-4","12:18:51","25","75","3","9","10","40","30","120","9","21","[""Black or African-American""]","Yes","Male","2065105","null","","null","","","fixation","","","","","","","","","","","","","","","","","","","","","","","","","",""
"","","","","","canvas-keyboard-response","54","235174","0.0-13.0-1.8","2d_cat_multi_stim_exp1","2022-4-4","12:18:51","25","75","3","9","10","40","30","120","9","21","[""Black or African-American""]","Yes","Male","2065105","null","","null","","","clear_screen","","","","","","","","","","","","","","","","","","","","","","","","","",""
"","","","","","canvas-keyboard-response","55","236930","0.0-13.0-2.8","2d_cat_multi_stim_exp1","2022-4-4","12:18:51","25","75","3","9","10","40","30","120","9","21","[""Black or African-American""]","Yes","Male","2065105","1749","","i","learn","","learn_trial","26.6667","50","out","0","1","","","","","","","","","","","","","","","","","","","","",""
"","","","","","canvas-keyboard-response","56","237441","0.0-13.0-3.8","2d_cat_multi_stim_exp1","2022-4-4","12:18:51","25","75","3","9","10","40","30","120","9","21","[""Black or African-American""]","Yes","Male","2065105","null","","null","learn_feedback","","learn_feedback","26.6667","50","out","","","","","","","","","","","","","","","","","","","","","","",""
"","","","","","canvas-keyboard-response","57","237501","0.0-13.0-4.8","2d_cat_multi_stim_exp1","2022-4-4","12:18:51","25","75","3","9","10","40","30","120","9","21","[""Black or African-American""]","Yes","Male","2065105","null","","null","","","clear_screen","","","","","","","","","","","","","","","","","","","","","","","","","",""
"","","","","","canvas-keyboard-response","58","238011","0.0-13.0-0.9","2d_cat_multi_stim_exp1","2022-4-4","12:18:51","25","75","3","9","10","40","30","120","9","21","[""Black or African-American""]","Yes","Male","2065105","null","","null","","","fixation","","","","","","","","","","","","","","","","","","","","","","","","","",""
"","","","","","canvas-keyboard-response","59","238522","0.0-13.0-1.9","2d_cat_multi_stim_exp1","2022-4-4","12:18:51","25","75","3","9","10","40","30","120","9","21","[""Black or African-American""]","Yes","Male","2065105","null","","null","","","clear_screen","","","","","","","","","","","","","","","","","","","","","","","","","",""
"","","","","","canvas-keyboard-response","60","239513","0.0-13.0-2.9","2d_cat_multi_stim_exp1","2022-4-4","12:18:51","25","75","3","9","10","40","30","120","9","21","[""Black or African-American""]","Yes","Male","2065105","981","","i","learn","","learn_trial","22.5729","69.7099","in","0","0","","","","","","","","","","","","","","","","","","","","",""
"","","","","","canvas-keyboard-response","61","240522","0.0-13.0-3.9","2d_cat_multi_stim_exp1","2022-4-4","12:18:51","25","75","3","9","10","40","30","120","9","21","[""Black or African-American""]","Yes","Male","2065105","null","","null","learn_feedback","","learn_feedback","22.5729","69.7099","in","","","","","","","","","","","","","","","","","","","","","","",""
"","","","","","canvas-keyboard-response","62","240579","0.0-13.0-4.9","2d_cat_multi_stim_exp1","2022-4-4","12:18:51","25","75","3","9","10","40","30","120","9","21","[""Black or African-American""]","Yes","Male","2065105","null","","null","","","clear_screen","","","","","","","","","","","","","","","","","","","","","","","","","",""
"","","","","","canvas-keyboard-response","63","241087","0.0-13.0-0.10","2d_cat_multi_stim_exp1","2022-4-4","12:18:51","25","75","3","9","10","40","30","120","9","21","[""Black or African-American""]","Yes","Male","2065105","null","","null","","","fixation","","","","","","","","","","","","","","","","","","","","","","","","","",""
"","","","","","canvas-keyboard-response","64","241599","0.0-13.0-1.10","2d_cat_multi_stim_exp1","2022-4-4","12:18:51","25","75","3","9","10","40","30","120","9","21","[""Black or African-American""]","Yes","Male","2065105","null","","null","","","clear_screen","","","","","","","","","","","","","","","","","","","","","","","","","",""
"","","","","","canvas-keyboard-response","65","242419","0.0-13.0-2.10","2d_cat_multi_stim_exp1","2022-4-4","12:18:51","25","75","3","9","10","40","30","120","9","21","[""Black or African-American""]","Yes","Male","2065105","809","","u","learn","","learn_trial","10","60","out","1","0","","","","","","","","","","","","","","","","","","","","",""
"","","","","","canvas-keyboard-response","66","243428","0.0-13.0-3.10","2d_cat_multi_stim_exp1","2022-4-4","12:18:51","25","75","3","9","10","40","30","120","9","21","[""Black or African-American""]","Yes","Male","2065105","null","","null","learn_feedback","","learn_feedback","10","60","out","","","","","","","","","","","","","","","","","","","","","","",""
"","","","","","canvas-keyboard-response","67","243489","0.0-13.0-4.10","2d_cat_multi_stim_exp1","2022-4-4","12:18:51","25","75","3","9","10","40","30","120","9","21","[""Black or African-American""]","Yes","Male","2065105","null","","null","","","clear_screen","","","","","","","","","","","","","","","","","","","","","","","","","",""
"","","","","","canvas-keyboard-response","68","243998","0.0-13.0-0.11","2d_cat_multi_stim_exp1","2022-4-4","12:18:51","25","75","3","9","10","40","30","120","9","21","[""Black or African-American""]","Yes","Male","2065105","null","","null","","","fixation","","","","","","","","","","","","","","","","","","","","","","","","","",""
"","","","","","canvas-keyboard-response","69","244508","0.0-13.0-1.11","2d_cat_multi_stim_exp1","2022-4-4","12:18:51","25","75","3","9","10","40","30","120","9","21","[""Black or African-American""]","Yes","Male","2065105","null","","null","","","clear_screen","","","","","","","","","","","","","","","","","","","","","","","","","",""
"","","","","","canvas-keyboard-response","70","246497","0.0-13.0-2.11","2d_cat_multi_stim_exp1","2022-4-4","12:18:51","25","75","3","9","10","40","30","120","9","21","[""Black or African-American""]","Yes","Male","2065105","1976","","i","learn","","learn_trial","25","75","in","0","0","","","","","","","","","","","","","","","","","","","","",""
"","","","","","canvas-keyboard-response","71","247507","0.0-13.0-3.11","2d_cat_multi_stim_exp1","2022-4-4","12:18:51","25","75","3","9","10","40","30","120","9","21","[""Black or African-American""]","Yes","Male","2065105","null","","null","learn_feedback","","learn_feedback","25","75","in","","","","","","","","","","","","","","","","","","","","","","",""
"","","","","","canvas-keyboard-response","72","247565","0.0-13.0-4.11","2d_cat_multi_stim_exp1","2022-4-4","12:18:51","25","75","3","9","10","40","30","120","9","21","[""Black or African-American""]","Yes","Male","2065105","null","","null","","","clear_screen","","","","","","","","","","","","","","","","","","","","","","","","","",""
"","","","","","canvas-keyboard-response","73","248077","0.0-13.0-0.12","2d_cat_multi_stim_exp1","2022-4-4","12:18:51","25","75","3","9","10","40","30","120","9","21","[""Black or African-American""]","Yes","Male","2065105","null","","null","","","fixation","","","","","","","","","","","","","","","","","","","","","","","","","",""
"","","","","","canvas-keyboard-response","74","248589","0.0-13.0-1.12","2d_cat_multi_stim_exp1","2022-4-4","12:18:51","25","75","3","9","10","40","30","120","9","21","[""Black or African-American""]","Yes","Male","2065105","null","","null","","","clear_screen","","","","","","","","","","","","","","","","","","","","","","","","","",""
"","","","","","canvas-keyboard-response","75","249489","0.0-13.0-2.12","2d_cat_multi_stim_exp1","2022-4-4","12:18:51","25","75","3","9","10","40","30","120","9","21","[""Black or African-American""]","Yes","Male","2065105","891","","u","learn","","learn_trial","23.3333","50","out","1","0","","","","","","","","","","","","","","","","","","","","",""
"","","","","","canvas-keyboard-response","76","250499","0.0-13.0-3.12","2d_cat_multi_stim_exp1","2022-4-4","12:18:51","25","75","3","9","10","40","30","120","9","21","[""Black or African-American""]","Yes","Male","2065105","null","","null","learn_feedback","","learn_feedback","23.3333","50","out","","","","","","","","","","","","","","","","","","","","","","",""
"","","","","","canvas-keyboard-response","77","250562","0.0-13.0-4.12","2d_cat_multi_stim_exp1","2022-4-4","12:18:51","25","75","3","9","10","40","30","120","9","21","[""Black or African-American""]","Yes","Male","2065105","null","","null","","","clear_screen","","","","","","","","","","","","","","","","","","","","","","","","","",""
"","","","","","canvas-keyboard-response","78","251071","0.0-13.0-0.13","2d_cat_multi_stim_exp1","2022-4-4","12:18:51","25","75","3","9","10","40","30","120","9","21","[""Black or African-American""]","Yes","Male","2065105","null","","null","","","fixation","","","","","","","","","","","","","","","","","","","","","","","","","",""
"","","","","","canvas-keyboard-response","79","251581","0.0-13.0-1.13","2d_cat_multi_stim_exp1","2022-4-4","12:18:51","25","75","3","9","10","40","30","120","9","21","[""Black or African-American""]","Yes","Male","2065105","null","","null","","","clear_screen","","","","","","","","","","","","","","","","","","","","","","","","","",""
"","","","","","canvas-keyboard-response","80","254370","0.0-13.0-2.13","2d_cat_multi_stim_exp1","2022-4-4","12:18:51","25","75","3","9","10","40","30","120","9","21","[""Black or African-American""]","Yes","Male","2065105","2779","","u","learn","","learn_trial","40","110","out","1","0","","","","","","","","","","","","","","","","","","","","",""
"","","","","","canvas-keyboard-response","81","255382","0.0-13.0-3.13","2d_cat_multi_stim_exp1","2022-4-4","12:18:51","25","75","3","9","10","40","30","120","9","21","[""Black or African-American""]","Yes","Male","2065105","null","","null","learn_feedback","","learn_feedback","40","110","out","","","","","","","","","","","","","","","","","","","","","","",""
"","","","","","canvas-keyboard-response","82","255442","0.0-13.0-4.13","2d_cat_multi_stim_exp1","2022-4-4","12:18:51","25","75","3","9","10","40","30","120","9","21","[""Black or African-American""]","Yes","Male","2065105","null","","null","","","clear_screen","","","","","","","","","","","","","","","","","","","","","","","","","",""
"","","","","","canvas-keyboard-response","83","255950","0.0-13.0-0.14","2d_cat_multi_stim_exp1","2022-4-4","12:18:51","25","75","3","9","10","40","30","120","9","21","[""Black or African-American""]","Yes","Male","2065105","null","","null","","","fixation","","","","","","","","","","","","","","","","","","","","","","","","","",""
"","","","","","canvas-keyboard-response","84","256463","0.0-13.0-1.14","2d_cat_multi_stim_exp1","2022-4-4","12:18:51","25","75","3","9","10","40","30","120","9","21","[""Black or African-American""]","Yes","Male","2065105","null","","null","","","clear_screen","","","","","","","","","","","","","","","","","","","","","","","","","",""
"","","","","","canvas-keyboard-response","85","258065","0.0-13.0-2.14","2d_cat_multi_stim_exp1","2022-4-4","12:18:51","25","75","3","9","10","40","30","120","9","21","[""Black or African-American""]","Yes","Male","2065105","1597","","u","learn","","learn_trial","25","75","in","1","1","","","","","","","","","","","","","","","","","","","","",""
"","","","","","canvas-keyboard-response","86","258574","0.0-13.0-3.14","2d_cat_multi_stim_exp1","2022-4-4","12:18:51","25","75","3","9","10","40","30","120","9","21","[""Black or African-American""]","Yes","Male","2065105","null","","null","learn_feedback","","learn_feedback","25","75","in","","","","","","","","","","","","","","","","","","","","","","",""
"","","","","","canvas-keyboard-response","87","258637","0.0-13.0-4.14","2d_cat_multi_stim_exp1","2022-4-4","12:18:51","25","75","3","9","10","40","30","120","9","21","[""Black or African-American""]","Yes","Male","2065105","null","","null","","","clear_screen","","","","","","","","","","","","","","","","","","","","","","","","","",""
"","","","","","canvas-keyboard-response","88","259146","0.0-13.0-0.15","2d_cat_multi_stim_exp1","2022-4-4","12:18:51","25","75","3","9","10","40","30","120","9","21","[""Black or African-American""]","Yes","Male","2065105","null","","null","","","fixation","","","","","","","","","","","","","","","","","","","","","","","","","",""
"","","","","","canvas-keyboard-response","89","259656","0.0-13.0-1.15","2d_cat_multi_stim_exp1","2022-4-4","12:18:51","25","75","3","9","10","40","30","120","9","21","[""Black or African-American""]","Yes","Male","2065105","null","","null","","","clear_screen","","","","","","","","","","","","","","","","","","","","","","","","","",""
"","","","","","canvas-keyboard-response","90","260561","0.0-13.0-2.15","2d_cat_multi_stim_exp1","2022-4-4","12:18:51","25","75","3","9","10","40","30","120","9","21","[""Black or African-American""]","Yes","Male","2065105","893","","u","learn","","learn_trial","26.8705","67.9635","in","1","1","","","","","","","","","","","","","","","","","","","","",""
"","","","","","canvas-keyboard-response","91","261073","0.0-13.0-3.15","2d_cat_multi_stim_exp1","2022-4-4","12:18:51","25","75","3","9","10","40","30","120","9","21","[""Black or African-American""]","Yes","Male","2065105","null","","null","learn_feedback","","learn_feedback","26.8705","67.9635","in","","","","","","","","","","","","","","","","","","","","","","",""
"","","","","","canvas-keyboard-response","92","261134","0.0-13.0-4.15","2d_cat_multi_stim_exp1","2022-4-4","12:18:51","25","75","3","9","10","40","30","120","9","21","[""Black or African-American""]","Yes","Male","2065105","null","","null","","","clear_screen","","","","","","","","","","","","","","","","","","","","","","","","","",""
"","","","","","canvas-keyboard-response","93","261645","0.0-13.0-0.16","2d_cat_multi_stim_exp1","2022-4-4","12:18:51","25","75","3","9","10","40","30","120","9","21","[""Black or African-American""]","Yes","Male","2065105","null","","null","","","fixation","","","","","","","","","","","","","","","","","","","","","","","","","",""
"","","","","","canvas-keyboard-response","94","262155","0.0-13.0-1.16","2d_cat_multi_stim_exp1","2022-4-4","12:18:51","25","75","3","9","10","40","30","120","9","21","[""Black or African-American""]","Yes","Male","2065105","null","","null","","","clear_screen","","","","","","","","","","","","","","","","","","","","","","","","","",""
"","","","","","canvas-keyboard-response","95","262945","0.0-13.0-2.16","2d_cat_multi_stim_exp1","2022-4-4","12:18:51","25","75","3","9","10","40","30","120","9","21","[""Black or African-American""]","Yes","Male","2065105","780","","u","learn","","learn_trial","25","75","in","1","1","","","","","","","","","","","","","","","","","","","","",""
"","","","","","canvas-keyboard-response","96","263458","0.0-13.0-3.16","2d_cat_multi_stim_exp1","2022-4-4","12:18:51","25","75","3","9","10","40","30","120","9","21","[""Black or African-American""]","Yes","Male","2065105","null","","null","learn_feedback","","learn_feedback","25","75","in","","","","","","","","","","","","","","","","","","","","","","",""
"","","","","","canvas-keyboard-response","97","263521","0.0-13.0-4.16","2d_cat_multi_stim_exp1","2022-4-4","12:18:51","25","75","3","9","10","40","30","120","9","21","[""Black or African-American""]","Yes","Male","2065105","null","","null","","","clear_screen","","","","","","","","","","","","","","","","","","","","","","","","","",""
"","","","","","canvas-keyboard-response","98","264030","0.0-13.0-0.17","2d_cat_multi_stim_exp1","2022-4-4","12:18:51","25","75","3","9","10","40","30","120","9","21","[""Black or African-American""]","Yes","Male","2065105","null","","null","","","fixation","","","","","","","","","","","","","","","","","","","","","","","","","",""
"","","","","","canvas-keyboard-response","99","264540","0.0-13.0-1.17","2d_cat_multi_stim_exp1","2022-4-4","12:18:51","25","75","3","9","10","40","30","120","9","21","[""Black or African-American""]","Yes","Male","2065105","null","","null","","","clear_screen","","","","","","","","","","","","","","","","","","","","","","","","","",""
"","","","","","canvas-keyboard-response","100","265265","0.0-13.0-2.17","2d_cat_multi_stim_exp1","2022-4-4","12:18:51","25","75","3","9","10","40","30","120","9","21","[""Black or African-American""]","Yes","Male","2065105","715","","u","learn","","learn_trial","25","75","in","1","1","","","","","","","","","","","","","","","","","","","","",""
"","","","","","canvas-keyboard-response","101","265775","0.0-13.0-3.17","2d_cat_multi_stim_exp1","2022-4-4","12:18:51","25","75","3","9","10","40","30","120","9","21","[""Black or African-American""]","Yes","Male","2065105","null","","null","learn_feedback","","learn_feedback","25","75","in","","","","","","","","","","","","","","","","","","","","","","",""
"","","","","","canvas-keyboard-response","102","265833","0.0-13.0-4.17","2d_cat_multi_stim_exp1","2022-4-4","12:18:51","25","75","3","9","10","40","30","120","9","21","[""Black or African-American""]","Yes","Male","2065105","null","","null","","","clear_screen","","","","","","","","","","","","","","","","","","","","","","","","","",""
"","","","","","canvas-keyboard-response","103","266344","0.0-13.0-0.18","2d_cat_multi_stim_exp1","2022-4-4","12:18:51","25","75","3","9","10","40","30","120","9","21","[""Black or African-American""]","Yes","Male","2065105","null","","null","","","fixation","","","","","","","","","","","","","","","","","","","","","","","","","",""
"","","","","","canvas-keyboard-response","104","266858","0.0-13.0-1.18","2d_cat_multi_stim_exp1","2022-4-4","12:18:51","25","75","3","9","10","40","30","120","9","21","[""Black or African-American""]","Yes","Male","2065105","null","","null","","","clear_screen","","","","","","","","","","","","","","","","","","","","","","","","","",""
"","","","","","canvas-keyboard-response","105","267793","0.0-13.0-2.18","2d_cat_multi_stim_exp1","2022-4-4","12:18:51","25","75","3","9","10","40","30","120","9","21","[""Black or African-American""]","Yes","Male","2065105","926","","i","learn","","learn_trial","36.6667","110","out","0","1","","","","","","","","","","","","","","","","","","","","",""
"","","","","","canvas-keyboard-response","106","268304","0.0-13.0-3.18","2d_cat_multi_stim_exp1","2022-4-4","12:18:51","25","75","3","9","10","40","30","120","9","21","[""Black or African-American""]","Yes","Male","2065105","null","","null","learn_feedback","","learn_feedback","36.6667","110","out","","","","","","","","","","","","","","","","","","","","","","",""
"","","","","","canvas-keyboard-response","107","268362","0.0-13.0-4.18","2d_cat_multi_stim_exp1","2022-4-4","12:18:51","25","75","3","9","10","40","30","120","9","21","[""Black or African-American""]","Yes","Male","2065105","null","","null","","","clear_screen","","","","","","","","","","","","","","","","","","","","","","","","","",""
"","","","","","canvas-keyboard-response","108","268873","0.0-13.0-0.19","2d_cat_multi_stim_exp1","2022-4-4","12:18:51","25","75","3","9","10","40","30","120","9","21","[""Black or African-American""]","Yes","Male","2065105","null","","null","","","fixation","","","","","","","","","","","","","","","","","","","","","","","","","",""
"","","","","","canvas-keyboard-response","109","269383","0.0-13.0-1.19","2d_cat_multi_stim_exp1","2022-4-4","12:18:51","25","75","3","9","10","40","30","120","9","21","[""Black or African-American""]","Yes","Male","2065105","null","","null","","","clear_screen","","","","","","","","","","","","","","","","","","","","","","","","","",""
"","","","","","canvas-keyboard-response","110","270945","0.0-13.0-2.19","2d_cat_multi_stim_exp1","2022-4-4","12:18:51","25","75","3","9","10","40","30","120","9","21","[""Black or African-American""]","Yes","Male","2065105","1554","","i","learn","","learn_trial","26.4216","67.0746","in","0","0","","","","","","","","","","","","","","","","","","","","",""
"","","","","","canvas-keyboard-response","111","271954","0.0-13.0-3.19","2d_cat_multi_stim_exp1","2022-4-4","12:18:51","25","75","3","9","10","40","30","120","9","21","[""Black or African-American""]","Yes","Male","2065105","null","","null","learn_feedback","","learn_feedback","26.4216","67.0746","in","","","","","","","","","","","","","","","","","","","","","","",""
"","","","","","canvas-keyboard-response","112","272015","0.0-13.0-4.19","2d_cat_multi_stim_exp1","2022-4-4","12:18:51","25","75","3","9","10","40","30","120","9","21","[""Black or African-American""]","Yes","Male","2065105","null","","null","","","clear_screen","","","","","","","","","","","","","","","","","","","","","","","","","",""
"","","","","","canvas-keyboard-response","113","272524","0.0-13.0-0.20","2d_cat_multi_stim_exp1","2022-4-4","12:18:51","25","75","3","9","10","40","30","120","9","21","[""Black or African-American""]","Yes","Male","2065105","null","","null","","","fixation","","","","","","","","","","","","","","","","","","","","","","","","","",""
"","","","","","canvas-keyboard-response","114","273038","0.0-13.0-1.20","2d_cat_multi_stim_exp1","2022-4-4","12:18:51","25","75","3","9","10","40","30","120","9","21","[""Black or African-American""]","Yes","Male","2065105","null","","null","","","clear_screen","","","","","","","","","","","","","","","","","","","","","","","","","",""
"","","","","","canvas-keyboard-response","115","273857","0.0-13.0-2.20","2d_cat_multi_stim_exp1","2022-4-4","12:18:51","25","75","3","9","10","40","30","120","9","21","[""Black or African-American""]","Yes","Male","2065105","810","","u","learn","","learn_trial","25","75","in","1","1","","","","","","","","","","","","","","","","","","","","",""
"","","","","","canvas-keyboard-response","116","274367","0.0-13.0-3.20","2d_cat_multi_stim_exp1","2022-4-4","12:18:51","25","75","3","9","10","40","30","120","9","21","[""Black or African-American""]","Yes","Male","2065105","null","","null","learn_feedback","","learn_feedback","25","75","in","","","","","","","","","","","","","","","","","","","","","","",""
"","","","","","canvas-keyboard-response","117","274427","0.0-13.0-4.20","2d_cat_multi_stim_exp1","2022-4-4","12:18:51","25","75","3","9","10","40","30","120","9","21","[""Black or African-American""]","Yes","Male","2065105","null","","null","","","clear_screen","","","","","","","","","","","","","","","","","","","","","","","","","",""
"","","","","","canvas-keyboard-response","118","274940","0.0-13.0-0.21","2d_cat_multi_stim_exp1","2022-4-4","12:18:51","25","75","3","9","10","40","30","120","9","21","[""Black or African-American""]","Yes","Male","2065105","null","","null","","","fixation","","","","","","","","","","","","","","","","","","","","","","","","","",""
"","","","","","canvas-keyboard-response","119","275451","0.0-13.0-1.21","2d_cat_multi_stim_exp1","2022-4-4","12:18:51","25","75","3","9","10","40","30","120","9","21","[""Black or African-American""]","Yes","Male","2065105","null","","null","","","clear_screen","","","","","","","","","","","","","","","","","","","","","","","","","",""
"","","","","","canvas-keyboard-response","120","276681","0.0-13.0-2.21","2d_cat_multi_stim_exp1","2022-4-4","12:18:51","25","75","3","9","10","40","30","120","9","21","[""Black or African-American""]","Yes","Male","2065105","1223","","i","learn","","learn_trial","23.3333","110","out","0","1","","","","","","","","","","","","","","","","","","","","",""
"","","","","","canvas-keyboard-response","121","277193","0.0-13.0-3.21","2d_cat_multi_stim_exp1","2022-4-4","12:18:51","25","75","3","9","10","40","30","120","9","21","[""Black or African-American""]","Yes","Male","2065105","null","","null","learn_feedback","","learn_feedback","23.3333","110","out","","","","","","","","","","","","","","","","","","","","","","",""
"","","","","","canvas-keyboard-response","122","277255","0.0-13.0-4.21","2d_cat_multi_stim_exp1","2022-4-4","12:18:51","25","75","3","9","10","40","30","120","9","21","[""Black or African-American""]","Yes","Male","2065105","null","","null","","","clear_screen","","","","","","","","","","","","","","","","","","","","","","","","","",""
"","","","","","canvas-keyboard-response","123","277765","0.0-13.0-0.22","2d_cat_multi_stim_exp1","2022-4-4","12:18:51","25","75","3","9","10","40","30","120","9","21","[""Black or African-American""]","Yes","Male","2065105","null","","null","","","fixation","","","","","","","","","","","","","","","","","","","","","","","","","",""
"","","","","","canvas-keyboard-response","124","278276","0.0-13.0-1.22","2d_cat_multi_stim_exp1","2022-4-4","12:18:51","25","75","3","9","10","40","30","120","9","21","[""Black or African-American""]","Yes","Male","2065105","null","","null","","","clear_screen","","","","","","","","","","","","","","","","","","","","","","","","","",""
"","","","","","canvas-keyboard-response","125","279978","0.0-13.0-2.22","2d_cat_multi_stim_exp1","2022-4-4","12:18:51","25","75","3","9","10","40","30","120","9","21","[""Black or African-American""]","Yes","Male","2065105","1692","","u","learn","","learn_trial","25","75","in","1","1","","","","","","","","","","","","","","","","","","","","",""
"","","","","","canvas-keyboard-response","126","280489","0.0-13.0-3.22","2d_cat_multi_stim_exp1","2022-4-4","12:18:51","25","75","3","9","10","40","30","120","9","21","[""Black or African-American""]","Yes","Male","2065105","null","","null","learn_feedback","","learn_feedback","25","75","in","","","","","","","","","","","","","","","","","","","","","","",""
"","","","","","canvas-keyboard-response","127","280551","0.0-13.0-4.22","2d_cat_multi_stim_exp1","2022-4-4","12:18:51","25","75","3","9","10","40","30","120","9","21","[""Black or African-American""]","Yes","Male","2065105","null","","null","","","clear_screen","","","","","","","","","","","","","","","","","","","","","","","","","",""
"","","","","","canvas-keyboard-response","128","281061","0.0-13.0-0.23","2d_cat_multi_stim_exp1","2022-4-4","12:18:51","25","75","3","9","10","40","30","120","9","21","[""Black or African-American""]","Yes","Male","2065105","null","","null","","","fixation","","","","","","","","","","","","","","","","","","","","","","","","","",""
"","","","","","canvas-keyboard-response","129","281573","0.0-13.0-1.23","2d_cat_multi_stim_exp1","2022-4-4","12:18:51","25","75","3","9","10","40","30","120","9","21","[""Black or African-American""]","Yes","Male","2065105","null","","null","","","clear_screen","","","","","","","","","","","","","","","","","","","","","","","","","",""
"","","","","","canvas-keyboard-response","130","282650","0.0-13.0-2.23","2d_cat_multi_stim_exp1","2022-4-4","12:18:51","25","75","3","9","10","40","30","120","9","21","[""Black or African-American""]","Yes","Male","2065105","1069","","i","learn","","learn_trial","26.6667","60","out","0","1","","","","","","","","","","","","","","","","","","","","",""
"","","","","","canvas-keyboard-response","131","283161","0.0-13.0-3.23","2d_cat_multi_stim_exp1","2022-4-4","12:18:51","25","75","3","9","10","40","30","120","9","21","[""Black or African-American""]","Yes","Male","2065105","null","","null","learn_feedback","","learn_feedback","26.6667","60","out","","","","","","","","","","","","","","","","","","","","","","",""
"","","","","","canvas-keyboard-response","132","283222","0.0-13.0-4.23","2d_cat_multi_stim_exp1","2022-4-4","12:18:51","25","75","3","9","10","40","30","120","9","21","[""Black or African-American""]","Yes","Male","2065105","null","","null","","","clear_screen","","","","","","","","","","","","","","","","","","","","","","","","","",""
"","","","","","canvas-keyboard-response","133","283730","0.0-13.0-0.24","2d_cat_multi_stim_exp1","2022-4-4","12:18:51","25","75","3","9","10","40","30","120","9","21","[""Black or African-American""]","Yes","Male","2065105","null","","null","","","fixation","","","","","","","","","","","","","","","","","","","","","","","","","",""
"","","","","","canvas-keyboard-response","134","284242","0.0-13.0-1.24","2d_cat_multi_stim_exp1","2022-4-4","12:18:51","25","75","3","9","10","40","30","120","9","21","[""Black or African-American""]","Yes","Male","2065105","null","","null","","","clear_screen","","","","","","","","","","","","","","","","","","","","","","","","","",""
"","","","","","canvas-keyboard-response","135","286073","0.0-13.0-2.24","2d_cat_multi_stim_exp1","2022-4-4","12:18:51","25","75","3","9","10","40","30","120","9","21","[""Black or African-American""]","Yes","Male","2065105","1819","","i","learn","","learn_trial","25","75","in","0","0","","","","","","","","","","","","","","","","","","","","",""
"","","","","","canvas-keyboard-response","136","287085","0.0-13.0-3.24","2d_cat_multi_stim_exp1","2022-4-4","12:18:51","25","75","3","9","10","40","30","120","9","21","[""Black or African-American""]","Yes","Male","2065105","null","","null","learn_feedback","","learn_feedback","25","75","in","","","","","","","","","","","","","","","","","","","","","","",""
"","","","","","canvas-keyboard-response","137","287149","0.0-13.0-4.24","2d_cat_multi_stim_exp1","2022-4-4","12:18:51","25","75","3","9","10","40","30","120","9","21","[""Black or African-American""]","Yes","Male","2065105","null","","null","","","clear_screen","","","","","","","","","","","","","","","","","","","","","","","","","",""
"","","","","","canvas-keyboard-response","138","287658","0.0-13.0-0.25","2d_cat_multi_stim_exp1","2022-4-4","12:18:51","25","75","3","9","10","40","30","120","9","21","[""Black or African-American""]","Yes","Male","2065105","null","","null","","","fixation","","","","","","","","","","","","","","","","","","","","","","","","","",""
"","","","","","canvas-keyboard-response","139","288171","0.0-13.0-1.25","2d_cat_multi_stim_exp1","2022-4-4","12:18:51","25","75","3","9","10","40","30","120","9","21","[""Black or African-American""]","Yes","Male","2065105","null","","null","","","clear_screen","","","","","","","","","","","","","","","","","","","","","","","","","",""
"","","","","","canvas-keyboard-response","140","289234","0.0-13.0-2.25","2d_cat_multi_stim_exp1","2022-4-4","12:18:51","25","75","3","9","10","40","30","120","9","21","[""Black or African-American""]","Yes","Male","2065105","1054","","u","learn","","learn_trial","25","75","in","1","1","","","","","","","","","","","","","","","","","","","","",""
"","","","","","canvas-keyboard-response","141","289743","0.0-13.0-3.25","2d_cat_multi_stim_exp1","2022-4-4","12:18:51","25","75","3","9","10","40","30","120","9","21","[""Black or African-American""]","Yes","Male","2065105","null","","null","learn_feedback","","learn_feedback","25","75","in","","","","","","","","","","","","","","","","","","","","","","",""
"","","","","","canvas-keyboard-response","142","289806","0.0-13.0-4.25","2d_cat_multi_stim_exp1","2022-4-4","12:18:51","25","75","3","9","10","40","30","120","9","21","[""Black or African-American""]","Yes","Male","2065105","null","","null","","","clear_screen","","","","","","","","","","","","","","","","","","","","","","","","","",""
"","","","","","canvas-keyboard-response","143","290316","0.0-13.0-0.26","2d_cat_multi_stim_exp1","2022-4-4","12:18:51","25","75","3","9","10","40","30","120","9","21","[""Black or African-American""]","Yes","Male","2065105","null","","null","","","fixation","","","","","","","","","","","","","","","","","","","","","","","","","",""
"","","","","","canvas-keyboard-response","144","290829","0.0-13.0-1.26","2d_cat_multi_stim_exp1","2022-4-4","12:18:51","25","75","3","9","10","40","30","120","9","21","[""Black or African-American""]","Yes","Male","2065105","null","","null","","","clear_screen","","","","","","","","","","","","","","","","","","","","","","","","","",""
"","","","","","canvas-keyboard-response","145","292386","0.0-13.0-2.26","2d_cat_multi_stim_exp1","2022-4-4","12:18:51","25","75","3","9","10","40","30","120","9","21","[""Black or African-American""]","Yes","Male","2065105","1545","","i","learn","","learn_trial","33.3333","110","out","0","1","","","","","","","","","","","","","","","","","","","","",""
"","","","","","canvas-keyboard-response","146","292897","0.0-13.0-3.26","2d_cat_multi_stim_exp1","2022-4-4","12:18:51","25","75","3","9","10","40","30","120","9","21","[""Black or African-American""]","Yes","Male","2065105","null","","null","learn_feedback","","learn_feedback","33.3333","110","out","","","","","","","","","","","","","","","","","","","","","","",""
"","","","","","canvas-keyboard-response","147","292956","0.0-13.0-4.26","2d_cat_multi_stim_exp1","2022-4-4","12:18:51","25","75","3","9","10","40","30","120","9","21","[""Black or African-American""]","Yes","Male","2065105","null","","null","","","clear_screen","","","","","","","","","","","","","","","","","","","","","","","","","",""
"","","","","","canvas-keyboard-response","148","293465","0.0-13.0-0.27","2d_cat_multi_stim_exp1","2022-4-4","12:18:51","25","75","3","9","10","40","30","120","9","21","[""Black or African-American""]","Yes","Male","2065105","null","","null","","","fixation","","","","","","","","","","","","","","","","","","","","","","","","","",""
"","","","","","canvas-keyboard-response","149","293975","0.0-13.0-1.27","2d_cat_multi_stim_exp1","2022-4-4","12:18:51","25","75","3","9","10","40","30","120","9","21","[""Black or African-American""]","Yes","Male","2065105","null","","null","","","clear_screen","","","","","","","","","","","","","","","","","","","","","","","","","",""
"","","","","","canvas-keyboard-response","150","295825","0.0-13.0-2.27","2d_cat_multi_stim_exp1","2022-4-4","12:18:51","25","75","3","9","10","40","30","120","9","21","[""Black or African-American""]","Yes","Male","2065105","1841","","u","learn","","learn_trial","25","75","in","1","1","","","","","","","","","","","","","","","","","","","","",""
"","","","","","canvas-keyboard-response","151","296334","0.0-13.0-3.27","2d_cat_multi_stim_exp1","2022-4-4","12:18:51","25","75","3","9","10","40","30","120","9","21","[""Black or African-American""]","Yes","Male","2065105","null","","null","learn_feedback","","learn_feedback","25","75","in","","","","","","","","","","","","","","","","","","","","","","",""
"","","","","","canvas-keyboard-response","152","296398","0.0-13.0-4.27","2d_cat_multi_stim_exp1","2022-4-4","12:18:51","25","75","3","9","10","40","30","120","9","21","[""Black or African-American""]","Yes","Male","2065105","null","","null","","","clear_screen","","","","","","","","","","","","","","","","","","","","","","","","","",""
"","","","","","canvas-keyboard-response","153","296909","0.0-13.0-0.28","2d_cat_multi_stim_exp1","2022-4-4","12:18:51","25","75","3","9","10","40","30","120","9","21","[""Black or African-American""]","Yes","Male","2065105","null","","null","","","fixation","","","","","","","","","","","","","","","","","","","","","","","","","",""
"","","","","","canvas-keyboard-response","154","297423","0.0-13.0-1.28","2d_cat_multi_stim_exp1","2022-4-4","12:18:51","25","75","3","9","10","40","30","120","9","21","[""Black or African-American""]","Yes","Male","2065105","null","","null","","","clear_screen","","","","","","","","","","","","","","","","","","","","","","","","","",""
"","","","","","canvas-keyboard-response","155","298618","0.0-13.0-2.28","2d_cat_multi_stim_exp1","2022-4-4","12:18:51","25","75","3","9","10","40","30","120","9","21","[""Black or African-American""]","Yes","Male","2065105","1185","","i","learn","","learn_trial","25","75","in","0","0","","","","","","","","","","","","","","","","","","","","",""
"","","","","","canvas-keyboard-response","156","299627","0.0-13.0-3.28","2d_cat_multi_stim_exp1","2022-4-4","12:18:51","25","75","3","9","10","40","30","120","9","21","[""Black or African-American""]","Yes","Male","2065105","null","","null","learn_feedback","","learn_feedback","25","75","in","","","","","","","","","","","","","","","","","","","","","","",""
"","","","","","canvas-keyboard-response","157","299691","0.0-13.0-4.28","2d_cat_multi_stim_exp1","2022-4-4","12:18:51","25","75","3","9","10","40","30","120","9","21","[""Black or African-American""]","Yes","Male","2065105","null","","null","","","clear_screen","","","","","","","","","","","","","","","","","","","","","","","","","",""
"","","","","","canvas-keyboard-response","158","300200","0.0-13.0-0.29","2d_cat_multi_stim_exp1","2022-4-4","12:18:51","25","75","3","9","10","40","30","120","9","21","[""Black or African-American""]","Yes","Male","2065105","null","","null","","","fixation","","","","","","","","","","","","","","","","","","","","","","","","","",""
"","","","","","canvas-keyboard-response","159","300712","0.0-13.0-1.29","2d_cat_multi_stim_exp1","2022-4-4","12:18:51","25","75","3","9","10","40","30","120","9","21","[""Black or African-American""]","Yes","Male","2065105","null","","null","","","clear_screen","","","","","","","","","","","","","","","","","","","","","","","","","",""
"","","","","","canvas-keyboard-response","160","301498","0.0-13.0-2.29","2d_cat_multi_stim_exp1","2022-4-4","12:18:51","25","75","3","9","10","40","30","120","9","21","[""Black or African-American""]","Yes","Male","2065105","779","","u","learn","","learn_trial","23.3473","67.4888","in","1","1","","","","","","","","","","","","","","","","","","","","",""
"","","","","","canvas-keyboard-response","161","302010","0.0-13.0-3.29","2d_cat_multi_stim_exp1","2022-4-4","12:18:51","25","75","3","9","10","40","30","120","9","21","[""Black or African-American""]","Yes","Male","2065105","null","","null","learn_feedback","","learn_feedback","23.3473","67.4888","in","","","","","","","","","","","","","","","","","","","","","","",""
"","","","","","canvas-keyboard-response","162","302071","0.0-13.0-4.29","2d_cat_multi_stim_exp1","2022-4-4","12:18:51","25","75","3","9","10","40","30","120","9","21","[""Black or African-American""]","Yes","Male","2065105","null","","null","","","clear_screen","","","","","","","","","","","","","","","","","","","","","","","","","",""
"","","","","","canvas-keyboard-response","163","302580","0.0-13.0-0.30","2d_cat_multi_stim_exp1","2022-4-4","12:18:51","25","75","3","9","10","40","30","120","9","21","[""Black or African-American""]","Yes","Male","2065105","null","","null","","","fixation","","","","","","","","","","","","","","","","","","","","","","","","","",""
"","","","","","canvas-keyboard-response","164","303089","0.0-13.0-1.30","2d_cat_multi_stim_exp1","2022-4-4","12:18:51","25","75","3","9","10","40","30","120","9","21","[""Black or African-American""]","Yes","Male","2065105","null","","null","","","clear_screen","","","","","","","","","","","","","","","","","","","","","","","","","",""
"","","","","","canvas-keyboard-response","165","303898","0.0-13.0-2.30","2d_cat_multi_stim_exp1","2022-4-4","12:18:51","25","75","3","9","10","40","30","120","9","21","[""Black or African-American""]","Yes","Male","2065105","799","","i","learn","","learn_trial","16.6667","100","out","0","1","","","","","","","","","","","","","","","","","","","","",""
"","","","","","canvas-keyboard-response","166","304407","0.0-13.0-3.30","2d_cat_multi_stim_exp1","2022-4-4","12:18:51","25","75","3","9","10","40","30","120","9","21","[""Black or African-American""]","Yes","Male","2065105","null","","null","learn_feedback","","learn_feedback","16.6667","100","out","","","","","","","","","","","","","","","","","","","","","","",""
"","","","","","canvas-keyboard-response","167","304465","0.0-13.0-4.30","2d_cat_multi_stim_exp1","2022-4-4","12:18:51","25","75","3","9","10","40","30","120","9","21","[""Black or African-American""]","Yes","Male","2065105","null","","null","","","clear_screen","","","","","","","","","","","","","","","","","","","","","","","","","",""
"","","","","","canvas-keyboard-response","168","304977","0.0-13.0-0.31","2d_cat_multi_stim_exp1","2022-4-4","12:18:51","25","75","3","9","10","40","30","120","9","21","[""Black or African-American""]","Yes","Male","2065105","null","","null","","","fixation","","","","","","","","","","","","","","","","","","","","","","","","","",""
"","","","","","canvas-keyboard-response","169","305485","0.0-13.0-1.31","2d_cat_multi_stim_exp1","2022-4-4","12:18:51","25","75","3","9","10","40","30","120","9","21","[""Black or African-American""]","Yes","Male","2065105","null","","null","","","clear_screen","","","","","","","","","","","","","","","","","","","","","","","","","",""
"","","","","","canvas-keyboard-response","170","306618","0.0-13.0-2.31","2d_cat_multi_stim_exp1","2022-4-4","12:18:51","25","75","3","9","10","40","30","120","9","21","[""Black or African-American""]","Yes","Male","2065105","1119","","i","learn","","learn_trial","25","75","in","0","0","","","","","","","","","","","","","","","","","","","","",""
"","","","","","canvas-keyboard-response","171","307627","0.0-13.0-3.31","2d_cat_multi_stim_exp1","2022-4-4","12:18:51","25","75","3","9","10","40","30","120","9","21","[""Black or African-American""]","Yes","Male","2065105","null","","null","learn_feedback","","learn_feedback","25","75","in","","","","","","","","","","","","","","","","","","","","","","",""
"","","","","","canvas-keyboard-response","172","307687","0.0-13.0-4.31","2d_cat_multi_stim_exp1","2022-4-4","12:18:51","25","75","3","9","10","40","30","120","9","21","[""Black or African-American""]","Yes","Male","2065105","null","","null","","","clear_screen","","","","","","","","","","","","","","","","","","","","","","","","","",""
"","","","","","canvas-keyboard-response","173","308195","0.0-13.0-0.32","2d_cat_multi_stim_exp1","2022-4-4","12:18:51","25","75","3","9","10","40","30","120","9","21","[""Black or African-American""]","Yes","Male","2065105","null","","null","","","fixation","","","","","","","","","","","","","","","","","","","","","","","","","",""
"","","","","","canvas-keyboard-response","174","308707","0.0-13.0-1.32","2d_cat_multi_stim_exp1","2022-4-4","12:18:51","25","75","3","9","10","40","30","120","9","21","[""Black or African-American""]","Yes","Male","2065105","null","","null","","","clear_screen","","","","","","","","","","","","","","","","","","","","","","","","","",""
"","","","","","canvas-keyboard-response","175","311770","0.0-13.0-2.32","2d_cat_multi_stim_exp1","2022-4-4","12:18:51","25","75","3","9","10","40","30","120","9","21","[""Black or African-American""]","Yes","Male","2065105","3054","","i","learn","","learn_trial","30","40","out","0","1","","","","","","","","","","","","","","","","","","","","",""
"","","","","","canvas-keyboard-response","176","312282","0.0-13.0-3.32","2d_cat_multi_stim_exp1","2022-4-4","12:18:51","25","75","3","9","10","40","30","120","9","21","[""Black or African-American""]","Yes","Male","2065105","null","","null","learn_feedback","","learn_feedback","30","40","out","","","","","","","","","","","","","","","","","","","","","","",""
"","","","","","canvas-keyboard-response","177","312344","0.0-13.0-4.32","2d_cat_multi_stim_exp1","2022-4-4","12:18:51","25","75","3","9","10","40","30","120","9","21","[""Black or African-American""]","Yes","Male","2065105","null","","null","","","clear_screen","","","","","","","","","","","","","","","","","","","","","","","","","",""
"","","","","","canvas-keyboard-response","178","312853","0.0-13.0-0.33","2d_cat_multi_stim_exp1","2022-4-4","12:18:51","25","75","3","9","10","40","30","120","9","21","[""Black or African-American""]","Yes","Male","2065105","null","","null","","","fixation","","","","","","","","","","","","","","","","","","","","","","","","","",""
"","","","","","canvas-keyboard-response","179","313365","0.0-13.0-1.33","2d_cat_multi_stim_exp1","2022-4-4","12:18:51","25","75","3","9","10","40","30","120","9","21","[""Black or African-American""]","Yes","Male","2065105","null","","null","","","clear_screen","","","","","","","","","","","","","","","","","","","","","","","","","",""
"","","","","","canvas-keyboard-response","180","314706","0.0-13.0-2.33","2d_cat_multi_stim_exp1","2022-4-4","12:18:51","25","75","3","9","10","40","30","120","9","21","[""Black or African-American""]","Yes","Male","2065105","1331","","i","learn","","learn_trial","13.3333","110","out","0","1","","","","","","","","","","","","","","","","","","","","",""
"","","","","","canvas-keyboard-response","181","315215","0.0-13.0-3.33","2d_cat_multi_stim_exp1","2022-4-4","12:18:51","25","75","3","9","10","40","30","120","9","21","[""Black or African-American""]","Yes","Male","2065105","null","","null","learn_feedback","","learn_feedback","13.3333","110","out","","","","","","","","","","","","","","","","","","","","","","",""
"","","","","","canvas-keyboard-response","182","315276","0.0-13.0-4.33","2d_cat_multi_stim_exp1","2022-4-4","12:18:51","25","75","3","9","10","40","30","120","9","21","[""Black or African-American""]","Yes","Male","2065105","null","","null","","","clear_screen","","","","","","","","","","","","","","","","","","","","","","","","","",""
"","","","","","canvas-keyboard-response","183","315787","0.0-13.0-0.34","2d_cat_multi_stim_exp1","2022-4-4","12:18:51","25","75","3","9","10","40","30","120","9","21","[""Black or African-American""]","Yes","Male","2065105","null","","null","","","fixation","","","","","","","","","","","","","","","","","","","","","","","","","",""
"","","","","","canvas-keyboard-response","184","316302","0.0-13.0-1.34","2d_cat_multi_stim_exp1","2022-4-4","12:18:51","25","75","3","9","10","40","30","120","9","21","[""Black or African-American""]","Yes","Male","2065105","null","","null","","","clear_screen","","","","","","","","","","","","","","","","","","","","","","","","","",""
"","","","","","canvas-keyboard-response","185","318323","0.0-13.0-2.34","2d_cat_multi_stim_exp1","2022-4-4","12:18:51","25","75","3","9","10","40","30","120","9","21","[""Black or African-American""]","Yes","Male","2065105","2006","","u","learn","","learn_trial","25","75","in","1","1","","","","","","","","","","","","","","","","","","","","",""
"","","","","","canvas-keyboard-response","186","318832","0.0-13.0-3.34","2d_cat_multi_stim_exp1","2022-4-4","12:18:51","25","75","3","9","10","40","30","120","9","21","[""Black or African-American""]","Yes","Male","2065105","null","","null","learn_feedback","","learn_feedback","25","75","in","","","","","","","","","","","","","","","","","","","","","","",""
"","","","","","canvas-keyboard-response","187","318891","0.0-13.0-4.34","2d_cat_multi_stim_exp1","2022-4-4","12:18:51","25","75","3","9","10","40","30","120","9","21","[""Black or African-American""]","Yes","Male","2065105","null","","null","","","clear_screen","","","","","","","","","","","","","","","","","","","","","","","","","",""
"","","","","","canvas-keyboard-response","188","319395","0.0-13.0-0.35","2d_cat_multi_stim_exp1","2022-4-4","12:18:51","25","75","3","9","10","40","30","120","9","21","[""Black or African-American""]","Yes","Male","2065105","null","","null","","","fixation","","","","","","","","","","","","","","","","","","","","","","","","","",""
"","","","","","canvas-keyboard-response","189","319906","0.0-13.0-1.35","2d_cat_multi_stim_exp1","2022-4-4","12:18:51","25","75","3","9","10","40","30","120","9","21","[""Black or African-American""]","Yes","Male","2065105","null","","null","","","clear_screen","","","","","","","","","","","","","","","","","","","","","","","","","",""
"","","","","","canvas-keyboard-response","190","321305","0.0-13.0-2.35","2d_cat_multi_stim_exp1","2022-4-4","12:18:51","25","75","3","9","10","40","30","120","9","21","[""Black or African-American""]","Yes","Male","2065105","1387","","i","learn","","learn_trial","40","60","out","0","1","","","","","","","","","","","","","","","","","","","","",""
"","","","","","canvas-keyboard-response","191","321818","0.0-13.0-3.35","2d_cat_multi_stim_exp1","2022-4-4","12:18:51","25","75","3","9","10","40","30","120","9","21","[""Black or African-American""]","Yes","Male","2065105","null","","null","learn_feedback","","learn_feedback","40","60","out","","","","","","","","","","","","","","","","","","","","","","",""
"","","","","","canvas-keyboard-response","192","321882","0.0-13.0-4.35","2d_cat_multi_stim_exp1","2022-4-4","12:18:51","25","75","3","9","10","40","30","120","9","21","[""Black or African-American""]","Yes","Male","2065105","null","","null","","","clear_screen","","","","","","","","","","","","","","","","","","","","","","","","","",""
"","","","","","canvas-keyboard-response","193","322391","0.0-13.0-0.36","2d_cat_multi_stim_exp1","2022-4-4","12:18:51","25","75","3","9","10","40","30","120","9","21","[""Black or African-American""]","Yes","Male","2065105","null","","null","","","fixation","","","","","","","","","","","","","","","","","","","","","","","","","",""
"","","","","","canvas-keyboard-response","194","322902","0.0-13.0-1.36","2d_cat_multi_stim_exp1","2022-4-4","12:18:51","25","75","3","9","10","40","30","120","9","21","[""Black or African-American""]","Yes","Male","2065105","null","","null","","","clear_screen","","","","","","","","","","","","","","","","","","","","","","","","","",""
"","","","","","canvas-keyboard-response","195","324274","0.0-13.0-2.36","2d_cat_multi_stim_exp1","2022-4-4","12:18:51","25","75","3","9","10","40","30","120","9","21","[""Black or African-American""]","Yes","Male","2065105","1363","","u","learn","","learn_trial","23.3473","82.5112","in","1","1","","","","","","","","","","","","","","","","","","","","",""
"","","","","","canvas-keyboard-response","196","324786","0.0-13.0-3.36","2d_cat_multi_stim_exp1","2022-4-4","12:18:51","25","75","3","9","10","40","30","120","9","21","[""Black or African-American""]","Yes","Male","2065105","null","","null","learn_feedback","","learn_feedback","23.3473","82.5112","in","","","","","","","","","","","","","","","","","","","","","","",""
"","","","","","canvas-keyboard-response","197","324849","0.0-13.0-4.36","2d_cat_multi_stim_exp1","2022-4-4","12:18:51","25","75","3","9","10","40","30","120","9","21","[""Black or African-American""]","Yes","Male","2065105","null","","null","","","clear_screen","","","","","","","","","","","","","","","","","","","","","","","","","",""
"","","","","","canvas-keyboard-response","198","325358","0.0-13.0-0.37","2d_cat_multi_stim_exp1","2022-4-4","12:18:51","25","75","3","9","10","40","30","120","9","21","[""Black or African-American""]","Yes","Male","2065105","null","","null","","","fixation","","","","","","","","","","","","","","","","","","","","","","","","","",""
"","","","","","canvas-keyboard-response","199","325871","0.0-13.0-1.37","2d_cat_multi_stim_exp1","2022-4-4","12:18:51","25","75","3","9","10","40","30","120","9","21","[""Black or African-American""]","Yes","Male","2065105","null","","null","","","clear_screen","","","","","","","","","","","","","","","","","","","","","","","","","",""
"","","","","","canvas-keyboard-response","200","326650","0.0-13.0-2.37","2d_cat_multi_stim_exp1","2022-4-4","12:18:51","25","75","3","9","10","40","30","120","9","21","[""Black or African-American""]","Yes","Male","2065105","768","","i","learn","","learn_trial","13.3333","40","out","0","1","","","","","","","","","","","","","","","","","","","","",""
"","","","","","canvas-keyboard-response","201","327160","0.0-13.0-3.37","2d_cat_multi_stim_exp1","2022-4-4","12:18:51","25","75","3","9","10","40","30","120","9","21","[""Black or African-American""]","Yes","Male","2065105","null","","null","learn_feedback","","learn_feedback","13.3333","40","out","","","","","","","","","","","","","","","","","","","","","","",""
"","","","","","canvas-keyboard-response","202","327222","0.0-13.0-4.37","2d_cat_multi_stim_exp1","2022-4-4","12:18:51","25","75","3","9","10","40","30","120","9","21","[""Black or African-American""]","Yes","Male","2065105","null","","null","","","clear_screen","","","","","","","","","","","","","","","","","","","","","","","","","",""
"","","","","","canvas-keyboard-response","203","327729","0.0-13.0-0.38","2d_cat_multi_stim_exp1","2022-4-4","12:18:51","25","75","3","9","10","40","30","120","9","21","[""Black or African-American""]","Yes","Male","2065105","null","","null","","","fixation","","","","","","","","","","","","","","","","","","","","","","","","","",""
"","","","","","canvas-keyboard-response","204","328239","0.0-13.0-1.38","2d_cat_multi_stim_exp1","2022-4-4","12:18:51","25","75","3","9","10","40","30","120","9","21","[""Black or African-American""]","Yes","Male","2065105","null","","null","","","clear_screen","","","","","","","","","","","","","","","","","","","","","","","","","",""
"","","","","","canvas-keyboard-response","205","329002","0.0-13.0-2.38","2d_cat_multi_stim_exp1","2022-4-4","12:18:51","25","75","3","9","10","40","30","120","9","21","[""Black or African-American""]","Yes","Male","2065105","753","","i","learn","","learn_trial","40","50","out","0","1","","","","","","","","","","","","","","","","","","","","",""
"","","","","","canvas-keyboard-response","206","329512","0.0-13.0-3.38","2d_cat_multi_stim_exp1","2022-4-4","12:18:51","25","75","3","9","10","40","30","120","9","21","[""Black or African-American""]","Yes","Male","2065105","null","","null","learn_feedback","","learn_feedback","40","50","out","","","","","","","","","","","","","","","","","","","","","","",""
"","","","","","canvas-keyboard-response","207","329572","0.0-13.0-4.38","2d_cat_multi_stim_exp1","2022-4-4","12:18:51","25","75","3","9","10","40","30","120","9","21","[""Black or African-American""]","Yes","Male","2065105","null","","null","","","clear_screen","","","","","","","","","","","","","","","","","","","","","","","","","",""
"","","","","","canvas-keyboard-response","208","330080","0.0-13.0-0.39","2d_cat_multi_stim_exp1","2022-4-4","12:18:51","25","75","3","9","10","40","30","120","9","21","[""Black or African-American""]","Yes","Male","2065105","null","","null","","","fixation","","","","","","","","","","","","","","","","","","","","","","","","","",""
"","","","","","canvas-keyboard-response","209","330591","0.0-13.0-1.39","2d_cat_multi_stim_exp1","2022-4-4","12:18:51","25","75","3","9","10","40","30","120","9","21","[""Black or African-American""]","Yes","Male","2065105","null","","null","","","clear_screen","","","","","","","","","","","","","","","","","","","","","","","","","",""
"","","","","","canvas-keyboard-response","210","331993","0.0-13.0-2.39","2d_cat_multi_stim_exp1","2022-4-4","12:18:51","25","75","3","9","10","40","30","120","9","21","[""Black or African-American""]","Yes","Male","2065105","1392","","u","learn","","learn_trial","25","75","in","1","1","","","","","","","","","","","","","","","","","","","","",""
"","","","","","canvas-keyboard-response","211","332503","0.0-13.0-3.39","2d_cat_multi_stim_exp1","2022-4-4","12:18:51","25","75","3","9","10","40","30","120","9","21","[""Black or African-American""]","Yes","Male","2065105","null","","null","learn_feedback","","learn_feedback","25","75","in","","","","","","","","","","","","","","","","","","","","","","",""
"","","","","","canvas-keyboard-response","212","332564","0.0-13.0-4.39","2d_cat_multi_stim_exp1","2022-4-4","12:18:51","25","75","3","9","10","40","30","120","9","21","[""Black or African-American""]","Yes","Male","2065105","null","","null","","","clear_screen","","","","","","","","","","","","","","","","","","","","","","","","","",""
"","","","","","canvas-keyboard-response","213","333072","0.0-13.0-0.40","2d_cat_multi_stim_exp1","2022-4-4","12:18:51","25","75","3","9","10","40","30","120","9","21","[""Black or African-American""]","Yes","Male","2065105","null","","null","","","fixation","","","","","","","","","","","","","","","","","","","","","","","","","",""
"","","","","","canvas-keyboard-response","214","333585","0.0-13.0-1.40","2d_cat_multi_stim_exp1","2022-4-4","12:18:51","25","75","3","9","10","40","30","120","9","21","[""Black or African-American""]","Yes","Male","2065105","null","","null","","","clear_screen","","","","","","","","","","","","","","","","","","","","","","","","","",""
"","","","","","canvas-keyboard-response","215","334369","0.0-13.0-2.40","2d_cat_multi_stim_exp1","2022-4-4","12:18:51","25","75","3","9","10","40","30","120","9","21","[""Black or African-American""]","Yes","Male","2065105","776","","u","learn","","learn_trial","22.2971","78.905","in","1","1","","","","","","","","","","","","","","","","","","","","",""
"","","","","","canvas-keyboard-response","216","334879","0.0-13.0-3.40","2d_cat_multi_stim_exp1","2022-4-4","12:18:51","25","75","3","9","10","40","30","120","9","21","[""Black or African-American""]","Yes","Male","2065105","null","","null","learn_feedback","","learn_feedback","22.2971","78.905","in","","","","","","","","","","","","","","","","","","","","","","",""
"","","","","","canvas-keyboard-response","217","334938","0.0-13.0-4.40","2d_cat_multi_stim_exp1","2022-4-4","12:18:51","25","75","3","9","10","40","30","120","9","21","[""Black or African-American""]","Yes","Male","2065105","null","","null","","","clear_screen","","","","","","","","","","","","","","","","","","","","","","","","","",""
"","","","","","canvas-keyboard-response","218","335447","0.0-13.0-0.41","2d_cat_multi_stim_exp1","2022-4-4","12:18:51","25","75","3","9","10","40","30","120","9","21","[""Black or African-American""]","Yes","Male","2065105","null","","null","","","fixation","","","","","","","","","","","","","","","","","","","","","","","","","",""
"","","","","","canvas-keyboard-response","219","335958","0.0-13.0-1.41","2d_cat_multi_stim_exp1","2022-4-4","12:18:51","25","75","3","9","10","40","30","120","9","21","[""Black or African-American""]","Yes","Male","2065105","null","","null","","","clear_screen","","","","","","","","","","","","","","","","","","","","","","","","","",""
"","","","","","canvas-keyboard-response","220","336737","0.0-13.0-2.41","2d_cat_multi_stim_exp1","2022-4-4","12:18:51","25","75","3","9","10","40","30","120","9","21","[""Black or African-American""]","Yes","Male","2065105","771","","u","learn","","learn_trial","25","75","in","1","1","","","","","","","","","","","","","","","","","","","","",""
"","","","","","canvas-keyboard-response","221","337247","0.0-13.0-3.41","2d_cat_multi_stim_exp1","2022-4-4","12:18:51","25","75","3","9","10","40","30","120","9","21","[""Black or African-American""]","Yes","Male","2065105","null","","null","learn_feedback","","learn_feedback","25","75","in","","","","","","","","","","","","","","","","","","","","","","",""
"","","","","","canvas-keyboard-response","222","337307","0.0-13.0-4.41","2d_cat_multi_stim_exp1","2022-4-4","12:18:51","25","75","3","9","10","40","30","120","9","21","[""Black or African-American""]","Yes","Male","2065105","null","","null","","","clear_screen","","","","","","","","","","","","","","","","","","","","","","","","","",""
"","","","","","canvas-keyboard-response","223","337818","0.0-13.0-0.42","2d_cat_multi_stim_exp1","2022-4-4","12:18:51","25","75","3","9","10","40","30","120","9","21","[""Black or African-American""]","Yes","Male","2065105","null","","null","","","fixation","","","","","","","","","","","","","","","","","","","","","","","","","",""
"","","","","","canvas-keyboard-response","224","338329","0.0-13.0-1.42","2d_cat_multi_stim_exp1","2022-4-4","12:18:51","25","75","3","9","10","40","30","120","9","21","[""Black or African-American""]","Yes","Male","2065105","null","","null","","","clear_screen","","","","","","","","","","","","","","","","","","","","","","","","","",""
"","","","","","canvas-keyboard-response","225","339322","0.0-13.0-2.42","2d_cat_multi_stim_exp1","2022-4-4","12:18:51","25","75","3","9","10","40","30","120","9","21","[""Black or African-American""]","Yes","Male","2065105","984","","i","learn","","learn_trial","40","120","out","0","1","","","","","","","","","","","","","","","","","","","","",""
"","","","","","canvas-keyboard-response","226","339832","0.0-13.0-3.42","2d_cat_multi_stim_exp1","2022-4-4","12:18:51","25","75","3","9","10","40","30","120","9","21","[""Black or African-American""]","Yes","Male","2065105","null","","null","learn_feedback","","learn_feedback","40","120","out","","","","","","","","","","","","","","","","","","","","","","",""
"","","","","","canvas-keyboard-response","227","339895","0.0-13.0-4.42","2d_cat_multi_stim_exp1","2022-4-4","12:18:51","25","75","3","9","10","40","30","120","9","21","[""Black or African-American""]","Yes","Male","2065105","null","","null","","","clear_screen","","","","","","","","","","","","","","","","","","","","","","","","","",""
"","","","","","canvas-keyboard-response","228","340404","0.0-13.0-0.43","2d_cat_multi_stim_exp1","2022-4-4","12:18:51","25","75","3","9","10","40","30","120","9","21","[""Black or African-American""]","Yes","Male","2065105","null","","null","","","fixation","","","","","","","","","","","","","","","","","","","","","","","","","",""
"","","","","","canvas-keyboard-response","229","340918","0.0-13.0-1.43","2d_cat_multi_stim_exp1","2022-4-4","12:18:51","25","75","3","9","10","40","30","120","9","21","[""Black or African-American""]","Yes","Male","2065105","null","","null","","","clear_screen","","","","","","","","","","","","","","","","","","","","","","","","","",""
"","","","","","canvas-keyboard-response","230","341993","0.0-13.0-2.43","2d_cat_multi_stim_exp1","2022-4-4","12:18:51","25","75","3","9","10","40","30","120","9","21","[""Black or African-American""]","Yes","Male","2065105","1068","","u","learn","","learn_trial","25","75","in","1","1","","","","","","","","","","","","","","","","","","","","",""
"","","","","","canvas-keyboard-response","231","342503","0.0-13.0-3.43","2d_cat_multi_stim_exp1","2022-4-4","12:18:51","25","75","3","9","10","40","30","120","9","21","[""Black or African-American""]","Yes","Male","2065105","null","","null","learn_feedback","","learn_feedback","25","75","in","","","","","","","","","","","","","","","","","","","","","","",""
"","","","","","canvas-keyboard-response","232","342566","0.0-13.0-4.43","2d_cat_multi_stim_exp1","2022-4-4","12:18:51","25","75","3","9","10","40","30","120","9","21","[""Black or African-American""]","Yes","Male","2065105","null","","null","","","clear_screen","","","","","","","","","","","","","","","","","","","","","","","","","",""
"","","","","","canvas-keyboard-response","233","343074","0.0-13.0-0.44","2d_cat_multi_stim_exp1","2022-4-4","12:18:51","25","75","3","9","10","40","30","120","9","21","[""Black or African-American""]","Yes","Male","2065105","null","","null","","","fixation","","","","","","","","","","","","","","","","","","","","","","","","","",""
"","","","","","canvas-keyboard-response","234","343589","0.0-13.0-1.44","2d_cat_multi_stim_exp1","2022-4-4","12:18:51","25","75","3","9","10","40","30","120","9","21","[""Black or African-American""]","Yes","Male","2065105","null","","null","","","clear_screen","","","","","","","","","","","","","","","","","","","","","","","","","",""
"","","","","","canvas-keyboard-response","235","344305","0.0-13.0-2.44","2d_cat_multi_stim_exp1","2022-4-4","12:18:51","25","75","3","9","10","40","30","120","9","21","[""Black or African-American""]","Yes","Male","2065105","708","","u","learn","","learn_trial","23.3333","70","out","1","0","","","","","","","","","","","","","","","","","","","","",""
"","","","","","canvas-keyboard-response","236","345315","0.0-13.0-3.44","2d_cat_multi_stim_exp1","2022-4-4","12:18:51","25","75","3","9","10","40","30","120","9","21","[""Black or African-American""]","Yes","Male","2065105","null","","null","learn_feedback","","learn_feedback","23.3333","70","out","","","","","","","","","","","","","","","","","","","","","","",""
"","","","","","canvas-keyboard-response","237","345374","0.0-13.0-4.44","2d_cat_multi_stim_exp1","2022-4-4","12:18:51","25","75","3","9","10","40","30","120","9","21","[""Black or African-American""]","Yes","Male","2065105","null","","null","","","clear_screen","","","","","","","","","","","","","","","","","","","","","","","","","",""
"","","","","","canvas-keyboard-response","238","345882","0.0-13.0-0.45","2d_cat_multi_stim_exp1","2022-4-4","12:18:51","25","75","3","9","10","40","30","120","9","21","[""Black or African-American""]","Yes","Male","2065105","null","","null","","","fixation","","","","","","","","","","","","","","","","","","","","","","","","","",""
"","","","","","canvas-keyboard-response","239","346395","0.0-13.0-1.45","2d_cat_multi_stim_exp1","2022-4-4","12:18:51","25","75","3","9","10","40","30","120","9","21","[""Black or African-American""]","Yes","Male","2065105","null","","null","","","clear_screen","","","","","","","","","","","","","","","","","","","","","","","","","",""
"","","","","","canvas-keyboard-response","240","347241","0.0-13.0-2.45","2d_cat_multi_stim_exp1","2022-4-4","12:18:51","25","75","3","9","10","40","30","120","9","21","[""Black or African-American""]","Yes","Male","2065105","835","","u","learn","","learn_trial","25","75","in","1","1","","","","","","","","","","","","","","","","","","","","",""
"","","","","","canvas-keyboard-response","241","347751","0.0-13.0-3.45","2d_cat_multi_stim_exp1","2022-4-4","12:18:51","25","75","3","9","10","40","30","120","9","21","[""Black or African-American""]","Yes","Male","2065105","null","","null","learn_feedback","","learn_feedback","25","75","in","","","","","","","","","","","","","","","","","","","","","","",""
"","","","","","canvas-keyboard-response","242","347814","0.0-13.0-4.45","2d_cat_multi_stim_exp1","2022-4-4","12:18:51","25","75","3","9","10","40","30","120","9","21","[""Black or African-American""]","Yes","Male","2065105","null","","null","","","clear_screen","","","","","","","","","","","","","","","","","","","","","","","","","",""
"","","","","","canvas-keyboard-response","243","348323","0.0-13.0-0.46","2d_cat_multi_stim_exp1","2022-4-4","12:18:51","25","75","3","9","10","40","30","120","9","21","[""Black or African-American""]","Yes","Male","2065105","null","","null","","","fixation","","","","","","","","","","","","","","","","","","","","","","","","","",""
"","","","","","canvas-keyboard-response","244","348833","0.0-13.0-1.46","2d_cat_multi_stim_exp1","2022-4-4","12:18:51","25","75","3","9","10","40","30","120","9","21","[""Black or African-American""]","Yes","Male","2065105","null","","null","","","clear_screen","","","","","","","","","","","","","","","","","","","","","","","","","",""
"","","","","","canvas-keyboard-response","245","350145","0.0-13.0-2.46","2d_cat_multi_stim_exp1","2022-4-4","12:18:51","25","75","3","9","10","40","30","120","9","21","[""Black or African-American""]","Yes","Male","2065105","1303","","u","learn","","learn_trial","16.6667","80","out","1","0","","","","","","","","","","","","","","","","","","","","",""
"","","","","","canvas-keyboard-response","246","351154","0.0-13.0-3.46","2d_cat_multi_stim_exp1","2022-4-4","12:18:51","25","75","3","9","10","40","30","120","9","21","[""Black or African-American""]","Yes","Male","2065105","null","","null","learn_feedback","","learn_feedback","16.6667","80","out","","","","","","","","","","","","","","","","","","","","","","",""
"","","","","","canvas-keyboard-response","247","351217","0.0-13.0-4.46","2d_cat_multi_stim_exp1","2022-4-4","12:18:51","25","75","3","9","10","40","30","120","9","21","[""Black or African-American""]","Yes","Male","2065105","null","","null","","","clear_screen","","","","","","","","","","","","","","","","","","","","","","","","","",""
"","","","","","canvas-keyboard-response","248","351725","0.0-13.0-0.47","2d_cat_multi_stim_exp1","2022-4-4","12:18:51","25","75","3","9","10","40","30","120","9","21","[""Black or African-American""]","Yes","Male","2065105","null","","null","","","fixation","","","","","","","","","","","","","","","","","","","","","","","","","",""
"","","","","","canvas-keyboard-response","249","352234","0.0-13.0-1.47","2d_cat_multi_stim_exp1","2022-4-4","12:18:51","25","75","3","9","10","40","30","120","9","21","[""Black or African-American""]","Yes","Male","2065105","null","","null","","","clear_screen","","","","","","","","","","","","","","","","","","","","","","","","","",""
"","","","","","canvas-keyboard-response","250","353114","0.0-13.0-2.47","2d_cat_multi_stim_exp1","2022-4-4","12:18:51","25","75","3","9","10","40","30","120","9","21","[""Black or African-American""]","Yes","Male","2065105","871","","u","learn","","learn_trial","25","75","in","1","1","","","","","","","","","","","","","","","","","","","","",""
"","","","","","canvas-keyboard-response","251","353623","0.0-13.0-3.47","2d_cat_multi_stim_exp1","2022-4-4","12:18:51","25","75","3","9","10","40","30","120","9","21","[""Black or African-American""]","Yes","Male","2065105","null","","null","learn_feedback","","learn_feedback","25","75","in","","","","","","","","","","","","","","","","","","","","","","",""
"","","","","","canvas-keyboard-response","252","353686","0.0-13.0-4.47","2d_cat_multi_stim_exp1","2022-4-4","12:18:51","25","75","3","9","10","40","30","120","9","21","[""Black or African-American""]","Yes","Male","2065105","null","","null","","","clear_screen","","","","","","","","","","","","","","","","","","","","","","","","","",""
"","","","","","canvas-keyboard-response","253","354196","0.0-13.0-0.48","2d_cat_multi_stim_exp1","2022-4-4","12:18:51","25","75","3","9","10","40","30","120","9","21","[""Black or African-American""]","Yes","Male","2065105","null","","null","","","fixation","","","","","","","","","","","","","","","","","","","","","","","","","",""
"","","","","","canvas-keyboard-response","254","354707","0.0-13.0-1.48","2d_cat_multi_stim_exp1","2022-4-4","12:18:51","25","75","3","9","10","40","30","120","9","21","[""Black or African-American""]","Yes","Male","2065105","null","","null","","","clear_screen","","","","","","","","","","","","","","","","","","","","","","","","","",""
"","","","","","canvas-keyboard-response","255","355963","0.0-13.0-2.48","2d_cat_multi_stim_exp1","2022-4-4","12:18:51","25","75","3","9","10","40","30","120","9","21","[""Black or African-American""]","Yes","Male","2065105","1245","","i","learn","","learn_trial","25","75","in","0","0","","","","","","","","","","","","","","","","","","","","",""
"","","","","","canvas-keyboard-response","256","356974","0.0-13.0-3.48","2d_cat_multi_stim_exp1","2022-4-4","12:18:51","25","75","3","9","10","40","30","120","9","21","[""Black or African-American""]","Yes","Male","2065105","null","","null","learn_feedback","","learn_feedback","25","75","in","","","","","","","","","","","","","","","","","","","","","","",""
"","","","","","canvas-keyboard-response","257","357038","0.0-13.0-4.48","2d_cat_multi_stim_exp1","2022-4-4","12:18:51","25","75","3","9","10","40","30","120","9","21","[""Black or African-American""]","Yes","Male","2065105","null","","null","","","clear_screen","","","","","","","","","","","","","","","","","","","","","","","","","",""
"","","","","","canvas-keyboard-response","258","357549","0.0-13.0-0.49","2d_cat_multi_stim_exp1","2022-4-4","12:18:51","25","75","3","9","10","40","30","120","9","21","[""Black or African-American""]","Yes","Male","2065105","null","","null","","","fixation","","","","","","","","","","","","","","","","","","","","","","","","","",""
"","","","","","canvas-keyboard-response","259","358065","0.0-13.0-1.49","2d_cat_multi_stim_exp1","2022-4-4","12:18:51","25","75","3","9","10","40","30","120","9","21","[""Black or African-American""]","Yes","Male","2065105","null","","null","","","clear_screen","","","","","","","","","","","","","","","","","","","","","","","","","",""
"","","","","","canvas-keyboard-response","260","359969","0.0-13.0-2.49","2d_cat_multi_stim_exp1","2022-4-4","12:18:51","25","75","3","9","10","40","30","120","9","21","[""Black or African-American""]","Yes","Male","2065105","1897","","i","learn","","learn_trial","23.3333","100","out","0","1","","","","","","","","","","","","","","","","","","","","",""
"","","","","","canvas-keyboard-response","261","360482","0.0-13.0-3.49","2d_cat_multi_stim_exp1","2022-4-4","12:18:51","25","75","3","9","10","40","30","120","9","21","[""Black or African-American""]","Yes","Male","2065105","null","","null","learn_feedback","","learn_feedback","23.3333","100","out","","","","","","","","","","","","","","","","","","","","","","",""
"","","","","","canvas-keyboard-response","262","360541","0.0-13.0-4.49","2d_cat_multi_stim_exp1","2022-4-4","12:18:51","25","75","3","9","10","40","30","120","9","21","[""Black or African-American""]","Yes","Male","2065105","null","","null","","","clear_screen","","","","","","","","","","","","","","","","","","","","","","","","","",""
"","","","","","canvas-keyboard-response","263","361050","0.0-13.0-0.50","2d_cat_multi_stim_exp1","2022-4-4","12:18:51","25","75","3","9","10","40","30","120","9","21","[""Black or African-American""]","Yes","Male","2065105","null","","null","","","fixation","","","","","","","","","","","","","","","","","","","","","","","","","",""
"","","","","","canvas-keyboard-response","264","361563","0.0-13.0-1.50","2d_cat_multi_stim_exp1","2022-4-4","12:18:51","25","75","3","9","10","40","30","120","9","21","[""Black or African-American""]","Yes","Male","2065105","null","","null","","","clear_screen","","","","","","","","","","","","","","","","","","","","","","","","","",""
"","","","","","canvas-keyboard-response","265","363410","0.0-13.0-2.50","2d_cat_multi_stim_exp1","2022-4-4","12:18:51","25","75","3","9","10","40","30","120","9","21","[""Black or African-American""]","Yes","Male","2065105","1836","","u","learn","","learn_trial","26.6667","90","out","1","0","","","","","","","","","","","","","","","","","","","","",""
"","","","","","canvas-keyboard-response","266","364422","0.0-13.0-3.50","2d_cat_multi_stim_exp1","2022-4-4","12:18:51","25","75","3","9","10","40","30","120","9","21","[""Black or African-American""]","Yes","Male","2065105","null","","null","learn_feedback","","learn_feedback","26.6667","90","out","","","","","","","","","","","","","","","","","","","","","","",""
"","","","","","canvas-keyboard-response","267","364484","0.0-13.0-4.50","2d_cat_multi_stim_exp1","2022-4-4","12:18:51","25","75","3","9","10","40","30","120","9","21","[""Black or African-American""]","Yes","Male","2065105","null","","null","","","clear_screen","","","","","","","","","","","","","","","","","","","","","","","","","",""
"","","","","","canvas-keyboard-response","268","364994","0.0-13.0-0.51","2d_cat_multi_stim_exp1","2022-4-4","12:18:51","25","75","3","9","10","40","30","120","9","21","[""Black or African-American""]","Yes","Male","2065105","null","","null","","","fixation","","","","","","","","","","","","","","","","","","","","","","","","","",""
"","","","","","canvas-keyboard-response","269","365505","0.0-13.0-1.51","2d_cat_multi_stim_exp1","2022-4-4","12:18:51","25","75","3","9","10","40","30","120","9","21","[""Black or African-American""]","Yes","Male","2065105","null","","null","","","clear_screen","","","","","","","","","","","","","","","","","","","","","","","","","",""
"","","","","","canvas-keyboard-response","270","366474","0.0-13.0-2.51","2d_cat_multi_stim_exp1","2022-4-4","12:18:51","25","75","3","9","10","40","30","120","9","21","[""Black or African-American""]","Yes","Male","2065105","959","","i","learn","","learn_trial","10","30","out","0","1","","","","","","","","","","","","","","","","","","","","",""
"","","","","","canvas-keyboard-response","271","366983","0.0-13.0-3.51","2d_cat_multi_stim_exp1","2022-4-4","12:18:51","25","75","3","9","10","40","30","120","9","21","[""Black or African-American""]","Yes","Male","2065105","null","","null","learn_feedback","","learn_feedback","10","30","out","","","","","","","","","","","","","","","","","","","","","","",""
"","","","","","canvas-keyboard-response","272","367042","0.0-13.0-4.51","2d_cat_multi_stim_exp1","2022-4-4","12:18:51","25","75","3","9","10","40","30","120","9","21","[""Black or African-American""]","Yes","Male","2065105","null","","null","","","clear_screen","","","","","","","","","","","","","","","","","","","","","","","","","",""
"","","","","","canvas-keyboard-response","273","367550","0.0-13.0-0.52","2d_cat_multi_stim_exp1","2022-4-4","12:18:51","25","75","3","9","10","40","30","120","9","21","[""Black or African-American""]","Yes","Male","2065105","null","","null","","","fixation","","","","","","","","","","","","","","","","","","","","","","","","","",""
"","","","","","canvas-keyboard-response","274","368061","0.0-13.0-1.52","2d_cat_multi_stim_exp1","2022-4-4","12:18:51","25","75","3","9","10","40","30","120","9","21","[""Black or African-American""]","Yes","Male","2065105","null","","null","","","clear_screen","","","","","","","","","","","","","","","","","","","","","","","","","",""
"","","","","","canvas-keyboard-response","275","369386","0.0-13.0-2.52","2d_cat_multi_stim_exp1","2022-4-4","12:18:51","25","75","3","9","10","40","30","120","9","21","[""Black or African-American""]","Yes","Male","2065105","1316","","u","learn","","learn_trial","25","75","in","1","1","","","","","","","","","","","","","","","","","","","","",""
"","","","","","canvas-keyboard-response","276","369896","0.0-13.0-3.52","2d_cat_multi_stim_exp1","2022-4-4","12:18:51","25","75","3","9","10","40","30","120","9","21","[""Black or African-American""]","Yes","Male","2065105","null","","null","learn_feedback","","learn_feedback","25","75","in","","","","","","","","","","","","","","","","","","","","","","",""
"","","","","","canvas-keyboard-response","277","369956","0.0-13.0-4.52","2d_cat_multi_stim_exp1","2022-4-4","12:18:51","25","75","3","9","10","40","30","120","9","21","[""Black or African-American""]","Yes","Male","2065105","null","","null","","","clear_screen","","","","","","","","","","","","","","","","","","","","","","","","","",""
"","","","","","canvas-keyboard-response","278","370465","0.0-13.0-0.53","2d_cat_multi_stim_exp1","2022-4-4","12:18:51","25","75","3","9","10","40","30","120","9","21","[""Black or African-American""]","Yes","Male","2065105","null","","null","","","fixation","","","","","","","","","","","","","","","","","","","","","","","","","",""
"","","","","","canvas-keyboard-response","279","370979","0.0-13.0-1.53","2d_cat_multi_stim_exp1","2022-4-4","12:18:51","25","75","3","9","10","40","30","120","9","21","[""Black or African-American""]","Yes","Male","2065105","null","","null","","","clear_screen","","","","","","","","","","","","","","","","","","","","","","","","","",""
"","","","","","canvas-keyboard-response","280","371689","0.0-13.0-2.53","2d_cat_multi_stim_exp1","2022-4-4","12:18:51","25","75","3","9","10","40","30","120","9","21","[""Black or African-American""]","Yes","Male","2065105","701","","i","learn","","learn_trial","10","50","out","0","1","","","","","","","","","","","","","","","","","","","","",""
"","","","","","canvas-keyboard-response","281","372199","0.0-13.0-3.53","2d_cat_multi_stim_exp1","2022-4-4","12:18:51","25","75","3","9","10","40","30","120","9","21","[""Black or African-American""]","Yes","Male","2065105","null","","null","learn_feedback","","learn_feedback","10","50","out","","","","","","","","","","","","","","","","","","","","","","",""
