"success","timeout","failed_images","failed_audio","failed_video","trial_type","trial_index","time_elapsed","internal_node_id","exp_name","date","time","angle_mean_in","radius_mean_in","angle_sd_in","radius_sd_in","angle_min_out","angle_max_out","radius_min_out","radius_max_out","sub_n","age","race","ethnicity","gender","exp_duration","rt","response","exp_trial_type","stimulus","view_history","screen_id","angle","radius","distribution","choice","correct","order","angle_a","radius_a","angle_b","radius_b","jkl_correct","transfer_trial_type","choice_set","abc_correct","tc_correct","tc_angle","tdc_a","tdc_b","tdc_c","pair","category_a","category_b","category_c","angle_c","radius_c","question_order"
"true","false","[]","[]","[]","preload","0","64","0.0-0.0","2d_cat_multi_stim_exp1","2022-4-11","11:34:31","25","75","3","9","10","40","30","120","27","19","[""White""]","No","Female","1727795","","","","","","","","","","","","","","","","","","","","","","","","","","","","","","","",""
"","","","","","survey-html-form","1","4357","0.0-1.0","2d_cat_multi_stim_exp1","2022-4-11","11:34:31","25","75","3","9","10","40","30","120","27","19","[""White""]","No","Female","1727795","4273","{""response"":""27""}","enter-sub-number","","","","","","","","","","","","","","","","","","","","","","","","","","","","",""
"true","","","","","fullscreen","2","22720","0.0-2.0","2d_cat_multi_stim_exp1","2022-4-11","11:34:31","25","75","3","9","10","40","30","120","27","19","[""White""]","No","Female","1727795","","","","","","","","","","","","","","","","","","","","","","","","","","","","","","","",""
"","","","","","image-button-response","3","75232","0.0-3.0","2d_cat_multi_stim_exp1","2022-4-11","11:34:31","25","75","3","9","10","40","30","120","27","19","[""White""]","No","Female","1727795","52505","0","","consent.png","","","","","","","","","","","","","","","","","","","","","","","","","","","",""
"","","","","","html-button-response","4","82671","0.0-4.0","2d_cat_multi_stim_exp1","2022-4-11","11:34:31","25","75","3","9","10","40","30","120","27","19","[""White""]","No","Female","1727795","7433","0","","<div style= ""font-size:25px;"" <p> <strong> Welcome to the experiment! </strong><br> <p style=""color:#8B0000; font-size:25px;""><strong> Please do NOT exit full screen until you are done with the experiment. </strong> </p><p style=""font-size:25px;color:#8B0000;""> <strong> The experiment will be canceled and your data will be lost <br> if you try to go back or refresh the page at any point during the experiment.</strong> </p><br><p> <strong> Thanks in advance for your contribution to our research! </strong></p>","","","","","","","","","","","","","","","","","","","","","","","","","","","",""
"","","","","","instructions","5","142039","0.0-5.0","2d_cat_multi_stim_exp1","2022-4-11","11:34:31","25","75","3","9","10","40","30","120","27","19","[""White""]","No","Female","1727795","59364","","","","[{""page_index"":0,""viewing_time"":6539},{""page_index"":1,""viewing_time"":3729},{""page_index"":2,""viewing_time"":15847},{""page_index"":3,""viewing_time"":33249}]","instructions_1","","","","","","","","","","","","","","","","","","","","","","","","","",""
"","","","","","instructions","6","144583","0.0-6.0","2d_cat_multi_stim_exp1","2022-4-11","11:34:31","25","75","3","9","10","40","30","120","27","19","[""White""]","No","Female","1727795","2541","","","","[{""page_index"":0,""viewing_time"":2540}]","Click to see the kinds of turtles that will appear in the study.","","","","","","","","","","","","","","","","","","","","","","","","","",""
"","","","","","canvas-keyboard-response","7","159605","0.0-7.0","2d_cat_multi_stim_exp1","2022-4-11","11:34:31","25","75","3","9","10","40","30","120","27","19","[""White""]","No","Female","1727795","null","null","","","","demo_range","","","","","","","","","","","","","","","","","","","","","","","","","",""
"","","","","","instructions","8","162743","0.0-8.0","2d_cat_multi_stim_exp1","2022-4-11","11:34:31","25","75","3","9","10","40","30","120","27","19","[""White""]","No","Female","1727795","2636","","","","[{""page_index"":0,""viewing_time"":2636}]","Click to see some turtles in the subspecies.","","","","","","","","","","","","","","","","","","","","","","","","","",""
"","","","","","canvas-keyboard-response","9","177764","0.0-9.0","2d_cat_multi_stim_exp1","2022-4-11","11:34:31","25","75","3","9","10","40","30","120","27","19","[""White""]","No","Female","1727795","null","null","","","","demo_in","","","","","","","","","","","","","","","","","","","","","","","","","",""
"","","","","","instructions","10","218838","0.0-10.0","2d_cat_multi_stim_exp1","2022-4-11","11:34:31","25","75","3","9","10","40","30","120","27","19","[""White""]","No","Female","1727795","40573","","","","[{""page_index"":0,""viewing_time"":9269},{""page_index"":1,""viewing_time"":22224},{""page_index"":2,""viewing_time"":9080}]","instructions_2","","","","","","","","","","","","","","","","","","","","","","","","","",""
"","","","","","instructions","11","220806","0.0-11.0","2d_cat_multi_stim_exp1","2022-4-11","11:34:31","25","75","3","9","10","40","30","120","27","19","[""White""]","No","Female","1727795","1965","","","","[{""page_index"":0,""viewing_time"":1965}]","Click to begin the first phase of the experiment.","","","","","","","","","","","","","","","","","","","","","","","","","",""
"","","","","","canvas-keyboard-response","12","221318","0.0-12.0-0.0","2d_cat_multi_stim_exp1","2022-4-11","11:34:31","25","75","3","9","10","40","30","120","27","19","[""White""]","No","Female","1727795","null","null","","","","fixation","","","","","","","","","","","","","","","","","","","","","","","","","",""
"","","","","","canvas-keyboard-response","13","221827","0.0-12.0-1.0","2d_cat_multi_stim_exp1","2022-4-11","11:34:31","25","75","3","9","10","40","30","120","27","19","[""White""]","No","Female","1727795","null","null","","","","clear_screen","","","","","","","","","","","","","","","","","","","","","","","","","",""
"","","","","","canvas-keyboard-response","14","225943","0.0-12.0-2.0","2d_cat_multi_stim_exp1","2022-4-11","11:34:31","25","75","3","9","10","40","30","120","27","19","[""White""]","No","Female","1727795","4104","i","learn","","","learn_trial","33.3333","80","out","0","1","","","","","","","","","","","","","","","","","","","","",""
"","","","","","canvas-keyboard-response","15","226455","0.0-12.0-3.0","2d_cat_multi_stim_exp1","2022-4-11","11:34:31","25","75","3","9","10","40","30","120","27","19","[""White""]","No","Female","1727795","null","null","learn_feedback","","","learn_feedback","33.3333","80","out","","","","","","","","","","","","","","","","","","","","","","",""
"","","","","","canvas-keyboard-response","16","226512","0.0-12.0-4.0","2d_cat_multi_stim_exp1","2022-4-11","11:34:31","25","75","3","9","10","40","30","120","27","19","[""White""]","No","Female","1727795","null","null","","","","clear_screen","","","","","","","","","","","","","","","","","","","","","","","","","",""
"","","","","","canvas-keyboard-response","17","227021","0.0-12.0-0.1","2d_cat_multi_stim_exp1","2022-4-11","11:34:31","25","75","3","9","10","40","30","120","27","19","[""White""]","No","Female","1727795","null","null","","","","fixation","","","","","","","","","","","","","","","","","","","","","","","","","",""
"","","","","","canvas-keyboard-response","18","227530","0.0-12.0-1.1","2d_cat_multi_stim_exp1","2022-4-11","11:34:31","25","75","3","9","10","40","30","120","27","19","[""White""]","No","Female","1727795","null","null","","","","clear_screen","","","","","","","","","","","","","","","","","","","","","","","","","",""
"","","","","","canvas-keyboard-response","19","228886","0.0-12.0-2.1","2d_cat_multi_stim_exp1","2022-4-11","11:34:31","25","75","3","9","10","40","30","120","27","19","[""White""]","No","Female","1727795","1347","u","learn","","","learn_trial","30","40","out","1","0","","","","","","","","","","","","","","","","","","","","",""
"","","","","","canvas-keyboard-response","20","229897","0.0-12.0-3.1","2d_cat_multi_stim_exp1","2022-4-11","11:34:31","25","75","3","9","10","40","30","120","27","19","[""White""]","No","Female","1727795","null","null","learn_feedback","","","learn_feedback","30","40","out","","","","","","","","","","","","","","","","","","","","","","",""
"","","","","","canvas-keyboard-response","21","229954","0.0-12.0-4.1","2d_cat_multi_stim_exp1","2022-4-11","11:34:31","25","75","3","9","10","40","30","120","27","19","[""White""]","No","Female","1727795","null","null","","","","clear_screen","","","","","","","","","","","","","","","","","","","","","","","","","",""
"","","","","","canvas-keyboard-response","22","230463","0.0-12.0-0.2","2d_cat_multi_stim_exp1","2022-4-11","11:34:31","25","75","3","9","10","40","30","120","27","19","[""White""]","No","Female","1727795","null","null","","","","fixation","","","","","","","","","","","","","","","","","","","","","","","","","",""
"","","","","","canvas-keyboard-response","23","230971","0.0-12.0-1.2","2d_cat_multi_stim_exp1","2022-4-11","11:34:31","25","75","3","9","10","40","30","120","27","19","[""White""]","No","Female","1727795","null","null","","","","clear_screen","","","","","","","","","","","","","","","","","","","","","","","","","",""
"","","","","","canvas-keyboard-response","24","232766","0.0-12.0-2.2","2d_cat_multi_stim_exp1","2022-4-11","11:34:31","25","75","3","9","10","40","30","120","27","19","[""White""]","No","Female","1727795","1786","i","learn","","","learn_trial","13.3333","30","out","0","1","","","","","","","","","","","","","","","","","","","","",""
"","","","","","canvas-keyboard-response","25","233275","0.0-12.0-3.2","2d_cat_multi_stim_exp1","2022-4-11","11:34:31","25","75","3","9","10","40","30","120","27","19","[""White""]","No","Female","1727795","null","null","learn_feedback","","","learn_feedback","13.3333","30","out","","","","","","","","","","","","","","","","","","","","","","",""
"","","","","","canvas-keyboard-response","26","233337","0.0-12.0-4.2","2d_cat_multi_stim_exp1","2022-4-11","11:34:31","25","75","3","9","10","40","30","120","27","19","[""White""]","No","Female","1727795","null","null","","","","clear_screen","","","","","","","","","","","","","","","","","","","","","","","","","",""
"","","","","","canvas-keyboard-response","27","233846","0.0-12.0-0.3","2d_cat_multi_stim_exp1","2022-4-11","11:34:31","25","75","3","9","10","40","30","120","27","19","[""White""]","No","Female","1727795","null","null","","","","fixation","","","","","","","","","","","","","","","","","","","","","","","","","",""
"","","","","","canvas-keyboard-response","28","234355","0.0-12.0-1.3","2d_cat_multi_stim_exp1","2022-4-11","11:34:31","25","75","3","9","10","40","30","120","27","19","[""White""]","No","Female","1727795","null","null","","","","clear_screen","","","","","","","","","","","","","","","","","","","","","","","","","",""
"","","","","","canvas-keyboard-response","29","236463","0.0-12.0-2.3","2d_cat_multi_stim_exp1","2022-4-11","11:34:31","25","75","3","9","10","40","30","120","27","19","[""White""]","No","Female","1727795","2094","i","learn","","","learn_trial","23.3333","90","out","0","1","","","","","","","","","","","","","","","","","","","","",""
"","","","","","canvas-keyboard-response","30","236972","0.0-12.0-3.3","2d_cat_multi_stim_exp1","2022-4-11","11:34:31","25","75","3","9","10","40","30","120","27","19","[""White""]","No","Female","1727795","null","null","learn_feedback","","","learn_feedback","23.3333","90","out","","","","","","","","","","","","","","","","","","","","","","",""
"","","","","","canvas-keyboard-response","31","237030","0.0-12.0-4.3","2d_cat_multi_stim_exp1","2022-4-11","11:34:31","25","75","3","9","10","40","30","120","27","19","[""White""]","No","Female","1727795","null","null","","","","clear_screen","","","","","","","","","","","","","","","","","","","","","","","","","",""
"","","","","","canvas-keyboard-response","32","237539","0.0-12.0-0.4","2d_cat_multi_stim_exp1","2022-4-11","11:34:31","25","75","3","9","10","40","30","120","27","19","[""White""]","No","Female","1727795","null","null","","","","fixation","","","","","","","","","","","","","","","","","","","","","","","","","",""
"","","","","","canvas-keyboard-response","33","238047","0.0-12.0-1.4","2d_cat_multi_stim_exp1","2022-4-11","11:34:31","25","75","3","9","10","40","30","120","27","19","[""White""]","No","Female","1727795","null","null","","","","clear_screen","","","","","","","","","","","","","","","","","","","","","","","","","",""
"","","","","","canvas-keyboard-response","34","239726","0.0-12.0-2.4","2d_cat_multi_stim_exp1","2022-4-11","11:34:31","25","75","3","9","10","40","30","120","27","19","[""White""]","No","Female","1727795","1672","i","learn","","","learn_trial","16.6667","100","out","0","1","","","","","","","","","","","","","","","","","","","","",""
"","","","","","canvas-keyboard-response","35","240236","0.0-12.0-3.4","2d_cat_multi_stim_exp1","2022-4-11","11:34:31","25","75","3","9","10","40","30","120","27","19","[""White""]","No","Female","1727795","null","null","learn_feedback","","","learn_feedback","16.6667","100","out","","","","","","","","","","","","","","","","","","","","","","",""
"","","","","","canvas-keyboard-response","36","240294","0.0-12.0-4.4","2d_cat_multi_stim_exp1","2022-4-11","11:34:31","25","75","3","9","10","40","30","120","27","19","[""White""]","No","Female","1727795","null","null","","","","clear_screen","","","","","","","","","","","","","","","","","","","","","","","","","",""
"","","","","","canvas-keyboard-response","37","240802","0.0-12.0-0.5","2d_cat_multi_stim_exp1","2022-4-11","11:34:31","25","75","3","9","10","40","30","120","27","19","[""White""]","No","Female","1727795","null","null","","","","fixation","","","","","","","","","","","","","","","","","","","","","","","","","",""
"","","","","","canvas-keyboard-response","38","241310","0.0-12.0-1.5","2d_cat_multi_stim_exp1","2022-4-11","11:34:31","25","75","3","9","10","40","30","120","27","19","[""White""]","No","Female","1727795","null","null","","","","clear_screen","","","","","","","","","","","","","","","","","","","","","","","","","",""
"","","","","","canvas-keyboard-response","39","242775","0.0-12.0-2.5","2d_cat_multi_stim_exp1","2022-4-11","11:34:31","25","75","3","9","10","40","30","120","27","19","[""White""]","No","Female","1727795","1455","i","learn","","","learn_trial","33.3333","120","out","0","1","","","","","","","","","","","","","","","","","","","","",""
"","","","","","canvas-keyboard-response","40","243283","0.0-12.0-3.5","2d_cat_multi_stim_exp1","2022-4-11","11:34:31","25","75","3","9","10","40","30","120","27","19","[""White""]","No","Female","1727795","null","null","learn_feedback","","","learn_feedback","33.3333","120","out","","","","","","","","","","","","","","","","","","","","","","",""
"","","","","","canvas-keyboard-response","41","243342","0.0-12.0-4.5","2d_cat_multi_stim_exp1","2022-4-11","11:34:31","25","75","3","9","10","40","30","120","27","19","[""White""]","No","Female","1727795","null","null","","","","clear_screen","","","","","","","","","","","","","","","","","","","","","","","","","",""
"","","","","","canvas-keyboard-response","42","243849","0.0-12.0-0.6","2d_cat_multi_stim_exp1","2022-4-11","11:34:31","25","75","3","9","10","40","30","120","27","19","[""White""]","No","Female","1727795","null","null","","","","fixation","","","","","","","","","","","","","","","","","","","","","","","","","",""
"","","","","","canvas-keyboard-response","43","244358","0.0-12.0-1.6","2d_cat_multi_stim_exp1","2022-4-11","11:34:31","25","75","3","9","10","40","30","120","27","19","[""White""]","No","Female","1727795","null","null","","","","clear_screen","","","","","","","","","","","","","","","","","","","","","","","","","",""
"","","","","","canvas-keyboard-response","44","245560","0.0-12.0-2.6","2d_cat_multi_stim_exp1","2022-4-11","11:34:31","25","75","3","9","10","40","30","120","27","19","[""White""]","No","Female","1727795","1191","u","learn","","","learn_trial","27.5753","70.3839","in","1","1","","","","","","","","","","","","","","","","","","","","",""
"","","","","","canvas-keyboard-response","45","246072","0.0-12.0-3.6","2d_cat_multi_stim_exp1","2022-4-11","11:34:31","25","75","3","9","10","40","30","120","27","19","[""White""]","No","Female","1727795","null","null","learn_feedback","","","learn_feedback","27.5753","70.3839","in","","","","","","","","","","","","","","","","","","","","","","",""
"","","","","","canvas-keyboard-response","46","246132","0.0-12.0-4.6","2d_cat_multi_stim_exp1","2022-4-11","11:34:31","25","75","3","9","10","40","30","120","27","19","[""White""]","No","Female","1727795","null","null","","","","clear_screen","","","","","","","","","","","","","","","","","","","","","","","","","",""
"","","","","","canvas-keyboard-response","47","246641","0.0-12.0-0.7","2d_cat_multi_stim_exp1","2022-4-11","11:34:31","25","75","3","9","10","40","30","120","27","19","[""White""]","No","Female","1727795","null","null","","","","fixation","","","","","","","","","","","","","","","","","","","","","","","","","",""
"","","","","","canvas-keyboard-response","48","247150","0.0-12.0-1.7","2d_cat_multi_stim_exp1","2022-4-11","11:34:31","25","75","3","9","10","40","30","120","27","19","[""White""]","No","Female","1727795","null","null","","","","clear_screen","","","","","","","","","","","","","","","","","","","","","","","","","",""
"","","","","","canvas-keyboard-response","49","248422","0.0-12.0-2.7","2d_cat_multi_stim_exp1","2022-4-11","11:34:31","25","75","3","9","10","40","30","120","27","19","[""White""]","No","Female","1727795","1262","i","learn","","","learn_trial","36.6667","100","out","0","1","","","","","","","","","","","","","","","","","","","","",""
"","","","","","canvas-keyboard-response","50","248932","0.0-12.0-3.7","2d_cat_multi_stim_exp1","2022-4-11","11:34:31","25","75","3","9","10","40","30","120","27","19","[""White""]","No","Female","1727795","null","null","learn_feedback","","","learn_feedback","36.6667","100","out","","","","","","","","","","","","","","","","","","","","","","",""
"","","","","","canvas-keyboard-response","51","248991","0.0-12.0-4.7","2d_cat_multi_stim_exp1","2022-4-11","11:34:31","25","75","3","9","10","40","30","120","27","19","[""White""]","No","Female","1727795","null","null","","","","clear_screen","","","","","","","","","","","","","","","","","","","","","","","","","",""
"","","","","","canvas-keyboard-response","52","249500","0.0-12.0-0.8","2d_cat_multi_stim_exp1","2022-4-11","11:34:31","25","75","3","9","10","40","30","120","27","19","[""White""]","No","Female","1727795","null","null","","","","fixation","","","","","","","","","","","","","","","","","","","","","","","","","",""
"","","","","","canvas-keyboard-response","53","250009","0.0-12.0-1.8","2d_cat_multi_stim_exp1","2022-4-11","11:34:31","25","75","3","9","10","40","30","120","27","19","[""White""]","No","Female","1727795","null","null","","","","clear_screen","","","","","","","","","","","","","","","","","","","","","","","","","",""
"","","","","","canvas-keyboard-response","54","250967","0.0-12.0-2.8","2d_cat_multi_stim_exp1","2022-4-11","11:34:31","25","75","3","9","10","40","30","120","27","19","[""White""]","No","Female","1727795","948","u","learn","","","learn_trial","20","90","out","1","0","","","","","","","","","","","","","","","","","","","","",""
"","","","","","canvas-keyboard-response","55","251977","0.0-12.0-3.8","2d_cat_multi_stim_exp1","2022-4-11","11:34:31","25","75","3","9","10","40","30","120","27","19","[""White""]","No","Female","1727795","null","null","learn_feedback","","","learn_feedback","20","90","out","","","","","","","","","","","","","","","","","","","","","","",""
"","","","","","canvas-keyboard-response","56","252036","0.0-12.0-4.8","2d_cat_multi_stim_exp1","2022-4-11","11:34:31","25","75","3","9","10","40","30","120","27","19","[""White""]","No","Female","1727795","null","null","","","","clear_screen","","","","","","","","","","","","","","","","","","","","","","","","","",""
"","","","","","canvas-keyboard-response","57","252545","0.0-12.0-0.9","2d_cat_multi_stim_exp1","2022-4-11","11:34:31","25","75","3","9","10","40","30","120","27","19","[""White""]","No","Female","1727795","null","null","","","","fixation","","","","","","","","","","","","","","","","","","","","","","","","","",""
"","","","","","canvas-keyboard-response","58","253053","0.0-12.0-1.9","2d_cat_multi_stim_exp1","2022-4-11","11:34:31","25","75","3","9","10","40","30","120","27","19","[""White""]","No","Female","1727795","null","null","","","","clear_screen","","","","","","","","","","","","","","","","","","","","","","","","","",""
"","","","","","canvas-keyboard-response","59","254095","0.0-12.0-2.9","2d_cat_multi_stim_exp1","2022-4-11","11:34:31","25","75","3","9","10","40","30","120","27","19","[""White""]","No","Female","1727795","1032","u","learn","","","learn_trial","25.4027","83.9185","in","1","1","","","","","","","","","","","","","","","","","","","","",""
"","","","","","canvas-keyboard-response","60","254607","0.0-12.0-3.9","2d_cat_multi_stim_exp1","2022-4-11","11:34:31","25","75","3","9","10","40","30","120","27","19","[""White""]","No","Female","1727795","null","null","learn_feedback","","","learn_feedback","25.4027","83.9185","in","","","","","","","","","","","","","","","","","","","","","","",""
"","","","","","canvas-keyboard-response","61","254665","0.0-12.0-4.9","2d_cat_multi_stim_exp1","2022-4-11","11:34:31","25","75","3","9","10","40","30","120","27","19","[""White""]","No","Female","1727795","null","null","","","","clear_screen","","","","","","","","","","","","","","","","","","","","","","","","","",""
"","","","","","canvas-keyboard-response","62","255173","0.0-12.0-0.10","2d_cat_multi_stim_exp1","2022-4-11","11:34:31","25","75","3","9","10","40","30","120","27","19","[""White""]","No","Female","1727795","null","null","","","","fixation","","","","","","","","","","","","","","","","","","","","","","","","","",""
"","","","","","canvas-keyboard-response","63","255682","0.0-12.0-1.10","2d_cat_multi_stim_exp1","2022-4-11","11:34:31","25","75","3","9","10","40","30","120","27","19","[""White""]","No","Female","1727795","null","null","","","","clear_screen","","","","","","","","","","","","","","","","","","","","","","","","","",""
"","","","","","canvas-keyboard-response","64","258199","0.0-12.0-2.10","2d_cat_multi_stim_exp1","2022-4-11","11:34:31","25","75","3","9","10","40","30","120","27","19","[""White""]","No","Female","1727795","2506","u","learn","","","learn_trial","20.7574","87.7279","in","1","1","","","","","","","","","","","","","","","","","","","","",""
"","","","","","canvas-keyboard-response","65","258708","0.0-12.0-3.10","2d_cat_multi_stim_exp1","2022-4-11","11:34:31","25","75","3","9","10","40","30","120","27","19","[""White""]","No","Female","1727795","null","null","learn_feedback","","","learn_feedback","20.7574","87.7279","in","","","","","","","","","","","","","","","","","","","","","","",""
"","","","","","canvas-keyboard-response","66","258766","0.0-12.0-4.10","2d_cat_multi_stim_exp1","2022-4-11","11:34:31","25","75","3","9","10","40","30","120","27","19","[""White""]","No","Female","1727795","null","null","","","","clear_screen","","","","","","","","","","","","","","","","","","","","","","","","","",""
"","","","","","canvas-keyboard-response","67","259274","0.0-12.0-0.11","2d_cat_multi_stim_exp1","2022-4-11","11:34:31","25","75","3","9","10","40","30","120","27","19","[""White""]","No","Female","1727795","null","null","","","","fixation","","","","","","","","","","","","","","","","","","","","","","","","","",""
"","","","","","canvas-keyboard-response","68","259783","0.0-12.0-1.11","2d_cat_multi_stim_exp1","2022-4-11","11:34:31","25","75","3","9","10","40","30","120","27","19","[""White""]","No","Female","1727795","null","null","","","","clear_screen","","","","","","","","","","","","","","","","","","","","","","","","","",""
"","","","","","canvas-keyboard-response","69","261094","0.0-12.0-2.11","2d_cat_multi_stim_exp1","2022-4-11","11:34:31","25","75","3","9","10","40","30","120","27","19","[""White""]","No","Female","1727795","1303","i","learn","","","learn_trial","25.4027","66.0815","in","0","0","","","","","","","","","","","","","","","","","","","","",""
"","","","","","canvas-keyboard-response","70","262103","0.0-12.0-3.11","2d_cat_multi_stim_exp1","2022-4-11","11:34:31","25","75","3","9","10","40","30","120","27","19","[""White""]","No","Female","1727795","null","null","learn_feedback","","","learn_feedback","25.4027","66.0815","in","","","","","","","","","","","","","","","","","","","","","","",""
"","","","","","canvas-keyboard-response","71","262161","0.0-12.0-4.11","2d_cat_multi_stim_exp1","2022-4-11","11:34:31","25","75","3","9","10","40","30","120","27","19","[""White""]","No","Female","1727795","null","null","","","","clear_screen","","","","","","","","","","","","","","","","","","","","","","","","","",""
"","","","","","canvas-keyboard-response","72","262669","0.0-12.0-0.12","2d_cat_multi_stim_exp1","2022-4-11","11:34:31","25","75","3","9","10","40","30","120","27","19","[""White""]","No","Female","1727795","null","null","","","","fixation","","","","","","","","","","","","","","","","","","","","","","","","","",""
"","","","","","canvas-keyboard-response","73","263177","0.0-12.0-1.12","2d_cat_multi_stim_exp1","2022-4-11","11:34:31","25","75","3","9","10","40","30","120","27","19","[""White""]","No","Female","1727795","null","null","","","","clear_screen","","","","","","","","","","","","","","","","","","","","","","","","","",""
"","","","","","canvas-keyboard-response","74","264237","0.0-12.0-2.12","2d_cat_multi_stim_exp1","2022-4-11","11:34:31","25","75","3","9","10","40","30","120","27","19","[""White""]","No","Female","1727795","1052","u","learn","","","learn_trial","25","75","in","1","1","","","","","","","","","","","","","","","","","","","","",""
"","","","","","canvas-keyboard-response","75","264750","0.0-12.0-3.12","2d_cat_multi_stim_exp1","2022-4-11","11:34:31","25","75","3","9","10","40","30","120","27","19","[""White""]","No","Female","1727795","null","null","learn_feedback","","","learn_feedback","25","75","in","","","","","","","","","","","","","","","","","","","","","","",""
"","","","","","canvas-keyboard-response","76","264808","0.0-12.0-4.12","2d_cat_multi_stim_exp1","2022-4-11","11:34:31","25","75","3","9","10","40","30","120","27","19","[""White""]","No","Female","1727795","null","null","","","","clear_screen","","","","","","","","","","","","","","","","","","","","","","","","","",""
"","","","","","canvas-keyboard-response","77","265316","0.0-12.0-0.13","2d_cat_multi_stim_exp1","2022-4-11","11:34:31","25","75","3","9","10","40","30","120","27","19","[""White""]","No","Female","1727795","null","null","","","","fixation","","","","","","","","","","","","","","","","","","","","","","","","","",""
"","","","","","canvas-keyboard-response","78","265824","0.0-12.0-1.13","2d_cat_multi_stim_exp1","2022-4-11","11:34:31","25","75","3","9","10","40","30","120","27","19","[""White""]","No","Female","1727795","null","null","","","","clear_screen","","","","","","","","","","","","","","","","","","","","","","","","","",""
"","","","","","canvas-keyboard-response","79","267574","0.0-12.0-2.13","2d_cat_multi_stim_exp1","2022-4-11","11:34:31","25","75","3","9","10","40","30","120","27","19","[""White""]","No","Female","1727795","1741","i","learn","","","learn_trial","30","70","out","0","1","","","","","","","","","","","","","","","","","","","","",""
"","","","","","canvas-keyboard-response","80","268083","0.0-12.0-3.13","2d_cat_multi_stim_exp1","2022-4-11","11:34:31","25","75","3","9","10","40","30","120","27","19","[""White""]","No","Female","1727795","null","null","learn_feedback","","","learn_feedback","30","70","out","","","","","","","","","","","","","","","","","","","","","","",""
"","","","","","canvas-keyboard-response","81","268142","0.0-12.0-4.13","2d_cat_multi_stim_exp1","2022-4-11","11:34:31","25","75","3","9","10","40","30","120","27","19","[""White""]","No","Female","1727795","null","null","","","","clear_screen","","","","","","","","","","","","","","","","","","","","","","","","","",""
"","","","","","canvas-keyboard-response","82","268649","0.0-12.0-0.14","2d_cat_multi_stim_exp1","2022-4-11","11:34:31","25","75","3","9","10","40","30","120","27","19","[""White""]","No","Female","1727795","null","null","","","","fixation","","","","","","","","","","","","","","","","","","","","","","","","","",""
"","","","","","canvas-keyboard-response","83","269158","0.0-12.0-1.14","2d_cat_multi_stim_exp1","2022-4-11","11:34:31","25","75","3","9","10","40","30","120","27","19","[""White""]","No","Female","1727795","null","null","","","","clear_screen","","","","","","","","","","","","","","","","","","","","","","","","","",""
"","","","","","canvas-keyboard-response","84","270534","0.0-12.0-2.14","2d_cat_multi_stim_exp1","2022-4-11","11:34:31","25","75","3","9","10","40","30","120","27","19","[""White""]","No","Female","1727795","1368","i","learn","","","learn_trial","28","75","in","0","0","","","","","","","","","","","","","","","","","","","","",""
"","","","","","canvas-keyboard-response","85","271542","0.0-12.0-3.14","2d_cat_multi_stim_exp1","2022-4-11","11:34:31","25","75","3","9","10","40","30","120","27","19","[""White""]","No","Female","1727795","null","null","learn_feedback","","","learn_feedback","28","75","in","","","","","","","","","","","","","","","","","","","","","","",""
"","","","","","canvas-keyboard-response","86","271600","0.0-12.0-4.14","2d_cat_multi_stim_exp1","2022-4-11","11:34:31","25","75","3","9","10","40","30","120","27","19","[""White""]","No","Female","1727795","null","null","","","","clear_screen","","","","","","","","","","","","","","","","","","","","","","","","","",""
"","","","","","canvas-keyboard-response","87","272109","0.0-12.0-0.15","2d_cat_multi_stim_exp1","2022-4-11","11:34:31","25","75","3","9","10","40","30","120","27","19","[""White""]","No","Female","1727795","null","null","","","","fixation","","","","","","","","","","","","","","","","","","","","","","","","","",""
"","","","","","canvas-keyboard-response","88","272617","0.0-12.0-1.15","2d_cat_multi_stim_exp1","2022-4-11","11:34:31","25","75","3","9","10","40","30","120","27","19","[""White""]","No","Female","1727795","null","null","","","","clear_screen","","","","","","","","","","","","","","","","","","","","","","","","","",""
"","","","","","canvas-keyboard-response","89","273517","0.0-12.0-2.15","2d_cat_multi_stim_exp1","2022-4-11","11:34:31","25","75","3","9","10","40","30","120","27","19","[""White""]","No","Female","1727795","893","i","learn","","","learn_trial","20","110","out","0","1","","","","","","","","","","","","","","","","","","","","",""
"","","","","","canvas-keyboard-response","90","274030","0.0-12.0-3.15","2d_cat_multi_stim_exp1","2022-4-11","11:34:31","25","75","3","9","10","40","30","120","27","19","[""White""]","No","Female","1727795","null","null","learn_feedback","","","learn_feedback","20","110","out","","","","","","","","","","","","","","","","","","","","","","",""
"","","","","","canvas-keyboard-response","91","274088","0.0-12.0-4.15","2d_cat_multi_stim_exp1","2022-4-11","11:34:31","25","75","3","9","10","40","30","120","27","19","[""White""]","No","Female","1727795","null","null","","","","clear_screen","","","","","","","","","","","","","","","","","","","","","","","","","",""
"","","","","","canvas-keyboard-response","92","274597","0.0-12.0-0.16","2d_cat_multi_stim_exp1","2022-4-11","11:34:31","25","75","3","9","10","40","30","120","27","19","[""White""]","No","Female","1727795","null","null","","","","fixation","","","","","","","","","","","","","","","","","","","","","","","","","",""
"","","","","","canvas-keyboard-response","93","275105","0.0-12.0-1.16","2d_cat_multi_stim_exp1","2022-4-11","11:34:31","25","75","3","9","10","40","30","120","27","19","[""White""]","No","Female","1727795","null","null","","","","clear_screen","","","","","","","","","","","","","","","","","","","","","","","","","",""
"","","","","","canvas-keyboard-response","94","275941","0.0-12.0-2.16","2d_cat_multi_stim_exp1","2022-4-11","11:34:31","25","75","3","9","10","40","30","120","27","19","[""White""]","No","Female","1727795","829","u","learn","","","learn_trial","27.9518","73.393","in","1","1","","","","","","","","","","","","","","","","","","","","",""
"","","","","","canvas-keyboard-response","95","276450","0.0-12.0-3.16","2d_cat_multi_stim_exp1","2022-4-11","11:34:31","25","75","3","9","10","40","30","120","27","19","[""White""]","No","Female","1727795","null","null","learn_feedback","","","learn_feedback","27.9518","73.393","in","","","","","","","","","","","","","","","","","","","","","","",""
"","","","","","canvas-keyboard-response","96","276508","0.0-12.0-4.16","2d_cat_multi_stim_exp1","2022-4-11","11:34:31","25","75","3","9","10","40","30","120","27","19","[""White""]","No","Female","1727795","null","null","","","","clear_screen","","","","","","","","","","","","","","","","","","","","","","","","","",""
"","","","","","canvas-keyboard-response","97","277016","0.0-12.0-0.17","2d_cat_multi_stim_exp1","2022-4-11","11:34:31","25","75","3","9","10","40","30","120","27","19","[""White""]","No","Female","1727795","null","null","","","","fixation","","","","","","","","","","","","","","","","","","","","","","","","","",""
"","","","","","canvas-keyboard-response","98","277525","0.0-12.0-1.17","2d_cat_multi_stim_exp1","2022-4-11","11:34:31","25","75","3","9","10","40","30","120","27","19","[""White""]","No","Female","1727795","null","null","","","","clear_screen","","","","","","","","","","","","","","","","","","","","","","","","","",""
"","","","","","canvas-keyboard-response","99","278558","0.0-12.0-2.17","2d_cat_multi_stim_exp1","2022-4-11","11:34:31","25","75","3","9","10","40","30","120","27","19","[""White""]","No","Female","1727795","1024","u","learn","","","learn_trial","20","70","out","1","0","","","","","","","","","","","","","","","","","","","","",""
"","","","","","canvas-keyboard-response","100","279567","0.0-12.0-3.17","2d_cat_multi_stim_exp1","2022-4-11","11:34:31","25","75","3","9","10","40","30","120","27","19","[""White""]","No","Female","1727795","null","null","learn_feedback","","","learn_feedback","20","70","out","","","","","","","","","","","","","","","","","","","","","","",""
"","","","","","canvas-keyboard-response","101","279625","0.0-12.0-4.17","2d_cat_multi_stim_exp1","2022-4-11","11:34:31","25","75","3","9","10","40","30","120","27","19","[""White""]","No","Female","1727795","null","null","","","","clear_screen","","","","","","","","","","","","","","","","","","","","","","","","","",""
"","","","","","canvas-keyboard-response","102","280133","0.0-12.0-0.18","2d_cat_multi_stim_exp1","2022-4-11","11:34:31","25","75","3","9","10","40","30","120","27","19","[""White""]","No","Female","1727795","null","null","","","","fixation","","","","","","","","","","","","","","","","","","","","","","","","","",""
"","","","","","canvas-keyboard-response","103","280641","0.0-12.0-1.18","2d_cat_multi_stim_exp1","2022-4-11","11:34:31","25","75","3","9","10","40","30","120","27","19","[""White""]","No","Female","1727795","null","null","","","","clear_screen","","","","","","","","","","","","","","","","","","","","","","","","","",""
"","","","","","canvas-keyboard-response","104","281901","0.0-12.0-2.18","2d_cat_multi_stim_exp1","2022-4-11","11:34:31","25","75","3","9","10","40","30","120","27","19","[""White""]","No","Female","1727795","1252","u","learn","","","learn_trial","23.3333","30","out","1","0","","","","","","","","","","","","","","","","","","","","",""
"","","","","","canvas-keyboard-response","105","282912","0.0-12.0-3.18","2d_cat_multi_stim_exp1","2022-4-11","11:34:31","25","75","3","9","10","40","30","120","27","19","[""White""]","No","Female","1727795","null","null","learn_feedback","","","learn_feedback","23.3333","30","out","","","","","","","","","","","","","","","","","","","","","","",""
"","","","","","canvas-keyboard-response","106","282973","0.0-12.0-4.18","2d_cat_multi_stim_exp1","2022-4-11","11:34:31","25","75","3","9","10","40","30","120","27","19","[""White""]","No","Female","1727795","null","null","","","","clear_screen","","","","","","","","","","","","","","","","","","","","","","","","","",""
"","","","","","canvas-keyboard-response","107","283483","0.0-12.0-0.19","2d_cat_multi_stim_exp1","2022-4-11","11:34:31","25","75","3","9","10","40","30","120","27","19","[""White""]","No","Female","1727795","null","null","","","","fixation","","","","","","","","","","","","","","","","","","","","","","","","","",""
"","","","","","canvas-keyboard-response","108","283993","0.0-12.0-1.19","2d_cat_multi_stim_exp1","2022-4-11","11:34:31","25","75","3","9","10","40","30","120","27","19","[""White""]","No","Female","1727795","null","null","","","","clear_screen","","","","","","","","","","","","","","","","","","","","","","","","","",""
"","","","","","canvas-keyboard-response","109","285686","0.0-12.0-2.19","2d_cat_multi_stim_exp1","2022-4-11","11:34:31","25","75","3","9","10","40","30","120","27","19","[""White""]","No","Female","1727795","1682","i","learn","","","learn_trial","36.6667","50","out","0","1","","","","","","","","","","","","","","","","","","","","",""
"","","","","","canvas-keyboard-response","110","286196","0.0-12.0-3.19","2d_cat_multi_stim_exp1","2022-4-11","11:34:31","25","75","3","9","10","40","30","120","27","19","[""White""]","No","Female","1727795","null","null","learn_feedback","","","learn_feedback","36.6667","50","out","","","","","","","","","","","","","","","","","","","","","","",""
"","","","","","canvas-keyboard-response","111","286254","0.0-12.0-4.19","2d_cat_multi_stim_exp1","2022-4-11","11:34:31","25","75","3","9","10","40","30","120","27","19","[""White""]","No","Female","1727795","null","null","","","","clear_screen","","","","","","","","","","","","","","","","","","","","","","","","","",""
"","","","","","canvas-keyboard-response","112","286763","0.0-12.0-0.20","2d_cat_multi_stim_exp1","2022-4-11","11:34:31","25","75","3","9","10","40","30","120","27","19","[""White""]","No","Female","1727795","null","null","","","","fixation","","","","","","","","","","","","","","","","","","","","","","","","","",""
"","","","","","canvas-keyboard-response","113","287272","0.0-12.0-1.20","2d_cat_multi_stim_exp1","2022-4-11","11:34:31","25","75","3","9","10","40","30","120","27","19","[""White""]","No","Female","1727795","null","null","","","","clear_screen","","","","","","","","","","","","","","","","","","","","","","","","","",""
"","","","","","canvas-keyboard-response","114","288631","0.0-12.0-2.20","2d_cat_multi_stim_exp1","2022-4-11","11:34:31","25","75","3","9","10","40","30","120","27","19","[""White""]","No","Female","1727795","1347","u","learn","","","learn_trial","16.6667","30","out","1","0","","","","","","","","","","","","","","","","","","","","",""
"","","","","","canvas-keyboard-response","115","289640","0.0-12.0-3.20","2d_cat_multi_stim_exp1","2022-4-11","11:34:31","25","75","3","9","10","40","30","120","27","19","[""White""]","No","Female","1727795","null","null","learn_feedback","","","learn_feedback","16.6667","30","out","","","","","","","","","","","","","","","","","","","","","","",""
"","","","","","canvas-keyboard-response","116","289698","0.0-12.0-4.20","2d_cat_multi_stim_exp1","2022-4-11","11:34:31","25","75","3","9","10","40","30","120","27","19","[""White""]","No","Female","1727795","null","null","","","","clear_screen","","","","","","","","","","","","","","","","","","","","","","","","","",""
"","","","","","canvas-keyboard-response","117","290207","0.0-12.0-0.21","2d_cat_multi_stim_exp1","2022-4-11","11:34:31","25","75","3","9","10","40","30","120","27","19","[""White""]","No","Female","1727795","null","null","","","","fixation","","","","","","","","","","","","","","","","","","","","","","","","","",""
"","","","","","canvas-keyboard-response","118","290717","0.0-12.0-1.21","2d_cat_multi_stim_exp1","2022-4-11","11:34:31","25","75","3","9","10","40","30","120","27","19","[""White""]","No","Female","1727795","null","null","","","","clear_screen","","","","","","","","","","","","","","","","","","","","","","","","","",""
"","","","","","canvas-keyboard-response","119","291726","0.0-12.0-2.21","2d_cat_multi_stim_exp1","2022-4-11","11:34:31","25","75","3","9","10","40","30","120","27","19","[""White""]","No","Female","1727795","1000","i","learn","","","learn_trial","36.6667","30","out","0","1","","","","","","","","","","","","","","","","","","","","",""
"","","","","","canvas-keyboard-response","120","292235","0.0-12.0-3.21","2d_cat_multi_stim_exp1","2022-4-11","11:34:31","25","75","3","9","10","40","30","120","27","19","[""White""]","No","Female","1727795","null","null","learn_feedback","","","learn_feedback","36.6667","30","out","","","","","","","","","","","","","","","","","","","","","","",""
"","","","","","canvas-keyboard-response","121","292294","0.0-12.0-4.21","2d_cat_multi_stim_exp1","2022-4-11","11:34:31","25","75","3","9","10","40","30","120","27","19","[""White""]","No","Female","1727795","null","null","","","","clear_screen","","","","","","","","","","","","","","","","","","","","","","","","","",""
"","","","","","canvas-keyboard-response","122","292801","0.0-12.0-0.22","2d_cat_multi_stim_exp1","2022-4-11","11:34:31","25","75","3","9","10","40","30","120","27","19","[""White""]","No","Female","1727795","null","null","","","","fixation","","","","","","","","","","","","","","","","","","","","","","","","","",""
"","","","","","canvas-keyboard-response","123","293310","0.0-12.0-1.22","2d_cat_multi_stim_exp1","2022-4-11","11:34:31","25","75","3","9","10","40","30","120","27","19","[""White""]","No","Female","1727795","null","null","","","","clear_screen","","","","","","","","","","","","","","","","","","","","","","","","","",""
"","","","","","canvas-keyboard-response","124","294678","0.0-12.0-2.22","2d_cat_multi_stim_exp1","2022-4-11","11:34:31","25","75","3","9","10","40","30","120","27","19","[""White""]","No","Female","1727795","1360","u","learn","","","learn_trial","26.6667","110","out","1","0","","","","","","","","","","","","","","","","","","","","",""
"","","","","","canvas-keyboard-response","125","295688","0.0-12.0-3.22","2d_cat_multi_stim_exp1","2022-4-11","11:34:31","25","75","3","9","10","40","30","120","27","19","[""White""]","No","Female","1727795","null","null","learn_feedback","","","learn_feedback","26.6667","110","out","","","","","","","","","","","","","","","","","","","","","","",""
"","","","","","canvas-keyboard-response","126","295745","0.0-12.0-4.22","2d_cat_multi_stim_exp1","2022-4-11","11:34:31","25","75","3","9","10","40","30","120","27","19","[""White""]","No","Female","1727795","null","null","","","","clear_screen","","","","","","","","","","","","","","","","","","","","","","","","","",""
"","","","","","canvas-keyboard-response","127","296253","0.0-12.0-0.23","2d_cat_multi_stim_exp1","2022-4-11","11:34:31","25","75","3","9","10","40","30","120","27","19","[""White""]","No","Female","1727795","null","null","","","","fixation","","","","","","","","","","","","","","","","","","","","","","","","","",""
"","","","","","canvas-keyboard-response","128","296761","0.0-12.0-1.23","2d_cat_multi_stim_exp1","2022-4-11","11:34:31","25","75","3","9","10","40","30","120","27","19","[""White""]","No","Female","1727795","null","null","","","","clear_screen","","","","","","","","","","","","","","","","","","","","","","","","","",""
"","","","","","canvas-keyboard-response","129","297750","0.0-12.0-2.23","2d_cat_multi_stim_exp1","2022-4-11","11:34:31","25","75","3","9","10","40","30","120","27","19","[""White""]","No","Female","1727795","979","i","learn","","","learn_trial","33.3333","70","out","0","1","","","","","","","","","","","","","","","","","","","","",""
"","","","","","canvas-keyboard-response","130","298259","0.0-12.0-3.23","2d_cat_multi_stim_exp1","2022-4-11","11:34:31","25","75","3","9","10","40","30","120","27","19","[""White""]","No","Female","1727795","null","null","learn_feedback","","","learn_feedback","33.3333","70","out","","","","","","","","","","","","","","","","","","","","","","",""
"","","","","","canvas-keyboard-response","131","298317","0.0-12.0-4.23","2d_cat_multi_stim_exp1","2022-4-11","11:34:31","25","75","3","9","10","40","30","120","27","19","[""White""]","No","Female","1727795","null","null","","","","clear_screen","","","","","","","","","","","","","","","","","","","","","","","","","",""
"","","","","","canvas-keyboard-response","132","298825","0.0-12.0-0.24","2d_cat_multi_stim_exp1","2022-4-11","11:34:31","25","75","3","9","10","40","30","120","27","19","[""White""]","No","Female","1727795","null","null","","","","fixation","","","","","","","","","","","","","","","","","","","","","","","","","",""
"","","","","","canvas-keyboard-response","133","299337","0.0-12.0-1.24","2d_cat_multi_stim_exp1","2022-4-11","11:34:31","25","75","3","9","10","40","30","120","27","19","[""White""]","No","Female","1727795","null","null","","","","clear_screen","","","","","","","","","","","","","","","","","","","","","","","","","",""
"","","","","","canvas-keyboard-response","134","300070","0.0-12.0-2.24","2d_cat_multi_stim_exp1","2022-4-11","11:34:31","25","75","3","9","10","40","30","120","27","19","[""White""]","No","Female","1727795","725","i","learn","","","learn_trial","25","75","in","0","0","","","","","","","","","","","","","","","","","","","","",""
"","","","","","canvas-keyboard-response","135","301080","0.0-12.0-3.24","2d_cat_multi_stim_exp1","2022-4-11","11:34:31","25","75","3","9","10","40","30","120","27","19","[""White""]","No","Female","1727795","null","null","learn_feedback","","","learn_feedback","25","75","in","","","","","","","","","","","","","","","","","","","","","","",""
"","","","","","canvas-keyboard-response","136","301137","0.0-12.0-4.24","2d_cat_multi_stim_exp1","2022-4-11","11:34:31","25","75","3","9","10","40","30","120","27","19","[""White""]","No","Female","1727795","null","null","","","","clear_screen","","","","","","","","","","","","","","","","","","","","","","","","","",""
"","","","","","canvas-keyboard-response","137","301646","0.0-12.0-0.25","2d_cat_multi_stim_exp1","2022-4-11","11:34:31","25","75","3","9","10","40","30","120","27","19","[""White""]","No","Female","1727795","null","null","","","","fixation","","","","","","","","","","","","","","","","","","","","","","","","","",""
"","","","","","canvas-keyboard-response","138","302154","0.0-12.0-1.25","2d_cat_multi_stim_exp1","2022-4-11","11:34:31","25","75","3","9","10","40","30","120","27","19","[""White""]","No","Female","1727795","null","null","","","","clear_screen","","","","","","","","","","","","","","","","","","","","","","","","","",""
"","","","","","canvas-keyboard-response","139","303086","0.0-12.0-2.25","2d_cat_multi_stim_exp1","2022-4-11","11:34:31","25","75","3","9","10","40","30","120","27","19","[""White""]","No","Female","1727795","923","i","learn","","","learn_trial","27.8087","78.1624","in","0","0","","","","","","","","","","","","","","","","","","","","",""
"","","","","","canvas-keyboard-response","140","304095","0.0-12.0-3.25","2d_cat_multi_stim_exp1","2022-4-11","11:34:31","25","75","3","9","10","40","30","120","27","19","[""White""]","No","Female","1727795","null","null","learn_feedback","","","learn_feedback","27.8087","78.1624","in","","","","","","","","","","","","","","","","","","","","","","",""
"","","","","","canvas-keyboard-response","141","304153","0.0-12.0-4.25","2d_cat_multi_stim_exp1","2022-4-11","11:34:31","25","75","3","9","10","40","30","120","27","19","[""White""]","No","Female","1727795","null","null","","","","clear_screen","","","","","","","","","","","","","","","","","","","","","","","","","",""
"","","","","","canvas-keyboard-response","142","304661","0.0-12.0-0.26","2d_cat_multi_stim_exp1","2022-4-11","11:34:31","25","75","3","9","10","40","30","120","27","19","[""White""]","No","Female","1727795","null","null","","","","fixation","","","","","","","","","","","","","","","","","","","","","","","","","",""
"","","","","","canvas-keyboard-response","143","305170","0.0-12.0-1.26","2d_cat_multi_stim_exp1","2022-4-11","11:34:31","25","75","3","9","10","40","30","120","27","19","[""White""]","No","Female","1727795","null","null","","","","clear_screen","","","","","","","","","","","","","","","","","","","","","","","","","",""
"","","","","","canvas-keyboard-response","144","306118","0.0-12.0-2.26","2d_cat_multi_stim_exp1","2022-4-11","11:34:31","25","75","3","9","10","40","30","120","27","19","[""White""]","No","Female","1727795","939","i","learn","","","learn_trial","20","120","out","0","1","","","","","","","","","","","","","","","","","","","","",""
"","","","","","canvas-keyboard-response","145","306627","0.0-12.0-3.26","2d_cat_multi_stim_exp1","2022-4-11","11:34:31","25","75","3","9","10","40","30","120","27","19","[""White""]","No","Female","1727795","null","null","learn_feedback","","","learn_feedback","20","120","out","","","","","","","","","","","","","","","","","","","","","","",""
"","","","","","canvas-keyboard-response","146","306684","0.0-12.0-4.26","2d_cat_multi_stim_exp1","2022-4-11","11:34:31","25","75","3","9","10","40","30","120","27","19","[""White""]","No","Female","1727795","null","null","","","","clear_screen","","","","","","","","","","","","","","","","","","","","","","","","","",""
"","","","","","canvas-keyboard-response","147","307193","0.0-12.0-0.27","2d_cat_multi_stim_exp1","2022-4-11","11:34:31","25","75","3","9","10","40","30","120","27","19","[""White""]","No","Female","1727795","null","null","","","","fixation","","","","","","","","","","","","","","","","","","","","","","","","","",""
"","","","","","canvas-keyboard-response","148","307702","0.0-12.0-1.27","2d_cat_multi_stim_exp1","2022-4-11","11:34:31","25","75","3","9","10","40","30","120","27","19","[""White""]","No","Female","1727795","null","null","","","","clear_screen","","","","","","","","","","","","","","","","","","","","","","","","","",""
"","","","","","canvas-keyboard-response","149","308694","0.0-12.0-2.27","2d_cat_multi_stim_exp1","2022-4-11","11:34:31","25","75","3","9","10","40","30","120","27","19","[""White""]","No","Female","1727795","983","i","learn","","","learn_trial","33.3333","110","out","0","1","","","","","","","","","","","","","","","","","","","","",""
"","","","","","canvas-keyboard-response","150","309203","0.0-12.0-3.27","2d_cat_multi_stim_exp1","2022-4-11","11:34:31","25","75","3","9","10","40","30","120","27","19","[""White""]","No","Female","1727795","null","null","learn_feedback","","","learn_feedback","33.3333","110","out","","","","","","","","","","","","","","","","","","","","","","",""
"","","","","","canvas-keyboard-response","151","309261","0.0-12.0-4.27","2d_cat_multi_stim_exp1","2022-4-11","11:34:31","25","75","3","9","10","40","30","120","27","19","[""White""]","No","Female","1727795","null","null","","","","clear_screen","","","","","","","","","","","","","","","","","","","","","","","","","",""
"","","","","","canvas-keyboard-response","152","309770","0.0-12.0-0.28","2d_cat_multi_stim_exp1","2022-4-11","11:34:31","25","75","3","9","10","40","30","120","27","19","[""White""]","No","Female","1727795","null","null","","","","fixation","","","","","","","","","","","","","","","","","","","","","","","","","",""
"","","","","","canvas-keyboard-response","153","310278","0.0-12.0-1.28","2d_cat_multi_stim_exp1","2022-4-11","11:34:31","25","75","3","9","10","40","30","120","27","19","[""White""]","No","Female","1727795","null","null","","","","clear_screen","","","","","","","","","","","","","","","","","","","","","","","","","",""
"","","","","","canvas-keyboard-response","154","311374","0.0-12.0-2.28","2d_cat_multi_stim_exp1","2022-4-11","11:34:31","25","75","3","9","10","40","30","120","27","19","[""White""]","No","Female","1727795","1088","i","learn","","","learn_trial","10","90","out","0","1","","","","","","","","","","","","","","","","","","","","",""
"","","","","","canvas-keyboard-response","155","311882","0.0-12.0-3.28","2d_cat_multi_stim_exp1","2022-4-11","11:34:31","25","75","3","9","10","40","30","120","27","19","[""White""]","No","Female","1727795","null","null","learn_feedback","","","learn_feedback","10","90","out","","","","","","","","","","","","","","","","","","","","","","",""
"","","","","","canvas-keyboard-response","156","311941","0.0-12.0-4.28","2d_cat_multi_stim_exp1","2022-4-11","11:34:31","25","75","3","9","10","40","30","120","27","19","[""White""]","No","Female","1727795","null","null","","","","clear_screen","","","","","","","","","","","","","","","","","","","","","","","","","",""
"","","","","","canvas-keyboard-response","157","312449","0.0-12.0-0.29","2d_cat_multi_stim_exp1","2022-4-11","11:34:31","25","75","3","9","10","40","30","120","27","19","[""White""]","No","Female","1727795","null","null","","","","fixation","","","","","","","","","","","","","","","","","","","","","","","","","",""
"","","","","","canvas-keyboard-response","158","312959","0.0-12.0-1.29","2d_cat_multi_stim_exp1","2022-4-11","11:34:31","25","75","3","9","10","40","30","120","27","19","[""White""]","No","Female","1727795","null","null","","","","clear_screen","","","","","","","","","","","","","","","","","","","","","","","","","",""
"","","","","","canvas-keyboard-response","159","313758","0.0-12.0-2.29","2d_cat_multi_stim_exp1","2022-4-11","11:34:31","25","75","3","9","10","40","30","120","27","19","[""White""]","No","Female","1727795","791","u","learn","","","learn_trial","26.6667","80","out","1","0","","","","","","","","","","","","","","","","","","","","",""
"","","","","","canvas-keyboard-response","160","314767","0.0-12.0-3.29","2d_cat_multi_stim_exp1","2022-4-11","11:34:31","25","75","3","9","10","40","30","120","27","19","[""White""]","No","Female","1727795","null","null","learn_feedback","","","learn_feedback","26.6667","80","out","","","","","","","","","","","","","","","","","","","","","","",""
"","","","","","canvas-keyboard-response","161","314826","0.0-12.0-4.29","2d_cat_multi_stim_exp1","2022-4-11","11:34:31","25","75","3","9","10","40","30","120","27","19","[""White""]","No","Female","1727795","null","null","","","","clear_screen","","","","","","","","","","","","","","","","","","","","","","","","","",""
"","","","","","canvas-keyboard-response","162","315333","0.0-12.0-0.30","2d_cat_multi_stim_exp1","2022-4-11","11:34:31","25","75","3","9","10","40","30","120","27","19","[""White""]","No","Female","1727795","null","null","","","","fixation","","","","","","","","","","","","","","","","","","","","","","","","","",""
"","","","","","canvas-keyboard-response","163","315842","0.0-12.0-1.30","2d_cat_multi_stim_exp1","2022-4-11","11:34:31","25","75","3","9","10","40","30","120","27","19","[""White""]","No","Female","1727795","null","null","","","","clear_screen","","","","","","","","","","","","","","","","","","","","","","","","","",""
"","","","","","canvas-keyboard-response","164","316774","0.0-12.0-2.30","2d_cat_multi_stim_exp1","2022-4-11","11:34:31","25","75","3","9","10","40","30","120","27","19","[""White""]","No","Female","1727795","923","u","learn","","","learn_trial","24.8654","66.0091","in","1","1","","","","","","","","","","","","","","","","","","","","",""
"","","","","","canvas-keyboard-response","165","317286","0.0-12.0-3.30","2d_cat_multi_stim_exp1","2022-4-11","11:34:31","25","75","3","9","10","40","30","120","27","19","[""White""]","No","Female","1727795","null","null","learn_feedback","","","learn_feedback","24.8654","66.0091","in","","","","","","","","","","","","","","","","","","","","","","",""
"","","","","","canvas-keyboard-response","166","317344","0.0-12.0-4.30","2d_cat_multi_stim_exp1","2022-4-11","11:34:31","25","75","3","9","10","40","30","120","27","19","[""White""]","No","Female","1727795","null","null","","","","clear_screen","","","","","","","","","","","","","","","","","","","","","","","","","",""
"","","","","","canvas-keyboard-response","167","317853","0.0-12.0-0.31","2d_cat_multi_stim_exp1","2022-4-11","11:34:31","25","75","3","9","10","40","30","120","27","19","[""White""]","No","Female","1727795","null","null","","","","fixation","","","","","","","","","","","","","","","","","","","","","","","","","",""
"","","","","","canvas-keyboard-response","168","318362","0.0-12.0-1.31","2d_cat_multi_stim_exp1","2022-4-11","11:34:31","25","75","3","9","10","40","30","120","27","19","[""White""]","No","Female","1727795","null","null","","","","clear_screen","","","","","","","","","","","","","","","","","","","","","","","","","",""
"","","","","","canvas-keyboard-response","169","319054","0.0-12.0-2.31","2d_cat_multi_stim_exp1","2022-4-11","11:34:31","25","75","3","9","10","40","30","120","27","19","[""White""]","No","Female","1727795","682","u","learn","","","learn_trial","25","75","in","1","1","","","","","","","","","","","","","","","","","","","","",""
"","","","","","canvas-keyboard-response","170","319564","0.0-12.0-3.31","2d_cat_multi_stim_exp1","2022-4-11","11:34:31","25","75","3","9","10","40","30","120","27","19","[""White""]","No","Female","1727795","null","null","learn_feedback","","","learn_feedback","25","75","in","","","","","","","","","","","","","","","","","","","","","","",""
"","","","","","canvas-keyboard-response","171","319622","0.0-12.0-4.31","2d_cat_multi_stim_exp1","2022-4-11","11:34:31","25","75","3","9","10","40","30","120","27","19","[""White""]","No","Female","1727795","null","null","","","","clear_screen","","","","","","","","","","","","","","","","","","","","","","","","","",""
"","","","","","canvas-keyboard-response","172","320130","0.0-12.0-0.32","2d_cat_multi_stim_exp1","2022-4-11","11:34:31","25","75","3","9","10","40","30","120","27","19","[""White""]","No","Female","1727795","null","null","","","","fixation","","","","","","","","","","","","","","","","","","","","","","","","","",""
"","","","","","canvas-keyboard-response","173","320639","0.0-12.0-1.32","2d_cat_multi_stim_exp1","2022-4-11","11:34:31","25","75","3","9","10","40","30","120","27","19","[""White""]","No","Female","1727795","null","null","","","","clear_screen","","","","","","","","","","","","","","","","","","","","","","","","","",""
"","","","","","canvas-keyboard-response","174","321645","0.0-12.0-2.32","2d_cat_multi_stim_exp1","2022-4-11","11:34:31","25","75","3","9","10","40","30","120","27","19","[""White""]","No","Female","1727795","999","u","learn","","","learn_trial","25","75","in","1","1","","","","","","","","","","","","","","","","","","","","",""
"","","","","","canvas-keyboard-response","175","322155","0.0-12.0-3.32","2d_cat_multi_stim_exp1","2022-4-11","11:34:31","25","75","3","9","10","40","30","120","27","19","[""White""]","No","Female","1727795","null","null","learn_feedback","","","learn_feedback","25","75","in","","","","","","","","","","","","","","","","","","","","","","",""
"","","","","","canvas-keyboard-response","176","322212","0.0-12.0-4.32","2d_cat_multi_stim_exp1","2022-4-11","11:34:31","25","75","3","9","10","40","30","120","27","19","[""White""]","No","Female","1727795","null","null","","","","clear_screen","","","","","","","","","","","","","","","","","","","","","","","","","",""
"","","","","","canvas-keyboard-response","177","322720","0.0-12.0-0.33","2d_cat_multi_stim_exp1","2022-4-11","11:34:31","25","75","3","9","10","40","30","120","27","19","[""White""]","No","Female","1727795","null","null","","","","fixation","","","","","","","","","","","","","","","","","","","","","","","","","",""
"","","","","","canvas-keyboard-response","178","323229","0.0-12.0-1.33","2d_cat_multi_stim_exp1","2022-4-11","11:34:31","25","75","3","9","10","40","30","120","27","19","[""White""]","No","Female","1727795","null","null","","","","clear_screen","","","","","","","","","","","","","","","","","","","","","","","","","",""
"","","","","","canvas-keyboard-response","179","323902","0.0-12.0-2.33","2d_cat_multi_stim_exp1","2022-4-11","11:34:31","25","75","3","9","10","40","30","120","27","19","[""White""]","No","Female","1727795","664","u","learn","","","learn_trial","25","75","in","1","1","","","","","","","","","","","","","","","","","","","","",""
"","","","","","canvas-keyboard-response","180","324412","0.0-12.0-3.33","2d_cat_multi_stim_exp1","2022-4-11","11:34:31","25","75","3","9","10","40","30","120","27","19","[""White""]","No","Female","1727795","null","null","learn_feedback","","","learn_feedback","25","75","in","","","","","","","","","","","","","","","","","","","","","","",""
"","","","","","canvas-keyboard-response","181","324473","0.0-12.0-4.33","2d_cat_multi_stim_exp1","2022-4-11","11:34:31","25","75","3","9","10","40","30","120","27","19","[""White""]","No","Female","1727795","null","null","","","","clear_screen","","","","","","","","","","","","","","","","","","","","","","","","","",""
"","","","","","canvas-keyboard-response","182","324983","0.0-12.0-0.34","2d_cat_multi_stim_exp1","2022-4-11","11:34:31","25","75","3","9","10","40","30","120","27","19","[""White""]","No","Female","1727795","null","null","","","","fixation","","","","","","","","","","","","","","","","","","","","","","","","","",""
"","","","","","canvas-keyboard-response","183","325494","0.0-12.0-1.34","2d_cat_multi_stim_exp1","2022-4-11","11:34:31","25","75","3","9","10","40","30","120","27","19","[""White""]","No","Female","1727795","null","null","","","","clear_screen","","","","","","","","","","","","","","","","","","","","","","","","","",""
"","","","","","canvas-keyboard-response","184","326670","0.0-12.0-2.34","2d_cat_multi_stim_exp1","2022-4-11","11:34:31","25","75","3","9","10","40","30","120","27","19","[""White""]","No","Female","1727795","1164","u","learn","","","learn_trial","25","75","in","1","1","","","","","","","","","","","","","","","","","","","","",""
"","","","","","canvas-keyboard-response","185","327180","0.0-12.0-3.34","2d_cat_multi_stim_exp1","2022-4-11","11:34:31","25","75","3","9","10","40","30","120","27","19","[""White""]","No","Female","1727795","null","null","learn_feedback","","","learn_feedback","25","75","in","","","","","","","","","","","","","","","","","","","","","","",""
"","","","","","canvas-keyboard-response","186","327238","0.0-12.0-4.34","2d_cat_multi_stim_exp1","2022-4-11","11:34:31","25","75","3","9","10","40","30","120","27","19","[""White""]","No","Female","1727795","null","null","","","","clear_screen","","","","","","","","","","","","","","","","","","","","","","","","","",""
"","","","","","canvas-keyboard-response","187","327747","0.0-12.0-0.35","2d_cat_multi_stim_exp1","2022-4-11","11:34:31","25","75","3","9","10","40","30","120","27","19","[""White""]","No","Female","1727795","null","null","","","","fixation","","","","","","","","","","","","","","","","","","","","","","","","","",""
"","","","","","canvas-keyboard-response","188","328256","0.0-12.0-1.35","2d_cat_multi_stim_exp1","2022-4-11","11:34:31","25","75","3","9","10","40","30","120","27","19","[""White""]","No","Female","1727795","null","null","","","","clear_screen","","","","","","","","","","","","","","","","","","","","","","","","","",""
"","","","","","canvas-keyboard-response","189","329167","0.0-12.0-2.35","2d_cat_multi_stim_exp1","2022-4-11","11:34:31","25","75","3","9","10","40","30","120","27","19","[""White""]","No","Female","1727795","900","i","learn","","","learn_trial","13.3333","80","out","0","1","","","","","","","","","","","","","","","","","","","","",""
"","","","","","canvas-keyboard-response","190","329676","0.0-12.0-3.35","2d_cat_multi_stim_exp1","2022-4-11","11:34:31","25","75","3","9","10","40","30","120","27","19","[""White""]","No","Female","1727795","null","null","learn_feedback","","","learn_feedback","13.3333","80","out","","","","","","","","","","","","","","","","","","","","","","",""
"","","","","","canvas-keyboard-response","191","329736","0.0-12.0-4.35","2d_cat_multi_stim_exp1","2022-4-11","11:34:31","25","75","3","9","10","40","30","120","27","19","[""White""]","No","Female","1727795","null","null","","","","clear_screen","","","","","","","","","","","","","","","","","","","","","","","","","",""
"","","","","","canvas-keyboard-response","192","330244","0.0-12.0-0.36","2d_cat_multi_stim_exp1","2022-4-11","11:34:31","25","75","3","9","10","40","30","120","27","19","[""White""]","No","Female","1727795","null","null","","","","fixation","","","","","","","","","","","","","","","","","","","","","","","","","",""
"","","","","","canvas-keyboard-response","193","330754","0.0-12.0-1.36","2d_cat_multi_stim_exp1","2022-4-11","11:34:31","25","75","3","9","10","40","30","120","27","19","[""White""]","No","Female","1727795","null","null","","","","clear_screen","","","","","","","","","","","","","","","","","","","","","","","","","",""
"","","","","","canvas-keyboard-response","194","331974","0.0-12.0-2.36","2d_cat_multi_stim_exp1","2022-4-11","11:34:31","25","75","3","9","10","40","30","120","27","19","[""White""]","No","Female","1727795","1211","i","learn","","","learn_trial","25","93","in","0","0","","","","","","","","","","","","","","","","","","","","",""
"","","","","","canvas-keyboard-response","195","332983","0.0-12.0-3.36","2d_cat_multi_stim_exp1","2022-4-11","11:34:31","25","75","3","9","10","40","30","120","27","19","[""White""]","No","Female","1727795","null","null","learn_feedback","","","learn_feedback","25","93","in","","","","","","","","","","","","","","","","","","","","","","",""
"","","","","","canvas-keyboard-response","196","333045","0.0-12.0-4.36","2d_cat_multi_stim_exp1","2022-4-11","11:34:31","25","75","3","9","10","40","30","120","27","19","[""White""]","No","Female","1727795","null","null","","","","clear_screen","","","","","","","","","","","","","","","","","","","","","","","","","",""
"","","","","","canvas-keyboard-response","197","333552","0.0-12.0-0.37","2d_cat_multi_stim_exp1","2022-4-11","11:34:31","25","75","3","9","10","40","30","120","27","19","[""White""]","No","Female","1727795","null","null","","","","fixation","","","","","","","","","","","","","","","","","","","","","","","","","",""
"","","","","","canvas-keyboard-response","198","334061","0.0-12.0-1.37","2d_cat_multi_stim_exp1","2022-4-11","11:34:31","25","75","3","9","10","40","30","120","27","19","[""White""]","No","Female","1727795","null","null","","","","clear_screen","","","","","","","","","","","","","","","","","","","","","","","","","",""
"","","","","","canvas-keyboard-response","199","335037","0.0-12.0-2.37","2d_cat_multi_stim_exp1","2022-4-11","11:34:31","25","75","3","9","10","40","30","120","27","19","[""White""]","No","Female","1727795","969","i","learn","","","learn_trial","36.6667","40","out","0","1","","","","","","","","","","","","","","","","","","","","",""
"","","","","","canvas-keyboard-response","200","335548","0.0-12.0-3.37","2d_cat_multi_stim_exp1","2022-4-11","11:34:31","25","75","3","9","10","40","30","120","27","19","[""White""]","No","Female","1727795","null","null","learn_feedback","","","learn_feedback","36.6667","40","out","","","","","","","","","","","","","","","","","","","","","","",""
"","","","","","canvas-keyboard-response","201","335606","0.0-12.0-4.37","2d_cat_multi_stim_exp1","2022-4-11","11:34:31","25","75","3","9","10","40","30","120","27","19","[""White""]","No","Female","1727795","null","null","","","","clear_screen","","","","","","","","","","","","","","","","","","","","","","","","","",""
"","","","","","canvas-keyboard-response","202","336114","0.0-12.0-0.38","2d_cat_multi_stim_exp1","2022-4-11","11:34:31","25","75","3","9","10","40","30","120","27","19","[""White""]","No","Female","1727795","null","null","","","","fixation","","","","","","","","","","","","","","","","","","","","","","","","","",""
"","","","","","canvas-keyboard-response","203","336622","0.0-12.0-1.38","2d_cat_multi_stim_exp1","2022-4-11","11:34:31","25","75","3","9","10","40","30","120","27","19","[""White""]","No","Female","1727795","null","null","","","","clear_screen","","","","","","","","","","","","","","","","","","","","","","","","","",""
"","","","","","canvas-keyboard-response","204","337446","0.0-12.0-2.38","2d_cat_multi_stim_exp1","2022-4-11","11:34:31","25","75","3","9","10","40","30","120","27","19","[""White""]","No","Female","1727795","815","u","learn","","","learn_trial","25","75","in","1","1","","","","","","","","","","","","","","","","","","","","",""
"","","","","","canvas-keyboard-response","205","337955","0.0-12.0-3.38","2d_cat_multi_stim_exp1","2022-4-11","11:34:31","25","75","3","9","10","40","30","120","27","19","[""White""]","No","Female","1727795","null","null","learn_feedback","","","learn_feedback","25","75","in","","","","","","","","","","","","","","","","","","","","","","",""
"","","","","","canvas-keyboard-response","206","338014","0.0-12.0-4.38","2d_cat_multi_stim_exp1","2022-4-11","11:34:31","25","75","3","9","10","40","30","120","27","19","[""White""]","No","Female","1727795","null","null","","","","clear_screen","","","","","","","","","","","","","","","","","","","","","","","","","",""
"","","","","","canvas-keyboard-response","207","338522","0.0-12.0-0.39","2d_cat_multi_stim_exp1","2022-4-11","11:34:31","25","75","3","9","10","40","30","120","27","19","[""White""]","No","Female","1727795","null","null","","","","fixation","","","","","","","","","","","","","","","","","","","","","","","","","",""
"","","","","","canvas-keyboard-response","208","339031","0.0-12.0-1.39","2d_cat_multi_stim_exp1","2022-4-11","11:34:31","25","75","3","9","10","40","30","120","27","19","[""White""]","No","Female","1727795","null","null","","","","clear_screen","","","","","","","","","","","","","","","","","","","","","","","","","",""
"","","","","","canvas-keyboard-response","209","339966","0.0-12.0-2.39","2d_cat_multi_stim_exp1","2022-4-11","11:34:31","25","75","3","9","10","40","30","120","27","19","[""White""]","No","Female","1727795","925","i","learn","","","learn_trial","13.3333","120","out","0","1","","","","","","","","","","","","","","","","","","","","",""
"","","","","","canvas-keyboard-response","210","340474","0.0-12.0-3.39","2d_cat_multi_stim_exp1","2022-4-11","11:34:31","25","75","3","9","10","40","30","120","27","19","[""White""]","No","Female","1727795","null","null","learn_feedback","","","learn_feedback","13.3333","120","out","","","","","","","","","","","","","","","","","","","","","","",""
"","","","","","canvas-keyboard-response","211","340534","0.0-12.0-4.39","2d_cat_multi_stim_exp1","2022-4-11","11:34:31","25","75","3","9","10","40","30","120","27","19","[""White""]","No","Female","1727795","null","null","","","","clear_screen","","","","","","","","","","","","","","","","","","","","","","","","","",""
"","","","","","canvas-keyboard-response","212","341042","0.0-12.0-0.40","2d_cat_multi_stim_exp1","2022-4-11","11:34:31","25","75","3","9","10","40","30","120","27","19","[""White""]","No","Female","1727795","null","null","","","","fixation","","","","","","","","","","","","","","","","","","","","","","","","","",""
"","","","","","canvas-keyboard-response","213","341551","0.0-12.0-1.40","2d_cat_multi_stim_exp1","2022-4-11","11:34:31","25","75","3","9","10","40","30","120","27","19","[""White""]","No","Female","1727795","null","null","","","","clear_screen","","","","","","","","","","","","","","","","","","","","","","","","","",""
"","","","","","canvas-keyboard-response","214","342285","0.0-12.0-2.40","2d_cat_multi_stim_exp1","2022-4-11","11:34:31","25","75","3","9","10","40","30","120","27","19","[""White""]","No","Female","1727795","725","u","learn","","","learn_trial","25","75","in","1","1","","","","","","","","","","","","","","","","","","","","",""
"","","","","","canvas-keyboard-response","215","342794","0.0-12.0-3.40","2d_cat_multi_stim_exp1","2022-4-11","11:34:31","25","75","3","9","10","40","30","120","27","19","[""White""]","No","Female","1727795","null","null","learn_feedback","","","learn_feedback","25","75","in","","","","","","","","","","","","","","","","","","","","","","",""
"","","","","","canvas-keyboard-response","216","342853","0.0-12.0-4.40","2d_cat_multi_stim_exp1","2022-4-11","11:34:31","25","75","3","9","10","40","30","120","27","19","[""White""]","No","Female","1727795","null","null","","","","clear_screen","","","","","","","","","","","","","","","","","","","","","","","","","",""
"","","","","","canvas-keyboard-response","217","343360","0.0-12.0-0.41","2d_cat_multi_stim_exp1","2022-4-11","11:34:31","25","75","3","9","10","40","30","120","27","19","[""White""]","No","Female","1727795","null","null","","","","fixation","","","","","","","","","","","","","","","","","","","","","","","","","",""
"","","","","","canvas-keyboard-response","218","343869","0.0-12.0-1.41","2d_cat_multi_stim_exp1","2022-4-11","11:34:31","25","75","3","9","10","40","30","120","27","19","[""White""]","No","Female","1727795","null","null","","","","clear_screen","","","","","","","","","","","","","","","","","","","","","","","","","",""
"","","","","","canvas-keyboard-response","219","344613","0.0-12.0-2.41","2d_cat_multi_stim_exp1","2022-4-11","11:34:31","25","75","3","9","10","40","30","120","27","19","[""White""]","No","Female","1727795","736","i","learn","","","learn_trial","30","120","out","0","1","","","","","","","","","","","","","","","","","","","","",""
"","","","","","canvas-keyboard-response","220","345123","0.0-12.0-3.41","2d_cat_multi_stim_exp1","2022-4-11","11:34:31","25","75","3","9","10","40","30","120","27","19","[""White""]","No","Female","1727795","null","null","learn_feedback","","","learn_feedback","30","120","out","","","","","","","","","","","","","","","","","","","","","","",""
"","","","","","canvas-keyboard-response","221","345181","0.0-12.0-4.41","2d_cat_multi_stim_exp1","2022-4-11","11:34:31","25","75","3","9","10","40","30","120","27","19","[""White""]","No","Female","1727795","null","null","","","","clear_screen","","","","","","","","","","","","","","","","","","","","","","","","","",""
"","","","","","canvas-keyboard-response","222","345690","0.0-12.0-0.42","2d_cat_multi_stim_exp1","2022-4-11","11:34:31","25","75","3","9","10","40","30","120","27","19","[""White""]","No","Female","1727795","null","null","","","","fixation","","","","","","","","","","","","","","","","","","","","","","","","","",""
"","","","","","canvas-keyboard-response","223","346198","0.0-12.0-1.42","2d_cat_multi_stim_exp1","2022-4-11","11:34:31","25","75","3","9","10","40","30","120","27","19","[""White""]","No","Female","1727795","null","null","","","","clear_screen","","","","","","","","","","","","","","","","","","","","","","","","","",""
"","","","","","canvas-keyboard-response","224","347213","0.0-12.0-2.42","2d_cat_multi_stim_exp1","2022-4-11","11:34:31","25","75","3","9","10","40","30","120","27","19","[""White""]","No","Female","1727795","1006","u","learn","","","learn_trial","22.0121","75.8068","in","1","1","","","","","","","","","","","","","","","","","","","","",""
"","","","","","canvas-keyboard-response","225","347723","0.0-12.0-3.42","2d_cat_multi_stim_exp1","2022-4-11","11:34:31","25","75","3","9","10","40","30","120","27","19","[""White""]","No","Female","1727795","null","null","learn_feedback","","","learn_feedback","22.0121","75.8068","in","","","","","","","","","","","","","","","","","","","","","","",""
"","","","","","canvas-keyboard-response","226","347780","0.0-12.0-4.42","2d_cat_multi_stim_exp1","2022-4-11","11:34:31","25","75","3","9","10","40","30","120","27","19","[""White""]","No","Female","1727795","null","null","","","","clear_screen","","","","","","","","","","","","","","","","","","","","","","","","","",""
"","","","","","canvas-keyboard-response","227","348289","0.0-12.0-0.43","2d_cat_multi_stim_exp1","2022-4-11","11:34:31","25","75","3","9","10","40","30","120","27","19","[""White""]","No","Female","1727795","null","null","","","","fixation","","","","","","","","","","","","","","","","","","","","","","","","","",""
"","","","","","canvas-keyboard-response","228","348797","0.0-12.0-1.43","2d_cat_multi_stim_exp1","2022-4-11","11:34:31","25","75","3","9","10","40","30","120","27","19","[""White""]","No","Female","1727795","null","null","","","","clear_screen","","","","","","","","","","","","","","","","","","","","","","","","","",""
"","","","","","canvas-keyboard-response","229","349518","0.0-12.0-2.43","2d_cat_multi_stim_exp1","2022-4-11","11:34:31","25","75","3","9","10","40","30","120","27","19","[""White""]","No","Female","1727795","712","i","learn","","","learn_trial","10","120","out","0","1","","","","","","","","","","","","","","","","","","","","",""
"","","","","","canvas-keyboard-response","230","350026","0.0-12.0-3.43","2d_cat_multi_stim_exp1","2022-4-11","11:34:31","25","75","3","9","10","40","30","120","27","19","[""White""]","No","Female","1727795","null","null","learn_feedback","","","learn_feedback","10","120","out","","","","","","","","","","","","","","","","","","","","","","",""
"","","","","","canvas-keyboard-response","231","350085","0.0-12.0-4.43","2d_cat_multi_stim_exp1","2022-4-11","11:34:31","25","75","3","9","10","40","30","120","27","19","[""White""]","No","Female","1727795","null","null","","","","clear_screen","","","","","","","","","","","","","","","","","","","","","","","","","",""
"","","","","","canvas-keyboard-response","232","350593","0.0-12.0-0.44","2d_cat_multi_stim_exp1","2022-4-11","11:34:31","25","75","3","9","10","40","30","120","27","19","[""White""]","No","Female","1727795","null","null","","","","fixation","","","","","","","","","","","","","","","","","","","","","","","","","",""
"","","","","","canvas-keyboard-response","233","351103","0.0-12.0-1.44","2d_cat_multi_stim_exp1","2022-4-11","11:34:31","25","75","3","9","10","40","30","120","27","19","[""White""]","No","Female","1727795","null","null","","","","clear_screen","","","","","","","","","","","","","","","","","","","","","","","","","",""
"","","","","","canvas-keyboard-response","234","352062","0.0-12.0-2.44","2d_cat_multi_stim_exp1","2022-4-11","11:34:31","25","75","3","9","10","40","30","120","27","19","[""White""]","No","Female","1727795","951","i","learn","","","learn_trial","20","100","out","0","1","","","","","","","","","","","","","","","","","","","","",""
"","","","","","canvas-keyboard-response","235","352571","0.0-12.0-3.44","2d_cat_multi_stim_exp1","2022-4-11","11:34:31","25","75","3","9","10","40","30","120","27","19","[""White""]","No","Female","1727795","null","null","learn_feedback","","","learn_feedback","20","100","out","","","","","","","","","","","","","","","","","","","","","","",""
"","","","","","canvas-keyboard-response","236","352629","0.0-12.0-4.44","2d_cat_multi_stim_exp1","2022-4-11","11:34:31","25","75","3","9","10","40","30","120","27","19","[""White""]","No","Female","1727795","null","null","","","","clear_screen","","","","","","","","","","","","","","","","","","","","","","","","","",""
"","","","","","canvas-keyboard-response","237","353141","0.0-12.0-0.45","2d_cat_multi_stim_exp1","2022-4-11","11:34:31","25","75","3","9","10","40","30","120","27","19","[""White""]","No","Female","1727795","null","null","","","","fixation","","","","","","","","","","","","","","","","","","","","","","","","","",""
"","","","","","canvas-keyboard-response","238","353651","0.0-12.0-1.45","2d_cat_multi_stim_exp1","2022-4-11","11:34:31","25","75","3","9","10","40","30","120","27","19","[""White""]","No","Female","1727795","null","null","","","","clear_screen","","","","","","","","","","","","","","","","","","","","","","","","","",""
"","","","","","canvas-keyboard-response","239","354389","0.0-12.0-2.45","2d_cat_multi_stim_exp1","2022-4-11","11:34:31","25","75","3","9","10","40","30","120","27","19","[""White""]","No","Female","1727795","731","i","learn","","","learn_trial","23.3333","120","out","0","1","","","","","","","","","","","","","","","","","","","","",""
"","","","","","canvas-keyboard-response","240","354898","0.0-12.0-3.45","2d_cat_multi_stim_exp1","2022-4-11","11:34:31","25","75","3","9","10","40","30","120","27","19","[""White""]","No","Female","1727795","null","null","learn_feedback","","","learn_feedback","23.3333","120","out","","","","","","","","","","","","","","","","","","","","","","",""
"","","","","","canvas-keyboard-response","241","354956","0.0-12.0-4.45","2d_cat_multi_stim_exp1","2022-4-11","11:34:31","25","75","3","9","10","40","30","120","27","19","[""White""]","No","Female","1727795","null","null","","","","clear_screen","","","","","","","","","","","","","","","","","","","","","","","","","",""
"","","","","","canvas-keyboard-response","242","355464","0.0-12.0-0.46","2d_cat_multi_stim_exp1","2022-4-11","11:34:31","25","75","3","9","10","40","30","120","27","19","[""White""]","No","Female","1727795","null","null","","","","fixation","","","","","","","","","","","","","","","","","","","","","","","","","",""
"","","","","","canvas-keyboard-response","243","355974","0.0-12.0-1.46","2d_cat_multi_stim_exp1","2022-4-11","11:34:31","25","75","3","9","10","40","30","120","27","19","[""White""]","No","Female","1727795","null","null","","","","clear_screen","","","","","","","","","","","","","","","","","","","","","","","","","",""
"","","","","","canvas-keyboard-response","244","356717","0.0-12.0-2.46","2d_cat_multi_stim_exp1","2022-4-11","11:34:31","25","75","3","9","10","40","30","120","27","19","[""White""]","No","Female","1727795","734","u","learn","","","learn_trial","23.3473","67.4888","in","1","1","","","","","","","","","","","","","","","","","","","","",""
"","","","","","canvas-keyboard-response","245","357227","0.0-12.0-3.46","2d_cat_multi_stim_exp1","2022-4-11","11:34:31","25","75","3","9","10","40","30","120","27","19","[""White""]","No","Female","1727795","null","null","learn_feedback","","","learn_feedback","23.3473","67.4888","in","","","","","","","","","","","","","","","","","","","","","","",""
"","","","","","canvas-keyboard-response","246","357284","0.0-12.0-4.46","2d_cat_multi_stim_exp1","2022-4-11","11:34:31","25","75","3","9","10","40","30","120","27","19","[""White""]","No","Female","1727795","null","null","","","","clear_screen","","","","","","","","","","","","","","","","","","","","","","","","","",""
"","","","","","canvas-keyboard-response","247","357792","0.0-12.0-0.47","2d_cat_multi_stim_exp1","2022-4-11","11:34:31","25","75","3","9","10","40","30","120","27","19","[""White""]","No","Female","1727795","null","null","","","","fixation","","","","","","","","","","","","","","","","","","","","","","","","","",""
"","","","","","canvas-keyboard-response","248","358301","0.0-12.0-1.47","2d_cat_multi_stim_exp1","2022-4-11","11:34:31","25","75","3","9","10","40","30","120","27","19","[""White""]","No","Female","1727795","null","null","","","","clear_screen","","","","","","","","","","","","","","","","","","","","","","","","","",""
"","","","","","canvas-keyboard-response","249","359101","0.0-12.0-2.47","2d_cat_multi_stim_exp1","2022-4-11","11:34:31","25","75","3","9","10","40","30","120","27","19","[""White""]","No","Female","1727795","791","i","learn","","","learn_trial","13.3333","90","out","0","1","","","","","","","","","","","","","","","","","","","","",""
"","","","","","canvas-keyboard-response","250","359610","0.0-12.0-3.47","2d_cat_multi_stim_exp1","2022-4-11","11:34:31","25","75","3","9","10","40","30","120","27","19","[""White""]","No","Female","1727795","null","null","learn_feedback","","","learn_feedback","13.3333","90","out","","","","","","","","","","","","","","","","","","","","","","",""
"","","","","","canvas-keyboard-response","251","359669","0.0-12.0-4.47","2d_cat_multi_stim_exp1","2022-4-11","11:34:31","25","75","3","9","10","40","30","120","27","19","[""White""]","No","Female","1727795","null","null","","","","clear_screen","","","","","","","","","","","","","","","","","","","","","","","","","",""
"","","","","","canvas-keyboard-response","252","360177","0.0-12.0-0.48","2d_cat_multi_stim_exp1","2022-4-11","11:34:31","25","75","3","9","10","40","30","120","27","19","[""White""]","No","Female","1727795","null","null","","","","fixation","","","","","","","","","","","","","","","","","","","","","","","","","",""
"","","","","","canvas-keyboard-response","253","360686","0.0-12.0-1.48","2d_cat_multi_stim_exp1","2022-4-11","11:34:31","25","75","3","9","10","40","30","120","27","19","[""White""]","No","Female","1727795","null","null","","","","clear_screen","","","","","","","","","","","","","","","","","","","","","","","","","",""
"","","","","","canvas-keyboard-response","254","361726","0.0-12.0-2.48","2d_cat_multi_stim_exp1","2022-4-11","11:34:31","25","75","3","9","10","40","30","120","27","19","[""White""]","No","Female","1727795","1027","i","learn","","","learn_trial","33.3333","30","out","0","1","","","","","","","","","","","","","","","","","","","","",""
"","","","","","canvas-keyboard-response","255","362238","0.0-12.0-3.48","2d_cat_multi_stim_exp1","2022-4-11","11:34:31","25","75","3","9","10","40","30","120","27","19","[""White""]","No","Female","1727795","null","null","learn_feedback","","","learn_feedback","33.3333","30","out","","","","","","","","","","","","","","","","","","","","","","",""
"","","","","","canvas-keyboard-response","256","362299","0.0-12.0-4.48","2d_cat_multi_stim_exp1","2022-4-11","11:34:31","25","75","3","9","10","40","30","120","27","19","[""White""]","No","Female","1727795","null","null","","","","clear_screen","","","","","","","","","","","","","","","","","","","","","","","","","",""
"","","","","","canvas-keyboard-response","257","362807","0.0-12.0-0.49","2d_cat_multi_stim_exp1","2022-4-11","11:34:31","25","75","3","9","10","40","30","120","27","19","[""White""]","No","Female","1727795","null","null","","","","fixation","","","","","","","","","","","","","","","","","","","","","","","","","",""
"","","","","","canvas-keyboard-response","258","363317","0.0-12.0-1.49","2d_cat_multi_stim_exp1","2022-4-11","11:34:31","25","75","3","9","10","40","30","120","27","19","[""White""]","No","Female","1727795","null","null","","","","clear_screen","","","","","","","","","","","","","","","","","","","","","","","","","",""
"","","","","","canvas-keyboard-response","259","364013","0.0-12.0-2.49","2d_cat_multi_stim_exp1","2022-4-11","11:34:31","25","75","3","9","10","40","30","120","27","19","[""White""]","No","Female","1727795","689","u","learn","","","learn_trial","22.2971","78.905","in","1","1","","","","","","","","","","","","","","","","","","","","",""
"","","","","","canvas-keyboard-response","260","364523","0.0-12.0-3.49","2d_cat_multi_stim_exp1","2022-4-11","11:34:31","25","75","3","9","10","40","30","120","27","19","[""White""]","No","Female","1727795","null","null","learn_feedback","","","learn_feedback","22.2971","78.905","in","","","","","","","","","","","","","","","","","","","","","","",""
"","","","","","canvas-keyboard-response","261","364582","0.0-12.0-4.49","2d_cat_multi_stim_exp1","2022-4-11","11:34:31","25","75","3","9","10","40","30","120","27","19","[""White""]","No","Female","1727795","null","null","","","","clear_screen","","","","","","","","","","","","","","","","","","","","","","","","","",""
"","","","","","canvas-keyboard-response","262","365090","0.0-12.0-0.50","2d_cat_multi_stim_exp1","2022-4-11","11:34:31","25","75","3","9","10","40","30","120","27","19","[""White""]","No","Female","1727795","null","null","","","","fixation","","","","","","","","","","","","","","","","","","","","","","","","","",""
"","","","","","canvas-keyboard-response","263","365599","0.0-12.0-1.50","2d_cat_multi_stim_exp1","2022-4-11","11:34:31","25","75","3","9","10","40","30","120","27","19","[""White""]","No","Female","1727795","null","null","","","","clear_screen","","","","","","","","","","","","","","","","","","","","","","","","","",""
"","","","","","canvas-keyboard-response","264","366182","0.0-12.0-2.50","2d_cat_multi_stim_exp1","2022-4-11","11:34:31","25","75","3","9","10","40","30","120","27","19","[""White""]","No","Female","1727795","572","u","learn","","","learn_trial","26.4216","82.9254","in","1","1","","","","","","","","","","","","","","","","","","","","",""
"","","","","","canvas-keyboard-response","265","366691","0.0-12.0-3.50","2d_cat_multi_stim_exp1","2022-4-11","11:34:31","25","75","3","9","10","40","30","120","27","19","[""White""]","No","Female","1727795","null","null","learn_feedback","","","learn_feedback","26.4216","82.9254","in","","","","","","","","","","","","","","","","","","","","","","",""
"","","","","","canvas-keyboard-response","266","366750","0.0-12.0-4.50","2d_cat_multi_stim_exp1","2022-4-11","11:34:31","25","75","3","9","10","40","30","120","27","19","[""White""]","No","Female","1727795","null","null","","","","clear_screen","","","","","","","","","","","","","","","","","","","","","","","","","",""
"","","","","","canvas-keyboard-response","267","367258","0.0-12.0-0.51","2d_cat_multi_stim_exp1","2022-4-11","11:34:31","25","75","3","9","10","40","30","120","27","19","[""White""]","No","Female","1727795","null","null","","","","fixation","","","","","","","","","","","","","","","","","","","","","","","","","",""
"","","","","","canvas-keyboard-response","268","367767","0.0-12.0-1.51","2d_cat_multi_stim_exp1","2022-4-11","11:34:31","25","75","3","9","10","40","30","120","27","19","[""White""]","No","Female","1727795","null","null","","","","clear_screen","","","","","","","","","","","","","","","","","","","","","","","","","",""
"","","","","","canvas-keyboard-response","269","368550","0.0-12.0-2.51","2d_cat_multi_stim_exp1","2022-4-11","11:34:31","25","75","3","9","10","40","30","120","27","19","[""White""]","No","Female","1727795","773","i","learn","","","learn_trial","40","80","out","0","1","","","","","","","","","","","","","","","","","","","","",""
"","","","","","canvas-keyboard-response","270","369060","0.0-12.0-3.51","2d_cat_multi_stim_exp1","2022-4-11","11:34:31","25","75","3","9","10","40","30","120","27","19","[""White""]","No","Female","1727795","null","null","learn_feedback","","","learn_feedback","40","80","out","","","","","","","","","","","","","","","","","","","","","","",""
"","","","","","canvas-keyboard-response","271","369118","0.0-12.0-4.51","2d_cat_multi_stim_exp1","2022-4-11","11:34:31","25","75","3","9","10","40","30","120","27","19","[""White""]","No","Female","1727795","null","null","","","","clear_screen","","","","","","","","","","","","","","","","","","","","","","","","","",""
"","","","","","canvas-keyboard-response","272","369626","0.0-12.0-0.52","2d_cat_multi_stim_exp1","2022-4-11","11:34:31","25","75","3","9","10","40","30","120","27","19","[""White""]","No","Female","1727795","null","null","","","","fixation","","","","","","","","","","","","","","","","","","","","","","","","","",""
"","","","","","canvas-keyboard-response","273","370135","0.0-12.0-1.52","2d_cat_multi_stim_exp1","2022-4-11","11:34:31","25","75","3","9","10","40","30","120","27","19","[""White""]","No","Female","1727795","null","null","","","","clear_screen","","","","","","","","","","","","","","","","","","","","","","","","","",""
"","","","","","canvas-keyboard-response","274","371030","0.0-12.0-2.52","2d_cat_multi_stim_exp1","2022-4-11","11:34:31","25","75","3","9","10","40","30","120","27","19","[""White""]","No","Female","1727795","886","u","learn","","","learn_trial","19","75","in","1","1","","","","","","","","","","","","","","","","","","","","",""
"","","","","","canvas-keyboard-response","275","371539","0.0-12.0-3.52","2d_cat_multi_stim_exp1","2022-4-11","11:34:31","25","75","3","9","10","40","30","120","27","19","[""White""]","No","Female","1727795","null","null","learn_feedback","","","learn_feedback","19","75","in","","","","","","","","","","","","","","","","","","","","","","",""
"","","","","","canvas-keyboard-response","276","371598","0.0-12.0-4.52","2d_cat_multi_stim_exp1","2022-4-11","11:34:31","25","75","3","9","10","40","30","120","27","19","[""White""]","No","Female","1727795","null","null","","","","clear_screen","","","","","","","","","","","","","","","","","","","","","","","","","",""
"","","","","","canvas-keyboard-response","277","372106","0.0-12.0-0.53","2d_cat_multi_stim_exp1","2022-4-11","11:34:31","25","75","3","9","10","40","30","120","27","19","[""White""]","No","Female","1727795","null","null","","","","fixation","","","","","","","","","","","","","","","","","","","","","","","","","",""
"","","","","","canvas-keyboard-response","278","372615","0.0-12.0-1.53","2d_cat_multi_stim_exp1","2022-4-11","11:34:31","25","75","3","9","10","40","30","120","27","19","[""White""]","No","Female","1727795","null","null","","","","clear_screen","","","","","","","","","","","","","","","","","","","","","","","","","",""
"","","","","","canvas-keyboard-response","279","373190","0.0-12.0-2.53","2d_cat_multi_stim_exp1","2022-4-11","11:34:31","25","75","3","9","10","40","30","120","27","19","[""White""]","No","Female","1727795","565","u","learn","","","learn_trial","25","75","in","1","1","","","","","","","","","","","","","","","","","","","","",""
"","","","","","canvas-keyboard-response","280","373698","0.0-12.0-3.53","2d_cat_multi_stim_exp1","2022-4-11","11:34:31","25","75","3","9","10","40","30","120","27","19","[""White""]","No","Female","1727795","null","null","learn_feedback","","","learn_feedback","25","75","in","","","","","","","","","","","","","","","","","","","","","","",""
"","","","","","canvas-keyboard-response","281","373756","0.0-12.0-4.53","2d_cat_multi_stim_exp1","2022-4-11","11:34:31","25","75","3","9","10","40","30","120","27","19","[""White""]","No","Female","1727795","null","null","","","","clear_screen","","","","","","","","","","","","","","","","","","","","","","","","","",""
"","","","","","canvas-keyboard-response","282","374265","0.0-12.0-0.54","2d_cat_multi_stim_exp1","2022-4-11","11:34:31","25","75","3","9","10","40","30","120","27","19","[""White""]","No","Female","1727795","null","null","","","","fixation","","","","","","","","","","","","","","","","","","","","","","","","","",""
"","","","","","canvas-keyboard-response","283","374774","0.0-12.0-1.54","2d_cat_multi_stim_exp1","2022-4-11","11:34:31","25","75","3","9","10","40","30","120","27","19","[""White""]","No","Female","1727795","null","null","","","","clear_screen","","","","","","","","","","","","","","","","","","","","","","","","","",""
"","","","","","canvas-keyboard-response","284","375598","0.0-12.0-2.54","2d_cat_multi_stim_exp1","2022-4-11","11:34:31","25","75","3","9","10","40","30","120","27","19","[""White""]","No","Female","1727795","815","i","learn","","","learn_trial","13.3333","50","out","0","1","","","","","","","","","","","","","","","","","","","","",""
"","","","","","canvas-keyboard-response","285","376108","0.0-12.0-3.54","2d_cat_multi_stim_exp1","2022-4-11","11:34:31","25","75","3","9","10","40","30","120","27","19","[""White""]","No","Female","1727795","null","null","learn_feedback","","","learn_feedback","13.3333","50","out","","","","","","","","","","","","","","","","","","","","","","",""
"","","","","","canvas-keyboard-response","286","376167","0.0-12.0-4.54","2d_cat_multi_stim_exp1","2022-4-11","11:34:31","25","75","3","9","10","40","30","120","27","19","[""White""]","No","Female","1727795","null","null","","","","clear_screen","","","","","","","","","","","","","","","","","","","","","","","","","",""
"","","","","","canvas-keyboard-response","287","376675","0.0-12.0-0.55","2d_cat_multi_stim_exp1","2022-4-11","11:34:31","25","75","3","9","10","40","30","120","27","19","[""White""]","No","Female","1727795","null","null","","","","fixation","","","","","","","","","","","","","","","","","","","","","","","","","",""
"","","","","","canvas-keyboard-response","288","377184","0.0-12.0-1.55","2d_cat_multi_stim_exp1","2022-4-11","11:34:31","25","75","3","9","10","40","30","120","27","19","[""White""]","No","Female","1727795","null","null","","","","clear_screen","","","","","","","","","","","","","","","","","","","","","","","","","",""
"","","","","","canvas-keyboard-response","289","377813","0.0-12.0-2.55","2d_cat_multi_stim_exp1","2022-4-11","11:34:31","25","75","3","9","10","40","30","120","27","19","[""White""]","No","Female","1727795","620","u","learn","","","learn_trial","25","75","in","1","1","","","","","","","","","","","","","","","","","","","","",""
"","","","","","canvas-keyboard-response","290","378323","0.0-12.0-3.55","2d_cat_multi_stim_exp1","2022-4-11","11:34:31","25","75","3","9","10","40","30","120","27","19","[""White""]","No","Female","1727795","null","null","learn_feedback","","","learn_feedback","25","75","in","","","","","","","","","","","","","","","","","","","","","","",""
"","","","","","canvas-keyboard-response","291","378381","0.0-12.0-4.55","2d_cat_multi_stim_exp1","2022-4-11","11:34:31","25","75","3","9","10","40","30","120","27","19","[""White""]","No","Female","1727795","null","null","","","","clear_screen","","","","","","","","","","","","","","","","","","","","","","","","","",""
"","","","","","canvas-keyboard-response","292","378888","0.0-12.0-0.56","2d_cat_multi_stim_exp1","2022-4-11","11:34:31","25","75","3","9","10","40","30","120","27","19","[""White""]","No","Female","1727795","null","null","","","","fixation","","","","","","","","","","","","","","","","","","","","","","","","","",""
"","","","","","canvas-keyboard-response","293","379397","0.0-12.0-1.56","2d_cat_multi_stim_exp1","2022-4-11","11:34:31","25","75","3","9","10","40","30","120","27","19","[""White""]","No","Female","1727795","null","null","","","","clear_screen","","","","","","","","","","","","","","","","","","","","","","","","","",""
"","","","","","canvas-keyboard-response","294","380077","0.0-12.0-2.56","2d_cat_multi_stim_exp1","2022-4-11","11:34:31","25","75","3","9","10","40","30","120","27","19","[""White""]","No","Female","1727795","671","u","learn","","","learn_trial","25","75","in","1","1","","","","","","","","","","","","","","","","","","","","",""
"","","","","","canvas-keyboard-response","295","380585","0.0-12.0-3.56","2d_cat_multi_stim_exp1","2022-4-11","11:34:31","25","75","3","9","10","40","30","120","27","19","[""White""]","No","Female","1727795","null","null","learn_feedback","","","learn_feedback","25","75","in","","","","","","","","","","","","","","","","","","","","","","",""
"","","","","","canvas-keyboard-response","296","380644","0.0-12.0-4.56","2d_cat_multi_stim_exp1","2022-4-11","11:34:31","25","75","3","9","10","40","30","120","27","19","[""White""]","No","Female","1727795","null","null","","","","clear_screen","","","","","","","","","","","","","","","","","","","","","","","","","",""
