"success","timeout","failed_images","failed_audio","failed_video","trial_type","trial_index","time_elapsed","internal_node_id","exp_name","date","time","angle_mean_in","radius_mean_in","angle_sd_in","radius_sd_in","angle_min_out","angle_max_out","radius_min_out","radius_max_out","sub_n","age","race","ethnicity","gender","exp_duration","rt","response","exp_trial_type","stimulus","view_history","screen_id","angle","radius","distribution","choice","correct","order","angle_a","radius_a","angle_b","radius_b","angle_c","radius_c","jkl_correct","transfer_trial_type","choice_set","abc_correct","tc_correct","tc_angle","tdc_a","tdc_b","tdc_c","pair","category_a","category_b","category_c","question_order"
"true","false","[]","[]","[]","preload","0","14","0.0-0.0","2d_cat_multi_stim_exp1","2022-4-7","15:0:0","25","75","3","9","10","40","30","120","20","18","[""White""]","No","Female","1802452","","","","","","","","","","","","","","","","","","","","","","","","","","","","","","","",""
"","","","","","survey-html-form","1","2894","0.0-1.0","2d_cat_multi_stim_exp1","2022-4-7","15:0:0","25","75","3","9","10","40","30","120","20","18","[""White""]","No","Female","1802452","2872","{""response"":""20""}","enter-sub-number","","","","","","","","","","","","","","","","","","","","","","","","","","","","",""
"true","","","","","fullscreen","2","4870","0.0-2.0","2d_cat_multi_stim_exp1","2022-4-7","15:0:0","25","75","3","9","10","40","30","120","20","18","[""White""]","No","Female","1802452","","","","","","","","","","","","","","","","","","","","","","","","","","","","","","","",""
"","","","","","image-button-response","3","62096","0.0-3.0","2d_cat_multi_stim_exp1","2022-4-7","15:0:0","25","75","3","9","10","40","30","120","20","18","[""White""]","No","Female","1802452","57216","0","","consent.png","","","","","","","","","","","","","","","","","","","","","","","","","","","",""
"","","","","","html-button-response","4","68487","0.0-4.0","2d_cat_multi_stim_exp1","2022-4-7","15:0:0","25","75","3","9","10","40","30","120","20","18","[""White""]","No","Female","1802452","6386","0","","<div style= ""font-size:25px;"" <p> <strong> Welcome to the experiment! </strong><br> <p style=""color:#8B0000; font-size:25px;""><strong> Please do NOT exit full screen until you are done with the experiment. </strong> </p><p style=""font-size:25px;color:#8B0000;""> <strong> The experiment will be canceled and your data will be lost <br> if you try to go back or refresh the page at any point during the experiment.</strong> </p><br><p> <strong> Thanks in advance for your contribution to our research! </strong></p>","","","","","","","","","","","","","","","","","","","","","","","","","","","",""
"","","","","","instructions","5","125487","0.0-5.0","2d_cat_multi_stim_exp1","2022-4-7","15:0:0","25","75","3","9","10","40","30","120","20","18","[""White""]","No","Female","1802452","56994","","","","[{""page_index"":0,""viewing_time"":15555},{""page_index"":1,""viewing_time"":2135},{""page_index"":2,""viewing_time"":14425},{""page_index"":3,""viewing_time"":24879}]","instructions_1","","","","","","","","","","","","","","","","","","","","","","","","","",""
"","","","","","instructions","6","129534","0.0-6.0","2d_cat_multi_stim_exp1","2022-4-7","15:0:0","25","75","3","9","10","40","30","120","20","18","[""White""]","No","Female","1802452","4042","","","","[{""page_index"":0,""viewing_time"":4041}]","Click to see the kinds of turtles that will appear in the study.","","","","","","","","","","","","","","","","","","","","","","","","","",""
"","","","","","canvas-keyboard-response","7","144551","0.0-7.0","2d_cat_multi_stim_exp1","2022-4-7","15:0:0","25","75","3","9","10","40","30","120","20","18","[""White""]","No","Female","1802452","null","null","","","","demo_range","","","","","","","","","","","","","","","","","","","","","","","","","",""
"","","","","","instructions","8","147814","0.0-8.0","2d_cat_multi_stim_exp1","2022-4-7","15:0:0","25","75","3","9","10","40","30","120","20","18","[""White""]","No","Female","1802452","2759","","","","[{""page_index"":0,""viewing_time"":2759}]","Click to see some turtles in the subspecies.","","","","","","","","","","","","","","","","","","","","","","","","","",""
"","","","","","canvas-keyboard-response","9","162831","0.0-9.0","2d_cat_multi_stim_exp1","2022-4-7","15:0:0","25","75","3","9","10","40","30","120","20","18","[""White""]","No","Female","1802452","null","null","","","","demo_in","","","","","","","","","","","","","","","","","","","","","","","","","",""
"","","","","","instructions","10","206351","0.0-10.0","2d_cat_multi_stim_exp1","2022-4-7","15:0:0","25","75","3","9","10","40","30","120","20","18","[""White""]","No","Female","1802452","43018","","","","[{""page_index"":0,""viewing_time"":8361},{""page_index"":1,""viewing_time"":22457},{""page_index"":2,""viewing_time"":12200}]","instructions_2","","","","","","","","","","","","","","","","","","","","","","","","","",""
"","","","","","instructions","11","208598","0.0-11.0","2d_cat_multi_stim_exp1","2022-4-7","15:0:0","25","75","3","9","10","40","30","120","20","18","[""White""]","No","Female","1802452","2245","","","","[{""page_index"":0,""viewing_time"":2245}]","Click to begin the first phase of the experiment.","","","","","","","","","","","","","","","","","","","","","","","","","",""
"","","","","","canvas-keyboard-response","12","209108","0.0-12.0-0.0","2d_cat_multi_stim_exp1","2022-4-7","15:0:0","25","75","3","9","10","40","30","120","20","18","[""White""]","No","Female","1802452","null","null","","","","fixation","","","","","","","","","","","","","","","","","","","","","","","","","",""
"","","","","","canvas-keyboard-response","13","209620","0.0-12.0-1.0","2d_cat_multi_stim_exp1","2022-4-7","15:0:0","25","75","3","9","10","40","30","120","20","18","[""White""]","No","Female","1802452","null","null","","","","clear_screen","","","","","","","","","","","","","","","","","","","","","","","","","",""
"","","","","","canvas-keyboard-response","14","211302","0.0-12.0-2.0","2d_cat_multi_stim_exp1","2022-4-7","15:0:0","25","75","3","9","10","40","30","120","20","18","[""White""]","No","Female","1802452","1671","i","learn","","","learn_trial","16.6667","90","out","0","1","","","","","","","","","","","","","","","","","","","","",""
"","","","","","canvas-keyboard-response","15","211815","0.0-12.0-3.0","2d_cat_multi_stim_exp1","2022-4-7","15:0:0","25","75","3","9","10","40","30","120","20","18","[""White""]","No","Female","1802452","null","null","learn_feedback","","","learn_feedback","16.6667","90","out","","","","","","","","","","","","","","","","","","","","","","",""
"","","","","","canvas-keyboard-response","16","211875","0.0-12.0-4.0","2d_cat_multi_stim_exp1","2022-4-7","15:0:0","25","75","3","9","10","40","30","120","20","18","[""White""]","No","Female","1802452","null","null","","","","clear_screen","","","","","","","","","","","","","","","","","","","","","","","","","",""
"","","","","","canvas-keyboard-response","17","212388","0.0-12.0-0.1","2d_cat_multi_stim_exp1","2022-4-7","15:0:0","25","75","3","9","10","40","30","120","20","18","[""White""]","No","Female","1802452","null","null","","","","fixation","","","","","","","","","","","","","","","","","","","","","","","","","",""
"","","","","","canvas-keyboard-response","18","212904","0.0-12.0-1.1","2d_cat_multi_stim_exp1","2022-4-7","15:0:0","25","75","3","9","10","40","30","120","20","18","[""White""]","No","Female","1802452","null","null","","","","clear_screen","","","","","","","","","","","","","","","","","","","","","","","","","",""
"","","","","","canvas-keyboard-response","19","213886","0.0-12.0-2.1","2d_cat_multi_stim_exp1","2022-4-7","15:0:0","25","75","3","9","10","40","30","120","20","18","[""White""]","No","Female","1802452","973","u","learn","","","learn_trial","30","50","out","1","0","","","","","","","","","","","","","","","","","","","","",""
"","","","","","canvas-keyboard-response","20","214896","0.0-12.0-3.1","2d_cat_multi_stim_exp1","2022-4-7","15:0:0","25","75","3","9","10","40","30","120","20","18","[""White""]","No","Female","1802452","null","null","learn_feedback","","","learn_feedback","30","50","out","","","","","","","","","","","","","","","","","","","","","","",""
"","","","","","canvas-keyboard-response","21","214957","0.0-12.0-4.1","2d_cat_multi_stim_exp1","2022-4-7","15:0:0","25","75","3","9","10","40","30","120","20","18","[""White""]","No","Female","1802452","null","null","","","","clear_screen","","","","","","","","","","","","","","","","","","","","","","","","","",""
"","","","","","canvas-keyboard-response","22","215465","0.0-12.0-0.2","2d_cat_multi_stim_exp1","2022-4-7","15:0:0","25","75","3","9","10","40","30","120","20","18","[""White""]","No","Female","1802452","null","null","","","","fixation","","","","","","","","","","","","","","","","","","","","","","","","","",""
"","","","","","canvas-keyboard-response","23","215975","0.0-12.0-1.2","2d_cat_multi_stim_exp1","2022-4-7","15:0:0","25","75","3","9","10","40","30","120","20","18","[""White""]","No","Female","1802452","null","null","","","","clear_screen","","","","","","","","","","","","","","","","","","","","","","","","","",""
"","","","","","canvas-keyboard-response","24","217159","0.0-12.0-2.2","2d_cat_multi_stim_exp1","2022-4-7","15:0:0","25","75","3","9","10","40","30","120","20","18","[""White""]","No","Female","1802452","1170","u","learn","","","learn_trial","23.3333","70","out","1","0","","","","","","","","","","","","","","","","","","","","",""
"","","","","","canvas-keyboard-response","25","218168","0.0-12.0-3.2","2d_cat_multi_stim_exp1","2022-4-7","15:0:0","25","75","3","9","10","40","30","120","20","18","[""White""]","No","Female","1802452","null","null","learn_feedback","","","learn_feedback","23.3333","70","out","","","","","","","","","","","","","","","","","","","","","","",""
"","","","","","canvas-keyboard-response","26","218228","0.0-12.0-4.2","2d_cat_multi_stim_exp1","2022-4-7","15:0:0","25","75","3","9","10","40","30","120","20","18","[""White""]","No","Female","1802452","null","null","","","","clear_screen","","","","","","","","","","","","","","","","","","","","","","","","","",""
"","","","","","canvas-keyboard-response","27","218740","0.0-12.0-0.3","2d_cat_multi_stim_exp1","2022-4-7","15:0:0","25","75","3","9","10","40","30","120","20","18","[""White""]","No","Female","1802452","null","null","","","","fixation","","","","","","","","","","","","","","","","","","","","","","","","","",""
"","","","","","canvas-keyboard-response","28","219252","0.0-12.0-1.3","2d_cat_multi_stim_exp1","2022-4-7","15:0:0","25","75","3","9","10","40","30","120","20","18","[""White""]","No","Female","1802452","null","null","","","","clear_screen","","","","","","","","","","","","","","","","","","","","","","","","","",""
"","","","","","canvas-keyboard-response","29","221207","0.0-12.0-2.3","2d_cat_multi_stim_exp1","2022-4-7","15:0:0","25","75","3","9","10","40","30","120","20","18","[""White""]","No","Female","1802452","1945","u","learn","","","learn_trial","25","75","in","1","1","","","","","","","","","","","","","","","","","","","","",""
"","","","","","canvas-keyboard-response","30","221715","0.0-12.0-3.3","2d_cat_multi_stim_exp1","2022-4-7","15:0:0","25","75","3","9","10","40","30","120","20","18","[""White""]","No","Female","1802452","null","null","learn_feedback","","","learn_feedback","25","75","in","","","","","","","","","","","","","","","","","","","","","","",""
"","","","","","canvas-keyboard-response","31","221777","0.0-12.0-4.3","2d_cat_multi_stim_exp1","2022-4-7","15:0:0","25","75","3","9","10","40","30","120","20","18","[""White""]","No","Female","1802452","null","null","","","","clear_screen","","","","","","","","","","","","","","","","","","","","","","","","","",""
"","","","","","canvas-keyboard-response","32","222286","0.0-12.0-0.4","2d_cat_multi_stim_exp1","2022-4-7","15:0:0","25","75","3","9","10","40","30","120","20","18","[""White""]","No","Female","1802452","null","null","","","","fixation","","","","","","","","","","","","","","","","","","","","","","","","","",""
"","","","","","canvas-keyboard-response","33","222799","0.0-12.0-1.4","2d_cat_multi_stim_exp1","2022-4-7","15:0:0","25","75","3","9","10","40","30","120","20","18","[""White""]","No","Female","1802452","null","null","","","","clear_screen","","","","","","","","","","","","","","","","","","","","","","","","","",""
"","","","","","canvas-keyboard-response","34","223879","0.0-12.0-2.4","2d_cat_multi_stim_exp1","2022-4-7","15:0:0","25","75","3","9","10","40","30","120","20","18","[""White""]","No","Female","1802452","1069","i","learn","","","learn_trial","16.6667","110","out","0","1","","","","","","","","","","","","","","","","","","","","",""
"","","","","","canvas-keyboard-response","35","224390","0.0-12.0-3.4","2d_cat_multi_stim_exp1","2022-4-7","15:0:0","25","75","3","9","10","40","30","120","20","18","[""White""]","No","Female","1802452","null","null","learn_feedback","","","learn_feedback","16.6667","110","out","","","","","","","","","","","","","","","","","","","","","","",""
"","","","","","canvas-keyboard-response","36","224452","0.0-12.0-4.4","2d_cat_multi_stim_exp1","2022-4-7","15:0:0","25","75","3","9","10","40","30","120","20","18","[""White""]","No","Female","1802452","null","null","","","","clear_screen","","","","","","","","","","","","","","","","","","","","","","","","","",""
"","","","","","canvas-keyboard-response","37","224960","0.0-12.0-0.5","2d_cat_multi_stim_exp1","2022-4-7","15:0:0","25","75","3","9","10","40","30","120","20","18","[""White""]","No","Female","1802452","null","null","","","","fixation","","","","","","","","","","","","","","","","","","","","","","","","","",""
"","","","","","canvas-keyboard-response","38","225472","0.0-12.0-1.5","2d_cat_multi_stim_exp1","2022-4-7","15:0:0","25","75","3","9","10","40","30","120","20","18","[""White""]","No","Female","1802452","null","null","","","","clear_screen","","","","","","","","","","","","","","","","","","","","","","","","","",""
"","","","","","canvas-keyboard-response","39","226574","0.0-12.0-2.5","2d_cat_multi_stim_exp1","2022-4-7","15:0:0","25","75","3","9","10","40","30","120","20","18","[""White""]","No","Female","1802452","1093","i","learn","","","learn_trial","20","70","out","0","1","","","","","","","","","","","","","","","","","","","","",""
"","","","","","canvas-keyboard-response","40","227086","0.0-12.0-3.5","2d_cat_multi_stim_exp1","2022-4-7","15:0:0","25","75","3","9","10","40","30","120","20","18","[""White""]","No","Female","1802452","null","null","learn_feedback","","","learn_feedback","20","70","out","","","","","","","","","","","","","","","","","","","","","","",""
"","","","","","canvas-keyboard-response","41","227145","0.0-12.0-4.5","2d_cat_multi_stim_exp1","2022-4-7","15:0:0","25","75","3","9","10","40","30","120","20","18","[""White""]","No","Female","1802452","null","null","","","","clear_screen","","","","","","","","","","","","","","","","","","","","","","","","","",""
"","","","","","canvas-keyboard-response","42","227654","0.0-12.0-0.6","2d_cat_multi_stim_exp1","2022-4-7","15:0:0","25","75","3","9","10","40","30","120","20","18","[""White""]","No","Female","1802452","null","null","","","","fixation","","","","","","","","","","","","","","","","","","","","","","","","","",""
"","","","","","canvas-keyboard-response","43","228167","0.0-12.0-1.6","2d_cat_multi_stim_exp1","2022-4-7","15:0:0","25","75","3","9","10","40","30","120","20","18","[""White""]","No","Female","1802452","null","null","","","","clear_screen","","","","","","","","","","","","","","","","","","","","","","","","","",""
"","","","","","canvas-keyboard-response","44","228974","0.0-12.0-2.6","2d_cat_multi_stim_exp1","2022-4-7","15:0:0","25","75","3","9","10","40","30","120","20","18","[""White""]","No","Female","1802452","795","u","learn","","","learn_trial","25","75","in","1","1","","","","","","","","","","","","","","","","","","","","",""
"","","","","","canvas-keyboard-response","45","229484","0.0-12.0-3.6","2d_cat_multi_stim_exp1","2022-4-7","15:0:0","25","75","3","9","10","40","30","120","20","18","[""White""]","No","Female","1802452","null","null","learn_feedback","","","learn_feedback","25","75","in","","","","","","","","","","","","","","","","","","","","","","",""
"","","","","","canvas-keyboard-response","46","229547","0.0-12.0-4.6","2d_cat_multi_stim_exp1","2022-4-7","15:0:0","25","75","3","9","10","40","30","120","20","18","[""White""]","No","Female","1802452","null","null","","","","clear_screen","","","","","","","","","","","","","","","","","","","","","","","","","",""
"","","","","","canvas-keyboard-response","47","230055","0.0-12.0-0.7","2d_cat_multi_stim_exp1","2022-4-7","15:0:0","25","75","3","9","10","40","30","120","20","18","[""White""]","No","Female","1802452","null","null","","","","fixation","","","","","","","","","","","","","","","","","","","","","","","","","",""
"","","","","","canvas-keyboard-response","48","230564","0.0-12.0-1.7","2d_cat_multi_stim_exp1","2022-4-7","15:0:0","25","75","3","9","10","40","30","120","20","18","[""White""]","No","Female","1802452","null","null","","","","clear_screen","","","","","","","","","","","","","","","","","","","","","","","","","",""
"","","","","","canvas-keyboard-response","49","231366","0.0-12.0-2.7","2d_cat_multi_stim_exp1","2022-4-7","15:0:0","25","75","3","9","10","40","30","120","20","18","[""White""]","No","Female","1802452","791","u","learn","","","learn_trial","25","75","in","1","1","","","","","","","","","","","","","","","","","","","","",""
"","","","","","canvas-keyboard-response","50","231876","0.0-12.0-3.7","2d_cat_multi_stim_exp1","2022-4-7","15:0:0","25","75","3","9","10","40","30","120","20","18","[""White""]","No","Female","1802452","null","null","learn_feedback","","","learn_feedback","25","75","in","","","","","","","","","","","","","","","","","","","","","","",""
"","","","","","canvas-keyboard-response","51","231935","0.0-12.0-4.7","2d_cat_multi_stim_exp1","2022-4-7","15:0:0","25","75","3","9","10","40","30","120","20","18","[""White""]","No","Female","1802452","null","null","","","","clear_screen","","","","","","","","","","","","","","","","","","","","","","","","","",""
"","","","","","canvas-keyboard-response","52","232446","0.0-12.0-0.8","2d_cat_multi_stim_exp1","2022-4-7","15:0:0","25","75","3","9","10","40","30","120","20","18","[""White""]","No","Female","1802452","null","null","","","","fixation","","","","","","","","","","","","","","","","","","","","","","","","","",""
"","","","","","canvas-keyboard-response","53","232959","0.0-12.0-1.8","2d_cat_multi_stim_exp1","2022-4-7","15:0:0","25","75","3","9","10","40","30","120","20","18","[""White""]","No","Female","1802452","null","null","","","","clear_screen","","","","","","","","","","","","","","","","","","","","","","","","","",""
"","","","","","canvas-keyboard-response","54","233918","0.0-12.0-2.8","2d_cat_multi_stim_exp1","2022-4-7","15:0:0","25","75","3","9","10","40","30","120","20","18","[""White""]","No","Female","1802452","950","i","learn","","","learn_trial","23.3333","60","out","0","1","","","","","","","","","","","","","","","","","","","","",""
"","","","","","canvas-keyboard-response","55","234429","0.0-12.0-3.8","2d_cat_multi_stim_exp1","2022-4-7","15:0:0","25","75","3","9","10","40","30","120","20","18","[""White""]","No","Female","1802452","null","null","learn_feedback","","","learn_feedback","23.3333","60","out","","","","","","","","","","","","","","","","","","","","","","",""
"","","","","","canvas-keyboard-response","56","234487","0.0-12.0-4.8","2d_cat_multi_stim_exp1","2022-4-7","15:0:0","25","75","3","9","10","40","30","120","20","18","[""White""]","No","Female","1802452","null","null","","","","clear_screen","","","","","","","","","","","","","","","","","","","","","","","","","",""
"","","","","","canvas-keyboard-response","57","234998","0.0-12.0-0.9","2d_cat_multi_stim_exp1","2022-4-7","15:0:0","25","75","3","9","10","40","30","120","20","18","[""White""]","No","Female","1802452","null","null","","","","fixation","","","","","","","","","","","","","","","","","","","","","","","","","",""
"","","","","","canvas-keyboard-response","58","235507","0.0-12.0-1.9","2d_cat_multi_stim_exp1","2022-4-7","15:0:0","25","75","3","9","10","40","30","120","20","18","[""White""]","No","Female","1802452","null","null","","","","clear_screen","","","","","","","","","","","","","","","","","","","","","","","","","",""
"","","","","","canvas-keyboard-response","59","236422","0.0-12.0-2.9","2d_cat_multi_stim_exp1","2022-4-7","15:0:0","25","75","3","9","10","40","30","120","20","18","[""White""]","No","Female","1802452","905","u","learn","","","learn_trial","22.1081","77.3943","in","1","1","","","","","","","","","","","","","","","","","","","","",""
"","","","","","canvas-keyboard-response","60","236930","0.0-12.0-3.9","2d_cat_multi_stim_exp1","2022-4-7","15:0:0","25","75","3","9","10","40","30","120","20","18","[""White""]","No","Female","1802452","null","null","learn_feedback","","","learn_feedback","22.1081","77.3943","in","","","","","","","","","","","","","","","","","","","","","","",""
"","","","","","canvas-keyboard-response","61","236993","0.0-12.0-4.9","2d_cat_multi_stim_exp1","2022-4-7","15:0:0","25","75","3","9","10","40","30","120","20","18","[""White""]","No","Female","1802452","null","null","","","","clear_screen","","","","","","","","","","","","","","","","","","","","","","","","","",""
"","","","","","canvas-keyboard-response","62","237503","0.0-12.0-0.10","2d_cat_multi_stim_exp1","2022-4-7","15:0:0","25","75","3","9","10","40","30","120","20","18","[""White""]","No","Female","1802452","null","null","","","","fixation","","","","","","","","","","","","","","","","","","","","","","","","","",""
"","","","","","canvas-keyboard-response","63","238014","0.0-12.0-1.10","2d_cat_multi_stim_exp1","2022-4-7","15:0:0","25","75","3","9","10","40","30","120","20","18","[""White""]","No","Female","1802452","null","null","","","","clear_screen","","","","","","","","","","","","","","","","","","","","","","","","","",""
"","","","","","canvas-keyboard-response","64","238902","0.0-12.0-2.10","2d_cat_multi_stim_exp1","2022-4-7","15:0:0","25","75","3","9","10","40","30","120","20","18","[""White""]","No","Female","1802452","877","i","learn","","","learn_trial","29.2426","62.2721","in","0","0","","","","","","","","","","","","","","","","","","","","",""
"","","","","","canvas-keyboard-response","65","239915","0.0-12.0-3.10","2d_cat_multi_stim_exp1","2022-4-7","15:0:0","25","75","3","9","10","40","30","120","20","18","[""White""]","No","Female","1802452","null","null","learn_feedback","","","learn_feedback","29.2426","62.2721","in","","","","","","","","","","","","","","","","","","","","","","",""
"","","","","","canvas-keyboard-response","66","239976","0.0-12.0-4.10","2d_cat_multi_stim_exp1","2022-4-7","15:0:0","25","75","3","9","10","40","30","120","20","18","[""White""]","No","Female","1802452","null","null","","","","clear_screen","","","","","","","","","","","","","","","","","","","","","","","","","",""
"","","","","","canvas-keyboard-response","67","240484","0.0-12.0-0.11","2d_cat_multi_stim_exp1","2022-4-7","15:0:0","25","75","3","9","10","40","30","120","20","18","[""White""]","No","Female","1802452","null","null","","","","fixation","","","","","","","","","","","","","","","","","","","","","","","","","",""
"","","","","","canvas-keyboard-response","68","240994","0.0-12.0-1.11","2d_cat_multi_stim_exp1","2022-4-7","15:0:0","25","75","3","9","10","40","30","120","20","18","[""White""]","No","Female","1802452","null","null","","","","clear_screen","","","","","","","","","","","","","","","","","","","","","","","","","",""
"","","","","","canvas-keyboard-response","69","241934","0.0-12.0-2.11","2d_cat_multi_stim_exp1","2022-4-7","15:0:0","25","75","3","9","10","40","30","120","20","18","[""White""]","No","Female","1802452","930","i","learn","","","learn_trial","40","60","out","0","1","","","","","","","","","","","","","","","","","","","","",""
"","","","","","canvas-keyboard-response","70","242443","0.0-12.0-3.11","2d_cat_multi_stim_exp1","2022-4-7","15:0:0","25","75","3","9","10","40","30","120","20","18","[""White""]","No","Female","1802452","null","null","learn_feedback","","","learn_feedback","40","60","out","","","","","","","","","","","","","","","","","","","","","","",""
"","","","","","canvas-keyboard-response","71","242502","0.0-12.0-4.11","2d_cat_multi_stim_exp1","2022-4-7","15:0:0","25","75","3","9","10","40","30","120","20","18","[""White""]","No","Female","1802452","null","null","","","","clear_screen","","","","","","","","","","","","","","","","","","","","","","","","","",""
"","","","","","canvas-keyboard-response","72","243009","0.0-12.0-0.12","2d_cat_multi_stim_exp1","2022-4-7","15:0:0","25","75","3","9","10","40","30","120","20","18","[""White""]","No","Female","1802452","null","null","","","","fixation","","","","","","","","","","","","","","","","","","","","","","","","","",""
"","","","","","canvas-keyboard-response","73","243521","0.0-12.0-1.12","2d_cat_multi_stim_exp1","2022-4-7","15:0:0","25","75","3","9","10","40","30","120","20","18","[""White""]","No","Female","1802452","null","null","","","","clear_screen","","","","","","","","","","","","","","","","","","","","","","","","","",""
"","","","","","canvas-keyboard-response","74","244501","0.0-12.0-2.12","2d_cat_multi_stim_exp1","2022-4-7","15:0:0","25","75","3","9","10","40","30","120","20","18","[""White""]","No","Female","1802452","973","i","learn","","","learn_trial","33.3333","50","out","0","1","","","","","","","","","","","","","","","","","","","","",""
"","","","","","canvas-keyboard-response","75","245013","0.0-12.0-3.12","2d_cat_multi_stim_exp1","2022-4-7","15:0:0","25","75","3","9","10","40","30","120","20","18","[""White""]","No","Female","1802452","null","null","learn_feedback","","","learn_feedback","33.3333","50","out","","","","","","","","","","","","","","","","","","","","","","",""
"","","","","","canvas-keyboard-response","76","245075","0.0-12.0-4.12","2d_cat_multi_stim_exp1","2022-4-7","15:0:0","25","75","3","9","10","40","30","120","20","18","[""White""]","No","Female","1802452","null","null","","","","clear_screen","","","","","","","","","","","","","","","","","","","","","","","","","",""
"","","","","","canvas-keyboard-response","77","245584","0.0-12.0-0.13","2d_cat_multi_stim_exp1","2022-4-7","15:0:0","25","75","3","9","10","40","30","120","20","18","[""White""]","No","Female","1802452","null","null","","","","fixation","","","","","","","","","","","","","","","","","","","","","","","","","",""
"","","","","","canvas-keyboard-response","78","246094","0.0-12.0-1.13","2d_cat_multi_stim_exp1","2022-4-7","15:0:0","25","75","3","9","10","40","30","120","20","18","[""White""]","No","Female","1802452","null","null","","","","clear_screen","","","","","","","","","","","","","","","","","","","","","","","","","",""
"","","","","","canvas-keyboard-response","79","247111","0.0-12.0-2.13","2d_cat_multi_stim_exp1","2022-4-7","15:0:0","25","75","3","9","10","40","30","120","20","18","[""White""]","No","Female","1802452","1007","u","learn","","","learn_trial","26.4216","67.0746","in","1","1","","","","","","","","","","","","","","","","","","","","",""
"","","","","","canvas-keyboard-response","80","247620","0.0-12.0-3.13","2d_cat_multi_stim_exp1","2022-4-7","15:0:0","25","75","3","9","10","40","30","120","20","18","[""White""]","No","Female","1802452","null","null","learn_feedback","","","learn_feedback","26.4216","67.0746","in","","","","","","","","","","","","","","","","","","","","","","",""
"","","","","","canvas-keyboard-response","81","247680","0.0-12.0-4.13","2d_cat_multi_stim_exp1","2022-4-7","15:0:0","25","75","3","9","10","40","30","120","20","18","[""White""]","No","Female","1802452","null","null","","","","clear_screen","","","","","","","","","","","","","","","","","","","","","","","","","",""
"","","","","","canvas-keyboard-response","82","248189","0.0-12.0-0.14","2d_cat_multi_stim_exp1","2022-4-7","15:0:0","25","75","3","9","10","40","30","120","20","18","[""White""]","No","Female","1802452","null","null","","","","fixation","","","","","","","","","","","","","","","","","","","","","","","","","",""
"","","","","","canvas-keyboard-response","83","248700","0.0-12.0-1.14","2d_cat_multi_stim_exp1","2022-4-7","15:0:0","25","75","3","9","10","40","30","120","20","18","[""White""]","No","Female","1802452","null","null","","","","clear_screen","","","","","","","","","","","","","","","","","","","","","","","","","",""
"","","","","","canvas-keyboard-response","84","249598","0.0-12.0-2.14","2d_cat_multi_stim_exp1","2022-4-7","15:0:0","25","75","3","9","10","40","30","120","20","18","[""White""]","No","Female","1802452","894","i","learn","","","learn_trial","36.6667","60","out","0","1","","","","","","","","","","","","","","","","","","","","",""
"","","","","","canvas-keyboard-response","85","250109","0.0-12.0-3.14","2d_cat_multi_stim_exp1","2022-4-7","15:0:0","25","75","3","9","10","40","30","120","20","18","[""White""]","No","Female","1802452","null","null","learn_feedback","","","learn_feedback","36.6667","60","out","","","","","","","","","","","","","","","","","","","","","","",""
"","","","","","canvas-keyboard-response","86","250169","0.0-12.0-4.14","2d_cat_multi_stim_exp1","2022-4-7","15:0:0","25","75","3","9","10","40","30","120","20","18","[""White""]","No","Female","1802452","null","null","","","","clear_screen","","","","","","","","","","","","","","","","","","","","","","","","","",""
"","","","","","canvas-keyboard-response","87","250679","0.0-12.0-0.15","2d_cat_multi_stim_exp1","2022-4-7","15:0:0","25","75","3","9","10","40","30","120","20","18","[""White""]","No","Female","1802452","null","null","","","","fixation","","","","","","","","","","","","","","","","","","","","","","","","","",""
"","","","","","canvas-keyboard-response","88","251189","0.0-12.0-1.15","2d_cat_multi_stim_exp1","2022-4-7","15:0:0","25","75","3","9","10","40","30","120","20","18","[""White""]","No","Female","1802452","null","null","","","","clear_screen","","","","","","","","","","","","","","","","","","","","","","","","","",""
"","","","","","canvas-keyboard-response","89","252077","0.0-12.0-2.15","2d_cat_multi_stim_exp1","2022-4-7","15:0:0","25","75","3","9","10","40","30","120","20","18","[""White""]","No","Female","1802452","876","u","learn","","","learn_trial","25","75","in","1","1","","","","","","","","","","","","","","","","","","","","",""
"","","","","","canvas-keyboard-response","90","252586","0.0-12.0-3.15","2d_cat_multi_stim_exp1","2022-4-7","15:0:0","25","75","3","9","10","40","30","120","20","18","[""White""]","No","Female","1802452","null","null","learn_feedback","","","learn_feedback","25","75","in","","","","","","","","","","","","","","","","","","","","","","",""
"","","","","","canvas-keyboard-response","91","252647","0.0-12.0-4.15","2d_cat_multi_stim_exp1","2022-4-7","15:0:0","25","75","3","9","10","40","30","120","20","18","[""White""]","No","Female","1802452","null","null","","","","clear_screen","","","","","","","","","","","","","","","","","","","","","","","","","",""
"","","","","","canvas-keyboard-response","92","253155","0.0-12.0-0.16","2d_cat_multi_stim_exp1","2022-4-7","15:0:0","25","75","3","9","10","40","30","120","20","18","[""White""]","No","Female","1802452","null","null","","","","fixation","","","","","","","","","","","","","","","","","","","","","","","","","",""
"","","","","","canvas-keyboard-response","93","253664","0.0-12.0-1.16","2d_cat_multi_stim_exp1","2022-4-7","15:0:0","25","75","3","9","10","40","30","120","20","18","[""White""]","No","Female","1802452","null","null","","","","clear_screen","","","","","","","","","","","","","","","","","","","","","","","","","",""
"","","","","","canvas-keyboard-response","94","254606","0.0-12.0-2.16","2d_cat_multi_stim_exp1","2022-4-7","15:0:0","25","75","3","9","10","40","30","120","20","18","[""White""]","No","Female","1802452","933","u","learn","","","learn_trial","25","75","in","1","1","","","","","","","","","","","","","","","","","","","","",""
"","","","","","canvas-keyboard-response","95","255116","0.0-12.0-3.16","2d_cat_multi_stim_exp1","2022-4-7","15:0:0","25","75","3","9","10","40","30","120","20","18","[""White""]","No","Female","1802452","null","null","learn_feedback","","","learn_feedback","25","75","in","","","","","","","","","","","","","","","","","","","","","","",""
"","","","","","canvas-keyboard-response","96","255173","0.0-12.0-4.16","2d_cat_multi_stim_exp1","2022-4-7","15:0:0","25","75","3","9","10","40","30","120","20","18","[""White""]","No","Female","1802452","null","null","","","","clear_screen","","","","","","","","","","","","","","","","","","","","","","","","","",""
"","","","","","canvas-keyboard-response","97","255682","0.0-12.0-0.17","2d_cat_multi_stim_exp1","2022-4-7","15:0:0","25","75","3","9","10","40","30","120","20","18","[""White""]","No","Female","1802452","null","null","","","","fixation","","","","","","","","","","","","","","","","","","","","","","","","","",""
"","","","","","canvas-keyboard-response","98","256192","0.0-12.0-1.17","2d_cat_multi_stim_exp1","2022-4-7","15:0:0","25","75","3","9","10","40","30","120","20","18","[""White""]","No","Female","1802452","null","null","","","","clear_screen","","","","","","","","","","","","","","","","","","","","","","","","","",""
"","","","","","canvas-keyboard-response","99","257079","0.0-12.0-2.17","2d_cat_multi_stim_exp1","2022-4-7","15:0:0","25","75","3","9","10","40","30","120","20","18","[""White""]","No","Female","1802452","875","u","learn","","","learn_trial","25","75","in","1","1","","","","","","","","","","","","","","","","","","","","",""
"","","","","","canvas-keyboard-response","100","257590","0.0-12.0-3.17","2d_cat_multi_stim_exp1","2022-4-7","15:0:0","25","75","3","9","10","40","30","120","20","18","[""White""]","No","Female","1802452","null","null","learn_feedback","","","learn_feedback","25","75","in","","","","","","","","","","","","","","","","","","","","","","",""
"","","","","","canvas-keyboard-response","101","257651","0.0-12.0-4.17","2d_cat_multi_stim_exp1","2022-4-7","15:0:0","25","75","3","9","10","40","30","120","20","18","[""White""]","No","Female","1802452","null","null","","","","clear_screen","","","","","","","","","","","","","","","","","","","","","","","","","",""
"","","","","","canvas-keyboard-response","102","258161","0.0-12.0-0.18","2d_cat_multi_stim_exp1","2022-4-7","15:0:0","25","75","3","9","10","40","30","120","20","18","[""White""]","No","Female","1802452","null","null","","","","fixation","","","","","","","","","","","","","","","","","","","","","","","","","",""
"","","","","","canvas-keyboard-response","103","258673","0.0-12.0-1.18","2d_cat_multi_stim_exp1","2022-4-7","15:0:0","25","75","3","9","10","40","30","120","20","18","[""White""]","No","Female","1802452","null","null","","","","clear_screen","","","","","","","","","","","","","","","","","","","","","","","","","",""
"","","","","","canvas-keyboard-response","104","259486","0.0-12.0-2.18","2d_cat_multi_stim_exp1","2022-4-7","15:0:0","25","75","3","9","10","40","30","120","20","18","[""White""]","No","Female","1802452","803","u","learn","","","learn_trial","23.8209","66.7243","in","1","1","","","","","","","","","","","","","","","","","","","","",""
"","","","","","canvas-keyboard-response","105","259998","0.0-12.0-3.18","2d_cat_multi_stim_exp1","2022-4-7","15:0:0","25","75","3","9","10","40","30","120","20","18","[""White""]","No","Female","1802452","null","null","learn_feedback","","","learn_feedback","23.8209","66.7243","in","","","","","","","","","","","","","","","","","","","","","","",""
"","","","","","canvas-keyboard-response","106","260060","0.0-12.0-4.18","2d_cat_multi_stim_exp1","2022-4-7","15:0:0","25","75","3","9","10","40","30","120","20","18","[""White""]","No","Female","1802452","null","null","","","","clear_screen","","","","","","","","","","","","","","","","","","","","","","","","","",""
"","","","","","canvas-keyboard-response","107","260568","0.0-12.0-0.19","2d_cat_multi_stim_exp1","2022-4-7","15:0:0","25","75","3","9","10","40","30","120","20","18","[""White""]","No","Female","1802452","null","null","","","","fixation","","","","","","","","","","","","","","","","","","","","","","","","","",""
"","","","","","canvas-keyboard-response","108","261077","0.0-12.0-1.19","2d_cat_multi_stim_exp1","2022-4-7","15:0:0","25","75","3","9","10","40","30","120","20","18","[""White""]","No","Female","1802452","null","null","","","","clear_screen","","","","","","","","","","","","","","","","","","","","","","","","","",""
"","","","","","canvas-keyboard-response","109","261822","0.0-12.0-2.19","2d_cat_multi_stim_exp1","2022-4-7","15:0:0","25","75","3","9","10","40","30","120","20","18","[""White""]","No","Female","1802452","736","i","learn","","","learn_trial","33.3333","100","out","0","1","","","","","","","","","","","","","","","","","","","","",""
"","","","","","canvas-keyboard-response","110","262334","0.0-12.0-3.19","2d_cat_multi_stim_exp1","2022-4-7","15:0:0","25","75","3","9","10","40","30","120","20","18","[""White""]","No","Female","1802452","null","null","learn_feedback","","","learn_feedback","33.3333","100","out","","","","","","","","","","","","","","","","","","","","","","",""
"","","","","","canvas-keyboard-response","111","262393","0.0-12.0-4.19","2d_cat_multi_stim_exp1","2022-4-7","15:0:0","25","75","3","9","10","40","30","120","20","18","[""White""]","No","Female","1802452","null","null","","","","clear_screen","","","","","","","","","","","","","","","","","","","","","","","","","",""
"","","","","","canvas-keyboard-response","112","262902","0.0-12.0-0.20","2d_cat_multi_stim_exp1","2022-4-7","15:0:0","25","75","3","9","10","40","30","120","20","18","[""White""]","No","Female","1802452","null","null","","","","fixation","","","","","","","","","","","","","","","","","","","","","","","","","",""
"","","","","","canvas-keyboard-response","113","263413","0.0-12.0-1.20","2d_cat_multi_stim_exp1","2022-4-7","15:0:0","25","75","3","9","10","40","30","120","20","18","[""White""]","No","Female","1802452","null","null","","","","clear_screen","","","","","","","","","","","","","","","","","","","","","","","","","",""
"","","","","","canvas-keyboard-response","114","264213","0.0-12.0-2.20","2d_cat_multi_stim_exp1","2022-4-7","15:0:0","25","75","3","9","10","40","30","120","20","18","[""White""]","No","Female","1802452","789","i","learn","","","learn_trial","33.3333","90","out","0","1","","","","","","","","","","","","","","","","","","","","",""
"","","","","","canvas-keyboard-response","115","264722","0.0-12.0-3.20","2d_cat_multi_stim_exp1","2022-4-7","15:0:0","25","75","3","9","10","40","30","120","20","18","[""White""]","No","Female","1802452","null","null","learn_feedback","","","learn_feedback","33.3333","90","out","","","","","","","","","","","","","","","","","","","","","","",""
"","","","","","canvas-keyboard-response","116","264784","0.0-12.0-4.20","2d_cat_multi_stim_exp1","2022-4-7","15:0:0","25","75","3","9","10","40","30","120","20","18","[""White""]","No","Female","1802452","null","null","","","","clear_screen","","","","","","","","","","","","","","","","","","","","","","","","","",""
"","","","","","canvas-keyboard-response","117","265294","0.0-12.0-0.21","2d_cat_multi_stim_exp1","2022-4-7","15:0:0","25","75","3","9","10","40","30","120","20","18","[""White""]","No","Female","1802452","null","null","","","","fixation","","","","","","","","","","","","","","","","","","","","","","","","","",""
"","","","","","canvas-keyboard-response","118","265804","0.0-12.0-1.21","2d_cat_multi_stim_exp1","2022-4-7","15:0:0","25","75","3","9","10","40","30","120","20","18","[""White""]","No","Female","1802452","null","null","","","","clear_screen","","","","","","","","","","","","","","","","","","","","","","","","","",""
"","","","","","canvas-keyboard-response","119","267806","0.0-12.0-2.21","2d_cat_multi_stim_exp1","2022-4-7","15:0:0","25","75","3","9","10","40","30","120","20","18","[""White""]","No","Female","1802452","1993","u","learn","","","learn_trial","20.7574","62.2721","in","1","1","","","","","","","","","","","","","","","","","","","","",""
"","","","","","canvas-keyboard-response","120","268314","0.0-12.0-3.21","2d_cat_multi_stim_exp1","2022-4-7","15:0:0","25","75","3","9","10","40","30","120","20","18","[""White""]","No","Female","1802452","null","null","learn_feedback","","","learn_feedback","20.7574","62.2721","in","","","","","","","","","","","","","","","","","","","","","","",""
"","","","","","canvas-keyboard-response","121","268376","0.0-12.0-4.21","2d_cat_multi_stim_exp1","2022-4-7","15:0:0","25","75","3","9","10","40","30","120","20","18","[""White""]","No","Female","1802452","null","null","","","","clear_screen","","","","","","","","","","","","","","","","","","","","","","","","","",""
"","","","","","canvas-keyboard-response","122","268886","0.0-12.0-0.22","2d_cat_multi_stim_exp1","2022-4-7","15:0:0","25","75","3","9","10","40","30","120","20","18","[""White""]","No","Female","1802452","null","null","","","","fixation","","","","","","","","","","","","","","","","","","","","","","","","","",""
"","","","","","canvas-keyboard-response","123","269397","0.0-12.0-1.22","2d_cat_multi_stim_exp1","2022-4-7","15:0:0","25","75","3","9","10","40","30","120","20","18","[""White""]","No","Female","1802452","null","null","","","","clear_screen","","","","","","","","","","","","","","","","","","","","","","","","","",""
"","","","","","canvas-keyboard-response","124","270350","0.0-12.0-2.22","2d_cat_multi_stim_exp1","2022-4-7","15:0:0","25","75","3","9","10","40","30","120","20","18","[""White""]","No","Female","1802452","943","i","learn","","","learn_trial","20","40","out","0","1","","","","","","","","","","","","","","","","","","","","",""
"","","","","","canvas-keyboard-response","125","270860","0.0-12.0-3.22","2d_cat_multi_stim_exp1","2022-4-7","15:0:0","25","75","3","9","10","40","30","120","20","18","[""White""]","No","Female","1802452","null","null","learn_feedback","","","learn_feedback","20","40","out","","","","","","","","","","","","","","","","","","","","","","",""
"","","","","","canvas-keyboard-response","126","270923","0.0-12.0-4.22","2d_cat_multi_stim_exp1","2022-4-7","15:0:0","25","75","3","9","10","40","30","120","20","18","[""White""]","No","Female","1802452","null","null","","","","clear_screen","","","","","","","","","","","","","","","","","","","","","","","","","",""
"","","","","","canvas-keyboard-response","127","271432","0.0-12.0-0.23","2d_cat_multi_stim_exp1","2022-4-7","15:0:0","25","75","3","9","10","40","30","120","20","18","[""White""]","No","Female","1802452","null","null","","","","fixation","","","","","","","","","","","","","","","","","","","","","","","","","",""
"","","","","","canvas-keyboard-response","128","271944","0.0-12.0-1.23","2d_cat_multi_stim_exp1","2022-4-7","15:0:0","25","75","3","9","10","40","30","120","20","18","[""White""]","No","Female","1802452","null","null","","","","clear_screen","","","","","","","","","","","","","","","","","","","","","","","","","",""
"","","","","","canvas-keyboard-response","129","272798","0.0-12.0-2.23","2d_cat_multi_stim_exp1","2022-4-7","15:0:0","25","75","3","9","10","40","30","120","20","18","[""White""]","No","Female","1802452","845","u","learn","","","learn_trial","25","75","in","1","1","","","","","","","","","","","","","","","","","","","","",""
"","","","","","canvas-keyboard-response","130","273308","0.0-12.0-3.23","2d_cat_multi_stim_exp1","2022-4-7","15:0:0","25","75","3","9","10","40","30","120","20","18","[""White""]","No","Female","1802452","null","null","learn_feedback","","","learn_feedback","25","75","in","","","","","","","","","","","","","","","","","","","","","","",""
"","","","","","canvas-keyboard-response","131","273371","0.0-12.0-4.23","2d_cat_multi_stim_exp1","2022-4-7","15:0:0","25","75","3","9","10","40","30","120","20","18","[""White""]","No","Female","1802452","null","null","","","","clear_screen","","","","","","","","","","","","","","","","","","","","","","","","","",""
"","","","","","canvas-keyboard-response","132","273879","0.0-12.0-0.24","2d_cat_multi_stim_exp1","2022-4-7","15:0:0","25","75","3","9","10","40","30","120","20","18","[""White""]","No","Female","1802452","null","null","","","","fixation","","","","","","","","","","","","","","","","","","","","","","","","","",""
"","","","","","canvas-keyboard-response","133","274391","0.0-12.0-1.24","2d_cat_multi_stim_exp1","2022-4-7","15:0:0","25","75","3","9","10","40","30","120","20","18","[""White""]","No","Female","1802452","null","null","","","","clear_screen","","","","","","","","","","","","","","","","","","","","","","","","","",""
"","","","","","canvas-keyboard-response","134","275238","0.0-12.0-2.24","2d_cat_multi_stim_exp1","2022-4-7","15:0:0","25","75","3","9","10","40","30","120","20","18","[""White""]","No","Female","1802452","839","u","learn","","","learn_trial","25","75","in","1","1","","","","","","","","","","","","","","","","","","","","",""
"","","","","","canvas-keyboard-response","135","275748","0.0-12.0-3.24","2d_cat_multi_stim_exp1","2022-4-7","15:0:0","25","75","3","9","10","40","30","120","20","18","[""White""]","No","Female","1802452","null","null","learn_feedback","","","learn_feedback","25","75","in","","","","","","","","","","","","","","","","","","","","","","",""
"","","","","","canvas-keyboard-response","136","275808","0.0-12.0-4.24","2d_cat_multi_stim_exp1","2022-4-7","15:0:0","25","75","3","9","10","40","30","120","20","18","[""White""]","No","Female","1802452","null","null","","","","clear_screen","","","","","","","","","","","","","","","","","","","","","","","","","",""
"","","","","","canvas-keyboard-response","137","276318","0.0-12.0-0.25","2d_cat_multi_stim_exp1","2022-4-7","15:0:0","25","75","3","9","10","40","30","120","20","18","[""White""]","No","Female","1802452","null","null","","","","fixation","","","","","","","","","","","","","","","","","","","","","","","","","",""
"","","","","","canvas-keyboard-response","138","276831","0.0-12.0-1.25","2d_cat_multi_stim_exp1","2022-4-7","15:0:0","25","75","3","9","10","40","30","120","20","18","[""White""]","No","Female","1802452","null","null","","","","clear_screen","","","","","","","","","","","","","","","","","","","","","","","","","",""
"","","","","","canvas-keyboard-response","139","277565","0.0-12.0-2.25","2d_cat_multi_stim_exp1","2022-4-7","15:0:0","25","75","3","9","10","40","30","120","20","18","[""White""]","No","Female","1802452","724","u","learn","","","learn_trial","25","75","in","1","1","","","","","","","","","","","","","","","","","","","","",""
"","","","","","canvas-keyboard-response","140","278078","0.0-12.0-3.25","2d_cat_multi_stim_exp1","2022-4-7","15:0:0","25","75","3","9","10","40","30","120","20","18","[""White""]","No","Female","1802452","null","null","learn_feedback","","","learn_feedback","25","75","in","","","","","","","","","","","","","","","","","","","","","","",""
"","","","","","canvas-keyboard-response","141","278138","0.0-12.0-4.25","2d_cat_multi_stim_exp1","2022-4-7","15:0:0","25","75","3","9","10","40","30","120","20","18","[""White""]","No","Female","1802452","null","null","","","","clear_screen","","","","","","","","","","","","","","","","","","","","","","","","","",""
"","","","","","canvas-keyboard-response","142","278646","0.0-12.0-0.26","2d_cat_multi_stim_exp1","2022-4-7","15:0:0","25","75","3","9","10","40","30","120","20","18","[""White""]","No","Female","1802452","null","null","","","","fixation","","","","","","","","","","","","","","","","","","","","","","","","","",""
"","","","","","canvas-keyboard-response","143","279157","0.0-12.0-1.26","2d_cat_multi_stim_exp1","2022-4-7","15:0:0","25","75","3","9","10","40","30","120","20","18","[""White""]","No","Female","1802452","null","null","","","","clear_screen","","","","","","","","","","","","","","","","","","","","","","","","","",""
"","","","","","canvas-keyboard-response","144","280022","0.0-12.0-2.26","2d_cat_multi_stim_exp1","2022-4-7","15:0:0","25","75","3","9","10","40","30","120","20","18","[""White""]","No","Female","1802452","856","u","learn","","","learn_trial","23.3473","82.5112","in","1","1","","","","","","","","","","","","","","","","","","","","",""
"","","","","","canvas-keyboard-response","145","280534","0.0-12.0-3.26","2d_cat_multi_stim_exp1","2022-4-7","15:0:0","25","75","3","9","10","40","30","120","20","18","[""White""]","No","Female","1802452","null","null","learn_feedback","","","learn_feedback","23.3473","82.5112","in","","","","","","","","","","","","","","","","","","","","","","",""
"","","","","","canvas-keyboard-response","146","280594","0.0-12.0-4.26","2d_cat_multi_stim_exp1","2022-4-7","15:0:0","25","75","3","9","10","40","30","120","20","18","[""White""]","No","Female","1802452","null","null","","","","clear_screen","","","","","","","","","","","","","","","","","","","","","","","","","",""
"","","","","","canvas-keyboard-response","147","281102","0.0-12.0-0.27","2d_cat_multi_stim_exp1","2022-4-7","15:0:0","25","75","3","9","10","40","30","120","20","18","[""White""]","No","Female","1802452","null","null","","","","fixation","","","","","","","","","","","","","","","","","","","","","","","","","",""
"","","","","","canvas-keyboard-response","148","281613","0.0-12.0-1.27","2d_cat_multi_stim_exp1","2022-4-7","15:0:0","25","75","3","9","10","40","30","120","20","18","[""White""]","No","Female","1802452","null","null","","","","clear_screen","","","","","","","","","","","","","","","","","","","","","","","","","",""
"","","","","","canvas-keyboard-response","149","282421","0.0-12.0-2.27","2d_cat_multi_stim_exp1","2022-4-7","15:0:0","25","75","3","9","10","40","30","120","20","18","[""White""]","No","Female","1802452","798","i","learn","","","learn_trial","26.6667","30","out","0","1","","","","","","","","","","","","","","","","","","","","",""
"","","","","","canvas-keyboard-response","150","282932","0.0-12.0-3.27","2d_cat_multi_stim_exp1","2022-4-7","15:0:0","25","75","3","9","10","40","30","120","20","18","[""White""]","No","Female","1802452","null","null","learn_feedback","","","learn_feedback","26.6667","30","out","","","","","","","","","","","","","","","","","","","","","","",""
"","","","","","canvas-keyboard-response","151","282994","0.0-12.0-4.27","2d_cat_multi_stim_exp1","2022-4-7","15:0:0","25","75","3","9","10","40","30","120","20","18","[""White""]","No","Female","1802452","null","null","","","","clear_screen","","","","","","","","","","","","","","","","","","","","","","","","","",""
"","","","","","canvas-keyboard-response","152","283505","0.0-12.0-0.28","2d_cat_multi_stim_exp1","2022-4-7","15:0:0","25","75","3","9","10","40","30","120","20","18","[""White""]","No","Female","1802452","null","null","","","","fixation","","","","","","","","","","","","","","","","","","","","","","","","","",""
"","","","","","canvas-keyboard-response","153","284020","0.0-12.0-1.28","2d_cat_multi_stim_exp1","2022-4-7","15:0:0","25","75","3","9","10","40","30","120","20","18","[""White""]","No","Female","1802452","null","null","","","","clear_screen","","","","","","","","","","","","","","","","","","","","","","","","","",""
"","","","","","canvas-keyboard-response","154","284926","0.0-12.0-2.28","2d_cat_multi_stim_exp1","2022-4-7","15:0:0","25","75","3","9","10","40","30","120","20","18","[""White""]","No","Female","1802452","896","i","learn","","","learn_trial","30","120","out","0","1","","","","","","","","","","","","","","","","","","","","",""
"","","","","","canvas-keyboard-response","155","285435","0.0-12.0-3.28","2d_cat_multi_stim_exp1","2022-4-7","15:0:0","25","75","3","9","10","40","30","120","20","18","[""White""]","No","Female","1802452","null","null","learn_feedback","","","learn_feedback","30","120","out","","","","","","","","","","","","","","","","","","","","","","",""
"","","","","","canvas-keyboard-response","156","285500","0.0-12.0-4.28","2d_cat_multi_stim_exp1","2022-4-7","15:0:0","25","75","3","9","10","40","30","120","20","18","[""White""]","No","Female","1802452","null","null","","","","clear_screen","","","","","","","","","","","","","","","","","","","","","","","","","",""
"","","","","","canvas-keyboard-response","157","286011","0.0-12.0-0.29","2d_cat_multi_stim_exp1","2022-4-7","15:0:0","25","75","3","9","10","40","30","120","20","18","[""White""]","No","Female","1802452","null","null","","","","fixation","","","","","","","","","","","","","","","","","","","","","","","","","",""
"","","","","","canvas-keyboard-response","158","286522","0.0-12.0-1.29","2d_cat_multi_stim_exp1","2022-4-7","15:0:0","25","75","3","9","10","40","30","120","20","18","[""White""]","No","Female","1802452","null","null","","","","clear_screen","","","","","","","","","","","","","","","","","","","","","","","","","",""
"","","","","","canvas-keyboard-response","159","287726","0.0-12.0-2.29","2d_cat_multi_stim_exp1","2022-4-7","15:0:0","25","75","3","9","10","40","30","120","20","18","[""White""]","No","Female","1802452","1193","u","learn","","","learn_trial","25","75","in","1","1","","","","","","","","","","","","","","","","","","","","",""
"","","","","","canvas-keyboard-response","160","288236","0.0-12.0-3.29","2d_cat_multi_stim_exp1","2022-4-7","15:0:0","25","75","3","9","10","40","30","120","20","18","[""White""]","No","Female","1802452","null","null","learn_feedback","","","learn_feedback","25","75","in","","","","","","","","","","","","","","","","","","","","","","",""
"","","","","","canvas-keyboard-response","161","288296","0.0-12.0-4.29","2d_cat_multi_stim_exp1","2022-4-7","15:0:0","25","75","3","9","10","40","30","120","20","18","[""White""]","No","Female","1802452","null","null","","","","clear_screen","","","","","","","","","","","","","","","","","","","","","","","","","",""
"","","","","","canvas-keyboard-response","162","288806","0.0-12.0-0.30","2d_cat_multi_stim_exp1","2022-4-7","15:0:0","25","75","3","9","10","40","30","120","20","18","[""White""]","No","Female","1802452","null","null","","","","fixation","","","","","","","","","","","","","","","","","","","","","","","","","",""
"","","","","","canvas-keyboard-response","163","289316","0.0-12.0-1.30","2d_cat_multi_stim_exp1","2022-4-7","15:0:0","25","75","3","9","10","40","30","120","20","18","[""White""]","No","Female","1802452","null","null","","","","clear_screen","","","","","","","","","","","","","","","","","","","","","","","","","",""
"","","","","","canvas-keyboard-response","164","290214","0.0-12.0-2.30","2d_cat_multi_stim_exp1","2022-4-7","15:0:0","25","75","3","9","10","40","30","120","20","18","[""White""]","No","Female","1802452","887","i","learn","","","learn_trial","33.3333","80","out","0","1","","","","","","","","","","","","","","","","","","","","",""
"","","","","","canvas-keyboard-response","165","290724","0.0-12.0-3.30","2d_cat_multi_stim_exp1","2022-4-7","15:0:0","25","75","3","9","10","40","30","120","20","18","[""White""]","No","Female","1802452","null","null","learn_feedback","","","learn_feedback","33.3333","80","out","","","","","","","","","","","","","","","","","","","","","","",""
"","","","","","canvas-keyboard-response","166","290784","0.0-12.0-4.30","2d_cat_multi_stim_exp1","2022-4-7","15:0:0","25","75","3","9","10","40","30","120","20","18","[""White""]","No","Female","1802452","null","null","","","","clear_screen","","","","","","","","","","","","","","","","","","","","","","","","","",""
"","","","","","canvas-keyboard-response","167","291299","0.0-12.0-0.31","2d_cat_multi_stim_exp1","2022-4-7","15:0:0","25","75","3","9","10","40","30","120","20","18","[""White""]","No","Female","1802452","null","null","","","","fixation","","","","","","","","","","","","","","","","","","","","","","","","","",""
"","","","","","canvas-keyboard-response","168","291810","0.0-12.0-1.31","2d_cat_multi_stim_exp1","2022-4-7","15:0:0","25","75","3","9","10","40","30","120","20","18","[""White""]","No","Female","1802452","null","null","","","","clear_screen","","","","","","","","","","","","","","","","","","","","","","","","","",""
"","","","","","canvas-keyboard-response","169","292638","0.0-12.0-2.31","2d_cat_multi_stim_exp1","2022-4-7","15:0:0","25","75","3","9","10","40","30","120","20","18","[""White""]","No","Female","1802452","820","u","learn","","","learn_trial","25","75","in","1","1","","","","","","","","","","","","","","","","","","","","",""
"","","","","","canvas-keyboard-response","170","293147","0.0-12.0-3.31","2d_cat_multi_stim_exp1","2022-4-7","15:0:0","25","75","3","9","10","40","30","120","20","18","[""White""]","No","Female","1802452","null","null","learn_feedback","","","learn_feedback","25","75","in","","","","","","","","","","","","","","","","","","","","","","",""
"","","","","","canvas-keyboard-response","171","293205","0.0-12.0-4.31","2d_cat_multi_stim_exp1","2022-4-7","15:0:0","25","75","3","9","10","40","30","120","20","18","[""White""]","No","Female","1802452","null","null","","","","clear_screen","","","","","","","","","","","","","","","","","","","","","","","","","",""
"","","","","","canvas-keyboard-response","172","293715","0.0-12.0-0.32","2d_cat_multi_stim_exp1","2022-4-7","15:0:0","25","75","3","9","10","40","30","120","20","18","[""White""]","No","Female","1802452","null","null","","","","fixation","","","","","","","","","","","","","","","","","","","","","","","","","",""
"","","","","","canvas-keyboard-response","173","294224","0.0-12.0-1.32","2d_cat_multi_stim_exp1","2022-4-7","15:0:0","25","75","3","9","10","40","30","120","20","18","[""White""]","No","Female","1802452","null","null","","","","clear_screen","","","","","","","","","","","","","","","","","","","","","","","","","",""
"","","","","","canvas-keyboard-response","174","295238","0.0-12.0-2.32","2d_cat_multi_stim_exp1","2022-4-7","15:0:0","25","75","3","9","10","40","30","120","20","18","[""White""]","No","Female","1802452","1003","u","learn","","","learn_trial","25","75","in","1","1","","","","","","","","","","","","","","","","","","","","",""
"","","","","","canvas-keyboard-response","175","295746","0.0-12.0-3.32","2d_cat_multi_stim_exp1","2022-4-7","15:0:0","25","75","3","9","10","40","30","120","20","18","[""White""]","No","Female","1802452","null","null","learn_feedback","","","learn_feedback","25","75","in","","","","","","","","","","","","","","","","","","","","","","",""
"","","","","","canvas-keyboard-response","176","295808","0.0-12.0-4.32","2d_cat_multi_stim_exp1","2022-4-7","15:0:0","25","75","3","9","10","40","30","120","20","18","[""White""]","No","Female","1802452","null","null","","","","clear_screen","","","","","","","","","","","","","","","","","","","","","","","","","",""
"","","","","","canvas-keyboard-response","177","296317","0.0-12.0-0.33","2d_cat_multi_stim_exp1","2022-4-7","15:0:0","25","75","3","9","10","40","30","120","20","18","[""White""]","No","Female","1802452","null","null","","","","fixation","","","","","","","","","","","","","","","","","","","","","","","","","",""
"","","","","","canvas-keyboard-response","178","296829","0.0-12.0-1.33","2d_cat_multi_stim_exp1","2022-4-7","15:0:0","25","75","3","9","10","40","30","120","20","18","[""White""]","No","Female","1802452","null","null","","","","clear_screen","","","","","","","","","","","","","","","","","","","","","","","","","",""
"","","","","","canvas-keyboard-response","179","297485","0.0-12.0-2.33","2d_cat_multi_stim_exp1","2022-4-7","15:0:0","25","75","3","9","10","40","30","120","20","18","[""White""]","No","Female","1802452","647","i","learn","","","learn_trial","13.3333","30","out","0","1","","","","","","","","","","","","","","","","","","","","",""
"","","","","","canvas-keyboard-response","180","297996","0.0-12.0-3.33","2d_cat_multi_stim_exp1","2022-4-7","15:0:0","25","75","3","9","10","40","30","120","20","18","[""White""]","No","Female","1802452","null","null","learn_feedback","","","learn_feedback","13.3333","30","out","","","","","","","","","","","","","","","","","","","","","","",""
"","","","","","canvas-keyboard-response","181","298059","0.0-12.0-4.33","2d_cat_multi_stim_exp1","2022-4-7","15:0:0","25","75","3","9","10","40","30","120","20","18","[""White""]","No","Female","1802452","null","null","","","","clear_screen","","","","","","","","","","","","","","","","","","","","","","","","","",""
"","","","","","canvas-keyboard-response","182","298567","0.0-12.0-0.34","2d_cat_multi_stim_exp1","2022-4-7","15:0:0","25","75","3","9","10","40","30","120","20","18","[""White""]","No","Female","1802452","null","null","","","","fixation","","","","","","","","","","","","","","","","","","","","","","","","","",""
"","","","","","canvas-keyboard-response","183","299077","0.0-12.0-1.34","2d_cat_multi_stim_exp1","2022-4-7","15:0:0","25","75","3","9","10","40","30","120","20","18","[""White""]","No","Female","1802452","null","null","","","","clear_screen","","","","","","","","","","","","","","","","","","","","","","","","","",""
"","","","","","canvas-keyboard-response","184","299997","0.0-12.0-2.34","2d_cat_multi_stim_exp1","2022-4-7","15:0:0","25","75","3","9","10","40","30","120","20","18","[""White""]","No","Female","1802452","911","u","learn","","","learn_trial","30","60","out","1","0","","","","","","","","","","","","","","","","","","","","",""
"","","","","","canvas-keyboard-response","185","301010","0.0-12.0-3.34","2d_cat_multi_stim_exp1","2022-4-7","15:0:0","25","75","3","9","10","40","30","120","20","18","[""White""]","No","Female","1802452","null","null","learn_feedback","","","learn_feedback","30","60","out","","","","","","","","","","","","","","","","","","","","","","",""
"","","","","","canvas-keyboard-response","186","301072","0.0-12.0-4.34","2d_cat_multi_stim_exp1","2022-4-7","15:0:0","25","75","3","9","10","40","30","120","20","18","[""White""]","No","Female","1802452","null","null","","","","clear_screen","","","","","","","","","","","","","","","","","","","","","","","","","",""
"","","","","","canvas-keyboard-response","187","301582","0.0-12.0-0.35","2d_cat_multi_stim_exp1","2022-4-7","15:0:0","25","75","3","9","10","40","30","120","20","18","[""White""]","No","Female","1802452","null","null","","","","fixation","","","","","","","","","","","","","","","","","","","","","","","","","",""
"","","","","","canvas-keyboard-response","188","302093","0.0-12.0-1.35","2d_cat_multi_stim_exp1","2022-4-7","15:0:0","25","75","3","9","10","40","30","120","20","18","[""White""]","No","Female","1802452","null","null","","","","clear_screen","","","","","","","","","","","","","","","","","","","","","","","","","",""
"","","","","","canvas-keyboard-response","189","302990","0.0-12.0-2.35","2d_cat_multi_stim_exp1","2022-4-7","15:0:0","25","75","3","9","10","40","30","120","20","18","[""White""]","No","Female","1802452","884","i","learn","","","learn_trial","16.6667","70","out","0","1","","","","","","","","","","","","","","","","","","","","",""
"","","","","","canvas-keyboard-response","190","303499","0.0-12.0-3.35","2d_cat_multi_stim_exp1","2022-4-7","15:0:0","25","75","3","9","10","40","30","120","20","18","[""White""]","No","Female","1802452","null","null","learn_feedback","","","learn_feedback","16.6667","70","out","","","","","","","","","","","","","","","","","","","","","","",""
"","","","","","canvas-keyboard-response","191","303560","0.0-12.0-4.35","2d_cat_multi_stim_exp1","2022-4-7","15:0:0","25","75","3","9","10","40","30","120","20","18","[""White""]","No","Female","1802452","null","null","","","","clear_screen","","","","","","","","","","","","","","","","","","","","","","","","","",""
"","","","","","canvas-keyboard-response","192","304067","0.0-12.0-0.36","2d_cat_multi_stim_exp1","2022-4-7","15:0:0","25","75","3","9","10","40","30","120","20","18","[""White""]","No","Female","1802452","null","null","","","","fixation","","","","","","","","","","","","","","","","","","","","","","","","","",""
"","","","","","canvas-keyboard-response","193","304579","0.0-12.0-1.36","2d_cat_multi_stim_exp1","2022-4-7","15:0:0","25","75","3","9","10","40","30","120","20","18","[""White""]","No","Female","1802452","null","null","","","","clear_screen","","","","","","","","","","","","","","","","","","","","","","","","","",""
"","","","","","canvas-keyboard-response","194","305373","0.0-12.0-2.36","2d_cat_multi_stim_exp1","2022-4-7","15:0:0","25","75","3","9","10","40","30","120","20","18","[""White""]","No","Female","1802452","786","i","learn","","","learn_trial","36.6667","80","out","0","1","","","","","","","","","","","","","","","","","","","","",""
"","","","","","canvas-keyboard-response","195","305880","0.0-12.0-3.36","2d_cat_multi_stim_exp1","2022-4-7","15:0:0","25","75","3","9","10","40","30","120","20","18","[""White""]","No","Female","1802452","null","null","learn_feedback","","","learn_feedback","36.6667","80","out","","","","","","","","","","","","","","","","","","","","","","",""
"","","","","","canvas-keyboard-response","196","305943","0.0-12.0-4.36","2d_cat_multi_stim_exp1","2022-4-7","15:0:0","25","75","3","9","10","40","30","120","20","18","[""White""]","No","Female","1802452","null","null","","","","clear_screen","","","","","","","","","","","","","","","","","","","","","","","","","",""
"","","","","","canvas-keyboard-response","197","306453","0.0-12.0-0.37","2d_cat_multi_stim_exp1","2022-4-7","15:0:0","25","75","3","9","10","40","30","120","20","18","[""White""]","No","Female","1802452","null","null","","","","fixation","","","","","","","","","","","","","","","","","","","","","","","","","",""
"","","","","","canvas-keyboard-response","198","306966","0.0-12.0-1.37","2d_cat_multi_stim_exp1","2022-4-7","15:0:0","25","75","3","9","10","40","30","120","20","18","[""White""]","No","Female","1802452","null","null","","","","clear_screen","","","","","","","","","","","","","","","","","","","","","","","","","",""
"","","","","","canvas-keyboard-response","199","308061","0.0-12.0-2.37","2d_cat_multi_stim_exp1","2022-4-7","15:0:0","25","75","3","9","10","40","30","120","20","18","[""White""]","No","Female","1802452","1083","u","learn","","","learn_trial","25","75","in","1","1","","","","","","","","","","","","","","","","","","","","",""
"","","","","","canvas-keyboard-response","200","308569","0.0-12.0-3.37","2d_cat_multi_stim_exp1","2022-4-7","15:0:0","25","75","3","9","10","40","30","120","20","18","[""White""]","No","Female","1802452","null","null","learn_feedback","","","learn_feedback","25","75","in","","","","","","","","","","","","","","","","","","","","","","",""
"","","","","","canvas-keyboard-response","201","308631","0.0-12.0-4.37","2d_cat_multi_stim_exp1","2022-4-7","15:0:0","25","75","3","9","10","40","30","120","20","18","[""White""]","No","Female","1802452","null","null","","","","clear_screen","","","","","","","","","","","","","","","","","","","","","","","","","",""
"","","","","","canvas-keyboard-response","202","309142","0.0-12.0-0.38","2d_cat_multi_stim_exp1","2022-4-7","15:0:0","25","75","3","9","10","40","30","120","20","18","[""White""]","No","Female","1802452","null","null","","","","fixation","","","","","","","","","","","","","","","","","","","","","","","","","",""
"","","","","","canvas-keyboard-response","203","309651","0.0-12.0-1.38","2d_cat_multi_stim_exp1","2022-4-7","15:0:0","25","75","3","9","10","40","30","120","20","18","[""White""]","No","Female","1802452","null","null","","","","clear_screen","","","","","","","","","","","","","","","","","","","","","","","","","",""
"","","","","","canvas-keyboard-response","204","310525","0.0-12.0-2.38","2d_cat_multi_stim_exp1","2022-4-7","15:0:0","25","75","3","9","10","40","30","120","20","18","[""White""]","No","Female","1802452","862","i","learn","","","learn_trial","27.8087","78.1624","in","0","0","","","","","","","","","","","","","","","","","","","","",""
"","","","","","canvas-keyboard-response","205","311531","0.0-12.0-3.38","2d_cat_multi_stim_exp1","2022-4-7","15:0:0","25","75","3","9","10","40","30","120","20","18","[""White""]","No","Female","1802452","null","null","learn_feedback","","","learn_feedback","27.8087","78.1624","in","","","","","","","","","","","","","","","","","","","","","","",""
"","","","","","canvas-keyboard-response","206","311590","0.0-12.0-4.38","2d_cat_multi_stim_exp1","2022-4-7","15:0:0","25","75","3","9","10","40","30","120","20","18","[""White""]","No","Female","1802452","null","null","","","","clear_screen","","","","","","","","","","","","","","","","","","","","","","","","","",""
"","","","","","canvas-keyboard-response","207","312099","0.0-12.0-0.39","2d_cat_multi_stim_exp1","2022-4-7","15:0:0","25","75","3","9","10","40","30","120","20","18","[""White""]","No","Female","1802452","null","null","","","","fixation","","","","","","","","","","","","","","","","","","","","","","","","","",""
"","","","","","canvas-keyboard-response","208","312608","0.0-12.0-1.39","2d_cat_multi_stim_exp1","2022-4-7","15:0:0","25","75","3","9","10","40","30","120","20","18","[""White""]","No","Female","1802452","null","null","","","","clear_screen","","","","","","","","","","","","","","","","","","","","","","","","","",""
"","","","","","canvas-keyboard-response","209","313478","0.0-12.0-2.39","2d_cat_multi_stim_exp1","2022-4-7","15:0:0","25","75","3","9","10","40","30","120","20","18","[""White""]","No","Female","1802452","859","u","learn","","","learn_trial","25","75","in","1","1","","","","","","","","","","","","","","","","","","","","",""
"","","","","","canvas-keyboard-response","210","313990","0.0-12.0-3.39","2d_cat_multi_stim_exp1","2022-4-7","15:0:0","25","75","3","9","10","40","30","120","20","18","[""White""]","No","Female","1802452","null","null","learn_feedback","","","learn_feedback","25","75","in","","","","","","","","","","","","","","","","","","","","","","",""
"","","","","","canvas-keyboard-response","211","314051","0.0-12.0-4.39","2d_cat_multi_stim_exp1","2022-4-7","15:0:0","25","75","3","9","10","40","30","120","20","18","[""White""]","No","Female","1802452","null","null","","","","clear_screen","","","","","","","","","","","","","","","","","","","","","","","","","",""
"","","","","","canvas-keyboard-response","212","314558","0.0-12.0-0.40","2d_cat_multi_stim_exp1","2022-4-7","15:0:0","25","75","3","9","10","40","30","120","20","18","[""White""]","No","Female","1802452","null","null","","","","fixation","","","","","","","","","","","","","","","","","","","","","","","","","",""
"","","","","","canvas-keyboard-response","213","315073","0.0-12.0-1.40","2d_cat_multi_stim_exp1","2022-4-7","15:0:0","25","75","3","9","10","40","30","120","20","18","[""White""]","No","Female","1802452","null","null","","","","clear_screen","","","","","","","","","","","","","","","","","","","","","","","","","",""
"","","","","","canvas-keyboard-response","214","315958","0.0-12.0-2.40","2d_cat_multi_stim_exp1","2022-4-7","15:0:0","25","75","3","9","10","40","30","120","20","18","[""White""]","No","Female","1802452","878","i","learn","","","learn_trial","30","110","out","0","1","","","","","","","","","","","","","","","","","","","","",""
"","","","","","canvas-keyboard-response","215","316472","0.0-12.0-3.40","2d_cat_multi_stim_exp1","2022-4-7","15:0:0","25","75","3","9","10","40","30","120","20","18","[""White""]","No","Female","1802452","null","null","learn_feedback","","","learn_feedback","30","110","out","","","","","","","","","","","","","","","","","","","","","","",""
"","","","","","canvas-keyboard-response","216","316534","0.0-12.0-4.40","2d_cat_multi_stim_exp1","2022-4-7","15:0:0","25","75","3","9","10","40","30","120","20","18","[""White""]","No","Female","1802452","null","null","","","","clear_screen","","","","","","","","","","","","","","","","","","","","","","","","","",""
"","","","","","canvas-keyboard-response","217","317046","0.0-12.0-0.41","2d_cat_multi_stim_exp1","2022-4-7","15:0:0","25","75","3","9","10","40","30","120","20","18","[""White""]","No","Female","1802452","null","null","","","","fixation","","","","","","","","","","","","","","","","","","","","","","","","","",""
"","","","","","canvas-keyboard-response","218","317560","0.0-12.0-1.41","2d_cat_multi_stim_exp1","2022-4-7","15:0:0","25","75","3","9","10","40","30","120","20","18","[""White""]","No","Female","1802452","null","null","","","","clear_screen","","","","","","","","","","","","","","","","","","","","","","","","","",""
"","","","","","canvas-keyboard-response","219","318663","0.0-12.0-2.41","2d_cat_multi_stim_exp1","2022-4-7","15:0:0","25","75","3","9","10","40","30","120","20","18","[""White""]","No","Female","1802452","1089","u","learn","","","learn_trial","25","75","in","1","1","","","","","","","","","","","","","","","","","","","","",""
"","","","","","canvas-keyboard-response","220","319175","0.0-12.0-3.41","2d_cat_multi_stim_exp1","2022-4-7","15:0:0","25","75","3","9","10","40","30","120","20","18","[""White""]","No","Female","1802452","null","null","learn_feedback","","","learn_feedback","25","75","in","","","","","","","","","","","","","","","","","","","","","","",""
"","","","","","canvas-keyboard-response","221","319234","0.0-12.0-4.41","2d_cat_multi_stim_exp1","2022-4-7","15:0:0","25","75","3","9","10","40","30","120","20","18","[""White""]","No","Female","1802452","null","null","","","","clear_screen","","","","","","","","","","","","","","","","","","","","","","","","","",""
"","","","","","canvas-keyboard-response","222","319743","0.0-12.0-0.42","2d_cat_multi_stim_exp1","2022-4-7","15:0:0","25","75","3","9","10","40","30","120","20","18","[""White""]","No","Female","1802452","null","null","","","","fixation","","","","","","","","","","","","","","","","","","","","","","","","","",""
"","","","","","canvas-keyboard-response","223","320256","0.0-12.0-1.42","2d_cat_multi_stim_exp1","2022-4-7","15:0:0","25","75","3","9","10","40","30","120","20","18","[""White""]","No","Female","1802452","null","null","","","","clear_screen","","","","","","","","","","","","","","","","","","","","","","","","","",""
"","","","","","canvas-keyboard-response","224","321087","0.0-12.0-2.42","2d_cat_multi_stim_exp1","2022-4-7","15:0:0","25","75","3","9","10","40","30","120","20","18","[""White""]","No","Female","1802452","820","u","learn","","","learn_trial","25.4027","83.9185","in","1","1","","","","","","","","","","","","","","","","","","","","",""
"","","","","","canvas-keyboard-response","225","321601","0.0-12.0-3.42","2d_cat_multi_stim_exp1","2022-4-7","15:0:0","25","75","3","9","10","40","30","120","20","18","[""White""]","No","Female","1802452","null","null","learn_feedback","","","learn_feedback","25.4027","83.9185","in","","","","","","","","","","","","","","","","","","","","","","",""
"","","","","","canvas-keyboard-response","226","321664","0.0-12.0-4.42","2d_cat_multi_stim_exp1","2022-4-7","15:0:0","25","75","3","9","10","40","30","120","20","18","[""White""]","No","Female","1802452","null","null","","","","clear_screen","","","","","","","","","","","","","","","","","","","","","","","","","",""
"","","","","","canvas-keyboard-response","227","322172","0.0-12.0-0.43","2d_cat_multi_stim_exp1","2022-4-7","15:0:0","25","75","3","9","10","40","30","120","20","18","[""White""]","No","Female","1802452","null","null","","","","fixation","","","","","","","","","","","","","","","","","","","","","","","","","",""
"","","","","","canvas-keyboard-response","228","322679","0.0-12.0-1.43","2d_cat_multi_stim_exp1","2022-4-7","15:0:0","25","75","3","9","10","40","30","120","20","18","[""White""]","No","Female","1802452","null","null","","","","clear_screen","","","","","","","","","","","","","","","","","","","","","","","","","",""
"","","","","","canvas-keyboard-response","229","323422","0.0-12.0-2.43","2d_cat_multi_stim_exp1","2022-4-7","15:0:0","25","75","3","9","10","40","30","120","20","18","[""White""]","No","Female","1802452","732","i","learn","","","learn_trial","16.6667","30","out","0","1","","","","","","","","","","","","","","","","","","","","",""
"","","","","","canvas-keyboard-response","230","323931","0.0-12.0-3.43","2d_cat_multi_stim_exp1","2022-4-7","15:0:0","25","75","3","9","10","40","30","120","20","18","[""White""]","No","Female","1802452","null","null","learn_feedback","","","learn_feedback","16.6667","30","out","","","","","","","","","","","","","","","","","","","","","","",""
"","","","","","canvas-keyboard-response","231","323993","0.0-12.0-4.43","2d_cat_multi_stim_exp1","2022-4-7","15:0:0","25","75","3","9","10","40","30","120","20","18","[""White""]","No","Female","1802452","null","null","","","","clear_screen","","","","","","","","","","","","","","","","","","","","","","","","","",""
"","","","","","canvas-keyboard-response","232","324502","0.0-12.0-0.44","2d_cat_multi_stim_exp1","2022-4-7","15:0:0","25","75","3","9","10","40","30","120","20","18","[""White""]","No","Female","1802452","null","null","","","","fixation","","","","","","","","","","","","","","","","","","","","","","","","","",""
"","","","","","canvas-keyboard-response","233","325011","0.0-12.0-1.44","2d_cat_multi_stim_exp1","2022-4-7","15:0:0","25","75","3","9","10","40","30","120","20","18","[""White""]","No","Female","1802452","null","null","","","","clear_screen","","","","","","","","","","","","","","","","","","","","","","","","","",""
"","","","","","canvas-keyboard-response","234","325734","0.0-12.0-2.44","2d_cat_multi_stim_exp1","2022-4-7","15:0:0","25","75","3","9","10","40","30","120","20","18","[""White""]","No","Female","1802452","710","u","learn","","","learn_trial","25","75","in","1","1","","","","","","","","","","","","","","","","","","","","",""
"","","","","","canvas-keyboard-response","235","326244","0.0-12.0-3.44","2d_cat_multi_stim_exp1","2022-4-7","15:0:0","25","75","3","9","10","40","30","120","20","18","[""White""]","No","Female","1802452","null","null","learn_feedback","","","learn_feedback","25","75","in","","","","","","","","","","","","","","","","","","","","","","",""
"","","","","","canvas-keyboard-response","236","326307","0.0-12.0-4.44","2d_cat_multi_stim_exp1","2022-4-7","15:0:0","25","75","3","9","10","40","30","120","20","18","[""White""]","No","Female","1802452","null","null","","","","clear_screen","","","","","","","","","","","","","","","","","","","","","","","","","",""
"","","","","","canvas-keyboard-response","237","326814","0.0-12.0-0.45","2d_cat_multi_stim_exp1","2022-4-7","15:0:0","25","75","3","9","10","40","30","120","20","18","[""White""]","No","Female","1802452","null","null","","","","fixation","","","","","","","","","","","","","","","","","","","","","","","","","",""
"","","","","","canvas-keyboard-response","238","327325","0.0-12.0-1.45","2d_cat_multi_stim_exp1","2022-4-7","15:0:0","25","75","3","9","10","40","30","120","20","18","[""White""]","No","Female","1802452","null","null","","","","clear_screen","","","","","","","","","","","","","","","","","","","","","","","","","",""
"","","","","","canvas-keyboard-response","239","328166","0.0-12.0-2.45","2d_cat_multi_stim_exp1","2022-4-7","15:0:0","25","75","3","9","10","40","30","120","20","18","[""White""]","No","Female","1802452","831","u","learn","","","learn_trial","24.8654","83.9909","in","1","1","","","","","","","","","","","","","","","","","","","","",""
"","","","","","canvas-keyboard-response","240","328678","0.0-12.0-3.45","2d_cat_multi_stim_exp1","2022-4-7","15:0:0","25","75","3","9","10","40","30","120","20","18","[""White""]","No","Female","1802452","null","null","learn_feedback","","","learn_feedback","24.8654","83.9909","in","","","","","","","","","","","","","","","","","","","","","","",""
"","","","","","canvas-keyboard-response","241","328738","0.0-12.0-4.45","2d_cat_multi_stim_exp1","2022-4-7","15:0:0","25","75","3","9","10","40","30","120","20","18","[""White""]","No","Female","1802452","null","null","","","","clear_screen","","","","","","","","","","","","","","","","","","","","","","","","","",""
"","","","","","canvas-keyboard-response","242","329246","0.0-12.0-0.46","2d_cat_multi_stim_exp1","2022-4-7","15:0:0","25","75","3","9","10","40","30","120","20","18","[""White""]","No","Female","1802452","null","null","","","","fixation","","","","","","","","","","","","","","","","","","","","","","","","","",""
"","","","","","canvas-keyboard-response","243","329759","0.0-12.0-1.46","2d_cat_multi_stim_exp1","2022-4-7","15:0:0","25","75","3","9","10","40","30","120","20","18","[""White""]","No","Female","1802452","null","null","","","","clear_screen","","","","","","","","","","","","","","","","","","","","","","","","","",""
"","","","","","canvas-keyboard-response","244","331558","0.0-12.0-2.46","2d_cat_multi_stim_exp1","2022-4-7","15:0:0","25","75","3","9","10","40","30","120","20","18","[""White""]","No","Female","1802452","1788","u","learn","","","learn_trial","25","75","in","1","1","","","","","","","","","","","","","","","","","","","","",""
"","","","","","canvas-keyboard-response","245","332066","0.0-12.0-3.46","2d_cat_multi_stim_exp1","2022-4-7","15:0:0","25","75","3","9","10","40","30","120","20","18","[""White""]","No","Female","1802452","null","null","learn_feedback","","","learn_feedback","25","75","in","","","","","","","","","","","","","","","","","","","","","","",""
"","","","","","canvas-keyboard-response","246","332127","0.0-12.0-4.46","2d_cat_multi_stim_exp1","2022-4-7","15:0:0","25","75","3","9","10","40","30","120","20","18","[""White""]","No","Female","1802452","null","null","","","","clear_screen","","","","","","","","","","","","","","","","","","","","","","","","","",""
"","","","","","canvas-keyboard-response","247","332635","0.0-12.0-0.47","2d_cat_multi_stim_exp1","2022-4-7","15:0:0","25","75","3","9","10","40","30","120","20","18","[""White""]","No","Female","1802452","null","null","","","","fixation","","","","","","","","","","","","","","","","","","","","","","","","","",""
"","","","","","canvas-keyboard-response","248","333146","0.0-12.0-1.47","2d_cat_multi_stim_exp1","2022-4-7","15:0:0","25","75","3","9","10","40","30","120","20","18","[""White""]","No","Female","1802452","null","null","","","","clear_screen","","","","","","","","","","","","","","","","","","","","","","","","","",""
"","","","","","canvas-keyboard-response","249","334070","0.0-12.0-2.47","2d_cat_multi_stim_exp1","2022-4-7","15:0:0","25","75","3","9","10","40","30","120","20","18","[""White""]","No","Female","1802452","914","i","learn","","","learn_trial","40","40","out","0","1","","","","","","","","","","","","","","","","","","","","",""
"","","","","","canvas-keyboard-response","250","334578","0.0-12.0-3.47","2d_cat_multi_stim_exp1","2022-4-7","15:0:0","25","75","3","9","10","40","30","120","20","18","[""White""]","No","Female","1802452","null","null","learn_feedback","","","learn_feedback","40","40","out","","","","","","","","","","","","","","","","","","","","","","",""
"","","","","","canvas-keyboard-response","251","334638","0.0-12.0-4.47","2d_cat_multi_stim_exp1","2022-4-7","15:0:0","25","75","3","9","10","40","30","120","20","18","[""White""]","No","Female","1802452","null","null","","","","clear_screen","","","","","","","","","","","","","","","","","","","","","","","","","",""
"","","","","","canvas-keyboard-response","252","335145","0.0-12.0-0.48","2d_cat_multi_stim_exp1","2022-4-7","15:0:0","25","75","3","9","10","40","30","120","20","18","[""White""]","No","Female","1802452","null","null","","","","fixation","","","","","","","","","","","","","","","","","","","","","","","","","",""
"","","","","","canvas-keyboard-response","253","335656","0.0-12.0-1.48","2d_cat_multi_stim_exp1","2022-4-7","15:0:0","25","75","3","9","10","40","30","120","20","18","[""White""]","No","Female","1802452","null","null","","","","clear_screen","","","","","","","","","","","","","","","","","","","","","","","","","",""
"","","","","","canvas-keyboard-response","254","336430","0.0-12.0-2.48","2d_cat_multi_stim_exp1","2022-4-7","15:0:0","25","75","3","9","10","40","30","120","20","18","[""White""]","No","Female","1802452","765","u","learn","","","learn_trial","25","75","in","1","1","","","","","","","","","","","","","","","","","","","","",""
"","","","","","canvas-keyboard-response","255","336940","0.0-12.0-3.48","2d_cat_multi_stim_exp1","2022-4-7","15:0:0","25","75","3","9","10","40","30","120","20","18","[""White""]","No","Female","1802452","null","null","learn_feedback","","","learn_feedback","25","75","in","","","","","","","","","","","","","","","","","","","","","","",""
"","","","","","canvas-keyboard-response","256","337001","0.0-12.0-4.48","2d_cat_multi_stim_exp1","2022-4-7","15:0:0","25","75","3","9","10","40","30","120","20","18","[""White""]","No","Female","1802452","null","null","","","","clear_screen","","","","","","","","","","","","","","","","","","","","","","","","","",""
"","","","","","canvas-keyboard-response","257","337509","0.0-12.0-0.49","2d_cat_multi_stim_exp1","2022-4-7","15:0:0","25","75","3","9","10","40","30","120","20","18","[""White""]","No","Female","1802452","null","null","","","","fixation","","","","","","","","","","","","","","","","","","","","","","","","","",""
"","","","","","canvas-keyboard-response","258","338020","0.0-12.0-1.49","2d_cat_multi_stim_exp1","2022-4-7","15:0:0","25","75","3","9","10","40","30","120","20","18","[""White""]","No","Female","1802452","null","null","","","","clear_screen","","","","","","","","","","","","","","","","","","","","","","","","","",""
"","","","","","canvas-keyboard-response","259","338789","0.0-12.0-2.49","2d_cat_multi_stim_exp1","2022-4-7","15:0:0","25","75","3","9","10","40","30","120","20","18","[""White""]","No","Female","1802452","759","u","learn","","","learn_trial","25","75","in","1","1","","","","","","","","","","","","","","","","","","","","",""
"","","","","","canvas-keyboard-response","260","339301","0.0-12.0-3.49","2d_cat_multi_stim_exp1","2022-4-7","15:0:0","25","75","3","9","10","40","30","120","20","18","[""White""]","No","Female","1802452","null","null","learn_feedback","","","learn_feedback","25","75","in","","","","","","","","","","","","","","","","","","","","","","",""
"","","","","","canvas-keyboard-response","261","339361","0.0-12.0-4.49","2d_cat_multi_stim_exp1","2022-4-7","15:0:0","25","75","3","9","10","40","30","120","20","18","[""White""]","No","Female","1802452","null","null","","","","clear_screen","","","","","","","","","","","","","","","","","","","","","","","","","",""
"","","","","","canvas-keyboard-response","262","339873","0.0-12.0-0.50","2d_cat_multi_stim_exp1","2022-4-7","15:0:0","25","75","3","9","10","40","30","120","20","18","[""White""]","No","Female","1802452","null","null","","","","fixation","","","","","","","","","","","","","","","","","","","","","","","","","",""
"","","","","","canvas-keyboard-response","263","340386","0.0-12.0-1.50","2d_cat_multi_stim_exp1","2022-4-7","15:0:0","25","75","3","9","10","40","30","120","20","18","[""White""]","No","Female","1802452","null","null","","","","clear_screen","","","","","","","","","","","","","","","","","","","","","","","","","",""
"","","","","","canvas-keyboard-response","264","341086","0.0-12.0-2.50","2d_cat_multi_stim_exp1","2022-4-7","15:0:0","25","75","3","9","10","40","30","120","20","18","[""White""]","No","Female","1802452","689","u","learn","","","learn_trial","25","75","in","1","1","","","","","","","","","","","","","","","","","","","","",""
"","","","","","canvas-keyboard-response","265","341596","0.0-12.0-3.50","2d_cat_multi_stim_exp1","2022-4-7","15:0:0","25","75","3","9","10","40","30","120","20","18","[""White""]","No","Female","1802452","null","null","learn_feedback","","","learn_feedback","25","75","in","","","","","","","","","","","","","","","","","","","","","","",""
"","","","","","canvas-keyboard-response","266","341656","0.0-12.0-4.50","2d_cat_multi_stim_exp1","2022-4-7","15:0:0","25","75","3","9","10","40","30","120","20","18","[""White""]","No","Female","1802452","null","null","","","","clear_screen","","","","","","","","","","","","","","","","","","","","","","","","","",""
"","","","","","canvas-keyboard-response","267","342166","0.0-12.0-0.51","2d_cat_multi_stim_exp1","2022-4-7","15:0:0","25","75","3","9","10","40","30","120","20","18","[""White""]","No","Female","1802452","null","null","","","","fixation","","","","","","","","","","","","","","","","","","","","","","","","","",""
"","","","","","canvas-keyboard-response","268","342677","0.0-12.0-1.51","2d_cat_multi_stim_exp1","2022-4-7","15:0:0","25","75","3","9","10","40","30","120","20","18","[""White""]","No","Female","1802452","null","null","","","","clear_screen","","","","","","","","","","","","","","","","","","","","","","","","","",""
"","","","","","canvas-keyboard-response","269","343798","0.0-12.0-2.51","2d_cat_multi_stim_exp1","2022-4-7","15:0:0","25","75","3","9","10","40","30","120","20","18","[""White""]","No","Female","1802452","1112","i","learn","","","learn_trial","26.6667","50","out","0","1","","","","","","","","","","","","","","","","","","","","",""
"","","","","","canvas-keyboard-response","270","344307","0.0-12.0-3.51","2d_cat_multi_stim_exp1","2022-4-7","15:0:0","25","75","3","9","10","40","30","120","20","18","[""White""]","No","Female","1802452","null","null","learn_feedback","","","learn_feedback","26.6667","50","out","","","","","","","","","","","","","","","","","","","","","","",""
"","","","","","canvas-keyboard-response","271","344369","0.0-12.0-4.51","2d_cat_multi_stim_exp1","2022-4-7","15:0:0","25","75","3","9","10","40","30","120","20","18","[""White""]","No","Female","1802452","null","null","","","","clear_screen","","","","","","","","","","","","","","","","","","","","","","","","","",""
"","","","","","canvas-keyboard-response","272","344878","0.0-12.0-0.52","2d_cat_multi_stim_exp1","2022-4-7","15:0:0","25","75","3","9","10","40","30","120","20","18","[""White""]","No","Female","1802452","null","null","","","","fixation","","","","","","","","","","","","","","","","","","","","","","","","","",""
"","","","","","canvas-keyboard-response","273","345389","0.0-12.0-1.52","2d_cat_multi_stim_exp1","2022-4-7","15:0:0","25","75","3","9","10","40","30","120","20","18","[""White""]","No","Female","1802452","null","null","","","","clear_screen","","","","","","","","","","","","","","","","","","","","","","","","","",""
"","","","","","canvas-keyboard-response","274","347471","0.0-12.0-2.52","2d_cat_multi_stim_exp1","2022-4-7","15:0:0","25","75","3","9","10","40","30","120","20","18","[""White""]","No","Female","1802452","2071","i","learn","","","learn_trial","26.6667","80","out","0","1","","","","","","","","","","","","","","","","","","","","",""
"","","","","","canvas-keyboard-response","275","347982","0.0-12.0-3.52","2d_cat_multi_stim_exp1","2022-4-7","15:0:0","25","75","3","9","10","40","30","120","20","18","[""White""]","No","Female","1802452","null","null","learn_feedback","","","learn_feedback","26.6667","80","out","","","","","","","","","","","","","","","","","","","","","","",""
"","","","","","canvas-keyboard-response","276","348044","0.0-12.0-4.52","2d_cat_multi_stim_exp1","2022-4-7","15:0:0","25","75","3","9","10","40","30","120","20","18","[""White""]","No","Female","1802452","null","null","","","","clear_screen","","","","","","","","","","","","","","","","","","","","","","","","","",""
"","","","","","canvas-keyboard-response","277","348556","0.0-12.0-0.53","2d_cat_multi_stim_exp1","2022-4-7","15:0:0","25","75","3","9","10","40","30","120","20","18","[""White""]","No","Female","1802452","null","null","","","","fixation","","","","","","","","","","","","","","","","","","","","","","","","","",""
"","","","","","canvas-keyboard-response","278","349067","0.0-12.0-1.53","2d_cat_multi_stim_exp1","2022-4-7","15:0:0","25","75","3","9","10","40","30","120","20","18","[""White""]","No","Female","1802452","null","null","","","","clear_screen","","","","","","","","","","","","","","","","","","","","","","","","","",""
"","","","","","canvas-keyboard-response","279","349981","0.0-12.0-2.53","2d_cat_multi_stim_exp1","2022-4-7","15:0:0","25","75","3","9","10","40","30","120","20","18","[""White""]","No","Female","1802452","904","i","learn","","","learn_trial","10","40","out","0","1","","","","","","","","","","","","","","","","","","","","",""
"","","","","","canvas-keyboard-response","280","350493","0.0-12.0-3.53","2d_cat_multi_stim_exp1","2022-4-7","15:0:0","25","75","3","9","10","40","30","120","20","18","[""White""]","No","Female","1802452","null","null","learn_feedback","","","learn_feedback","10","40","out","","","","","","","","","","","","","","","","","","","","","","",""
"","","","","","canvas-keyboard-response","281","350556","0.0-12.0-4.53","2d_cat_multi_stim_exp1","2022-4-7","15:0:0","25","75","3","9","10","40","30","120","20","18","[""White""]","No","Female","1802452","null","null","","","","clear_screen","","","","","","","","","","","","","","","","","","","","","","","","","",""
"","","","","","canvas-keyboard-response","282","351065","0.0-12.0-0.54","2d_cat_multi_stim_exp1","2022-4-7","15:0:0","25","75","3","9","10","40","30","120","20","18","[""White""]","No","Female","1802452","null","null","","","","fixation","","","","","","","","","","","","","","","","","","","","","","","","","",""
"","","","","","canvas-keyboard-response","283","351574","0.0-12.0-1.54","2d_cat_multi_stim_exp1","2022-4-7","15:0:0","25","75","3","9","10","40","30","120","20","18","[""White""]","No","Female","1802452","null","null","","","","clear_screen","","","","","","","","","","","","","","","","","","","","","","","","","",""
"","","","","","canvas-keyboard-response","284","352743","0.0-12.0-2.54","2d_cat_multi_stim_exp1","2022-4-7","15:0:0","25","75","3","9","10","40","30","120","20","18","[""White""]","No","Female","1802452","1156","u","learn","","","learn_trial","27.8087","71.8376","in","1","1","","","","","","","","","","","","","","","","","","","","",""
"","","","","","canvas-keyboard-response","285","353252","0.0-12.0-3.54","2d_cat_multi_stim_exp1","2022-4-7","15:0:0","25","75","3","9","10","40","30","120","20","18","[""White""]","No","Female","1802452","null","null","learn_feedback","","","learn_feedback","27.8087","71.8376","in","","","","","","","","","","","","","","","","","","","","","","",""
"","","","","","canvas-keyboard-response","286","353316","0.0-12.0-4.54","2d_cat_multi_stim_exp1","2022-4-7","15:0:0","25","75","3","9","10","40","30","120","20","18","[""White""]","No","Female","1802452","null","null","","","","clear_screen","","","","","","","","","","","","","","","","","","","","","","","","","",""
"","","","","","canvas-keyboard-response","287","353823","0.0-12.0-0.55","2d_cat_multi_stim_exp1","2022-4-7","15:0:0","25","75","3","9","10","40","30","120","20","18","[""White""]","No","Female","1802452","null","null","","","","fixation","","","","","","","","","","","","","","","","","","","","","","","","","",""
"","","","","","canvas-keyboard-response","288","354336","0.0-12.0-1.55","2d_cat_multi_stim_exp1","2022-4-7","15:0:0","25","75","3","9","10","40","30","120","20","18","[""White""]","No","Female","1802452","null","null","","","","clear_screen","","","","","","","","","","","","","","","","","","","","","","","","","",""
"","","","","","canvas-keyboard-response","289","355110","0.0-12.0-2.55","2d_cat_multi_stim_exp1","2022-4-7","15:0:0","25","75","3","9","10","40","30","120","20","18","[""White""]","No","Female","1802452","764","u","learn","","","learn_trial","25","75","in","1","1","","","","","","","","","","","","","","","","","","","","",""
"","","","","","canvas-keyboard-response","290","355620","0.0-12.0-3.55","2d_cat_multi_stim_exp1","2022-4-7","15:0:0","25","75","3","9","10","40","30","120","20","18","[""White""]","No","Female","1802452","null","null","learn_feedback","","","learn_feedback","25","75","in","","","","","","","","","","","","","","","","","","","","","","",""
"","","","","","canvas-keyboard-response","291","355681","0.0-12.0-4.55","2d_cat_multi_stim_exp1","2022-4-7","15:0:0","25","75","3","9","10","40","30","120","20","18","[""White""]","No","Female","1802452","null","null","","","","clear_screen","","","","","","","","","","","","","","","","","","","","","","","","","",""
"","","","","","canvas-keyboard-response","292","356191","0.0-12.0-0.56","2d_cat_multi_stim_exp1","2022-4-7","15:0:0","25","75","3","9","10","40","30","120","20","18","[""White""]","No","Female","1802452","null","null","","","","fixation","","","","","","","","","","","","","","","","","","","","","","","","","",""
"","","","","","canvas-keyboard-response","293","356707","0.0-12.0-1.56","2d_cat_multi_stim_exp1","2022-4-7","15:0:0","25","75","3","9","10","40","30","120","20","18","[""White""]","No","Female","1802452","null","null","","","","clear_screen","","","","","","","","","","","","","","","","","","","","","","","","","",""
"","","","","","canvas-keyboard-response","294","357630","0.0-12.0-2.56","2d_cat_multi_stim_exp1","2022-4-7","15:0:0","25","75","3","9","10","40","30","120","20","18","[""White""]","No","Female","1802452","914","i","learn","","","learn_trial","36.6667","40","out","0","1","","","","","","","","","","","","","","","","","","","","",""
"","","","","","canvas-keyboard-response","295","358143","0.0-12.0-3.56","2d_cat_multi_stim_exp1","2022-4-7","15:0:0","25","75","3","9","10","40","30","120","20","18","[""White""]","No","Female","1802452","null","null","learn_feedback","","","learn_feedback","36.6667","40","out","","","","","","","","","","","","","","","","","","","","","","",""
"","","","","","canvas-keyboard-response","296","358204","0.0-12.0-4.56","2d_cat_multi_stim_exp1","2022-4-7","15:0:0","25","75","3","9","10","40","30","120","20","18","[""White""]","No","Female","1802452","null","null","","","","clear_screen","","","","","","","","","","","","","","","","","","","","","","","","","",""
"","","","","","canvas-keyboard-response","297","358715","0.0-12.0-0.57","2d_cat_multi_stim_exp1","2022-4-7","15:0:0","25","75","3","9","10","40","30","120","20","18","[""White""]","No","Female","1802452","null","null","","","","fixation","","","","","","","","","","","","","","","","","","","","","","","","","",""
"","","","","","canvas-keyboard-response","298","359225","0.0-12.0-1.57","2d_cat_multi_stim_exp1","2022-4-7","15:0:0","25","75","3","9","10","40","30","120","20","18","[""White""]","No","Female","1802452","null","null","","","","clear_screen","","","","","","","","","","","","","","","","","","","","","","","","","",""
"","","","","","canvas-keyboard-response","299","360213","0.0-12.0-2.57","2d_cat_multi_stim_exp1","2022-4-7","15:0:0","25","75","3","9","10","40","30","120","20","18","[""White""]","No","Female","1802452","981","u","learn","","","learn_trial","25","75","in","1","1","","","","","","","","","","","","","","","","","","","","",""
