"success","timeout","failed_images","failed_audio","failed_video","trial_type","trial_index","time_elapsed","internal_node_id","exp_name","date","time","angle_mean_in","radius_mean_in","angle_sd_in","radius_sd_in","angle_min_out","angle_max_out","radius_min_out","radius_max_out","sub_n","age","race","ethnicity","gender","exp_duration","rt","response","exp_trial_type","stimulus","view_history","screen_id","angle","radius","distribution","choice","correct","order","angle_a","radius_a","angle_b","radius_b","jkl_correct","transfer_trial_type","choice_set","abc_correct","tc_correct","tc_angle","tdc_a","tdc_b","tdc_c","pair","category_a","category_b","category_c","angle_c","radius_c","question_order"
"true","false","[]","[]","[]","preload","0","36","0.0-0.0","2d_cat_multi_stim_exp1","2022-4-26","15:52:21","25","75","3","9","10","40","30","120","63","19","[""White""]","No","Female","3348204","","","","","","","","","","","","","","","","","","","","","","","","","","","","","","","",""
"","","","","","survey-html-form","1","1363","0.0-1.0","2d_cat_multi_stim_exp1","2022-4-26","15:52:21","25","75","3","9","10","40","30","120","63","19","[""White""]","No","Female","3348204","1288","{""response"":""63""}","enter-sub-number","","","","","","","","","","","","","","","","","","","","","","","","","","","","",""
"true","","","","","fullscreen","2","2974","0.0-2.0","2d_cat_multi_stim_exp1","2022-4-26","15:52:21","25","75","3","9","10","40","30","120","63","19","[""White""]","No","Female","3348204","","","","","","","","","","","","","","","","","","","","","","","","","","","","","","","",""
"","","","","","image-button-response","3","1197847","0.0-3.0","2d_cat_multi_stim_exp1","2022-4-26","15:52:21","25","75","3","9","10","40","30","120","63","19","[""White""]","No","Female","3348204","1194864","0","","consent.png","","","","","","","","","","","","","","","","","","","","","","","","","","","",""
"","","","","","html-button-response","4","1205502","0.0-4.0","2d_cat_multi_stim_exp1","2022-4-26","15:52:21","25","75","3","9","10","40","30","120","63","19","[""White""]","No","Female","3348204","7651","0","","<div style= ""font-size:25px;"" <p> <strong> Welcome to the experiment! </strong><br> <p style=""color:#8B0000; font-size:25px;""><strong> Please do NOT exit full screen until you are done with the experiment. </strong> </p><p style=""font-size:25px;color:#8B0000;""> <strong> The experiment will be canceled and your data will be lost <br> if you try to go back or refresh the page at any point during the experiment.</strong> </p><br><p> <strong> Thanks in advance for your contribution to our research! </strong></p>","","","","","","","","","","","","","","","","","","","","","","","","","","","",""
"","","","","","instructions","5","1269590","0.0-5.0","2d_cat_multi_stim_exp1","2022-4-26","15:52:21","25","75","3","9","10","40","30","120","63","19","[""White""]","No","Female","3348204","64083","","","","[{""page_index"":0,""viewing_time"":10002},{""page_index"":1,""viewing_time"":3832},{""page_index"":2,""viewing_time"":12792},{""page_index"":3,""viewing_time"":37457}]","instructions_1","","","","","","","","","","","","","","","","","","","","","","","","","",""
"","","","","","instructions","6","1272286","0.0-6.0","2d_cat_multi_stim_exp1","2022-4-26","15:52:21","25","75","3","9","10","40","30","120","63","19","[""White""]","No","Female","3348204","2692","","","","[{""page_index"":0,""viewing_time"":2691}]","Click to see the kinds of turtles that will appear in the study.","","","","","","","","","","","","","","","","","","","","","","","","","",""
"","","","","","canvas-keyboard-response","7","1287308","0.0-7.0","2d_cat_multi_stim_exp1","2022-4-26","15:52:21","25","75","3","9","10","40","30","120","63","19","[""White""]","No","Female","3348204","null","null","","","","demo_range","","","","","","","","","","","","","","","","","","","","","","","","","",""
"","","","","","instructions","8","1290381","0.0-8.0","2d_cat_multi_stim_exp1","2022-4-26","15:52:21","25","75","3","9","10","40","30","120","63","19","[""White""]","No","Female","3348204","2572","","","","[{""page_index"":0,""viewing_time"":2571}]","Click to see some turtles in the subspecies.","","","","","","","","","","","","","","","","","","","","","","","","","",""
"","","","","","canvas-keyboard-response","9","1305401","0.0-9.0","2d_cat_multi_stim_exp1","2022-4-26","15:52:21","25","75","3","9","10","40","30","120","63","19","[""White""]","No","Female","3348204","null","null","","","","demo_in","","","","","","","","","","","","","","","","","","","","","","","","","",""
"","","","","","instructions","10","1365813","0.0-10.0","2d_cat_multi_stim_exp1","2022-4-26","15:52:21","25","75","3","9","10","40","30","120","63","19","[""White""]","No","Female","3348204","59909","","","","[{""page_index"":0,""viewing_time"":13557},{""page_index"":1,""viewing_time"":35600},{""page_index"":2,""viewing_time"":10752}]","instructions_2","","","","","","","","","","","","","","","","","","","","","","","","","",""
"","","","","","instructions","11","1367533","0.0-11.0","2d_cat_multi_stim_exp1","2022-4-26","15:52:21","25","75","3","9","10","40","30","120","63","19","[""White""]","No","Female","3348204","1717","","","","[{""page_index"":0,""viewing_time"":1717}]","Click to begin the first phase of the experiment.","","","","","","","","","","","","","","","","","","","","","","","","","",""
"","","","","","canvas-keyboard-response","12","1368043","0.0-12.0-0.0","2d_cat_multi_stim_exp1","2022-4-26","15:52:21","25","75","3","9","10","40","30","120","63","19","[""White""]","No","Female","3348204","null","null","","","","fixation","","","","","","","","","","","","","","","","","","","","","","","","","",""
"","","","","","canvas-keyboard-response","13","1368553","0.0-12.0-1.0","2d_cat_multi_stim_exp1","2022-4-26","15:52:21","25","75","3","9","10","40","30","120","63","19","[""White""]","No","Female","3348204","null","null","","","","clear_screen","","","","","","","","","","","","","","","","","","","","","","","","","",""
"","","","","","canvas-keyboard-response","14","1370563","0.0-12.0-2.0","2d_cat_multi_stim_exp1","2022-4-26","15:52:21","25","75","3","9","10","40","30","120","63","19","[""White""]","No","Female","3348204","1998","u","learn","","","learn_trial","25","75","in","1","1","","","","","","","","","","","","","","","","","","","","",""
"","","","","","canvas-keyboard-response","15","1371077","0.0-12.0-3.0","2d_cat_multi_stim_exp1","2022-4-26","15:52:21","25","75","3","9","10","40","30","120","63","19","[""White""]","No","Female","3348204","null","null","learn_feedback","","","learn_feedback","25","75","in","","","","","","","","","","","","","","","","","","","","","","",""
"","","","","","canvas-keyboard-response","16","1371136","0.0-12.0-4.0","2d_cat_multi_stim_exp1","2022-4-26","15:52:21","25","75","3","9","10","40","30","120","63","19","[""White""]","No","Female","3348204","null","null","","","","clear_screen","","","","","","","","","","","","","","","","","","","","","","","","","",""
"","","","","","canvas-keyboard-response","17","1371645","0.0-12.0-0.1","2d_cat_multi_stim_exp1","2022-4-26","15:52:21","25","75","3","9","10","40","30","120","63","19","[""White""]","No","Female","3348204","null","null","","","","fixation","","","","","","","","","","","","","","","","","","","","","","","","","",""
"","","","","","canvas-keyboard-response","18","1372154","0.0-12.0-1.1","2d_cat_multi_stim_exp1","2022-4-26","15:52:21","25","75","3","9","10","40","30","120","63","19","[""White""]","No","Female","3348204","null","null","","","","clear_screen","","","","","","","","","","","","","","","","","","","","","","","","","",""
"","","","","","canvas-keyboard-response","19","1373674","0.0-12.0-2.1","2d_cat_multi_stim_exp1","2022-4-26","15:52:21","25","75","3","9","10","40","30","120","63","19","[""White""]","No","Female","3348204","1509","i","learn","","","learn_trial","24.8654","66.0091","in","0","0","","","","","","","","","","","","","","","","","","","","",""
"","","","","","canvas-keyboard-response","20","1374686","0.0-12.0-3.1","2d_cat_multi_stim_exp1","2022-4-26","15:52:21","25","75","3","9","10","40","30","120","63","19","[""White""]","No","Female","3348204","null","null","learn_feedback","","","learn_feedback","24.8654","66.0091","in","","","","","","","","","","","","","","","","","","","","","","",""
"","","","","","canvas-keyboard-response","21","1374745","0.0-12.0-4.1","2d_cat_multi_stim_exp1","2022-4-26","15:52:21","25","75","3","9","10","40","30","120","63","19","[""White""]","No","Female","3348204","null","null","","","","clear_screen","","","","","","","","","","","","","","","","","","","","","","","","","",""
"","","","","","canvas-keyboard-response","22","1375253","0.0-12.0-0.2","2d_cat_multi_stim_exp1","2022-4-26","15:52:21","25","75","3","9","10","40","30","120","63","19","[""White""]","No","Female","3348204","null","null","","","","fixation","","","","","","","","","","","","","","","","","","","","","","","","","",""
"","","","","","canvas-keyboard-response","23","1375763","0.0-12.0-1.2","2d_cat_multi_stim_exp1","2022-4-26","15:52:21","25","75","3","9","10","40","30","120","63","19","[""White""]","No","Female","3348204","null","null","","","","clear_screen","","","","","","","","","","","","","","","","","","","","","","","","","",""
"","","","","","canvas-keyboard-response","24","1376955","0.0-12.0-2.2","2d_cat_multi_stim_exp1","2022-4-26","15:52:21","25","75","3","9","10","40","30","120","63","19","[""White""]","No","Female","3348204","1182","u","learn","","","learn_trial","27.2592","80.9214","in","1","1","","","","","","","","","","","","","","","","","","","","",""
"","","","","","canvas-keyboard-response","25","1377465","0.0-12.0-3.2","2d_cat_multi_stim_exp1","2022-4-26","15:52:21","25","75","3","9","10","40","30","120","63","19","[""White""]","No","Female","3348204","null","null","learn_feedback","","","learn_feedback","27.2592","80.9214","in","","","","","","","","","","","","","","","","","","","","","","",""
"","","","","","canvas-keyboard-response","26","1377525","0.0-12.0-4.2","2d_cat_multi_stim_exp1","2022-4-26","15:52:21","25","75","3","9","10","40","30","120","63","19","[""White""]","No","Female","3348204","null","null","","","","clear_screen","","","","","","","","","","","","","","","","","","","","","","","","","",""
"","","","","","canvas-keyboard-response","27","1378034","0.0-12.0-0.3","2d_cat_multi_stim_exp1","2022-4-26","15:52:21","25","75","3","9","10","40","30","120","63","19","[""White""]","No","Female","3348204","null","null","","","","fixation","","","","","","","","","","","","","","","","","","","","","","","","","",""
"","","","","","canvas-keyboard-response","28","1378543","0.0-12.0-1.3","2d_cat_multi_stim_exp1","2022-4-26","15:52:21","25","75","3","9","10","40","30","120","63","19","[""White""]","No","Female","3348204","null","null","","","","clear_screen","","","","","","","","","","","","","","","","","","","","","","","","","",""
"","","","","","canvas-keyboard-response","29","1379547","0.0-12.0-2.3","2d_cat_multi_stim_exp1","2022-4-26","15:52:21","25","75","3","9","10","40","30","120","63","19","[""White""]","No","Female","3348204","994","i","learn","","","learn_trial","26.6667","110","out","0","1","","","","","","","","","","","","","","","","","","","","",""
"","","","","","canvas-keyboard-response","30","1380061","0.0-12.0-3.3","2d_cat_multi_stim_exp1","2022-4-26","15:52:21","25","75","3","9","10","40","30","120","63","19","[""White""]","No","Female","3348204","null","null","learn_feedback","","","learn_feedback","26.6667","110","out","","","","","","","","","","","","","","","","","","","","","","",""
"","","","","","canvas-keyboard-response","31","1380122","0.0-12.0-4.3","2d_cat_multi_stim_exp1","2022-4-26","15:52:21","25","75","3","9","10","40","30","120","63","19","[""White""]","No","Female","3348204","null","null","","","","clear_screen","","","","","","","","","","","","","","","","","","","","","","","","","",""
"","","","","","canvas-keyboard-response","32","1380631","0.0-12.0-0.4","2d_cat_multi_stim_exp1","2022-4-26","15:52:21","25","75","3","9","10","40","30","120","63","19","[""White""]","No","Female","3348204","null","null","","","","fixation","","","","","","","","","","","","","","","","","","","","","","","","","",""
"","","","","","canvas-keyboard-response","33","1381142","0.0-12.0-1.4","2d_cat_multi_stim_exp1","2022-4-26","15:52:21","25","75","3","9","10","40","30","120","63","19","[""White""]","No","Female","3348204","null","null","","","","clear_screen","","","","","","","","","","","","","","","","","","","","","","","","","",""
"","","","","","canvas-keyboard-response","34","1381835","0.0-12.0-2.4","2d_cat_multi_stim_exp1","2022-4-26","15:52:21","25","75","3","9","10","40","30","120","63","19","[""White""]","No","Female","3348204","682","u","learn","","","learn_trial","25","75","in","1","1","","","","","","","","","","","","","","","","","","","","",""
"","","","","","canvas-keyboard-response","35","1382346","0.0-12.0-3.4","2d_cat_multi_stim_exp1","2022-4-26","15:52:21","25","75","3","9","10","40","30","120","63","19","[""White""]","No","Female","3348204","null","null","learn_feedback","","","learn_feedback","25","75","in","","","","","","","","","","","","","","","","","","","","","","",""
"","","","","","canvas-keyboard-response","36","1382405","0.0-12.0-4.4","2d_cat_multi_stim_exp1","2022-4-26","15:52:21","25","75","3","9","10","40","30","120","63","19","[""White""]","No","Female","3348204","null","null","","","","clear_screen","","","","","","","","","","","","","","","","","","","","","","","","","",""
"","","","","","canvas-keyboard-response","37","1382914","0.0-12.0-0.5","2d_cat_multi_stim_exp1","2022-4-26","15:52:21","25","75","3","9","10","40","30","120","63","19","[""White""]","No","Female","3348204","null","null","","","","fixation","","","","","","","","","","","","","","","","","","","","","","","","","",""
"","","","","","canvas-keyboard-response","38","1383425","0.0-12.0-1.5","2d_cat_multi_stim_exp1","2022-4-26","15:52:21","25","75","3","9","10","40","30","120","63","19","[""White""]","No","Female","3348204","null","null","","","","clear_screen","","","","","","","","","","","","","","","","","","","","","","","","","",""
"","","","","","canvas-keyboard-response","39","1384211","0.0-12.0-2.5","2d_cat_multi_stim_exp1","2022-4-26","15:52:21","25","75","3","9","10","40","30","120","63","19","[""White""]","No","Female","3348204","776","u","learn","","","learn_trial","25","75","in","1","1","","","","","","","","","","","","","","","","","","","","",""
"","","","","","canvas-keyboard-response","40","1384722","0.0-12.0-3.5","2d_cat_multi_stim_exp1","2022-4-26","15:52:21","25","75","3","9","10","40","30","120","63","19","[""White""]","No","Female","3348204","null","null","learn_feedback","","","learn_feedback","25","75","in","","","","","","","","","","","","","","","","","","","","","","",""
"","","","","","canvas-keyboard-response","41","1384782","0.0-12.0-4.5","2d_cat_multi_stim_exp1","2022-4-26","15:52:21","25","75","3","9","10","40","30","120","63","19","[""White""]","No","Female","3348204","null","null","","","","clear_screen","","","","","","","","","","","","","","","","","","","","","","","","","",""
"","","","","","canvas-keyboard-response","42","1385291","0.0-12.0-0.6","2d_cat_multi_stim_exp1","2022-4-26","15:52:21","25","75","3","9","10","40","30","120","63","19","[""White""]","No","Female","3348204","null","null","","","","fixation","","","","","","","","","","","","","","","","","","","","","","","","","",""
"","","","","","canvas-keyboard-response","43","1385800","0.0-12.0-1.6","2d_cat_multi_stim_exp1","2022-4-26","15:52:21","25","75","3","9","10","40","30","120","63","19","[""White""]","No","Female","3348204","null","null","","","","clear_screen","","","","","","","","","","","","","","","","","","","","","","","","","",""
"","","","","","canvas-keyboard-response","44","1386650","0.0-12.0-2.6","2d_cat_multi_stim_exp1","2022-4-26","15:52:21","25","75","3","9","10","40","30","120","63","19","[""White""]","No","Female","3348204","836","i","learn","","","learn_trial","30","30","out","0","1","","","","","","","","","","","","","","","","","","","","",""
"","","","","","canvas-keyboard-response","45","1387161","0.0-12.0-3.6","2d_cat_multi_stim_exp1","2022-4-26","15:52:21","25","75","3","9","10","40","30","120","63","19","[""White""]","No","Female","3348204","null","null","learn_feedback","","","learn_feedback","30","30","out","","","","","","","","","","","","","","","","","","","","","","",""
"","","","","","canvas-keyboard-response","46","1387220","0.0-12.0-4.6","2d_cat_multi_stim_exp1","2022-4-26","15:52:21","25","75","3","9","10","40","30","120","63","19","[""White""]","No","Female","3348204","null","null","","","","clear_screen","","","","","","","","","","","","","","","","","","","","","","","","","",""
"","","","","","canvas-keyboard-response","47","1387729","0.0-12.0-0.7","2d_cat_multi_stim_exp1","2022-4-26","15:52:21","25","75","3","9","10","40","30","120","63","19","[""White""]","No","Female","3348204","null","null","","","","fixation","","","","","","","","","","","","","","","","","","","","","","","","","",""
"","","","","","canvas-keyboard-response","48","1388238","0.0-12.0-1.7","2d_cat_multi_stim_exp1","2022-4-26","15:52:21","25","75","3","9","10","40","30","120","63","19","[""White""]","No","Female","3348204","null","null","","","","clear_screen","","","","","","","","","","","","","","","","","","","","","","","","","",""
"","","","","","canvas-keyboard-response","49","1388930","0.0-12.0-2.7","2d_cat_multi_stim_exp1","2022-4-26","15:52:21","25","75","3","9","10","40","30","120","63","19","[""White""]","No","Female","3348204","682","u","learn","","","learn_trial","27.8087","78.1624","in","1","1","","","","","","","","","","","","","","","","","","","","",""
"","","","","","canvas-keyboard-response","50","1389440","0.0-12.0-3.7","2d_cat_multi_stim_exp1","2022-4-26","15:52:21","25","75","3","9","10","40","30","120","63","19","[""White""]","No","Female","3348204","null","null","learn_feedback","","","learn_feedback","27.8087","78.1624","in","","","","","","","","","","","","","","","","","","","","","","",""
"","","","","","canvas-keyboard-response","51","1389499","0.0-12.0-4.7","2d_cat_multi_stim_exp1","2022-4-26","15:52:21","25","75","3","9","10","40","30","120","63","19","[""White""]","No","Female","3348204","null","null","","","","clear_screen","","","","","","","","","","","","","","","","","","","","","","","","","",""
"","","","","","canvas-keyboard-response","52","1390008","0.0-12.0-0.8","2d_cat_multi_stim_exp1","2022-4-26","15:52:21","25","75","3","9","10","40","30","120","63","19","[""White""]","No","Female","3348204","null","null","","","","fixation","","","","","","","","","","","","","","","","","","","","","","","","","",""
"","","","","","canvas-keyboard-response","53","1390517","0.0-12.0-1.8","2d_cat_multi_stim_exp1","2022-4-26","15:52:21","25","75","3","9","10","40","30","120","63","19","[""White""]","No","Female","3348204","null","null","","","","clear_screen","","","","","","","","","","","","","","","","","","","","","","","","","",""
"","","","","","canvas-keyboard-response","54","1391067","0.0-12.0-2.8","2d_cat_multi_stim_exp1","2022-4-26","15:52:21","25","75","3","9","10","40","30","120","63","19","[""White""]","No","Female","3348204","539","i","learn","","","learn_trial","13.3333","60","out","0","1","","","","","","","","","","","","","","","","","","","","",""
"","","","","","canvas-keyboard-response","55","1391577","0.0-12.0-3.8","2d_cat_multi_stim_exp1","2022-4-26","15:52:21","25","75","3","9","10","40","30","120","63","19","[""White""]","No","Female","3348204","null","null","learn_feedback","","","learn_feedback","13.3333","60","out","","","","","","","","","","","","","","","","","","","","","","",""
"","","","","","canvas-keyboard-response","56","1391636","0.0-12.0-4.8","2d_cat_multi_stim_exp1","2022-4-26","15:52:21","25","75","3","9","10","40","30","120","63","19","[""White""]","No","Female","3348204","null","null","","","","clear_screen","","","","","","","","","","","","","","","","","","","","","","","","","",""
"","","","","","canvas-keyboard-response","57","1392144","0.0-12.0-0.9","2d_cat_multi_stim_exp1","2022-4-26","15:52:21","25","75","3","9","10","40","30","120","63","19","[""White""]","No","Female","3348204","null","null","","","","fixation","","","","","","","","","","","","","","","","","","","","","","","","","",""
"","","","","","canvas-keyboard-response","58","1392656","0.0-12.0-1.9","2d_cat_multi_stim_exp1","2022-4-26","15:52:21","25","75","3","9","10","40","30","120","63","19","[""White""]","No","Female","3348204","null","null","","","","clear_screen","","","","","","","","","","","","","","","","","","","","","","","","","",""
"","","","","","canvas-keyboard-response","59","1393458","0.0-12.0-2.9","2d_cat_multi_stim_exp1","2022-4-26","15:52:21","25","75","3","9","10","40","30","120","63","19","[""White""]","No","Female","3348204","795","i","learn","","","learn_trial","16.6667","120","out","0","1","","","","","","","","","","","","","","","","","","","","",""
"","","","","","canvas-keyboard-response","60","1393968","0.0-12.0-3.9","2d_cat_multi_stim_exp1","2022-4-26","15:52:21","25","75","3","9","10","40","30","120","63","19","[""White""]","No","Female","3348204","null","null","learn_feedback","","","learn_feedback","16.6667","120","out","","","","","","","","","","","","","","","","","","","","","","",""
"","","","","","canvas-keyboard-response","61","1394027","0.0-12.0-4.9","2d_cat_multi_stim_exp1","2022-4-26","15:52:21","25","75","3","9","10","40","30","120","63","19","[""White""]","No","Female","3348204","null","null","","","","clear_screen","","","","","","","","","","","","","","","","","","","","","","","","","",""
"","","","","","canvas-keyboard-response","62","1394536","0.0-12.0-0.10","2d_cat_multi_stim_exp1","2022-4-26","15:52:21","25","75","3","9","10","40","30","120","63","19","[""White""]","No","Female","3348204","null","null","","","","fixation","","","","","","","","","","","","","","","","","","","","","","","","","",""
"","","","","","canvas-keyboard-response","63","1395046","0.0-12.0-1.10","2d_cat_multi_stim_exp1","2022-4-26","15:52:21","25","75","3","9","10","40","30","120","63","19","[""White""]","No","Female","3348204","null","null","","","","clear_screen","","","","","","","","","","","","","","","","","","","","","","","","","",""
"","","","","","canvas-keyboard-response","64","1395931","0.0-12.0-2.10","2d_cat_multi_stim_exp1","2022-4-26","15:52:21","25","75","3","9","10","40","30","120","63","19","[""White""]","No","Female","3348204","875","i","learn","","","learn_trial","30","110","out","0","1","","","","","","","","","","","","","","","","","","","","",""
"","","","","","canvas-keyboard-response","65","1396441","0.0-12.0-3.10","2d_cat_multi_stim_exp1","2022-4-26","15:52:21","25","75","3","9","10","40","30","120","63","19","[""White""]","No","Female","3348204","null","null","learn_feedback","","","learn_feedback","30","110","out","","","","","","","","","","","","","","","","","","","","","","",""
"","","","","","canvas-keyboard-response","66","1396500","0.0-12.0-4.10","2d_cat_multi_stim_exp1","2022-4-26","15:52:21","25","75","3","9","10","40","30","120","63","19","[""White""]","No","Female","3348204","null","null","","","","clear_screen","","","","","","","","","","","","","","","","","","","","","","","","","",""
"","","","","","canvas-keyboard-response","67","1397009","0.0-12.0-0.11","2d_cat_multi_stim_exp1","2022-4-26","15:52:21","25","75","3","9","10","40","30","120","63","19","[""White""]","No","Female","3348204","null","null","","","","fixation","","","","","","","","","","","","","","","","","","","","","","","","","",""
"","","","","","canvas-keyboard-response","68","1397518","0.0-12.0-1.11","2d_cat_multi_stim_exp1","2022-4-26","15:52:21","25","75","3","9","10","40","30","120","63","19","[""White""]","No","Female","3348204","null","null","","","","clear_screen","","","","","","","","","","","","","","","","","","","","","","","","","",""
"","","","","","canvas-keyboard-response","69","1398402","0.0-12.0-2.11","2d_cat_multi_stim_exp1","2022-4-26","15:52:21","25","75","3","9","10","40","30","120","63","19","[""White""]","No","Female","3348204","874","i","learn","","","learn_trial","10","40","out","0","1","","","","","","","","","","","","","","","","","","","","",""
"","","","","","canvas-keyboard-response","70","1398912","0.0-12.0-3.11","2d_cat_multi_stim_exp1","2022-4-26","15:52:21","25","75","3","9","10","40","30","120","63","19","[""White""]","No","Female","3348204","null","null","learn_feedback","","","learn_feedback","10","40","out","","","","","","","","","","","","","","","","","","","","","","",""
"","","","","","canvas-keyboard-response","71","1398971","0.0-12.0-4.11","2d_cat_multi_stim_exp1","2022-4-26","15:52:21","25","75","3","9","10","40","30","120","63","19","[""White""]","No","Female","3348204","null","null","","","","clear_screen","","","","","","","","","","","","","","","","","","","","","","","","","",""
"","","","","","canvas-keyboard-response","72","1399480","0.0-12.0-0.12","2d_cat_multi_stim_exp1","2022-4-26","15:52:21","25","75","3","9","10","40","30","120","63","19","[""White""]","No","Female","3348204","null","null","","","","fixation","","","","","","","","","","","","","","","","","","","","","","","","","",""
"","","","","","canvas-keyboard-response","73","1399989","0.0-12.0-1.12","2d_cat_multi_stim_exp1","2022-4-26","15:52:21","25","75","3","9","10","40","30","120","63","19","[""White""]","No","Female","3348204","null","null","","","","clear_screen","","","","","","","","","","","","","","","","","","","","","","","","","",""
"","","","","","canvas-keyboard-response","74","1400753","0.0-12.0-2.12","2d_cat_multi_stim_exp1","2022-4-26","15:52:21","25","75","3","9","10","40","30","120","63","19","[""White""]","No","Female","3348204","756","u","learn","","","learn_trial","25","75","in","1","1","","","","","","","","","","","","","","","","","","","","",""
"","","","","","canvas-keyboard-response","75","1401264","0.0-12.0-3.12","2d_cat_multi_stim_exp1","2022-4-26","15:52:21","25","75","3","9","10","40","30","120","63","19","[""White""]","No","Female","3348204","null","null","learn_feedback","","","learn_feedback","25","75","in","","","","","","","","","","","","","","","","","","","","","","",""
"","","","","","canvas-keyboard-response","76","1401324","0.0-12.0-4.12","2d_cat_multi_stim_exp1","2022-4-26","15:52:21","25","75","3","9","10","40","30","120","63","19","[""White""]","No","Female","3348204","null","null","","","","clear_screen","","","","","","","","","","","","","","","","","","","","","","","","","",""
"","","","","","canvas-keyboard-response","77","1401832","0.0-12.0-0.13","2d_cat_multi_stim_exp1","2022-4-26","15:52:21","25","75","3","9","10","40","30","120","63","19","[""White""]","No","Female","3348204","null","null","","","","fixation","","","","","","","","","","","","","","","","","","","","","","","","","",""
"","","","","","canvas-keyboard-response","78","1402342","0.0-12.0-1.13","2d_cat_multi_stim_exp1","2022-4-26","15:52:21","25","75","3","9","10","40","30","120","63","19","[""White""]","No","Female","3348204","null","null","","","","clear_screen","","","","","","","","","","","","","","","","","","","","","","","","","",""
"","","","","","canvas-keyboard-response","79","1404306","0.0-12.0-2.13","2d_cat_multi_stim_exp1","2022-4-26","15:52:21","25","75","3","9","10","40","30","120","63","19","[""White""]","No","Female","3348204","1956","i","learn","","","learn_trial","40","90","out","0","1","","","","","","","","","","","","","","","","","","","","",""
"","","","","","canvas-keyboard-response","80","1404816","0.0-12.0-3.13","2d_cat_multi_stim_exp1","2022-4-26","15:52:21","25","75","3","9","10","40","30","120","63","19","[""White""]","No","Female","3348204","null","null","learn_feedback","","","learn_feedback","40","90","out","","","","","","","","","","","","","","","","","","","","","","",""
"","","","","","canvas-keyboard-response","81","1404875","0.0-12.0-4.13","2d_cat_multi_stim_exp1","2022-4-26","15:52:21","25","75","3","9","10","40","30","120","63","19","[""White""]","No","Female","3348204","null","null","","","","clear_screen","","","","","","","","","","","","","","","","","","","","","","","","","",""
"","","","","","canvas-keyboard-response","82","1405383","0.0-12.0-0.14","2d_cat_multi_stim_exp1","2022-4-26","15:52:21","25","75","3","9","10","40","30","120","63","19","[""White""]","No","Female","3348204","null","null","","","","fixation","","","","","","","","","","","","","","","","","","","","","","","","","",""
"","","","","","canvas-keyboard-response","83","1405892","0.0-12.0-1.14","2d_cat_multi_stim_exp1","2022-4-26","15:52:21","25","75","3","9","10","40","30","120","63","19","[""White""]","No","Female","3348204","null","null","","","","clear_screen","","","","","","","","","","","","","","","","","","","","","","","","","",""
"","","","","","canvas-keyboard-response","84","1407010","0.0-12.0-2.14","2d_cat_multi_stim_exp1","2022-4-26","15:52:21","25","75","3","9","10","40","30","120","63","19","[""White""]","No","Female","3348204","1109","u","learn","","","learn_trial","26.4216","67.0746","in","1","1","","","","","","","","","","","","","","","","","","","","",""
"","","","","","canvas-keyboard-response","85","1407519","0.0-12.0-3.14","2d_cat_multi_stim_exp1","2022-4-26","15:52:21","25","75","3","9","10","40","30","120","63","19","[""White""]","No","Female","3348204","null","null","learn_feedback","","","learn_feedback","26.4216","67.0746","in","","","","","","","","","","","","","","","","","","","","","","",""
"","","","","","canvas-keyboard-response","86","1407578","0.0-12.0-4.14","2d_cat_multi_stim_exp1","2022-4-26","15:52:21","25","75","3","9","10","40","30","120","63","19","[""White""]","No","Female","3348204","null","null","","","","clear_screen","","","","","","","","","","","","","","","","","","","","","","","","","",""
"","","","","","canvas-keyboard-response","87","1408086","0.0-12.0-0.15","2d_cat_multi_stim_exp1","2022-4-26","15:52:21","25","75","3","9","10","40","30","120","63","19","[""White""]","No","Female","3348204","null","null","","","","fixation","","","","","","","","","","","","","","","","","","","","","","","","","",""
"","","","","","canvas-keyboard-response","88","1408599","0.0-12.0-1.15","2d_cat_multi_stim_exp1","2022-4-26","15:52:21","25","75","3","9","10","40","30","120","63","19","[""White""]","No","Female","3348204","null","null","","","","clear_screen","","","","","","","","","","","","","","","","","","","","","","","","","",""
"","","","","","canvas-keyboard-response","89","1410178","0.0-12.0-2.15","2d_cat_multi_stim_exp1","2022-4-26","15:52:21","25","75","3","9","10","40","30","120","63","19","[""White""]","No","Female","3348204","1570","u","learn","","","learn_trial","33.3333","90","out","1","0","","","","","","","","","","","","","","","","","","","","",""
"","","","","","canvas-keyboard-response","90","1411189","0.0-12.0-3.15","2d_cat_multi_stim_exp1","2022-4-26","15:52:21","25","75","3","9","10","40","30","120","63","19","[""White""]","No","Female","3348204","null","null","learn_feedback","","","learn_feedback","33.3333","90","out","","","","","","","","","","","","","","","","","","","","","","",""
"","","","","","canvas-keyboard-response","91","1411248","0.0-12.0-4.15","2d_cat_multi_stim_exp1","2022-4-26","15:52:21","25","75","3","9","10","40","30","120","63","19","[""White""]","No","Female","3348204","null","null","","","","clear_screen","","","","","","","","","","","","","","","","","","","","","","","","","",""
"","","","","","canvas-keyboard-response","92","1411758","0.0-12.0-0.16","2d_cat_multi_stim_exp1","2022-4-26","15:52:21","25","75","3","9","10","40","30","120","63","19","[""White""]","No","Female","3348204","null","null","","","","fixation","","","","","","","","","","","","","","","","","","","","","","","","","",""
"","","","","","canvas-keyboard-response","93","1412266","0.0-12.0-1.16","2d_cat_multi_stim_exp1","2022-4-26","15:52:21","25","75","3","9","10","40","30","120","63","19","[""White""]","No","Female","3348204","null","null","","","","clear_screen","","","","","","","","","","","","","","","","","","","","","","","","","",""
"","","","","","canvas-keyboard-response","94","1413211","0.0-12.0-2.16","2d_cat_multi_stim_exp1","2022-4-26","15:52:21","25","75","3","9","10","40","30","120","63","19","[""White""]","No","Female","3348204","934","u","learn","","","learn_trial","25","75","in","1","1","","","","","","","","","","","","","","","","","","","","",""
"","","","","","canvas-keyboard-response","95","1413720","0.0-12.0-3.16","2d_cat_multi_stim_exp1","2022-4-26","15:52:21","25","75","3","9","10","40","30","120","63","19","[""White""]","No","Female","3348204","null","null","learn_feedback","","","learn_feedback","25","75","in","","","","","","","","","","","","","","","","","","","","","","",""
"","","","","","canvas-keyboard-response","96","1413779","0.0-12.0-4.16","2d_cat_multi_stim_exp1","2022-4-26","15:52:21","25","75","3","9","10","40","30","120","63","19","[""White""]","No","Female","3348204","null","null","","","","clear_screen","","","","","","","","","","","","","","","","","","","","","","","","","",""
"","","","","","canvas-keyboard-response","97","1414287","0.0-12.0-0.17","2d_cat_multi_stim_exp1","2022-4-26","15:52:21","25","75","3","9","10","40","30","120","63","19","[""White""]","No","Female","3348204","null","null","","","","fixation","","","","","","","","","","","","","","","","","","","","","","","","","",""
"","","","","","canvas-keyboard-response","98","1414797","0.0-12.0-1.17","2d_cat_multi_stim_exp1","2022-4-26","15:52:21","25","75","3","9","10","40","30","120","63","19","[""White""]","No","Female","3348204","null","null","","","","clear_screen","","","","","","","","","","","","","","","","","","","","","","","","","",""
"","","","","","canvas-keyboard-response","99","1415434","0.0-12.0-2.17","2d_cat_multi_stim_exp1","2022-4-26","15:52:21","25","75","3","9","10","40","30","120","63","19","[""White""]","No","Female","3348204","627","u","learn","","","learn_trial","29.2426","87.7279","in","1","1","","","","","","","","","","","","","","","","","","","","",""
"","","","","","canvas-keyboard-response","100","1415943","0.0-12.0-3.17","2d_cat_multi_stim_exp1","2022-4-26","15:52:21","25","75","3","9","10","40","30","120","63","19","[""White""]","No","Female","3348204","null","null","learn_feedback","","","learn_feedback","29.2426","87.7279","in","","","","","","","","","","","","","","","","","","","","","","",""
"","","","","","canvas-keyboard-response","101","1416002","0.0-12.0-4.17","2d_cat_multi_stim_exp1","2022-4-26","15:52:21","25","75","3","9","10","40","30","120","63","19","[""White""]","No","Female","3348204","null","null","","","","clear_screen","","","","","","","","","","","","","","","","","","","","","","","","","",""
"","","","","","canvas-keyboard-response","102","1416512","0.0-12.0-0.18","2d_cat_multi_stim_exp1","2022-4-26","15:52:21","25","75","3","9","10","40","30","120","63","19","[""White""]","No","Female","3348204","null","null","","","","fixation","","","","","","","","","","","","","","","","","","","","","","","","","",""
"","","","","","canvas-keyboard-response","103","1417022","0.0-12.0-1.18","2d_cat_multi_stim_exp1","2022-4-26","15:52:21","25","75","3","9","10","40","30","120","63","19","[""White""]","No","Female","3348204","null","null","","","","clear_screen","","","","","","","","","","","","","","","","","","","","","","","","","",""
"","","","","","canvas-keyboard-response","104","1417539","0.0-12.0-2.18","2d_cat_multi_stim_exp1","2022-4-26","15:52:21","25","75","3","9","10","40","30","120","63","19","[""White""]","No","Female","3348204","504","u","learn","","","learn_trial","25","75","in","1","1","","","","","","","","","","","","","","","","","","","","",""
"","","","","","canvas-keyboard-response","105","1418050","0.0-12.0-3.18","2d_cat_multi_stim_exp1","2022-4-26","15:52:21","25","75","3","9","10","40","30","120","63","19","[""White""]","No","Female","3348204","null","null","learn_feedback","","","learn_feedback","25","75","in","","","","","","","","","","","","","","","","","","","","","","",""
"","","","","","canvas-keyboard-response","106","1418110","0.0-12.0-4.18","2d_cat_multi_stim_exp1","2022-4-26","15:52:21","25","75","3","9","10","40","30","120","63","19","[""White""]","No","Female","3348204","null","null","","","","clear_screen","","","","","","","","","","","","","","","","","","","","","","","","","",""
"","","","","","canvas-keyboard-response","107","1418620","0.0-12.0-0.19","2d_cat_multi_stim_exp1","2022-4-26","15:52:21","25","75","3","9","10","40","30","120","63","19","[""White""]","No","Female","3348204","null","null","","","","fixation","","","","","","","","","","","","","","","","","","","","","","","","","",""
"","","","","","canvas-keyboard-response","108","1419130","0.0-12.0-1.19","2d_cat_multi_stim_exp1","2022-4-26","15:52:21","25","75","3","9","10","40","30","120","63","19","[""White""]","No","Female","3348204","null","null","","","","clear_screen","","","","","","","","","","","","","","","","","","","","","","","","","",""
"","","","","","canvas-keyboard-response","109","1419930","0.0-12.0-2.19","2d_cat_multi_stim_exp1","2022-4-26","15:52:21","25","75","3","9","10","40","30","120","63","19","[""White""]","No","Female","3348204","789","u","learn","","","learn_trial","22.5729","80.2901","in","1","1","","","","","","","","","","","","","","","","","","","","",""
"","","","","","canvas-keyboard-response","110","1420442","0.0-12.0-3.19","2d_cat_multi_stim_exp1","2022-4-26","15:52:21","25","75","3","9","10","40","30","120","63","19","[""White""]","No","Female","3348204","null","null","learn_feedback","","","learn_feedback","22.5729","80.2901","in","","","","","","","","","","","","","","","","","","","","","","",""
"","","","","","canvas-keyboard-response","111","1420501","0.0-12.0-4.19","2d_cat_multi_stim_exp1","2022-4-26","15:52:21","25","75","3","9","10","40","30","120","63","19","[""White""]","No","Female","3348204","null","null","","","","clear_screen","","","","","","","","","","","","","","","","","","","","","","","","","",""
"","","","","","canvas-keyboard-response","112","1421010","0.0-12.0-0.20","2d_cat_multi_stim_exp1","2022-4-26","15:52:21","25","75","3","9","10","40","30","120","63","19","[""White""]","No","Female","3348204","null","null","","","","fixation","","","","","","","","","","","","","","","","","","","","","","","","","",""
"","","","","","canvas-keyboard-response","113","1421520","0.0-12.0-1.20","2d_cat_multi_stim_exp1","2022-4-26","15:52:21","25","75","3","9","10","40","30","120","63","19","[""White""]","No","Female","3348204","null","null","","","","clear_screen","","","","","","","","","","","","","","","","","","","","","","","","","",""
"","","","","","canvas-keyboard-response","114","1422642","0.0-12.0-2.20","2d_cat_multi_stim_exp1","2022-4-26","15:52:21","25","75","3","9","10","40","30","120","63","19","[""White""]","No","Female","3348204","1111","i","learn","","","learn_trial","13.3333","80","out","0","1","","","","","","","","","","","","","","","","","","","","",""
"","","","","","canvas-keyboard-response","115","1423153","0.0-12.0-3.20","2d_cat_multi_stim_exp1","2022-4-26","15:52:21","25","75","3","9","10","40","30","120","63","19","[""White""]","No","Female","3348204","null","null","learn_feedback","","","learn_feedback","13.3333","80","out","","","","","","","","","","","","","","","","","","","","","","",""
"","","","","","canvas-keyboard-response","116","1423212","0.0-12.0-4.20","2d_cat_multi_stim_exp1","2022-4-26","15:52:21","25","75","3","9","10","40","30","120","63","19","[""White""]","No","Female","3348204","null","null","","","","clear_screen","","","","","","","","","","","","","","","","","","","","","","","","","",""
"","","","","","canvas-keyboard-response","117","1423722","0.0-12.0-0.21","2d_cat_multi_stim_exp1","2022-4-26","15:52:21","25","75","3","9","10","40","30","120","63","19","[""White""]","No","Female","3348204","null","null","","","","fixation","","","","","","","","","","","","","","","","","","","","","","","","","",""
"","","","","","canvas-keyboard-response","118","1424234","0.0-12.0-1.21","2d_cat_multi_stim_exp1","2022-4-26","15:52:21","25","75","3","9","10","40","30","120","63","19","[""White""]","No","Female","3348204","null","null","","","","clear_screen","","","","","","","","","","","","","","","","","","","","","","","","","",""
"","","","","","canvas-keyboard-response","119","1424906","0.0-12.0-2.21","2d_cat_multi_stim_exp1","2022-4-26","15:52:21","25","75","3","9","10","40","30","120","63","19","[""White""]","No","Female","3348204","663","u","learn","","","learn_trial","25","75","in","1","1","","","","","","","","","","","","","","","","","","","","",""
"","","","","","canvas-keyboard-response","120","1425416","0.0-12.0-3.21","2d_cat_multi_stim_exp1","2022-4-26","15:52:21","25","75","3","9","10","40","30","120","63","19","[""White""]","No","Female","3348204","null","null","learn_feedback","","","learn_feedback","25","75","in","","","","","","","","","","","","","","","","","","","","","","",""
"","","","","","canvas-keyboard-response","121","1425475","0.0-12.0-4.21","2d_cat_multi_stim_exp1","2022-4-26","15:52:21","25","75","3","9","10","40","30","120","63","19","[""White""]","No","Female","3348204","null","null","","","","clear_screen","","","","","","","","","","","","","","","","","","","","","","","","","",""
"","","","","","canvas-keyboard-response","122","1425984","0.0-12.0-0.22","2d_cat_multi_stim_exp1","2022-4-26","15:52:21","25","75","3","9","10","40","30","120","63","19","[""White""]","No","Female","3348204","null","null","","","","fixation","","","","","","","","","","","","","","","","","","","","","","","","","",""
"","","","","","canvas-keyboard-response","123","1426494","0.0-12.0-1.22","2d_cat_multi_stim_exp1","2022-4-26","15:52:21","25","75","3","9","10","40","30","120","63","19","[""White""]","No","Female","3348204","null","null","","","","clear_screen","","","","","","","","","","","","","","","","","","","","","","","","","",""
"","","","","","canvas-keyboard-response","124","1426970","0.0-12.0-2.22","2d_cat_multi_stim_exp1","2022-4-26","15:52:21","25","75","3","9","10","40","30","120","63","19","[""White""]","No","Female","3348204","467","u","learn","","","learn_trial","25","75","in","1","1","","","","","","","","","","","","","","","","","","","","",""
"","","","","","canvas-keyboard-response","125","1427480","0.0-12.0-3.22","2d_cat_multi_stim_exp1","2022-4-26","15:52:21","25","75","3","9","10","40","30","120","63","19","[""White""]","No","Female","3348204","null","null","learn_feedback","","","learn_feedback","25","75","in","","","","","","","","","","","","","","","","","","","","","","",""
"","","","","","canvas-keyboard-response","126","1427539","0.0-12.0-4.22","2d_cat_multi_stim_exp1","2022-4-26","15:52:21","25","75","3","9","10","40","30","120","63","19","[""White""]","No","Female","3348204","null","null","","","","clear_screen","","","","","","","","","","","","","","","","","","","","","","","","","",""
"","","","","","canvas-keyboard-response","127","1428047","0.0-12.0-0.23","2d_cat_multi_stim_exp1","2022-4-26","15:52:21","25","75","3","9","10","40","30","120","63","19","[""White""]","No","Female","3348204","null","null","","","","fixation","","","","","","","","","","","","","","","","","","","","","","","","","",""
"","","","","","canvas-keyboard-response","128","1428558","0.0-12.0-1.23","2d_cat_multi_stim_exp1","2022-4-26","15:52:21","25","75","3","9","10","40","30","120","63","19","[""White""]","No","Female","3348204","null","null","","","","clear_screen","","","","","","","","","","","","","","","","","","","","","","","","","",""
"","","","","","canvas-keyboard-response","129","1429154","0.0-12.0-2.23","2d_cat_multi_stim_exp1","2022-4-26","15:52:21","25","75","3","9","10","40","30","120","63","19","[""White""]","No","Female","3348204","587","u","learn","","","learn_trial","30","90","out","1","0","","","","","","","","","","","","","","","","","","","","",""
"","","","","","canvas-keyboard-response","130","1430164","0.0-12.0-3.23","2d_cat_multi_stim_exp1","2022-4-26","15:52:21","25","75","3","9","10","40","30","120","63","19","[""White""]","No","Female","3348204","null","null","learn_feedback","","","learn_feedback","30","90","out","","","","","","","","","","","","","","","","","","","","","","",""
"","","","","","canvas-keyboard-response","131","1430223","0.0-12.0-4.23","2d_cat_multi_stim_exp1","2022-4-26","15:52:21","25","75","3","9","10","40","30","120","63","19","[""White""]","No","Female","3348204","null","null","","","","clear_screen","","","","","","","","","","","","","","","","","","","","","","","","","",""
"","","","","","canvas-keyboard-response","132","1430731","0.0-12.0-0.24","2d_cat_multi_stim_exp1","2022-4-26","15:52:21","25","75","3","9","10","40","30","120","63","19","[""White""]","No","Female","3348204","null","null","","","","fixation","","","","","","","","","","","","","","","","","","","","","","","","","",""
"","","","","","canvas-keyboard-response","133","1431241","0.0-12.0-1.24","2d_cat_multi_stim_exp1","2022-4-26","15:52:21","25","75","3","9","10","40","30","120","63","19","[""White""]","No","Female","3348204","null","null","","","","clear_screen","","","","","","","","","","","","","","","","","","","","","","","","","",""
"","","","","","canvas-keyboard-response","134","1432026","0.0-12.0-2.24","2d_cat_multi_stim_exp1","2022-4-26","15:52:21","25","75","3","9","10","40","30","120","63","19","[""White""]","No","Female","3348204","775","i","learn","","","learn_trial","16.6667","90","out","0","1","","","","","","","","","","","","","","","","","","","","",""
"","","","","","canvas-keyboard-response","135","1432536","0.0-12.0-3.24","2d_cat_multi_stim_exp1","2022-4-26","15:52:21","25","75","3","9","10","40","30","120","63","19","[""White""]","No","Female","3348204","null","null","learn_feedback","","","learn_feedback","16.6667","90","out","","","","","","","","","","","","","","","","","","","","","","",""
"","","","","","canvas-keyboard-response","136","1432594","0.0-12.0-4.24","2d_cat_multi_stim_exp1","2022-4-26","15:52:21","25","75","3","9","10","40","30","120","63","19","[""White""]","No","Female","3348204","null","null","","","","clear_screen","","","","","","","","","","","","","","","","","","","","","","","","","",""
"","","","","","canvas-keyboard-response","137","1433104","0.0-12.0-0.25","2d_cat_multi_stim_exp1","2022-4-26","15:52:21","25","75","3","9","10","40","30","120","63","19","[""White""]","No","Female","3348204","null","null","","","","fixation","","","","","","","","","","","","","","","","","","","","","","","","","",""
"","","","","","canvas-keyboard-response","138","1433617","0.0-12.0-1.25","2d_cat_multi_stim_exp1","2022-4-26","15:52:21","25","75","3","9","10","40","30","120","63","19","[""White""]","No","Female","3348204","null","null","","","","clear_screen","","","","","","","","","","","","","","","","","","","","","","","","","",""
"","","","","","canvas-keyboard-response","139","1434970","0.0-12.0-2.25","2d_cat_multi_stim_exp1","2022-4-26","15:52:21","25","75","3","9","10","40","30","120","63","19","[""White""]","No","Female","3348204","1343","i","learn","","","learn_trial","16.6667","60","out","0","1","","","","","","","","","","","","","","","","","","","","",""
"","","","","","canvas-keyboard-response","140","1435480","0.0-12.0-3.25","2d_cat_multi_stim_exp1","2022-4-26","15:52:21","25","75","3","9","10","40","30","120","63","19","[""White""]","No","Female","3348204","null","null","learn_feedback","","","learn_feedback","16.6667","60","out","","","","","","","","","","","","","","","","","","","","","","",""
"","","","","","canvas-keyboard-response","141","1435539","0.0-12.0-4.25","2d_cat_multi_stim_exp1","2022-4-26","15:52:21","25","75","3","9","10","40","30","120","63","19","[""White""]","No","Female","3348204","null","null","","","","clear_screen","","","","","","","","","","","","","","","","","","","","","","","","","",""
"","","","","","canvas-keyboard-response","142","1436047","0.0-12.0-0.26","2d_cat_multi_stim_exp1","2022-4-26","15:52:21","25","75","3","9","10","40","30","120","63","19","[""White""]","No","Female","3348204","null","null","","","","fixation","","","","","","","","","","","","","","","","","","","","","","","","","",""
"","","","","","canvas-keyboard-response","143","1436557","0.0-12.0-1.26","2d_cat_multi_stim_exp1","2022-4-26","15:52:21","25","75","3","9","10","40","30","120","63","19","[""White""]","No","Female","3348204","null","null","","","","clear_screen","","","","","","","","","","","","","","","","","","","","","","","","","",""
"","","","","","canvas-keyboard-response","144","1437385","0.0-12.0-2.26","2d_cat_multi_stim_exp1","2022-4-26","15:52:21","25","75","3","9","10","40","30","120","63","19","[""White""]","No","Female","3348204","820","i","learn","","","learn_trial","27.5753","70.3839","in","0","0","","","","","","","","","","","","","","","","","","","","",""
"","","","","","canvas-keyboard-response","145","1438396","0.0-12.0-3.26","2d_cat_multi_stim_exp1","2022-4-26","15:52:21","25","75","3","9","10","40","30","120","63","19","[""White""]","No","Female","3348204","null","null","learn_feedback","","","learn_feedback","27.5753","70.3839","in","","","","","","","","","","","","","","","","","","","","","","",""
"","","","","","canvas-keyboard-response","146","1438456","0.0-12.0-4.26","2d_cat_multi_stim_exp1","2022-4-26","15:52:21","25","75","3","9","10","40","30","120","63","19","[""White""]","No","Female","3348204","null","null","","","","clear_screen","","","","","","","","","","","","","","","","","","","","","","","","","",""
"","","","","","canvas-keyboard-response","147","1438964","0.0-12.0-0.27","2d_cat_multi_stim_exp1","2022-4-26","15:52:21","25","75","3","9","10","40","30","120","63","19","[""White""]","No","Female","3348204","null","null","","","","fixation","","","","","","","","","","","","","","","","","","","","","","","","","",""
"","","","","","canvas-keyboard-response","148","1439474","0.0-12.0-1.27","2d_cat_multi_stim_exp1","2022-4-26","15:52:21","25","75","3","9","10","40","30","120","63","19","[""White""]","No","Female","3348204","null","null","","","","clear_screen","","","","","","","","","","","","","","","","","","","","","","","","","",""
"","","","","","canvas-keyboard-response","149","1440210","0.0-12.0-2.27","2d_cat_multi_stim_exp1","2022-4-26","15:52:21","25","75","3","9","10","40","30","120","63","19","[""White""]","No","Female","3348204","727","i","learn","","","learn_trial","13.3333","110","out","0","1","","","","","","","","","","","","","","","","","","","","",""
"","","","","","canvas-keyboard-response","150","1440720","0.0-12.0-3.27","2d_cat_multi_stim_exp1","2022-4-26","15:52:21","25","75","3","9","10","40","30","120","63","19","[""White""]","No","Female","3348204","null","null","learn_feedback","","","learn_feedback","13.3333","110","out","","","","","","","","","","","","","","","","","","","","","","",""
"","","","","","canvas-keyboard-response","151","1440779","0.0-12.0-4.27","2d_cat_multi_stim_exp1","2022-4-26","15:52:21","25","75","3","9","10","40","30","120","63","19","[""White""]","No","Female","3348204","null","null","","","","clear_screen","","","","","","","","","","","","","","","","","","","","","","","","","",""
"","","","","","canvas-keyboard-response","152","1441288","0.0-12.0-0.28","2d_cat_multi_stim_exp1","2022-4-26","15:52:21","25","75","3","9","10","40","30","120","63","19","[""White""]","No","Female","3348204","null","null","","","","fixation","","","","","","","","","","","","","","","","","","","","","","","","","",""
"","","","","","canvas-keyboard-response","153","1441797","0.0-12.0-1.28","2d_cat_multi_stim_exp1","2022-4-26","15:52:21","25","75","3","9","10","40","30","120","63","19","[""White""]","No","Female","3348204","null","null","","","","clear_screen","","","","","","","","","","","","","","","","","","","","","","","","","",""
"","","","","","canvas-keyboard-response","154","1442490","0.0-12.0-2.28","2d_cat_multi_stim_exp1","2022-4-26","15:52:21","25","75","3","9","10","40","30","120","63","19","[""White""]","No","Female","3348204","683","i","learn","","","learn_trial","10","80","out","0","1","","","","","","","","","","","","","","","","","","","","",""
"","","","","","canvas-keyboard-response","155","1443000","0.0-12.0-3.28","2d_cat_multi_stim_exp1","2022-4-26","15:52:21","25","75","3","9","10","40","30","120","63","19","[""White""]","No","Female","3348204","null","null","learn_feedback","","","learn_feedback","10","80","out","","","","","","","","","","","","","","","","","","","","","","",""
"","","","","","canvas-keyboard-response","156","1443059","0.0-12.0-4.28","2d_cat_multi_stim_exp1","2022-4-26","15:52:21","25","75","3","9","10","40","30","120","63","19","[""White""]","No","Female","3348204","null","null","","","","clear_screen","","","","","","","","","","","","","","","","","","","","","","","","","",""
"","","","","","canvas-keyboard-response","157","1443568","0.0-12.0-0.29","2d_cat_multi_stim_exp1","2022-4-26","15:52:21","25","75","3","9","10","40","30","120","63","19","[""White""]","No","Female","3348204","null","null","","","","fixation","","","","","","","","","","","","","","","","","","","","","","","","","",""
"","","","","","canvas-keyboard-response","158","1444077","0.0-12.0-1.29","2d_cat_multi_stim_exp1","2022-4-26","15:52:21","25","75","3","9","10","40","30","120","63","19","[""White""]","No","Female","3348204","null","null","","","","clear_screen","","","","","","","","","","","","","","","","","","","","","","","","","",""
"","","","","","canvas-keyboard-response","159","1444866","0.0-12.0-2.29","2d_cat_multi_stim_exp1","2022-4-26","15:52:21","25","75","3","9","10","40","30","120","63","19","[""White""]","No","Female","3348204","780","u","learn","","","learn_trial","25","75","in","1","1","","","","","","","","","","","","","","","","","","","","",""
"","","","","","canvas-keyboard-response","160","1445376","0.0-12.0-3.29","2d_cat_multi_stim_exp1","2022-4-26","15:52:21","25","75","3","9","10","40","30","120","63","19","[""White""]","No","Female","3348204","null","null","learn_feedback","","","learn_feedback","25","75","in","","","","","","","","","","","","","","","","","","","","","","",""
"","","","","","canvas-keyboard-response","161","1445435","0.0-12.0-4.29","2d_cat_multi_stim_exp1","2022-4-26","15:52:21","25","75","3","9","10","40","30","120","63","19","[""White""]","No","Female","3348204","null","null","","","","clear_screen","","","","","","","","","","","","","","","","","","","","","","","","","",""
"","","","","","canvas-keyboard-response","162","1445943","0.0-12.0-0.30","2d_cat_multi_stim_exp1","2022-4-26","15:52:21","25","75","3","9","10","40","30","120","63","19","[""White""]","No","Female","3348204","null","null","","","","fixation","","","","","","","","","","","","","","","","","","","","","","","","","",""
"","","","","","canvas-keyboard-response","163","1446452","0.0-12.0-1.30","2d_cat_multi_stim_exp1","2022-4-26","15:52:21","25","75","3","9","10","40","30","120","63","19","[""White""]","No","Female","3348204","null","null","","","","clear_screen","","","","","","","","","","","","","","","","","","","","","","","","","",""
"","","","","","canvas-keyboard-response","164","1447538","0.0-12.0-2.30","2d_cat_multi_stim_exp1","2022-4-26","15:52:21","25","75","3","9","10","40","30","120","63","19","[""White""]","No","Female","3348204","1076","u","learn","","","learn_trial","25","75","in","1","1","","","","","","","","","","","","","","","","","","","","",""
"","","","","","canvas-keyboard-response","165","1448048","0.0-12.0-3.30","2d_cat_multi_stim_exp1","2022-4-26","15:52:21","25","75","3","9","10","40","30","120","63","19","[""White""]","No","Female","3348204","null","null","learn_feedback","","","learn_feedback","25","75","in","","","","","","","","","","","","","","","","","","","","","","",""
"","","","","","canvas-keyboard-response","166","1448107","0.0-12.0-4.30","2d_cat_multi_stim_exp1","2022-4-26","15:52:21","25","75","3","9","10","40","30","120","63","19","[""White""]","No","Female","3348204","null","null","","","","clear_screen","","","","","","","","","","","","","","","","","","","","","","","","","",""
"","","","","","canvas-keyboard-response","167","1448615","0.0-12.0-0.31","2d_cat_multi_stim_exp1","2022-4-26","15:52:21","25","75","3","9","10","40","30","120","63","19","[""White""]","No","Female","3348204","null","null","","","","fixation","","","","","","","","","","","","","","","","","","","","","","","","","",""
"","","","","","canvas-keyboard-response","168","1449125","0.0-12.0-1.31","2d_cat_multi_stim_exp1","2022-4-26","15:52:21","25","75","3","9","10","40","30","120","63","19","[""White""]","No","Female","3348204","null","null","","","","clear_screen","","","","","","","","","","","","","","","","","","","","","","","","","",""
"","","","","","canvas-keyboard-response","169","1452762","0.0-12.0-2.31","2d_cat_multi_stim_exp1","2022-4-26","15:52:21","25","75","3","9","10","40","30","120","63","19","[""White""]","No","Female","3348204","3628","u","learn","","","learn_trial","36.6667","90","out","1","0","","","","","","","","","","","","","","","","","","","","",""
"","","","","","canvas-keyboard-response","170","1453774","0.0-12.0-3.31","2d_cat_multi_stim_exp1","2022-4-26","15:52:21","25","75","3","9","10","40","30","120","63","19","[""White""]","No","Female","3348204","null","null","learn_feedback","","","learn_feedback","36.6667","90","out","","","","","","","","","","","","","","","","","","","","","","",""
"","","","","","canvas-keyboard-response","171","1453833","0.0-12.0-4.31","2d_cat_multi_stim_exp1","2022-4-26","15:52:21","25","75","3","9","10","40","30","120","63","19","[""White""]","No","Female","3348204","null","null","","","","clear_screen","","","","","","","","","","","","","","","","","","","","","","","","","",""
"","","","","","canvas-keyboard-response","172","1454342","0.0-12.0-0.32","2d_cat_multi_stim_exp1","2022-4-26","15:52:21","25","75","3","9","10","40","30","120","63","19","[""White""]","No","Female","3348204","null","null","","","","fixation","","","","","","","","","","","","","","","","","","","","","","","","","",""
"","","","","","canvas-keyboard-response","173","1454852","0.0-12.0-1.32","2d_cat_multi_stim_exp1","2022-4-26","15:52:21","25","75","3","9","10","40","30","120","63","19","[""White""]","No","Female","3348204","null","null","","","","clear_screen","","","","","","","","","","","","","","","","","","","","","","","","","",""
"","","","","","canvas-keyboard-response","174","1455690","0.0-12.0-2.32","2d_cat_multi_stim_exp1","2022-4-26","15:52:21","25","75","3","9","10","40","30","120","63","19","[""White""]","No","Female","3348204","828","i","learn","","","learn_trial","33.3333","40","out","0","1","","","","","","","","","","","","","","","","","","","","",""
"","","","","","canvas-keyboard-response","175","1456199","0.0-12.0-3.32","2d_cat_multi_stim_exp1","2022-4-26","15:52:21","25","75","3","9","10","40","30","120","63","19","[""White""]","No","Female","3348204","null","null","learn_feedback","","","learn_feedback","33.3333","40","out","","","","","","","","","","","","","","","","","","","","","","",""
"","","","","","canvas-keyboard-response","176","1456258","0.0-12.0-4.32","2d_cat_multi_stim_exp1","2022-4-26","15:52:21","25","75","3","9","10","40","30","120","63","19","[""White""]","No","Female","3348204","null","null","","","","clear_screen","","","","","","","","","","","","","","","","","","","","","","","","","",""
"","","","","","canvas-keyboard-response","177","1456767","0.0-12.0-0.33","2d_cat_multi_stim_exp1","2022-4-26","15:52:21","25","75","3","9","10","40","30","120","63","19","[""White""]","No","Female","3348204","null","null","","","","fixation","","","","","","","","","","","","","","","","","","","","","","","","","",""
"","","","","","canvas-keyboard-response","178","1457276","0.0-12.0-1.33","2d_cat_multi_stim_exp1","2022-4-26","15:52:21","25","75","3","9","10","40","30","120","63","19","[""White""]","No","Female","3348204","null","null","","","","clear_screen","","","","","","","","","","","","","","","","","","","","","","","","","",""
"","","","","","canvas-keyboard-response","179","1457945","0.0-12.0-2.33","2d_cat_multi_stim_exp1","2022-4-26","15:52:21","25","75","3","9","10","40","30","120","63","19","[""White""]","No","Female","3348204","659","i","learn","","","learn_trial","10","120","out","0","1","","","","","","","","","","","","","","","","","","","","",""
"","","","","","canvas-keyboard-response","180","1458456","0.0-12.0-3.33","2d_cat_multi_stim_exp1","2022-4-26","15:52:21","25","75","3","9","10","40","30","120","63","19","[""White""]","No","Female","3348204","null","null","learn_feedback","","","learn_feedback","10","120","out","","","","","","","","","","","","","","","","","","","","","","",""
"","","","","","canvas-keyboard-response","181","1458514","0.0-12.0-4.33","2d_cat_multi_stim_exp1","2022-4-26","15:52:21","25","75","3","9","10","40","30","120","63","19","[""White""]","No","Female","3348204","null","null","","","","clear_screen","","","","","","","","","","","","","","","","","","","","","","","","","",""
"","","","","","canvas-keyboard-response","182","1459023","0.0-12.0-0.34","2d_cat_multi_stim_exp1","2022-4-26","15:52:21","25","75","3","9","10","40","30","120","63","19","[""White""]","No","Female","3348204","null","null","","","","fixation","","","","","","","","","","","","","","","","","","","","","","","","","",""
"","","","","","canvas-keyboard-response","183","1459532","0.0-12.0-1.34","2d_cat_multi_stim_exp1","2022-4-26","15:52:21","25","75","3","9","10","40","30","120","63","19","[""White""]","No","Female","3348204","null","null","","","","clear_screen","","","","","","","","","","","","","","","","","","","","","","","","","",""
"","","","","","canvas-keyboard-response","184","1460706","0.0-12.0-2.34","2d_cat_multi_stim_exp1","2022-4-26","15:52:21","25","75","3","9","10","40","30","120","63","19","[""White""]","No","Female","3348204","1163","u","learn","","","learn_trial","28","75","in","1","1","","","","","","","","","","","","","","","","","","","","",""
"","","","","","canvas-keyboard-response","185","1461218","0.0-12.0-3.34","2d_cat_multi_stim_exp1","2022-4-26","15:52:21","25","75","3","9","10","40","30","120","63","19","[""White""]","No","Female","3348204","null","null","learn_feedback","","","learn_feedback","28","75","in","","","","","","","","","","","","","","","","","","","","","","",""
"","","","","","canvas-keyboard-response","186","1461277","0.0-12.0-4.34","2d_cat_multi_stim_exp1","2022-4-26","15:52:21","25","75","3","9","10","40","30","120","63","19","[""White""]","No","Female","3348204","null","null","","","","clear_screen","","","","","","","","","","","","","","","","","","","","","","","","","",""
"","","","","","canvas-keyboard-response","187","1461787","0.0-12.0-0.35","2d_cat_multi_stim_exp1","2022-4-26","15:52:21","25","75","3","9","10","40","30","120","63","19","[""White""]","No","Female","3348204","null","null","","","","fixation","","","","","","","","","","","","","","","","","","","","","","","","","",""
"","","","","","canvas-keyboard-response","188","1462297","0.0-12.0-1.35","2d_cat_multi_stim_exp1","2022-4-26","15:52:21","25","75","3","9","10","40","30","120","63","19","[""White""]","No","Female","3348204","null","null","","","","clear_screen","","","","","","","","","","","","","","","","","","","","","","","","","",""
"","","","","","canvas-keyboard-response","189","1463042","0.0-12.0-2.35","2d_cat_multi_stim_exp1","2022-4-26","15:52:21","25","75","3","9","10","40","30","120","63","19","[""White""]","No","Female","3348204","735","i","learn","","","learn_trial","13.3333","30","out","0","1","","","","","","","","","","","","","","","","","","","","",""
"","","","","","canvas-keyboard-response","190","1463550","0.0-12.0-3.35","2d_cat_multi_stim_exp1","2022-4-26","15:52:21","25","75","3","9","10","40","30","120","63","19","[""White""]","No","Female","3348204","null","null","learn_feedback","","","learn_feedback","13.3333","30","out","","","","","","","","","","","","","","","","","","","","","","",""
"","","","","","canvas-keyboard-response","191","1463609","0.0-12.0-4.35","2d_cat_multi_stim_exp1","2022-4-26","15:52:21","25","75","3","9","10","40","30","120","63","19","[""White""]","No","Female","3348204","null","null","","","","clear_screen","","","","","","","","","","","","","","","","","","","","","","","","","",""
"","","","","","canvas-keyboard-response","192","1464118","0.0-12.0-0.36","2d_cat_multi_stim_exp1","2022-4-26","15:52:21","25","75","3","9","10","40","30","120","63","19","[""White""]","No","Female","3348204","null","null","","","","fixation","","","","","","","","","","","","","","","","","","","","","","","","","",""
"","","","","","canvas-keyboard-response","193","1464629","0.0-12.0-1.36","2d_cat_multi_stim_exp1","2022-4-26","15:52:21","25","75","3","9","10","40","30","120","63","19","[""White""]","No","Female","3348204","null","null","","","","clear_screen","","","","","","","","","","","","","","","","","","","","","","","","","",""
"","","","","","canvas-keyboard-response","194","1466058","0.0-12.0-2.36","2d_cat_multi_stim_exp1","2022-4-26","15:52:21","25","75","3","9","10","40","30","120","63","19","[""White""]","No","Female","3348204","1419","u","learn","","","learn_trial","25","75","in","1","1","","","","","","","","","","","","","","","","","","","","",""
"","","","","","canvas-keyboard-response","195","1466567","0.0-12.0-3.36","2d_cat_multi_stim_exp1","2022-4-26","15:52:21","25","75","3","9","10","40","30","120","63","19","[""White""]","No","Female","3348204","null","null","learn_feedback","","","learn_feedback","25","75","in","","","","","","","","","","","","","","","","","","","","","","",""
"","","","","","canvas-keyboard-response","196","1466626","0.0-12.0-4.36","2d_cat_multi_stim_exp1","2022-4-26","15:52:21","25","75","3","9","10","40","30","120","63","19","[""White""]","No","Female","3348204","null","null","","","","clear_screen","","","","","","","","","","","","","","","","","","","","","","","","","",""
"","","","","","canvas-keyboard-response","197","1467135","0.0-12.0-0.37","2d_cat_multi_stim_exp1","2022-4-26","15:52:21","25","75","3","9","10","40","30","120","63","19","[""White""]","No","Female","3348204","null","null","","","","fixation","","","","","","","","","","","","","","","","","","","","","","","","","",""
"","","","","","canvas-keyboard-response","198","1467644","0.0-12.0-1.37","2d_cat_multi_stim_exp1","2022-4-26","15:52:21","25","75","3","9","10","40","30","120","63","19","[""White""]","No","Female","3348204","null","null","","","","clear_screen","","","","","","","","","","","","","","","","","","","","","","","","","",""
"","","","","","canvas-keyboard-response","199","1468458","0.0-12.0-2.37","2d_cat_multi_stim_exp1","2022-4-26","15:52:21","25","75","3","9","10","40","30","120","63","19","[""White""]","No","Female","3348204","804","i","learn","","","learn_trial","20","120","out","0","1","","","","","","","","","","","","","","","","","","","","",""
"","","","","","canvas-keyboard-response","200","1468967","0.0-12.0-3.37","2d_cat_multi_stim_exp1","2022-4-26","15:52:21","25","75","3","9","10","40","30","120","63","19","[""White""]","No","Female","3348204","null","null","learn_feedback","","","learn_feedback","20","120","out","","","","","","","","","","","","","","","","","","","","","","",""
"","","","","","canvas-keyboard-response","201","1469029","0.0-12.0-4.37","2d_cat_multi_stim_exp1","2022-4-26","15:52:21","25","75","3","9","10","40","30","120","63","19","[""White""]","No","Female","3348204","null","null","","","","clear_screen","","","","","","","","","","","","","","","","","","","","","","","","","",""
"","","","","","canvas-keyboard-response","202","1469541","0.0-12.0-0.38","2d_cat_multi_stim_exp1","2022-4-26","15:52:21","25","75","3","9","10","40","30","120","63","19","[""White""]","No","Female","3348204","null","null","","","","fixation","","","","","","","","","","","","","","","","","","","","","","","","","",""
"","","","","","canvas-keyboard-response","203","1470052","0.0-12.0-1.38","2d_cat_multi_stim_exp1","2022-4-26","15:52:21","25","75","3","9","10","40","30","120","63","19","[""White""]","No","Female","3348204","null","null","","","","clear_screen","","","","","","","","","","","","","","","","","","","","","","","","","",""
"","","","","","canvas-keyboard-response","204","1472042","0.0-12.0-2.38","2d_cat_multi_stim_exp1","2022-4-26","15:52:21","25","75","3","9","10","40","30","120","63","19","[""White""]","No","Female","3348204","1978","u","learn","","","learn_trial","22.9268","68.4948","in","1","1","","","","","","","","","","","","","","","","","","","","",""
"","","","","","canvas-keyboard-response","205","1472553","0.0-12.0-3.38","2d_cat_multi_stim_exp1","2022-4-26","15:52:21","25","75","3","9","10","40","30","120","63","19","[""White""]","No","Female","3348204","null","null","learn_feedback","","","learn_feedback","22.9268","68.4948","in","","","","","","","","","","","","","","","","","","","","","","",""
"","","","","","canvas-keyboard-response","206","1472612","0.0-12.0-4.38","2d_cat_multi_stim_exp1","2022-4-26","15:52:21","25","75","3","9","10","40","30","120","63","19","[""White""]","No","Female","3348204","null","null","","","","clear_screen","","","","","","","","","","","","","","","","","","","","","","","","","",""
"","","","","","canvas-keyboard-response","207","1473122","0.0-12.0-0.39","2d_cat_multi_stim_exp1","2022-4-26","15:52:21","25","75","3","9","10","40","30","120","63","19","[""White""]","No","Female","3348204","null","null","","","","fixation","","","","","","","","","","","","","","","","","","","","","","","","","",""
"","","","","","canvas-keyboard-response","208","1473631","0.0-12.0-1.39","2d_cat_multi_stim_exp1","2022-4-26","15:52:21","25","75","3","9","10","40","30","120","63","19","[""White""]","No","Female","3348204","null","null","","","","clear_screen","","","","","","","","","","","","","","","","","","","","","","","","","",""
"","","","","","canvas-keyboard-response","209","1474818","0.0-12.0-2.39","2d_cat_multi_stim_exp1","2022-4-26","15:52:21","25","75","3","9","10","40","30","120","63","19","[""White""]","No","Female","3348204","1176","i","learn","","","learn_trial","20","100","out","0","1","","","","","","","","","","","","","","","","","","","","",""
"","","","","","canvas-keyboard-response","210","1475329","0.0-12.0-3.39","2d_cat_multi_stim_exp1","2022-4-26","15:52:21","25","75","3","9","10","40","30","120","63","19","[""White""]","No","Female","3348204","null","null","learn_feedback","","","learn_feedback","20","100","out","","","","","","","","","","","","","","","","","","","","","","",""
"","","","","","canvas-keyboard-response","211","1475389","0.0-12.0-4.39","2d_cat_multi_stim_exp1","2022-4-26","15:52:21","25","75","3","9","10","40","30","120","63","19","[""White""]","No","Female","3348204","null","null","","","","clear_screen","","","","","","","","","","","","","","","","","","","","","","","","","",""
"","","","","","canvas-keyboard-response","212","1475898","0.0-12.0-0.40","2d_cat_multi_stim_exp1","2022-4-26","15:52:21","25","75","3","9","10","40","30","120","63","19","[""White""]","No","Female","3348204","null","null","","","","fixation","","","","","","","","","","","","","","","","","","","","","","","","","",""
"","","","","","canvas-keyboard-response","213","1476408","0.0-12.0-1.40","2d_cat_multi_stim_exp1","2022-4-26","15:52:21","25","75","3","9","10","40","30","120","63","19","[""White""]","No","Female","3348204","null","null","","","","clear_screen","","","","","","","","","","","","","","","","","","","","","","","","","",""
"","","","","","canvas-keyboard-response","214","1477362","0.0-12.0-2.40","2d_cat_multi_stim_exp1","2022-4-26","15:52:21","25","75","3","9","10","40","30","120","63","19","[""White""]","No","Female","3348204","944","u","learn","","","learn_trial","25","75","in","1","1","","","","","","","","","","","","","","","","","","","","",""
"","","","","","canvas-keyboard-response","215","1477871","0.0-12.0-3.40","2d_cat_multi_stim_exp1","2022-4-26","15:52:21","25","75","3","9","10","40","30","120","63","19","[""White""]","No","Female","3348204","null","null","learn_feedback","","","learn_feedback","25","75","in","","","","","","","","","","","","","","","","","","","","","","",""
"","","","","","canvas-keyboard-response","216","1477934","0.0-12.0-4.40","2d_cat_multi_stim_exp1","2022-4-26","15:52:21","25","75","3","9","10","40","30","120","63","19","[""White""]","No","Female","3348204","null","null","","","","clear_screen","","","","","","","","","","","","","","","","","","","","","","","","","",""
"","","","","","canvas-keyboard-response","217","1478441","0.0-12.0-0.41","2d_cat_multi_stim_exp1","2022-4-26","15:52:21","25","75","3","9","10","40","30","120","63","19","[""White""]","No","Female","3348204","null","null","","","","fixation","","","","","","","","","","","","","","","","","","","","","","","","","",""
"","","","","","canvas-keyboard-response","218","1478950","0.0-12.0-1.41","2d_cat_multi_stim_exp1","2022-4-26","15:52:21","25","75","3","9","10","40","30","120","63","19","[""White""]","No","Female","3348204","null","null","","","","clear_screen","","","","","","","","","","","","","","","","","","","","","","","","","",""
"","","","","","canvas-keyboard-response","219","1479762","0.0-12.0-2.41","2d_cat_multi_stim_exp1","2022-4-26","15:52:21","25","75","3","9","10","40","30","120","63","19","[""White""]","No","Female","3348204","802","u","learn","","","learn_trial","25","75","in","1","1","","","","","","","","","","","","","","","","","","","","",""
"","","","","","canvas-keyboard-response","220","1480272","0.0-12.0-3.41","2d_cat_multi_stim_exp1","2022-4-26","15:52:21","25","75","3","9","10","40","30","120","63","19","[""White""]","No","Female","3348204","null","null","learn_feedback","","","learn_feedback","25","75","in","","","","","","","","","","","","","","","","","","","","","","",""
"","","","","","canvas-keyboard-response","221","1480331","0.0-12.0-4.41","2d_cat_multi_stim_exp1","2022-4-26","15:52:21","25","75","3","9","10","40","30","120","63","19","[""White""]","No","Female","3348204","null","null","","","","clear_screen","","","","","","","","","","","","","","","","","","","","","","","","","",""
"","","","","","canvas-keyboard-response","222","1480841","0.0-12.0-0.42","2d_cat_multi_stim_exp1","2022-4-26","15:52:21","25","75","3","9","10","40","30","120","63","19","[""White""]","No","Female","3348204","null","null","","","","fixation","","","","","","","","","","","","","","","","","","","","","","","","","",""
"","","","","","canvas-keyboard-response","223","1481350","0.0-12.0-1.42","2d_cat_multi_stim_exp1","2022-4-26","15:52:21","25","75","3","9","10","40","30","120","63","19","[""White""]","No","Female","3348204","null","null","","","","clear_screen","","","","","","","","","","","","","","","","","","","","","","","","","",""
"","","","","","canvas-keyboard-response","224","1482457","0.0-12.0-2.42","2d_cat_multi_stim_exp1","2022-4-26","15:52:21","25","75","3","9","10","40","30","120","63","19","[""White""]","No","Female","3348204","1098","u","learn","","","learn_trial","22.5729","69.7099","in","1","1","","","","","","","","","","","","","","","","","","","","",""
"","","","","","canvas-keyboard-response","225","1482967","0.0-12.0-3.42","2d_cat_multi_stim_exp1","2022-4-26","15:52:21","25","75","3","9","10","40","30","120","63","19","[""White""]","No","Female","3348204","null","null","learn_feedback","","","learn_feedback","22.5729","69.7099","in","","","","","","","","","","","","","","","","","","","","","","",""
"","","","","","canvas-keyboard-response","226","1483026","0.0-12.0-4.42","2d_cat_multi_stim_exp1","2022-4-26","15:52:21","25","75","3","9","10","40","30","120","63","19","[""White""]","No","Female","3348204","null","null","","","","clear_screen","","","","","","","","","","","","","","","","","","","","","","","","","",""
"","","","","","canvas-keyboard-response","227","1483535","0.0-12.0-0.43","2d_cat_multi_stim_exp1","2022-4-26","15:52:21","25","75","3","9","10","40","30","120","63","19","[""White""]","No","Female","3348204","null","null","","","","fixation","","","","","","","","","","","","","","","","","","","","","","","","","",""
"","","","","","canvas-keyboard-response","228","1484044","0.0-12.0-1.43","2d_cat_multi_stim_exp1","2022-4-26","15:52:21","25","75","3","9","10","40","30","120","63","19","[""White""]","No","Female","3348204","null","null","","","","clear_screen","","","","","","","","","","","","","","","","","","","","","","","","","",""
"","","","","","canvas-keyboard-response","229","1485026","0.0-12.0-2.43","2d_cat_multi_stim_exp1","2022-4-26","15:52:21","25","75","3","9","10","40","30","120","63","19","[""White""]","No","Female","3348204","971","u","learn","","","learn_trial","25","75","in","1","1","","","","","","","","","","","","","","","","","","","","",""
"","","","","","canvas-keyboard-response","230","1485535","0.0-12.0-3.43","2d_cat_multi_stim_exp1","2022-4-26","15:52:21","25","75","3","9","10","40","30","120","63","19","[""White""]","No","Female","3348204","null","null","learn_feedback","","","learn_feedback","25","75","in","","","","","","","","","","","","","","","","","","","","","","",""
"","","","","","canvas-keyboard-response","231","1485597","0.0-12.0-4.43","2d_cat_multi_stim_exp1","2022-4-26","15:52:21","25","75","3","9","10","40","30","120","63","19","[""White""]","No","Female","3348204","null","null","","","","clear_screen","","","","","","","","","","","","","","","","","","","","","","","","","",""
"","","","","","canvas-keyboard-response","232","1486106","0.0-12.0-0.44","2d_cat_multi_stim_exp1","2022-4-26","15:52:21","25","75","3","9","10","40","30","120","63","19","[""White""]","No","Female","3348204","null","null","","","","fixation","","","","","","","","","","","","","","","","","","","","","","","","","",""
"","","","","","canvas-keyboard-response","233","1486616","0.0-12.0-1.44","2d_cat_multi_stim_exp1","2022-4-26","15:52:21","25","75","3","9","10","40","30","120","63","19","[""White""]","No","Female","3348204","null","null","","","","clear_screen","","","","","","","","","","","","","","","","","","","","","","","","","",""
"","","","","","canvas-keyboard-response","234","1487402","0.0-12.0-2.44","2d_cat_multi_stim_exp1","2022-4-26","15:52:21","25","75","3","9","10","40","30","120","63","19","[""White""]","No","Female","3348204","775","u","learn","","","learn_trial","22.9268","81.5052","in","1","1","","","","","","","","","","","","","","","","","","","","",""
"","","","","","canvas-keyboard-response","235","1487912","0.0-12.0-3.44","2d_cat_multi_stim_exp1","2022-4-26","15:52:21","25","75","3","9","10","40","30","120","63","19","[""White""]","No","Female","3348204","null","null","learn_feedback","","","learn_feedback","22.9268","81.5052","in","","","","","","","","","","","","","","","","","","","","","","",""
"","","","","","canvas-keyboard-response","236","1487970","0.0-12.0-4.44","2d_cat_multi_stim_exp1","2022-4-26","15:52:21","25","75","3","9","10","40","30","120","63","19","[""White""]","No","Female","3348204","null","null","","","","clear_screen","","","","","","","","","","","","","","","","","","","","","","","","","",""
"","","","","","canvas-keyboard-response","237","1488479","0.0-12.0-0.45","2d_cat_multi_stim_exp1","2022-4-26","15:52:21","25","75","3","9","10","40","30","120","63","19","[""White""]","No","Female","3348204","null","null","","","","fixation","","","","","","","","","","","","","","","","","","","","","","","","","",""
"","","","","","canvas-keyboard-response","238","1488990","0.0-12.0-1.45","2d_cat_multi_stim_exp1","2022-4-26","15:52:21","25","75","3","9","10","40","30","120","63","19","[""White""]","No","Female","3348204","null","null","","","","clear_screen","","","","","","","","","","","","","","","","","","","","","","","","","",""
"","","","","","canvas-keyboard-response","239","1490009","0.0-12.0-2.45","2d_cat_multi_stim_exp1","2022-4-26","15:52:21","25","75","3","9","10","40","30","120","63","19","[""White""]","No","Female","3348204","1011","i","learn","","","learn_trial","23.3333","120","out","0","1","","","","","","","","","","","","","","","","","","","","",""
"","","","","","canvas-keyboard-response","240","1490518","0.0-12.0-3.45","2d_cat_multi_stim_exp1","2022-4-26","15:52:21","25","75","3","9","10","40","30","120","63","19","[""White""]","No","Female","3348204","null","null","learn_feedback","","","learn_feedback","23.3333","120","out","","","","","","","","","","","","","","","","","","","","","","",""
"","","","","","canvas-keyboard-response","241","1490577","0.0-12.0-4.45","2d_cat_multi_stim_exp1","2022-4-26","15:52:21","25","75","3","9","10","40","30","120","63","19","[""White""]","No","Female","3348204","null","null","","","","clear_screen","","","","","","","","","","","","","","","","","","","","","","","","","",""
"","","","","","canvas-keyboard-response","242","1491087","0.0-12.0-0.46","2d_cat_multi_stim_exp1","2022-4-26","15:52:21","25","75","3","9","10","40","30","120","63","19","[""White""]","No","Female","3348204","null","null","","","","fixation","","","","","","","","","","","","","","","","","","","","","","","","","",""
"","","","","","canvas-keyboard-response","243","1491596","0.0-12.0-1.46","2d_cat_multi_stim_exp1","2022-4-26","15:52:21","25","75","3","9","10","40","30","120","63","19","[""White""]","No","Female","3348204","null","null","","","","clear_screen","","","","","","","","","","","","","","","","","","","","","","","","","",""
"","","","","","canvas-keyboard-response","244","1492834","0.0-12.0-2.46","2d_cat_multi_stim_exp1","2022-4-26","15:52:21","25","75","3","9","10","40","30","120","63","19","[""White""]","No","Female","3348204","1228","u","learn","","","learn_trial","33.3333","80","out","1","0","","","","","","","","","","","","","","","","","","","","",""
"","","","","","canvas-keyboard-response","245","1493843","0.0-12.0-3.46","2d_cat_multi_stim_exp1","2022-4-26","15:52:21","25","75","3","9","10","40","30","120","63","19","[""White""]","No","Female","3348204","null","null","learn_feedback","","","learn_feedback","33.3333","80","out","","","","","","","","","","","","","","","","","","","","","","",""
"","","","","","canvas-keyboard-response","246","1493903","0.0-12.0-4.46","2d_cat_multi_stim_exp1","2022-4-26","15:52:21","25","75","3","9","10","40","30","120","63","19","[""White""]","No","Female","3348204","null","null","","","","clear_screen","","","","","","","","","","","","","","","","","","","","","","","","","",""
"","","","","","canvas-keyboard-response","247","1494412","0.0-12.0-0.47","2d_cat_multi_stim_exp1","2022-4-26","15:52:21","25","75","3","9","10","40","30","120","63","19","[""White""]","No","Female","3348204","null","null","","","","fixation","","","","","","","","","","","","","","","","","","","","","","","","","",""
"","","","","","canvas-keyboard-response","248","1494922","0.0-12.0-1.47","2d_cat_multi_stim_exp1","2022-4-26","15:52:21","25","75","3","9","10","40","30","120","63","19","[""White""]","No","Female","3348204","null","null","","","","clear_screen","","","","","","","","","","","","","","","","","","","","","","","","","",""
"","","","","","canvas-keyboard-response","249","1495761","0.0-12.0-2.47","2d_cat_multi_stim_exp1","2022-4-26","15:52:21","25","75","3","9","10","40","30","120","63","19","[""White""]","No","Female","3348204","830","u","learn","","","learn_trial","26.6667","120","out","1","0","","","","","","","","","","","","","","","","","","","","",""
"","","","","","canvas-keyboard-response","250","1496772","0.0-12.0-3.47","2d_cat_multi_stim_exp1","2022-4-26","15:52:21","25","75","3","9","10","40","30","120","63","19","[""White""]","No","Female","3348204","null","null","learn_feedback","","","learn_feedback","26.6667","120","out","","","","","","","","","","","","","","","","","","","","","","",""
"","","","","","canvas-keyboard-response","251","1496830","0.0-12.0-4.47","2d_cat_multi_stim_exp1","2022-4-26","15:52:21","25","75","3","9","10","40","30","120","63","19","[""White""]","No","Female","3348204","null","null","","","","clear_screen","","","","","","","","","","","","","","","","","","","","","","","","","",""
"","","","","","canvas-keyboard-response","252","1497343","0.0-12.0-0.48","2d_cat_multi_stim_exp1","2022-4-26","15:52:21","25","75","3","9","10","40","30","120","63","19","[""White""]","No","Female","3348204","null","null","","","","fixation","","","","","","","","","","","","","","","","","","","","","","","","","",""
"","","","","","canvas-keyboard-response","253","1497853","0.0-12.0-1.48","2d_cat_multi_stim_exp1","2022-4-26","15:52:21","25","75","3","9","10","40","30","120","63","19","[""White""]","No","Female","3348204","null","null","","","","clear_screen","","","","","","","","","","","","","","","","","","","","","","","","","",""
"","","","","","canvas-keyboard-response","254","1498698","0.0-12.0-2.48","2d_cat_multi_stim_exp1","2022-4-26","15:52:21","25","75","3","9","10","40","30","120","63","19","[""White""]","No","Female","3348204","835","u","learn","","","learn_trial","25","75","in","1","1","","","","","","","","","","","","","","","","","","","","",""
"","","","","","canvas-keyboard-response","255","1499209","0.0-12.0-3.48","2d_cat_multi_stim_exp1","2022-4-26","15:52:21","25","75","3","9","10","40","30","120","63","19","[""White""]","No","Female","3348204","null","null","learn_feedback","","","learn_feedback","25","75","in","","","","","","","","","","","","","","","","","","","","","","",""
"","","","","","canvas-keyboard-response","256","1499267","0.0-12.0-4.48","2d_cat_multi_stim_exp1","2022-4-26","15:52:21","25","75","3","9","10","40","30","120","63","19","[""White""]","No","Female","3348204","null","null","","","","clear_screen","","","","","","","","","","","","","","","","","","","","","","","","","",""
"","","","","","canvas-keyboard-response","257","1499777","0.0-12.0-0.49","2d_cat_multi_stim_exp1","2022-4-26","15:52:21","25","75","3","9","10","40","30","120","63","19","[""White""]","No","Female","3348204","null","null","","","","fixation","","","","","","","","","","","","","","","","","","","","","","","","","",""
"","","","","","canvas-keyboard-response","258","1500286","0.0-12.0-1.49","2d_cat_multi_stim_exp1","2022-4-26","15:52:21","25","75","3","9","10","40","30","120","63","19","[""White""]","No","Female","3348204","null","null","","","","clear_screen","","","","","","","","","","","","","","","","","","","","","","","","","",""
"","","","","","canvas-keyboard-response","259","1500993","0.0-12.0-2.49","2d_cat_multi_stim_exp1","2022-4-26","15:52:21","25","75","3","9","10","40","30","120","63","19","[""White""]","No","Female","3348204","697","i","learn","","","learn_trial","10","90","out","0","1","","","","","","","","","","","","","","","","","","","","",""
"","","","","","canvas-keyboard-response","260","1501504","0.0-12.0-3.49","2d_cat_multi_stim_exp1","2022-4-26","15:52:21","25","75","3","9","10","40","30","120","63","19","[""White""]","No","Female","3348204","null","null","learn_feedback","","","learn_feedback","10","90","out","","","","","","","","","","","","","","","","","","","","","","",""
"","","","","","canvas-keyboard-response","261","1501563","0.0-12.0-4.49","2d_cat_multi_stim_exp1","2022-4-26","15:52:21","25","75","3","9","10","40","30","120","63","19","[""White""]","No","Female","3348204","null","null","","","","clear_screen","","","","","","","","","","","","","","","","","","","","","","","","","",""
"","","","","","canvas-keyboard-response","262","1502072","0.0-12.0-0.50","2d_cat_multi_stim_exp1","2022-4-26","15:52:21","25","75","3","9","10","40","30","120","63","19","[""White""]","No","Female","3348204","null","null","","","","fixation","","","","","","","","","","","","","","","","","","","","","","","","","",""
"","","","","","canvas-keyboard-response","263","1502582","0.0-12.0-1.50","2d_cat_multi_stim_exp1","2022-4-26","15:52:21","25","75","3","9","10","40","30","120","63","19","[""White""]","No","Female","3348204","null","null","","","","clear_screen","","","","","","","","","","","","","","","","","","","","","","","","","",""
"","","","","","canvas-keyboard-response","264","1503266","0.0-12.0-2.50","2d_cat_multi_stim_exp1","2022-4-26","15:52:21","25","75","3","9","10","40","30","120","63","19","[""White""]","No","Female","3348204","673","i","learn","","","learn_trial","36.6667","40","out","0","1","","","","","","","","","","","","","","","","","","","","",""
"","","","","","canvas-keyboard-response","265","1503775","0.0-12.0-3.50","2d_cat_multi_stim_exp1","2022-4-26","15:52:21","25","75","3","9","10","40","30","120","63","19","[""White""]","No","Female","3348204","null","null","learn_feedback","","","learn_feedback","36.6667","40","out","","","","","","","","","","","","","","","","","","","","","","",""
"","","","","","canvas-keyboard-response","266","1503834","0.0-12.0-4.50","2d_cat_multi_stim_exp1","2022-4-26","15:52:21","25","75","3","9","10","40","30","120","63","19","[""White""]","No","Female","3348204","null","null","","","","clear_screen","","","","","","","","","","","","","","","","","","","","","","","","","",""
"","","","","","canvas-keyboard-response","267","1504343","0.0-12.0-0.51","2d_cat_multi_stim_exp1","2022-4-26","15:52:21","25","75","3","9","10","40","30","120","63","19","[""White""]","No","Female","3348204","null","null","","","","fixation","","","","","","","","","","","","","","","","","","","","","","","","","",""
"","","","","","canvas-keyboard-response","268","1504854","0.0-12.0-1.51","2d_cat_multi_stim_exp1","2022-4-26","15:52:21","25","75","3","9","10","40","30","120","63","19","[""White""]","No","Female","3348204","null","null","","","","clear_screen","","","","","","","","","","","","","","","","","","","","","","","","","",""
"","","","","","canvas-keyboard-response","269","1505745","0.0-12.0-2.51","2d_cat_multi_stim_exp1","2022-4-26","15:52:21","25","75","3","9","10","40","30","120","63","19","[""White""]","No","Female","3348204","878","i","learn","","","learn_trial","40","30","out","0","1","","","","","","","","","","","","","","","","","","","","",""
"","","","","","canvas-keyboard-response","270","1506259","0.0-12.0-3.51","2d_cat_multi_stim_exp1","2022-4-26","15:52:21","25","75","3","9","10","40","30","120","63","19","[""White""]","No","Female","3348204","null","null","learn_feedback","","","learn_feedback","40","30","out","","","","","","","","","","","","","","","","","","","","","","",""
"","","","","","canvas-keyboard-response","271","1506319","0.0-12.0-4.51","2d_cat_multi_stim_exp1","2022-4-26","15:52:21","25","75","3","9","10","40","30","120","63","19","[""White""]","No","Female","3348204","null","null","","","","clear_screen","","","","","","","","","","","","","","","","","","","","","","","","","",""
"","","","","","canvas-keyboard-response","272","1506829","0.0-12.0-0.52","2d_cat_multi_stim_exp1","2022-4-26","15:52:21","25","75","3","9","10","40","30","120","63","19","[""White""]","No","Female","3348204","null","null","","","","fixation","","","","","","","","","","","","","","","","","","","","","","","","","",""
"","","","","","canvas-keyboard-response","273","1507339","0.0-12.0-1.52","2d_cat_multi_stim_exp1","2022-4-26","15:52:21","25","75","3","9","10","40","30","120","63","19","[""White""]","No","Female","3348204","null","null","","","","clear_screen","","","","","","","","","","","","","","","","","","","","","","","","","",""
"","","","","","canvas-keyboard-response","274","1510274","0.0-12.0-2.52","2d_cat_multi_stim_exp1","2022-4-26","15:52:21","25","75","3","9","10","40","30","120","63","19","[""White""]","No","Female","3348204","2923","i","learn","","","learn_trial","16.6667","70","out","0","1","","","","","","","","","","","","","","","","","","","","",""
"","","","","","canvas-keyboard-response","275","1510784","0.0-12.0-3.52","2d_cat_multi_stim_exp1","2022-4-26","15:52:21","25","75","3","9","10","40","30","120","63","19","[""White""]","No","Female","3348204","null","null","learn_feedback","","","learn_feedback","16.6667","70","out","","","","","","","","","","","","","","","","","","","","","","",""
"","","","","","canvas-keyboard-response","276","1510843","0.0-12.0-4.52","2d_cat_multi_stim_exp1","2022-4-26","15:52:21","25","75","3","9","10","40","30","120","63","19","[""White""]","No","Female","3348204","null","null","","","","clear_screen","","","","","","","","","","","","","","","","","","","","","","","","","",""
"","","","","","canvas-keyboard-response","277","1511353","0.0-12.0-0.53","2d_cat_multi_stim_exp1","2022-4-26","15:52:21","25","75","3","9","10","40","30","120","63","19","[""White""]","No","Female","3348204","null","null","","","","fixation","","","","","","","","","","","","","","","","","","","","","","","","","",""
"","","","","","canvas-keyboard-response","278","1511864","0.0-12.0-1.53","2d_cat_multi_stim_exp1","2022-4-26","15:52:21","25","75","3","9","10","40","30","120","63","19","[""White""]","No","Female","3348204","null","null","","","","clear_screen","","","","","","","","","","","","","","","","","","","","","","","","","",""
"","","","","","canvas-keyboard-response","279","1512545","0.0-12.0-2.53","2d_cat_multi_stim_exp1","2022-4-26","15:52:21","25","75","3","9","10","40","30","120","63","19","[""White""]","No","Female","3348204","671","i","learn","","","learn_trial","26.6667","80","out","0","1","","","","","","","","","","","","","","","","","","","","",""
"","","","","","canvas-keyboard-response","280","1513056","0.0-12.0-3.53","2d_cat_multi_stim_exp1","2022-4-26","15:52:21","25","75","3","9","10","40","30","120","63","19","[""White""]","No","Female","3348204","null","null","learn_feedback","","","learn_feedback","26.6667","80","out","","","","","","","","","","","","","","","","","","","","","","",""
"","","","","","canvas-keyboard-response","281","1513115","0.0-12.0-4.53","2d_cat_multi_stim_exp1","2022-4-26","15:52:21","25","75","3","9","10","40","30","120","63","19","[""White""]","No","Female","3348204","null","null","","","","clear_screen","","","","","","","","","","","","","","","","","","","","","","","","","",""
"","","","","","canvas-keyboard-response","282","1513624","0.0-12.0-0.54","2d_cat_multi_stim_exp1","2022-4-26","15:52:21","25","75","3","9","10","40","30","120","63","19","[""White""]","No","Female","3348204","null","null","","","","fixation","","","","","","","","","","","","","","","","","","","","","","","","","",""
"","","","","","canvas-keyboard-response","283","1514134","0.0-12.0-1.54","2d_cat_multi_stim_exp1","2022-4-26","15:52:21","25","75","3","9","10","40","30","120","63","19","[""White""]","No","Female","3348204","null","null","","","","clear_screen","","","","","","","","","","","","","","","","","","","","","","","","","",""
"","","","","","canvas-keyboard-response","284","1514857","0.0-12.0-2.54","2d_cat_multi_stim_exp1","2022-4-26","15:52:21","25","75","3","9","10","40","30","120","63","19","[""White""]","No","Female","3348204","714","i","learn","","","learn_trial","19","75","in","0","0","","","","","","","","","","","","","","","","","","","","",""
"","","","","","canvas-keyboard-response","285","1515867","0.0-12.0-3.54","2d_cat_multi_stim_exp1","2022-4-26","15:52:21","25","75","3","9","10","40","30","120","63","19","[""White""]","No","Female","3348204","null","null","learn_feedback","","","learn_feedback","19","75","in","","","","","","","","","","","","","","","","","","","","","","",""
"","","","","","canvas-keyboard-response","286","1515927","0.0-12.0-4.54","2d_cat_multi_stim_exp1","2022-4-26","15:52:21","25","75","3","9","10","40","30","120","63","19","[""White""]","No","Female","3348204","null","null","","","","clear_screen","","","","","","","","","","","","","","","","","","","","","","","","","",""
"","","","","","canvas-keyboard-response","287","1516436","0.0-12.0-0.55","2d_cat_multi_stim_exp1","2022-4-26","15:52:21","25","75","3","9","10","40","30","120","63","19","[""White""]","No","Female","3348204","null","null","","","","fixation","","","","","","","","","","","","","","","","","","","","","","","","","",""
"","","","","","canvas-keyboard-response","288","1516946","0.0-12.0-1.55","2d_cat_multi_stim_exp1","2022-4-26","15:52:21","25","75","3","9","10","40","30","120","63","19","[""White""]","No","Female","3348204","null","null","","","","clear_screen","","","","","","","","","","","","","","","","","","","","","","","","","",""
"","","","","","canvas-keyboard-response","289","1517697","0.0-12.0-2.55","2d_cat_multi_stim_exp1","2022-4-26","15:52:21","25","75","3","9","10","40","30","120","63","19","[""White""]","No","Female","3348204","741","u","learn","","","learn_trial","23.8209","66.7243","in","1","1","","","","","","","","","","","","","","","","","","","","",""
"","","","","","canvas-keyboard-response","290","1518208","0.0-12.0-3.55","2d_cat_multi_stim_exp1","2022-4-26","15:52:21","25","75","3","9","10","40","30","120","63","19","[""White""]","No","Female","3348204","null","null","learn_feedback","","","learn_feedback","23.8209","66.7243","in","","","","","","","","","","","","","","","","","","","","","","",""
"","","","","","canvas-keyboard-response","291","1518266","0.0-12.0-4.55","2d_cat_multi_stim_exp1","2022-4-26","15:52:21","25","75","3","9","10","40","30","120","63","19","[""White""]","No","Female","3348204","null","null","","","","clear_screen","","","","","","","","","","","","","","","","","","","","","","","","","",""
"","","","","","canvas-keyboard-response","292","1518776","0.0-12.0-0.56","2d_cat_multi_stim_exp1","2022-4-26","15:52:21","25","75","3","9","10","40","30","120","63","19","[""White""]","No","Female","3348204","null","null","","","","fixation","","","","","","","","","","","","","","","","","","","","","","","","","",""
"","","","","","canvas-keyboard-response","293","1519285","0.0-12.0-1.56","2d_cat_multi_stim_exp1","2022-4-26","15:52:21","25","75","3","9","10","40","30","120","63","19","[""White""]","No","Female","3348204","null","null","","","","clear_screen","","","","","","","","","","","","","","","","","","","","","","","","","",""
"","","","","","canvas-keyboard-response","294","1521001","0.0-12.0-2.56","2d_cat_multi_stim_exp1","2022-4-26","15:52:21","25","75","3","9","10","40","30","120","63","19","[""White""]","No","Female","3348204","1707","i","learn","","","learn_trial","36.6667","60","out","0","1","","","","","","","","","","","","","","","","","","","","",""
"","","","","","canvas-keyboard-response","295","1521511","0.0-12.0-3.56","2d_cat_multi_stim_exp1","2022-4-26","15:52:21","25","75","3","9","10","40","30","120","63","19","[""White""]","No","Female","3348204","null","null","learn_feedback","","","learn_feedback","36.6667","60","out","","","","","","","","","","","","","","","","","","","","","","",""
