"success","timeout","failed_images","failed_audio","failed_video","trial_type","trial_index","time_elapsed","internal_node_id","exp_name","date","time","angle_mean_in","radius_mean_in","angle_sd_in","radius_sd_in","angle_min_out","angle_max_out","radius_min_out","radius_max_out","sub_n","age","race","ethnicity","gender","exp_duration","rt","response","exp_trial_type","stimulus","view_history","screen_id","angle","radius","distribution","choice","correct","order","angle_a","radius_a","angle_b","radius_b","jkl_correct","transfer_trial_type","choice_set","abc_correct","tc_correct","tc_angle","tdc_a","tdc_b","tdc_c","pair","category_a","category_b","category_c","angle_c","radius_c","question_order"
"true","false","[]","[]","[]","preload","0","33","0.0-0.0","2d_cat_multi_stim_exp1","2022-4-20","10:4:51","25","75","3","9","10","40","30","120","48","19","[""White""]","No","Female","1773457","","","","","","","","","","","","","","","","","","","","","","","","","","","","","","","",""
"","","","","","survey-html-form","1","2308","0.0-1.0","2d_cat_multi_stim_exp1","2022-4-20","10:4:51","25","75","3","9","10","40","30","120","48","19","[""White""]","No","Female","1773457","2258","{""response"":""48""}","enter-sub-number","","","","","","","","","","","","","","","","","","","","","","","","","","","","",""
"true","","","","","fullscreen","2","5858","0.0-2.0","2d_cat_multi_stim_exp1","2022-4-20","10:4:51","25","75","3","9","10","40","30","120","48","19","[""White""]","No","Female","1773457","","","","","","","","","","","","","","","","","","","","","","","","","","","","","","","",""
"","","","","","image-button-response","3","16985","0.0-3.0","2d_cat_multi_stim_exp1","2022-4-20","10:4:51","25","75","3","9","10","40","30","120","48","19","[""White""]","No","Female","1773457","11119","0","","consent.png","","","","","","","","","","","","","","","","","","","","","","","","","","","",""
"","","","","","html-button-response","4","20546","0.0-4.0","2d_cat_multi_stim_exp1","2022-4-20","10:4:51","25","75","3","9","10","40","30","120","48","19","[""White""]","No","Female","1773457","3556","0","","<div style= ""font-size:25px;"" <p> <strong> Welcome to the experiment! </strong><br> <p style=""color:#8B0000; font-size:25px;""><strong> Please do NOT exit full screen until you are done with the experiment. </strong> </p><p style=""font-size:25px;color:#8B0000;""> <strong> The experiment will be canceled and your data will be lost <br> if you try to go back or refresh the page at any point during the experiment.</strong> </p><br><p> <strong> Thanks in advance for your contribution to our research! </strong></p>","","","","","","","","","","","","","","","","","","","","","","","","","","","",""
"","","","","","instructions","5","48425","0.0-5.0","2d_cat_multi_stim_exp1","2022-4-20","10:4:51","25","75","3","9","10","40","30","120","48","19","[""White""]","No","Female","1773457","27873","","","","[{""page_index"":0,""viewing_time"":6680},{""page_index"":1,""viewing_time"":2040},{""page_index"":2,""viewing_time"":7856},{""page_index"":3,""viewing_time"":11296}]","instructions_1","","","","","","","","","","","","","","","","","","","","","","","","","",""
"","","","","","instructions","6","53529","0.0-6.0","2d_cat_multi_stim_exp1","2022-4-20","10:4:51","25","75","3","9","10","40","30","120","48","19","[""White""]","No","Female","1773457","5099","","","","[{""page_index"":0,""viewing_time"":5099}]","Click to see the kinds of turtles that will appear in the study.","","","","","","","","","","","","","","","","","","","","","","","","","",""
"","","","","","canvas-keyboard-response","7","68546","0.0-7.0","2d_cat_multi_stim_exp1","2022-4-20","10:4:51","25","75","3","9","10","40","30","120","48","19","[""White""]","No","Female","1773457","null","null","","","","demo_range","","","","","","","","","","","","","","","","","","","","","","","","","",""
"","","","","","instructions","8","71072","0.0-8.0","2d_cat_multi_stim_exp1","2022-4-20","10:4:51","25","75","3","9","10","40","30","120","48","19","[""White""]","No","Female","1773457","2025","","","","[{""page_index"":0,""viewing_time"":2024}]","Click to see some turtles in the subspecies.","","","","","","","","","","","","","","","","","","","","","","","","","",""
"","","","","","canvas-keyboard-response","9","86090","0.0-9.0","2d_cat_multi_stim_exp1","2022-4-20","10:4:51","25","75","3","9","10","40","30","120","48","19","[""White""]","No","Female","1773457","null","null","","","","demo_in","","","","","","","","","","","","","","","","","","","","","","","","","",""
"","","","","","instructions","10","126937","0.0-10.0","2d_cat_multi_stim_exp1","2022-4-20","10:4:51","25","75","3","9","10","40","30","120","48","19","[""White""]","No","Female","1773457","40346","","","","[{""page_index"":0,""viewing_time"":9506},{""page_index"":1,""viewing_time"":7503},{""page_index"":2,""viewing_time"":2473},{""page_index"":1,""viewing_time"":10720},{""page_index"":2,""viewing_time"":4592},{""page_index"":1,""viewing_time"":3455},{""page_index"":2,""viewing_time"":2097}]","instructions_2","","","","","","","","","","","","","","","","","","","","","","","","","",""
"","","","","","instructions","11","128168","0.0-11.0","2d_cat_multi_stim_exp1","2022-4-20","10:4:51","25","75","3","9","10","40","30","120","48","19","[""White""]","No","Female","1773457","1228","","","","[{""page_index"":0,""viewing_time"":1228}]","Click to begin the first phase of the experiment.","","","","","","","","","","","","","","","","","","","","","","","","","",""
"","","","","","canvas-keyboard-response","12","128678","0.0-12.0-0.0","2d_cat_multi_stim_exp1","2022-4-20","10:4:51","25","75","3","9","10","40","30","120","48","19","[""White""]","No","Female","1773457","null","null","","","","fixation","","","","","","","","","","","","","","","","","","","","","","","","","",""
"","","","","","canvas-keyboard-response","13","129188","0.0-12.0-1.0","2d_cat_multi_stim_exp1","2022-4-20","10:4:51","25","75","3","9","10","40","30","120","48","19","[""White""]","No","Female","1773457","null","null","","","","clear_screen","","","","","","","","","","","","","","","","","","","","","","","","","",""
"","","","","","canvas-keyboard-response","14","131411","0.0-12.0-2.0","2d_cat_multi_stim_exp1","2022-4-20","10:4:51","25","75","3","9","10","40","30","120","48","19","[""White""]","No","Female","1773457","2208","u","learn","","","learn_trial","36.6667","100","out","1","0","","","","","","","","","","","","","","","","","","","","",""
"","","","","","canvas-keyboard-response","15","132422","0.0-12.0-3.0","2d_cat_multi_stim_exp1","2022-4-20","10:4:51","25","75","3","9","10","40","30","120","48","19","[""White""]","No","Female","1773457","null","null","learn_feedback","","","learn_feedback","36.6667","100","out","","","","","","","","","","","","","","","","","","","","","","",""
"","","","","","canvas-keyboard-response","16","132482","0.0-12.0-4.0","2d_cat_multi_stim_exp1","2022-4-20","10:4:51","25","75","3","9","10","40","30","120","48","19","[""White""]","No","Female","1773457","null","null","","","","clear_screen","","","","","","","","","","","","","","","","","","","","","","","","","",""
"","","","","","canvas-keyboard-response","17","132993","0.0-12.0-0.1","2d_cat_multi_stim_exp1","2022-4-20","10:4:51","25","75","3","9","10","40","30","120","48","19","[""White""]","No","Female","1773457","null","null","","","","fixation","","","","","","","","","","","","","","","","","","","","","","","","","",""
"","","","","","canvas-keyboard-response","18","133505","0.0-12.0-1.1","2d_cat_multi_stim_exp1","2022-4-20","10:4:51","25","75","3","9","10","40","30","120","48","19","[""White""]","No","Female","1773457","null","null","","","","clear_screen","","","","","","","","","","","","","","","","","","","","","","","","","",""
"","","","","","canvas-keyboard-response","19","134432","0.0-12.0-2.1","2d_cat_multi_stim_exp1","2022-4-20","10:4:51","25","75","3","9","10","40","30","120","48","19","[""White""]","No","Female","1773457","915","u","learn","","","learn_trial","27.9518","73.393","in","1","1","","","","","","","","","","","","","","","","","","","","",""
"","","","","","canvas-keyboard-response","20","134944","0.0-12.0-3.1","2d_cat_multi_stim_exp1","2022-4-20","10:4:51","25","75","3","9","10","40","30","120","48","19","[""White""]","No","Female","1773457","null","null","learn_feedback","","","learn_feedback","27.9518","73.393","in","","","","","","","","","","","","","","","","","","","","","","",""
"","","","","","canvas-keyboard-response","21","135003","0.0-12.0-4.1","2d_cat_multi_stim_exp1","2022-4-20","10:4:51","25","75","3","9","10","40","30","120","48","19","[""White""]","No","Female","1773457","null","null","","","","clear_screen","","","","","","","","","","","","","","","","","","","","","","","","","",""
"","","","","","canvas-keyboard-response","22","135513","0.0-12.0-0.2","2d_cat_multi_stim_exp1","2022-4-20","10:4:51","25","75","3","9","10","40","30","120","48","19","[""White""]","No","Female","1773457","null","null","","","","fixation","","","","","","","","","","","","","","","","","","","","","","","","","",""
"","","","","","canvas-keyboard-response","23","136027","0.0-12.0-1.2","2d_cat_multi_stim_exp1","2022-4-20","10:4:51","25","75","3","9","10","40","30","120","48","19","[""White""]","No","Female","1773457","null","null","","","","clear_screen","","","","","","","","","","","","","","","","","","","","","","","","","",""
"","","","","","canvas-keyboard-response","24","136849","0.0-12.0-2.2","2d_cat_multi_stim_exp1","2022-4-20","10:4:51","25","75","3","9","10","40","30","120","48","19","[""White""]","No","Female","1773457","813","u","learn","","","learn_trial","25.9271","66.4405","in","1","1","","","","","","","","","","","","","","","","","","","","",""
"","","","","","canvas-keyboard-response","25","137358","0.0-12.0-3.2","2d_cat_multi_stim_exp1","2022-4-20","10:4:51","25","75","3","9","10","40","30","120","48","19","[""White""]","No","Female","1773457","null","null","learn_feedback","","","learn_feedback","25.9271","66.4405","in","","","","","","","","","","","","","","","","","","","","","","",""
"","","","","","canvas-keyboard-response","26","137418","0.0-12.0-4.2","2d_cat_multi_stim_exp1","2022-4-20","10:4:51","25","75","3","9","10","40","30","120","48","19","[""White""]","No","Female","1773457","null","null","","","","clear_screen","","","","","","","","","","","","","","","","","","","","","","","","","",""
"","","","","","canvas-keyboard-response","27","137931","0.0-12.0-0.3","2d_cat_multi_stim_exp1","2022-4-20","10:4:51","25","75","3","9","10","40","30","120","48","19","[""White""]","No","Female","1773457","null","null","","","","fixation","","","","","","","","","","","","","","","","","","","","","","","","","",""
"","","","","","canvas-keyboard-response","28","138440","0.0-12.0-1.3","2d_cat_multi_stim_exp1","2022-4-20","10:4:51","25","75","3","9","10","40","30","120","48","19","[""White""]","No","Female","1773457","null","null","","","","clear_screen","","","","","","","","","","","","","","","","","","","","","","","","","",""
"","","","","","canvas-keyboard-response","29","139225","0.0-12.0-2.3","2d_cat_multi_stim_exp1","2022-4-20","10:4:51","25","75","3","9","10","40","30","120","48","19","[""White""]","No","Female","1773457","776","i","learn","","","learn_trial","23.3333","40","out","0","1","","","","","","","","","","","","","","","","","","","","",""
"","","","","","canvas-keyboard-response","30","139736","0.0-12.0-3.3","2d_cat_multi_stim_exp1","2022-4-20","10:4:51","25","75","3","9","10","40","30","120","48","19","[""White""]","No","Female","1773457","null","null","learn_feedback","","","learn_feedback","23.3333","40","out","","","","","","","","","","","","","","","","","","","","","","",""
"","","","","","canvas-keyboard-response","31","139796","0.0-12.0-4.3","2d_cat_multi_stim_exp1","2022-4-20","10:4:51","25","75","3","9","10","40","30","120","48","19","[""White""]","No","Female","1773457","null","null","","","","clear_screen","","","","","","","","","","","","","","","","","","","","","","","","","",""
"","","","","","canvas-keyboard-response","32","140306","0.0-12.0-0.4","2d_cat_multi_stim_exp1","2022-4-20","10:4:51","25","75","3","9","10","40","30","120","48","19","[""White""]","No","Female","1773457","null","null","","","","fixation","","","","","","","","","","","","","","","","","","","","","","","","","",""
"","","","","","canvas-keyboard-response","33","140819","0.0-12.0-1.4","2d_cat_multi_stim_exp1","2022-4-20","10:4:51","25","75","3","9","10","40","30","120","48","19","[""White""]","No","Female","1773457","null","null","","","","clear_screen","","","","","","","","","","","","","","","","","","","","","","","","","",""
"","","","","","canvas-keyboard-response","34","141641","0.0-12.0-2.4","2d_cat_multi_stim_exp1","2022-4-20","10:4:51","25","75","3","9","10","40","30","120","48","19","[""White""]","No","Female","1773457","813","u","learn","","","learn_trial","23.8209","66.7243","in","1","1","","","","","","","","","","","","","","","","","","","","",""
"","","","","","canvas-keyboard-response","35","142150","0.0-12.0-3.4","2d_cat_multi_stim_exp1","2022-4-20","10:4:51","25","75","3","9","10","40","30","120","48","19","[""White""]","No","Female","1773457","null","null","learn_feedback","","","learn_feedback","23.8209","66.7243","in","","","","","","","","","","","","","","","","","","","","","","",""
"","","","","","canvas-keyboard-response","36","142212","0.0-12.0-4.4","2d_cat_multi_stim_exp1","2022-4-20","10:4:51","25","75","3","9","10","40","30","120","48","19","[""White""]","No","Female","1773457","null","null","","","","clear_screen","","","","","","","","","","","","","","","","","","","","","","","","","",""
"","","","","","canvas-keyboard-response","37","142723","0.0-12.0-0.5","2d_cat_multi_stim_exp1","2022-4-20","10:4:51","25","75","3","9","10","40","30","120","48","19","[""White""]","No","Female","1773457","null","null","","","","fixation","","","","","","","","","","","","","","","","","","","","","","","","","",""
"","","","","","canvas-keyboard-response","38","143235","0.0-12.0-1.5","2d_cat_multi_stim_exp1","2022-4-20","10:4:51","25","75","3","9","10","40","30","120","48","19","[""White""]","No","Female","1773457","null","null","","","","clear_screen","","","","","","","","","","","","","","","","","","","","","","","","","",""
"","","","","","canvas-keyboard-response","39","144857","0.0-12.0-2.5","2d_cat_multi_stim_exp1","2022-4-20","10:4:51","25","75","3","9","10","40","30","120","48","19","[""White""]","No","Female","1773457","1613","u","learn","","","learn_trial","10","50","out","1","0","","","","","","","","","","","","","","","","","","","","",""
"","","","","","canvas-keyboard-response","40","145867","0.0-12.0-3.5","2d_cat_multi_stim_exp1","2022-4-20","10:4:51","25","75","3","9","10","40","30","120","48","19","[""White""]","No","Female","1773457","null","null","learn_feedback","","","learn_feedback","10","50","out","","","","","","","","","","","","","","","","","","","","","","",""
"","","","","","canvas-keyboard-response","41","145931","0.0-12.0-4.5","2d_cat_multi_stim_exp1","2022-4-20","10:4:51","25","75","3","9","10","40","30","120","48","19","[""White""]","No","Female","1773457","null","null","","","","clear_screen","","","","","","","","","","","","","","","","","","","","","","","","","",""
"","","","","","canvas-keyboard-response","42","146442","0.0-12.0-0.6","2d_cat_multi_stim_exp1","2022-4-20","10:4:51","25","75","3","9","10","40","30","120","48","19","[""White""]","No","Female","1773457","null","null","","","","fixation","","","","","","","","","","","","","","","","","","","","","","","","","",""
"","","","","","canvas-keyboard-response","43","146956","0.0-12.0-1.6","2d_cat_multi_stim_exp1","2022-4-20","10:4:51","25","75","3","9","10","40","30","120","48","19","[""White""]","No","Female","1773457","null","null","","","","clear_screen","","","","","","","","","","","","","","","","","","","","","","","","","",""
"","","","","","canvas-keyboard-response","44","148280","0.0-12.0-2.6","2d_cat_multi_stim_exp1","2022-4-20","10:4:51","25","75","3","9","10","40","30","120","48","19","[""White""]","No","Female","1773457","1314","u","learn","","","learn_trial","33.3333","110","out","1","0","","","","","","","","","","","","","","","","","","","","",""
"","","","","","canvas-keyboard-response","45","149293","0.0-12.0-3.6","2d_cat_multi_stim_exp1","2022-4-20","10:4:51","25","75","3","9","10","40","30","120","48","19","[""White""]","No","Female","1773457","null","null","learn_feedback","","","learn_feedback","33.3333","110","out","","","","","","","","","","","","","","","","","","","","","","",""
"","","","","","canvas-keyboard-response","46","149353","0.0-12.0-4.6","2d_cat_multi_stim_exp1","2022-4-20","10:4:51","25","75","3","9","10","40","30","120","48","19","[""White""]","No","Female","1773457","null","null","","","","clear_screen","","","","","","","","","","","","","","","","","","","","","","","","","",""
"","","","","","canvas-keyboard-response","47","149867","0.0-12.0-0.7","2d_cat_multi_stim_exp1","2022-4-20","10:4:51","25","75","3","9","10","40","30","120","48","19","[""White""]","No","Female","1773457","null","null","","","","fixation","","","","","","","","","","","","","","","","","","","","","","","","","",""
"","","","","","canvas-keyboard-response","48","150380","0.0-12.0-1.7","2d_cat_multi_stim_exp1","2022-4-20","10:4:51","25","75","3","9","10","40","30","120","48","19","[""White""]","No","Female","1773457","null","null","","","","clear_screen","","","","","","","","","","","","","","","","","","","","","","","","","",""
"","","","","","canvas-keyboard-response","49","151288","0.0-12.0-2.7","2d_cat_multi_stim_exp1","2022-4-20","10:4:51","25","75","3","9","10","40","30","120","48","19","[""White""]","No","Female","1773457","899","i","learn","","","learn_trial","26.6667","70","out","0","1","","","","","","","","","","","","","","","","","","","","",""
"","","","","","canvas-keyboard-response","50","151799","0.0-12.0-3.7","2d_cat_multi_stim_exp1","2022-4-20","10:4:51","25","75","3","9","10","40","30","120","48","19","[""White""]","No","Female","1773457","null","null","learn_feedback","","","learn_feedback","26.6667","70","out","","","","","","","","","","","","","","","","","","","","","","",""
"","","","","","canvas-keyboard-response","51","151859","0.0-12.0-4.7","2d_cat_multi_stim_exp1","2022-4-20","10:4:51","25","75","3","9","10","40","30","120","48","19","[""White""]","No","Female","1773457","null","null","","","","clear_screen","","","","","","","","","","","","","","","","","","","","","","","","","",""
"","","","","","canvas-keyboard-response","52","152373","0.0-12.0-0.8","2d_cat_multi_stim_exp1","2022-4-20","10:4:51","25","75","3","9","10","40","30","120","48","19","[""White""]","No","Female","1773457","null","null","","","","fixation","","","","","","","","","","","","","","","","","","","","","","","","","",""
"","","","","","canvas-keyboard-response","53","152884","0.0-12.0-1.8","2d_cat_multi_stim_exp1","2022-4-20","10:4:51","25","75","3","9","10","40","30","120","48","19","[""White""]","No","Female","1773457","null","null","","","","clear_screen","","","","","","","","","","","","","","","","","","","","","","","","","",""
"","","","","","canvas-keyboard-response","54","153752","0.0-12.0-2.8","2d_cat_multi_stim_exp1","2022-4-20","10:4:51","25","75","3","9","10","40","30","120","48","19","[""White""]","No","Female","1773457","855","u","learn","","","learn_trial","20","80","out","1","0","","","","","","","","","","","","","","","","","","","","",""
"","","","","","canvas-keyboard-response","55","154762","0.0-12.0-3.8","2d_cat_multi_stim_exp1","2022-4-20","10:4:51","25","75","3","9","10","40","30","120","48","19","[""White""]","No","Female","1773457","null","null","learn_feedback","","","learn_feedback","20","80","out","","","","","","","","","","","","","","","","","","","","","","",""
"","","","","","canvas-keyboard-response","56","154822","0.0-12.0-4.8","2d_cat_multi_stim_exp1","2022-4-20","10:4:51","25","75","3","9","10","40","30","120","48","19","[""White""]","No","Female","1773457","null","null","","","","clear_screen","","","","","","","","","","","","","","","","","","","","","","","","","",""
"","","","","","canvas-keyboard-response","57","155332","0.0-12.0-0.9","2d_cat_multi_stim_exp1","2022-4-20","10:4:51","25","75","3","9","10","40","30","120","48","19","[""White""]","No","Female","1773457","null","null","","","","fixation","","","","","","","","","","","","","","","","","","","","","","","","","",""
"","","","","","canvas-keyboard-response","58","155842","0.0-12.0-1.9","2d_cat_multi_stim_exp1","2022-4-20","10:4:51","25","75","3","9","10","40","30","120","48","19","[""White""]","No","Female","1773457","null","null","","","","clear_screen","","","","","","","","","","","","","","","","","","","","","","","","","",""
"","","","","","canvas-keyboard-response","59","156584","0.0-12.0-2.9","2d_cat_multi_stim_exp1","2022-4-20","10:4:51","25","75","3","9","10","40","30","120","48","19","[""White""]","No","Female","1773457","729","i","learn","","","learn_trial","26.6667","30","out","0","1","","","","","","","","","","","","","","","","","","","","",""
"","","","","","canvas-keyboard-response","60","157095","0.0-12.0-3.9","2d_cat_multi_stim_exp1","2022-4-20","10:4:51","25","75","3","9","10","40","30","120","48","19","[""White""]","No","Female","1773457","null","null","learn_feedback","","","learn_feedback","26.6667","30","out","","","","","","","","","","","","","","","","","","","","","","",""
"","","","","","canvas-keyboard-response","61","157159","0.0-12.0-4.9","2d_cat_multi_stim_exp1","2022-4-20","10:4:51","25","75","3","9","10","40","30","120","48","19","[""White""]","No","Female","1773457","null","null","","","","clear_screen","","","","","","","","","","","","","","","","","","","","","","","","","",""
"","","","","","canvas-keyboard-response","62","157669","0.0-12.0-0.10","2d_cat_multi_stim_exp1","2022-4-20","10:4:51","25","75","3","9","10","40","30","120","48","19","[""White""]","No","Female","1773457","null","null","","","","fixation","","","","","","","","","","","","","","","","","","","","","","","","","",""
"","","","","","canvas-keyboard-response","63","158178","0.0-12.0-1.10","2d_cat_multi_stim_exp1","2022-4-20","10:4:51","25","75","3","9","10","40","30","120","48","19","[""White""]","No","Female","1773457","null","null","","","","clear_screen","","","","","","","","","","","","","","","","","","","","","","","","","",""
"","","","","","canvas-keyboard-response","64","159160","0.0-12.0-2.10","2d_cat_multi_stim_exp1","2022-4-20","10:4:51","25","75","3","9","10","40","30","120","48","19","[""White""]","No","Female","1773457","969","i","learn","","","learn_trial","23.3333","120","out","0","1","","","","","","","","","","","","","","","","","","","","",""
"","","","","","canvas-keyboard-response","65","159670","0.0-12.0-3.10","2d_cat_multi_stim_exp1","2022-4-20","10:4:51","25","75","3","9","10","40","30","120","48","19","[""White""]","No","Female","1773457","null","null","learn_feedback","","","learn_feedback","23.3333","120","out","","","","","","","","","","","","","","","","","","","","","","",""
"","","","","","canvas-keyboard-response","66","159730","0.0-12.0-4.10","2d_cat_multi_stim_exp1","2022-4-20","10:4:51","25","75","3","9","10","40","30","120","48","19","[""White""]","No","Female","1773457","null","null","","","","clear_screen","","","","","","","","","","","","","","","","","","","","","","","","","",""
"","","","","","canvas-keyboard-response","67","160243","0.0-12.0-0.11","2d_cat_multi_stim_exp1","2022-4-20","10:4:51","25","75","3","9","10","40","30","120","48","19","[""White""]","No","Female","1773457","null","null","","","","fixation","","","","","","","","","","","","","","","","","","","","","","","","","",""
"","","","","","canvas-keyboard-response","68","160754","0.0-12.0-1.11","2d_cat_multi_stim_exp1","2022-4-20","10:4:51","25","75","3","9","10","40","30","120","48","19","[""White""]","No","Female","1773457","null","null","","","","clear_screen","","","","","","","","","","","","","","","","","","","","","","","","","",""
"","","","","","canvas-keyboard-response","69","161521","0.0-12.0-2.11","2d_cat_multi_stim_exp1","2022-4-20","10:4:51","25","75","3","9","10","40","30","120","48","19","[""White""]","No","Female","1773457","757","i","learn","","","learn_trial","36.6667","30","out","0","1","","","","","","","","","","","","","","","","","","","","",""
"","","","","","canvas-keyboard-response","70","162030","0.0-12.0-3.11","2d_cat_multi_stim_exp1","2022-4-20","10:4:51","25","75","3","9","10","40","30","120","48","19","[""White""]","No","Female","1773457","null","null","learn_feedback","","","learn_feedback","36.6667","30","out","","","","","","","","","","","","","","","","","","","","","","",""
"","","","","","canvas-keyboard-response","71","162093","0.0-12.0-4.11","2d_cat_multi_stim_exp1","2022-4-20","10:4:51","25","75","3","9","10","40","30","120","48","19","[""White""]","No","Female","1773457","null","null","","","","clear_screen","","","","","","","","","","","","","","","","","","","","","","","","","",""
"","","","","","canvas-keyboard-response","72","162602","0.0-12.0-0.12","2d_cat_multi_stim_exp1","2022-4-20","10:4:51","25","75","3","9","10","40","30","120","48","19","[""White""]","No","Female","1773457","null","null","","","","fixation","","","","","","","","","","","","","","","","","","","","","","","","","",""
"","","","","","canvas-keyboard-response","73","163115","0.0-12.0-1.12","2d_cat_multi_stim_exp1","2022-4-20","10:4:51","25","75","3","9","10","40","30","120","48","19","[""White""]","No","Female","1773457","null","null","","","","clear_screen","","","","","","","","","","","","","","","","","","","","","","","","","",""
"","","","","","canvas-keyboard-response","74","164056","0.0-12.0-2.12","2d_cat_multi_stim_exp1","2022-4-20","10:4:51","25","75","3","9","10","40","30","120","48","19","[""White""]","No","Female","1773457","929","u","learn","","","learn_trial","25","75","in","1","1","","","","","","","","","","","","","","","","","","","","",""
"","","","","","canvas-keyboard-response","75","164570","0.0-12.0-3.12","2d_cat_multi_stim_exp1","2022-4-20","10:4:51","25","75","3","9","10","40","30","120","48","19","[""White""]","No","Female","1773457","null","null","learn_feedback","","","learn_feedback","25","75","in","","","","","","","","","","","","","","","","","","","","","","",""
"","","","","","canvas-keyboard-response","76","164629","0.0-12.0-4.12","2d_cat_multi_stim_exp1","2022-4-20","10:4:51","25","75","3","9","10","40","30","120","48","19","[""White""]","No","Female","1773457","null","null","","","","clear_screen","","","","","","","","","","","","","","","","","","","","","","","","","",""
"","","","","","canvas-keyboard-response","77","165141","0.0-12.0-0.13","2d_cat_multi_stim_exp1","2022-4-20","10:4:51","25","75","3","9","10","40","30","120","48","19","[""White""]","No","Female","1773457","null","null","","","","fixation","","","","","","","","","","","","","","","","","","","","","","","","","",""
"","","","","","canvas-keyboard-response","78","165656","0.0-12.0-1.13","2d_cat_multi_stim_exp1","2022-4-20","10:4:51","25","75","3","9","10","40","30","120","48","19","[""White""]","No","Female","1773457","null","null","","","","clear_screen","","","","","","","","","","","","","","","","","","","","","","","","","",""
"","","","","","canvas-keyboard-response","79","166696","0.0-12.0-2.13","2d_cat_multi_stim_exp1","2022-4-20","10:4:51","25","75","3","9","10","40","30","120","48","19","[""White""]","No","Female","1773457","1030","i","learn","","","learn_trial","30","60","out","0","1","","","","","","","","","","","","","","","","","","","","",""
"","","","","","canvas-keyboard-response","80","167206","0.0-12.0-3.13","2d_cat_multi_stim_exp1","2022-4-20","10:4:51","25","75","3","9","10","40","30","120","48","19","[""White""]","No","Female","1773457","null","null","learn_feedback","","","learn_feedback","30","60","out","","","","","","","","","","","","","","","","","","","","","","",""
"","","","","","canvas-keyboard-response","81","167265","0.0-12.0-4.13","2d_cat_multi_stim_exp1","2022-4-20","10:4:51","25","75","3","9","10","40","30","120","48","19","[""White""]","No","Female","1773457","null","null","","","","clear_screen","","","","","","","","","","","","","","","","","","","","","","","","","",""
"","","","","","canvas-keyboard-response","82","167775","0.0-12.0-0.14","2d_cat_multi_stim_exp1","2022-4-20","10:4:51","25","75","3","9","10","40","30","120","48","19","[""White""]","No","Female","1773457","null","null","","","","fixation","","","","","","","","","","","","","","","","","","","","","","","","","",""
"","","","","","canvas-keyboard-response","83","168286","0.0-12.0-1.14","2d_cat_multi_stim_exp1","2022-4-20","10:4:51","25","75","3","9","10","40","30","120","48","19","[""White""]","No","Female","1773457","null","null","","","","clear_screen","","","","","","","","","","","","","","","","","","","","","","","","","",""
"","","","","","canvas-keyboard-response","84","169112","0.0-12.0-2.14","2d_cat_multi_stim_exp1","2022-4-20","10:4:51","25","75","3","9","10","40","30","120","48","19","[""White""]","No","Female","1773457","814","u","learn","","","learn_trial","27.2592","80.9214","in","1","1","","","","","","","","","","","","","","","","","","","","",""
"","","","","","canvas-keyboard-response","85","169621","0.0-12.0-3.14","2d_cat_multi_stim_exp1","2022-4-20","10:4:51","25","75","3","9","10","40","30","120","48","19","[""White""]","No","Female","1773457","null","null","learn_feedback","","","learn_feedback","27.2592","80.9214","in","","","","","","","","","","","","","","","","","","","","","","",""
"","","","","","canvas-keyboard-response","86","169682","0.0-12.0-4.14","2d_cat_multi_stim_exp1","2022-4-20","10:4:51","25","75","3","9","10","40","30","120","48","19","[""White""]","No","Female","1773457","null","null","","","","clear_screen","","","","","","","","","","","","","","","","","","","","","","","","","",""
"","","","","","canvas-keyboard-response","87","170194","0.0-12.0-0.15","2d_cat_multi_stim_exp1","2022-4-20","10:4:51","25","75","3","9","10","40","30","120","48","19","[""White""]","No","Female","1773457","null","null","","","","fixation","","","","","","","","","","","","","","","","","","","","","","","","","",""
"","","","","","canvas-keyboard-response","88","170705","0.0-12.0-1.15","2d_cat_multi_stim_exp1","2022-4-20","10:4:51","25","75","3","9","10","40","30","120","48","19","[""White""]","No","Female","1773457","null","null","","","","clear_screen","","","","","","","","","","","","","","","","","","","","","","","","","",""
"","","","","","canvas-keyboard-response","89","171424","0.0-12.0-2.15","2d_cat_multi_stim_exp1","2022-4-20","10:4:51","25","75","3","9","10","40","30","120","48","19","[""White""]","No","Female","1773457","711","u","learn","","","learn_trial","25","75","in","1","1","","","","","","","","","","","","","","","","","","","","",""
"","","","","","canvas-keyboard-response","90","171935","0.0-12.0-3.15","2d_cat_multi_stim_exp1","2022-4-20","10:4:51","25","75","3","9","10","40","30","120","48","19","[""White""]","No","Female","1773457","null","null","learn_feedback","","","learn_feedback","25","75","in","","","","","","","","","","","","","","","","","","","","","","",""
"","","","","","canvas-keyboard-response","91","171999","0.0-12.0-4.15","2d_cat_multi_stim_exp1","2022-4-20","10:4:51","25","75","3","9","10","40","30","120","48","19","[""White""]","No","Female","1773457","null","null","","","","clear_screen","","","","","","","","","","","","","","","","","","","","","","","","","",""
"","","","","","canvas-keyboard-response","92","172512","0.0-12.0-0.16","2d_cat_multi_stim_exp1","2022-4-20","10:4:51","25","75","3","9","10","40","30","120","48","19","[""White""]","No","Female","1773457","null","null","","","","fixation","","","","","","","","","","","","","","","","","","","","","","","","","",""
"","","","","","canvas-keyboard-response","93","173022","0.0-12.0-1.16","2d_cat_multi_stim_exp1","2022-4-20","10:4:51","25","75","3","9","10","40","30","120","48","19","[""White""]","No","Female","1773457","null","null","","","","clear_screen","","","","","","","","","","","","","","","","","","","","","","","","","",""
"","","","","","canvas-keyboard-response","94","173824","0.0-12.0-2.16","2d_cat_multi_stim_exp1","2022-4-20","10:4:51","25","75","3","9","10","40","30","120","48","19","[""White""]","No","Female","1773457","790","u","learn","","","learn_trial","25","75","in","1","1","","","","","","","","","","","","","","","","","","","","",""
"","","","","","canvas-keyboard-response","95","174334","0.0-12.0-3.16","2d_cat_multi_stim_exp1","2022-4-20","10:4:51","25","75","3","9","10","40","30","120","48","19","[""White""]","No","Female","1773457","null","null","learn_feedback","","","learn_feedback","25","75","in","","","","","","","","","","","","","","","","","","","","","","",""
"","","","","","canvas-keyboard-response","96","174399","0.0-12.0-4.16","2d_cat_multi_stim_exp1","2022-4-20","10:4:51","25","75","3","9","10","40","30","120","48","19","[""White""]","No","Female","1773457","null","null","","","","clear_screen","","","","","","","","","","","","","","","","","","","","","","","","","",""
"","","","","","canvas-keyboard-response","97","174909","0.0-12.0-0.17","2d_cat_multi_stim_exp1","2022-4-20","10:4:51","25","75","3","9","10","40","30","120","48","19","[""White""]","No","Female","1773457","null","null","","","","fixation","","","","","","","","","","","","","","","","","","","","","","","","","",""
"","","","","","canvas-keyboard-response","98","175423","0.0-12.0-1.17","2d_cat_multi_stim_exp1","2022-4-20","10:4:51","25","75","3","9","10","40","30","120","48","19","[""White""]","No","Female","1773457","null","null","","","","clear_screen","","","","","","","","","","","","","","","","","","","","","","","","","",""
"","","","","","canvas-keyboard-response","99","175992","0.0-12.0-2.17","2d_cat_multi_stim_exp1","2022-4-20","10:4:51","25","75","3","9","10","40","30","120","48","19","[""White""]","No","Female","1773457","559","i","learn","","","learn_trial","36.6667","40","out","0","1","","","","","","","","","","","","","","","","","","","","",""
"","","","","","canvas-keyboard-response","100","176501","0.0-12.0-3.17","2d_cat_multi_stim_exp1","2022-4-20","10:4:51","25","75","3","9","10","40","30","120","48","19","[""White""]","No","Female","1773457","null","null","learn_feedback","","","learn_feedback","36.6667","40","out","","","","","","","","","","","","","","","","","","","","","","",""
"","","","","","canvas-keyboard-response","101","176564","0.0-12.0-4.17","2d_cat_multi_stim_exp1","2022-4-20","10:4:51","25","75","3","9","10","40","30","120","48","19","[""White""]","No","Female","1773457","null","null","","","","clear_screen","","","","","","","","","","","","","","","","","","","","","","","","","",""
"","","","","","canvas-keyboard-response","102","177075","0.0-12.0-0.18","2d_cat_multi_stim_exp1","2022-4-20","10:4:51","25","75","3","9","10","40","30","120","48","19","[""White""]","No","Female","1773457","null","null","","","","fixation","","","","","","","","","","","","","","","","","","","","","","","","","",""
"","","","","","canvas-keyboard-response","103","177590","0.0-12.0-1.18","2d_cat_multi_stim_exp1","2022-4-20","10:4:51","25","75","3","9","10","40","30","120","48","19","[""White""]","No","Female","1773457","null","null","","","","clear_screen","","","","","","","","","","","","","","","","","","","","","","","","","",""
"","","","","","canvas-keyboard-response","104","178207","0.0-12.0-2.18","2d_cat_multi_stim_exp1","2022-4-20","10:4:51","25","75","3","9","10","40","30","120","48","19","[""White""]","No","Female","1773457","606","i","learn","","","learn_trial","30","30","out","0","1","","","","","","","","","","","","","","","","","","","","",""
"","","","","","canvas-keyboard-response","105","178720","0.0-12.0-3.18","2d_cat_multi_stim_exp1","2022-4-20","10:4:51","25","75","3","9","10","40","30","120","48","19","[""White""]","No","Female","1773457","null","null","learn_feedback","","","learn_feedback","30","30","out","","","","","","","","","","","","","","","","","","","","","","",""
"","","","","","canvas-keyboard-response","106","178781","0.0-12.0-4.18","2d_cat_multi_stim_exp1","2022-4-20","10:4:51","25","75","3","9","10","40","30","120","48","19","[""White""]","No","Female","1773457","null","null","","","","clear_screen","","","","","","","","","","","","","","","","","","","","","","","","","",""
"","","","","","canvas-keyboard-response","107","179290","0.0-12.0-0.19","2d_cat_multi_stim_exp1","2022-4-20","10:4:51","25","75","3","9","10","40","30","120","48","19","[""White""]","No","Female","1773457","null","null","","","","fixation","","","","","","","","","","","","","","","","","","","","","","","","","",""
"","","","","","canvas-keyboard-response","108","179804","0.0-12.0-1.19","2d_cat_multi_stim_exp1","2022-4-20","10:4:51","25","75","3","9","10","40","30","120","48","19","[""White""]","No","Female","1773457","null","null","","","","clear_screen","","","","","","","","","","","","","","","","","","","","","","","","","",""
"","","","","","canvas-keyboard-response","109","180504","0.0-12.0-2.19","2d_cat_multi_stim_exp1","2022-4-20","10:4:51","25","75","3","9","10","40","30","120","48","19","[""White""]","No","Female","1773457","690","u","learn","","","learn_trial","27.5753","79.6161","in","1","1","","","","","","","","","","","","","","","","","","","","",""
"","","","","","canvas-keyboard-response","110","181018","0.0-12.0-3.19","2d_cat_multi_stim_exp1","2022-4-20","10:4:51","25","75","3","9","10","40","30","120","48","19","[""White""]","No","Female","1773457","null","null","learn_feedback","","","learn_feedback","27.5753","79.6161","in","","","","","","","","","","","","","","","","","","","","","","",""
"","","","","","canvas-keyboard-response","111","181083","0.0-12.0-4.19","2d_cat_multi_stim_exp1","2022-4-20","10:4:51","25","75","3","9","10","40","30","120","48","19","[""White""]","No","Female","1773457","null","null","","","","clear_screen","","","","","","","","","","","","","","","","","","","","","","","","","",""
"","","","","","canvas-keyboard-response","112","181593","0.0-12.0-0.20","2d_cat_multi_stim_exp1","2022-4-20","10:4:51","25","75","3","9","10","40","30","120","48","19","[""White""]","No","Female","1773457","null","null","","","","fixation","","","","","","","","","","","","","","","","","","","","","","","","","",""
"","","","","","canvas-keyboard-response","113","182104","0.0-12.0-1.20","2d_cat_multi_stim_exp1","2022-4-20","10:4:51","25","75","3","9","10","40","30","120","48","19","[""White""]","No","Female","1773457","null","null","","","","clear_screen","","","","","","","","","","","","","","","","","","","","","","","","","",""
"","","","","","canvas-keyboard-response","114","183992","0.0-12.0-2.20","2d_cat_multi_stim_exp1","2022-4-20","10:4:51","25","75","3","9","10","40","30","120","48","19","[""White""]","No","Female","1773457","1877","i","learn","","","learn_trial","10","90","out","0","1","","","","","","","","","","","","","","","","","","","","",""
"","","","","","canvas-keyboard-response","115","184505","0.0-12.0-3.20","2d_cat_multi_stim_exp1","2022-4-20","10:4:51","25","75","3","9","10","40","30","120","48","19","[""White""]","No","Female","1773457","null","null","learn_feedback","","","learn_feedback","10","90","out","","","","","","","","","","","","","","","","","","","","","","",""
"","","","","","canvas-keyboard-response","116","184566","0.0-12.0-4.20","2d_cat_multi_stim_exp1","2022-4-20","10:4:51","25","75","3","9","10","40","30","120","48","19","[""White""]","No","Female","1773457","null","null","","","","clear_screen","","","","","","","","","","","","","","","","","","","","","","","","","",""
"","","","","","canvas-keyboard-response","117","185075","0.0-12.0-0.21","2d_cat_multi_stim_exp1","2022-4-20","10:4:51","25","75","3","9","10","40","30","120","48","19","[""White""]","No","Female","1773457","null","null","","","","fixation","","","","","","","","","","","","","","","","","","","","","","","","","",""
"","","","","","canvas-keyboard-response","118","185586","0.0-12.0-1.21","2d_cat_multi_stim_exp1","2022-4-20","10:4:51","25","75","3","9","10","40","30","120","48","19","[""White""]","No","Female","1773457","null","null","","","","clear_screen","","","","","","","","","","","","","","","","","","","","","","","","","",""
"","","","","","canvas-keyboard-response","119","186904","0.0-12.0-2.21","2d_cat_multi_stim_exp1","2022-4-20","10:4:51","25","75","3","9","10","40","30","120","48","19","[""White""]","No","Female","1773457","1307","i","learn","","","learn_trial","13.3333","40","out","0","1","","","","","","","","","","","","","","","","","","","","",""
"","","","","","canvas-keyboard-response","120","187413","0.0-12.0-3.21","2d_cat_multi_stim_exp1","2022-4-20","10:4:51","25","75","3","9","10","40","30","120","48","19","[""White""]","No","Female","1773457","null","null","learn_feedback","","","learn_feedback","13.3333","40","out","","","","","","","","","","","","","","","","","","","","","","",""
"","","","","","canvas-keyboard-response","121","187476","0.0-12.0-4.21","2d_cat_multi_stim_exp1","2022-4-20","10:4:51","25","75","3","9","10","40","30","120","48","19","[""White""]","No","Female","1773457","null","null","","","","clear_screen","","","","","","","","","","","","","","","","","","","","","","","","","",""
"","","","","","canvas-keyboard-response","122","187984","0.0-12.0-0.22","2d_cat_multi_stim_exp1","2022-4-20","10:4:51","25","75","3","9","10","40","30","120","48","19","[""White""]","No","Female","1773457","null","null","","","","fixation","","","","","","","","","","","","","","","","","","","","","","","","","",""
"","","","","","canvas-keyboard-response","123","188495","0.0-12.0-1.22","2d_cat_multi_stim_exp1","2022-4-20","10:4:51","25","75","3","9","10","40","30","120","48","19","[""White""]","No","Female","1773457","null","null","","","","clear_screen","","","","","","","","","","","","","","","","","","","","","","","","","",""
"","","","","","canvas-keyboard-response","124","189456","0.0-12.0-2.22","2d_cat_multi_stim_exp1","2022-4-20","10:4:51","25","75","3","9","10","40","30","120","48","19","[""White""]","No","Female","1773457","949","i","learn","","","learn_trial","36.6667","60","out","0","1","","","","","","","","","","","","","","","","","","","","",""
"","","","","","canvas-keyboard-response","125","189967","0.0-12.0-3.22","2d_cat_multi_stim_exp1","2022-4-20","10:4:51","25","75","3","9","10","40","30","120","48","19","[""White""]","No","Female","1773457","null","null","learn_feedback","","","learn_feedback","36.6667","60","out","","","","","","","","","","","","","","","","","","","","","","",""
"","","","","","canvas-keyboard-response","126","190031","0.0-12.0-4.22","2d_cat_multi_stim_exp1","2022-4-20","10:4:51","25","75","3","9","10","40","30","120","48","19","[""White""]","No","Female","1773457","null","null","","","","clear_screen","","","","","","","","","","","","","","","","","","","","","","","","","",""
"","","","","","canvas-keyboard-response","127","190541","0.0-12.0-0.23","2d_cat_multi_stim_exp1","2022-4-20","10:4:51","25","75","3","9","10","40","30","120","48","19","[""White""]","No","Female","1773457","null","null","","","","fixation","","","","","","","","","","","","","","","","","","","","","","","","","",""
"","","","","","canvas-keyboard-response","128","191055","0.0-12.0-1.23","2d_cat_multi_stim_exp1","2022-4-20","10:4:51","25","75","3","9","10","40","30","120","48","19","[""White""]","No","Female","1773457","null","null","","","","clear_screen","","","","","","","","","","","","","","","","","","","","","","","","","",""
"","","","","","canvas-keyboard-response","129","191864","0.0-12.0-2.23","2d_cat_multi_stim_exp1","2022-4-20","10:4:51","25","75","3","9","10","40","30","120","48","19","[""White""]","No","Female","1773457","797","u","learn","","","learn_trial","13.3333","60","out","1","0","","","","","","","","","","","","","","","","","","","","",""
"","","","","","canvas-keyboard-response","130","192873","0.0-12.0-3.23","2d_cat_multi_stim_exp1","2022-4-20","10:4:51","25","75","3","9","10","40","30","120","48","19","[""White""]","No","Female","1773457","null","null","learn_feedback","","","learn_feedback","13.3333","60","out","","","","","","","","","","","","","","","","","","","","","","",""
"","","","","","canvas-keyboard-response","131","192933","0.0-12.0-4.23","2d_cat_multi_stim_exp1","2022-4-20","10:4:51","25","75","3","9","10","40","30","120","48","19","[""White""]","No","Female","1773457","null","null","","","","clear_screen","","","","","","","","","","","","","","","","","","","","","","","","","",""
"","","","","","canvas-keyboard-response","132","193444","0.0-12.0-0.24","2d_cat_multi_stim_exp1","2022-4-20","10:4:51","25","75","3","9","10","40","30","120","48","19","[""White""]","No","Female","1773457","null","null","","","","fixation","","","","","","","","","","","","","","","","","","","","","","","","","",""
"","","","","","canvas-keyboard-response","133","193956","0.0-12.0-1.24","2d_cat_multi_stim_exp1","2022-4-20","10:4:51","25","75","3","9","10","40","30","120","48","19","[""White""]","No","Female","1773457","null","null","","","","clear_screen","","","","","","","","","","","","","","","","","","","","","","","","","",""
"","","","","","canvas-keyboard-response","134","194798","0.0-12.0-2.24","2d_cat_multi_stim_exp1","2022-4-20","10:4:51","25","75","3","9","10","40","30","120","48","19","[""White""]","No","Female","1773457","831","i","learn","","","learn_trial","13.3333","100","out","0","1","","","","","","","","","","","","","","","","","","","","",""
"","","","","","canvas-keyboard-response","135","195305","0.0-12.0-3.24","2d_cat_multi_stim_exp1","2022-4-20","10:4:51","25","75","3","9","10","40","30","120","48","19","[""White""]","No","Female","1773457","null","null","learn_feedback","","","learn_feedback","13.3333","100","out","","","","","","","","","","","","","","","","","","","","","","",""
"","","","","","canvas-keyboard-response","136","195367","0.0-12.0-4.24","2d_cat_multi_stim_exp1","2022-4-20","10:4:51","25","75","3","9","10","40","30","120","48","19","[""White""]","No","Female","1773457","null","null","","","","clear_screen","","","","","","","","","","","","","","","","","","","","","","","","","",""
"","","","","","canvas-keyboard-response","137","195878","0.0-12.0-0.25","2d_cat_multi_stim_exp1","2022-4-20","10:4:51","25","75","3","9","10","40","30","120","48","19","[""White""]","No","Female","1773457","null","null","","","","fixation","","","","","","","","","","","","","","","","","","","","","","","","","",""
"","","","","","canvas-keyboard-response","138","196395","0.0-12.0-1.25","2d_cat_multi_stim_exp1","2022-4-20","10:4:51","25","75","3","9","10","40","30","120","48","19","[""White""]","No","Female","1773457","null","null","","","","clear_screen","","","","","","","","","","","","","","","","","","","","","","","","","",""
"","","","","","canvas-keyboard-response","139","197096","0.0-12.0-2.25","2d_cat_multi_stim_exp1","2022-4-20","10:4:51","25","75","3","9","10","40","30","120","48","19","[""White""]","No","Female","1773457","690","i","learn","","","learn_trial","25","57","in","0","0","","","","","","","","","","","","","","","","","","","","",""
"","","","","","canvas-keyboard-response","140","198108","0.0-12.0-3.25","2d_cat_multi_stim_exp1","2022-4-20","10:4:51","25","75","3","9","10","40","30","120","48","19","[""White""]","No","Female","1773457","null","null","learn_feedback","","","learn_feedback","25","57","in","","","","","","","","","","","","","","","","","","","","","","",""
"","","","","","canvas-keyboard-response","141","198167","0.0-12.0-4.25","2d_cat_multi_stim_exp1","2022-4-20","10:4:51","25","75","3","9","10","40","30","120","48","19","[""White""]","No","Female","1773457","null","null","","","","clear_screen","","","","","","","","","","","","","","","","","","","","","","","","","",""
"","","","","","canvas-keyboard-response","142","198679","0.0-12.0-0.26","2d_cat_multi_stim_exp1","2022-4-20","10:4:51","25","75","3","9","10","40","30","120","48","19","[""White""]","No","Female","1773457","null","null","","","","fixation","","","","","","","","","","","","","","","","","","","","","","","","","",""
"","","","","","canvas-keyboard-response","143","199194","0.0-12.0-1.26","2d_cat_multi_stim_exp1","2022-4-20","10:4:51","25","75","3","9","10","40","30","120","48","19","[""White""]","No","Female","1773457","null","null","","","","clear_screen","","","","","","","","","","","","","","","","","","","","","","","","","",""
"","","","","","canvas-keyboard-response","144","200120","0.0-12.0-2.26","2d_cat_multi_stim_exp1","2022-4-20","10:4:51","25","75","3","9","10","40","30","120","48","19","[""White""]","No","Female","1773457","915","u","learn","","","learn_trial","25.4027","83.9185","in","1","1","","","","","","","","","","","","","","","","","","","","",""
"","","","","","canvas-keyboard-response","145","200629","0.0-12.0-3.26","2d_cat_multi_stim_exp1","2022-4-20","10:4:51","25","75","3","9","10","40","30","120","48","19","[""White""]","No","Female","1773457","null","null","learn_feedback","","","learn_feedback","25.4027","83.9185","in","","","","","","","","","","","","","","","","","","","","","","",""
"","","","","","canvas-keyboard-response","146","200692","0.0-12.0-4.26","2d_cat_multi_stim_exp1","2022-4-20","10:4:51","25","75","3","9","10","40","30","120","48","19","[""White""]","No","Female","1773457","null","null","","","","clear_screen","","","","","","","","","","","","","","","","","","","","","","","","","",""
"","","","","","canvas-keyboard-response","147","201202","0.0-12.0-0.27","2d_cat_multi_stim_exp1","2022-4-20","10:4:51","25","75","3","9","10","40","30","120","48","19","[""White""]","No","Female","1773457","null","null","","","","fixation","","","","","","","","","","","","","","","","","","","","","","","","","",""
"","","","","","canvas-keyboard-response","148","201716","0.0-12.0-1.27","2d_cat_multi_stim_exp1","2022-4-20","10:4:51","25","75","3","9","10","40","30","120","48","19","[""White""]","No","Female","1773457","null","null","","","","clear_screen","","","","","","","","","","","","","","","","","","","","","","","","","",""
"","","","","","canvas-keyboard-response","149","204977","0.0-12.0-2.27","2d_cat_multi_stim_exp1","2022-4-20","10:4:51","25","75","3","9","10","40","30","120","48","19","[""White""]","No","Female","1773457","3252","u","learn","","","learn_trial","36.6667","80","out","1","0","","","","","","","","","","","","","","","","","","","","",""
"","","","","","canvas-keyboard-response","150","205988","0.0-12.0-3.27","2d_cat_multi_stim_exp1","2022-4-20","10:4:51","25","75","3","9","10","40","30","120","48","19","[""White""]","No","Female","1773457","null","null","learn_feedback","","","learn_feedback","36.6667","80","out","","","","","","","","","","","","","","","","","","","","","","",""
"","","","","","canvas-keyboard-response","151","206052","0.0-12.0-4.27","2d_cat_multi_stim_exp1","2022-4-20","10:4:51","25","75","3","9","10","40","30","120","48","19","[""White""]","No","Female","1773457","null","null","","","","clear_screen","","","","","","","","","","","","","","","","","","","","","","","","","",""
"","","","","","canvas-keyboard-response","152","206567","0.0-12.0-0.28","2d_cat_multi_stim_exp1","2022-4-20","10:4:51","25","75","3","9","10","40","30","120","48","19","[""White""]","No","Female","1773457","null","null","","","","fixation","","","","","","","","","","","","","","","","","","","","","","","","","",""
"","","","","","canvas-keyboard-response","153","207078","0.0-12.0-1.28","2d_cat_multi_stim_exp1","2022-4-20","10:4:51","25","75","3","9","10","40","30","120","48","19","[""White""]","No","Female","1773457","null","null","","","","clear_screen","","","","","","","","","","","","","","","","","","","","","","","","","",""
"","","","","","canvas-keyboard-response","154","207625","0.0-12.0-2.28","2d_cat_multi_stim_exp1","2022-4-20","10:4:51","25","75","3","9","10","40","30","120","48","19","[""White""]","No","Female","1773457","535","u","learn","","","learn_trial","22.5729","69.7099","in","1","1","","","","","","","","","","","","","","","","","","","","",""
"","","","","","canvas-keyboard-response","155","208134","0.0-12.0-3.28","2d_cat_multi_stim_exp1","2022-4-20","10:4:51","25","75","3","9","10","40","30","120","48","19","[""White""]","No","Female","1773457","null","null","learn_feedback","","","learn_feedback","22.5729","69.7099","in","","","","","","","","","","","","","","","","","","","","","","",""
"","","","","","canvas-keyboard-response","156","208195","0.0-12.0-4.28","2d_cat_multi_stim_exp1","2022-4-20","10:4:51","25","75","3","9","10","40","30","120","48","19","[""White""]","No","Female","1773457","null","null","","","","clear_screen","","","","","","","","","","","","","","","","","","","","","","","","","",""
"","","","","","canvas-keyboard-response","157","208705","0.0-12.0-0.29","2d_cat_multi_stim_exp1","2022-4-20","10:4:51","25","75","3","9","10","40","30","120","48","19","[""White""]","No","Female","1773457","null","null","","","","fixation","","","","","","","","","","","","","","","","","","","","","","","","","",""
"","","","","","canvas-keyboard-response","158","209219","0.0-12.0-1.29","2d_cat_multi_stim_exp1","2022-4-20","10:4:51","25","75","3","9","10","40","30","120","48","19","[""White""]","No","Female","1773457","null","null","","","","clear_screen","","","","","","","","","","","","","","","","","","","","","","","","","",""
"","","","","","canvas-keyboard-response","159","209848","0.0-12.0-2.29","2d_cat_multi_stim_exp1","2022-4-20","10:4:51","25","75","3","9","10","40","30","120","48","19","[""White""]","No","Female","1773457","617","i","learn","","","learn_trial","40","30","out","0","1","","","","","","","","","","","","","","","","","","","","",""
"","","","","","canvas-keyboard-response","160","210360","0.0-12.0-3.29","2d_cat_multi_stim_exp1","2022-4-20","10:4:51","25","75","3","9","10","40","30","120","48","19","[""White""]","No","Female","1773457","null","null","learn_feedback","","","learn_feedback","40","30","out","","","","","","","","","","","","","","","","","","","","","","",""
"","","","","","canvas-keyboard-response","161","210419","0.0-12.0-4.29","2d_cat_multi_stim_exp1","2022-4-20","10:4:51","25","75","3","9","10","40","30","120","48","19","[""White""]","No","Female","1773457","null","null","","","","clear_screen","","","","","","","","","","","","","","","","","","","","","","","","","",""
"","","","","","canvas-keyboard-response","162","210929","0.0-12.0-0.30","2d_cat_multi_stim_exp1","2022-4-20","10:4:51","25","75","3","9","10","40","30","120","48","19","[""White""]","No","Female","1773457","null","null","","","","fixation","","","","","","","","","","","","","","","","","","","","","","","","","",""
"","","","","","canvas-keyboard-response","163","211440","0.0-12.0-1.30","2d_cat_multi_stim_exp1","2022-4-20","10:4:51","25","75","3","9","10","40","30","120","48","19","[""White""]","No","Female","1773457","null","null","","","","clear_screen","","","","","","","","","","","","","","","","","","","","","","","","","",""
"","","","","","canvas-keyboard-response","164","212160","0.0-12.0-2.30","2d_cat_multi_stim_exp1","2022-4-20","10:4:51","25","75","3","9","10","40","30","120","48","19","[""White""]","No","Female","1773457","710","u","learn","","","learn_trial","25","75","in","1","1","","","","","","","","","","","","","","","","","","","","",""
"","","","","","canvas-keyboard-response","165","212673","0.0-12.0-3.30","2d_cat_multi_stim_exp1","2022-4-20","10:4:51","25","75","3","9","10","40","30","120","48","19","[""White""]","No","Female","1773457","null","null","learn_feedback","","","learn_feedback","25","75","in","","","","","","","","","","","","","","","","","","","","","","",""
"","","","","","canvas-keyboard-response","166","212736","0.0-12.0-4.30","2d_cat_multi_stim_exp1","2022-4-20","10:4:51","25","75","3","9","10","40","30","120","48","19","[""White""]","No","Female","1773457","null","null","","","","clear_screen","","","","","","","","","","","","","","","","","","","","","","","","","",""
"","","","","","canvas-keyboard-response","167","213250","0.0-12.0-0.31","2d_cat_multi_stim_exp1","2022-4-20","10:4:51","25","75","3","9","10","40","30","120","48","19","[""White""]","No","Female","1773457","null","null","","","","fixation","","","","","","","","","","","","","","","","","","","","","","","","","",""
"","","","","","canvas-keyboard-response","168","213761","0.0-12.0-1.31","2d_cat_multi_stim_exp1","2022-4-20","10:4:51","25","75","3","9","10","40","30","120","48","19","[""White""]","No","Female","1773457","null","null","","","","clear_screen","","","","","","","","","","","","","","","","","","","","","","","","","",""
"","","","","","canvas-keyboard-response","169","215296","0.0-12.0-2.31","2d_cat_multi_stim_exp1","2022-4-20","10:4:51","25","75","3","9","10","40","30","120","48","19","[""White""]","No","Female","1773457","1523","i","learn","","","learn_trial","23.3333","50","out","0","1","","","","","","","","","","","","","","","","","","","","",""
"","","","","","canvas-keyboard-response","170","215807","0.0-12.0-3.31","2d_cat_multi_stim_exp1","2022-4-20","10:4:51","25","75","3","9","10","40","30","120","48","19","[""White""]","No","Female","1773457","null","null","learn_feedback","","","learn_feedback","23.3333","50","out","","","","","","","","","","","","","","","","","","","","","","",""
"","","","","","canvas-keyboard-response","171","215868","0.0-12.0-4.31","2d_cat_multi_stim_exp1","2022-4-20","10:4:51","25","75","3","9","10","40","30","120","48","19","[""White""]","No","Female","1773457","null","null","","","","clear_screen","","","","","","","","","","","","","","","","","","","","","","","","","",""
"","","","","","canvas-keyboard-response","172","216377","0.0-12.0-0.32","2d_cat_multi_stim_exp1","2022-4-20","10:4:51","25","75","3","9","10","40","30","120","48","19","[""White""]","No","Female","1773457","null","null","","","","fixation","","","","","","","","","","","","","","","","","","","","","","","","","",""
"","","","","","canvas-keyboard-response","173","216892","0.0-12.0-1.32","2d_cat_multi_stim_exp1","2022-4-20","10:4:51","25","75","3","9","10","40","30","120","48","19","[""White""]","No","Female","1773457","null","null","","","","clear_screen","","","","","","","","","","","","","","","","","","","","","","","","","",""
"","","","","","canvas-keyboard-response","174","217576","0.0-12.0-2.32","2d_cat_multi_stim_exp1","2022-4-20","10:4:51","25","75","3","9","10","40","30","120","48","19","[""White""]","No","Female","1773457","673","u","learn","","","learn_trial","23.8209","83.2757","in","1","1","","","","","","","","","","","","","","","","","","","","",""
"","","","","","canvas-keyboard-response","175","218085","0.0-12.0-3.32","2d_cat_multi_stim_exp1","2022-4-20","10:4:51","25","75","3","9","10","40","30","120","48","19","[""White""]","No","Female","1773457","null","null","learn_feedback","","","learn_feedback","23.8209","83.2757","in","","","","","","","","","","","","","","","","","","","","","","",""
"","","","","","canvas-keyboard-response","176","218145","0.0-12.0-4.32","2d_cat_multi_stim_exp1","2022-4-20","10:4:51","25","75","3","9","10","40","30","120","48","19","[""White""]","No","Female","1773457","null","null","","","","clear_screen","","","","","","","","","","","","","","","","","","","","","","","","","",""
"","","","","","canvas-keyboard-response","177","218658","0.0-12.0-0.33","2d_cat_multi_stim_exp1","2022-4-20","10:4:51","25","75","3","9","10","40","30","120","48","19","[""White""]","No","Female","1773457","null","null","","","","fixation","","","","","","","","","","","","","","","","","","","","","","","","","",""
"","","","","","canvas-keyboard-response","178","219169","0.0-12.0-1.33","2d_cat_multi_stim_exp1","2022-4-20","10:4:51","25","75","3","9","10","40","30","120","48","19","[""White""]","No","Female","1773457","null","null","","","","clear_screen","","","","","","","","","","","","","","","","","","","","","","","","","",""
"","","","","","canvas-keyboard-response","179","219937","0.0-12.0-2.33","2d_cat_multi_stim_exp1","2022-4-20","10:4:51","25","75","3","9","10","40","30","120","48","19","[""White""]","No","Female","1773457","755","u","learn","","","learn_trial","22.1081","72.6057","in","1","1","","","","","","","","","","","","","","","","","","","","",""
"","","","","","canvas-keyboard-response","180","220447","0.0-12.0-3.33","2d_cat_multi_stim_exp1","2022-4-20","10:4:51","25","75","3","9","10","40","30","120","48","19","[""White""]","No","Female","1773457","null","null","learn_feedback","","","learn_feedback","22.1081","72.6057","in","","","","","","","","","","","","","","","","","","","","","","",""
"","","","","","canvas-keyboard-response","181","220509","0.0-12.0-4.33","2d_cat_multi_stim_exp1","2022-4-20","10:4:51","25","75","3","9","10","40","30","120","48","19","[""White""]","No","Female","1773457","null","null","","","","clear_screen","","","","","","","","","","","","","","","","","","","","","","","","","",""
"","","","","","canvas-keyboard-response","182","221024","0.0-12.0-0.34","2d_cat_multi_stim_exp1","2022-4-20","10:4:51","25","75","3","9","10","40","30","120","48","19","[""White""]","No","Female","1773457","null","null","","","","fixation","","","","","","","","","","","","","","","","","","","","","","","","","",""
"","","","","","canvas-keyboard-response","183","221539","0.0-12.0-1.34","2d_cat_multi_stim_exp1","2022-4-20","10:4:51","25","75","3","9","10","40","30","120","48","19","[""White""]","No","Female","1773457","null","null","","","","clear_screen","","","","","","","","","","","","","","","","","","","","","","","","","",""
"","","","","","canvas-keyboard-response","184","222232","0.0-12.0-2.34","2d_cat_multi_stim_exp1","2022-4-20","10:4:51","25","75","3","9","10","40","30","120","48","19","[""White""]","No","Female","1773457","678","u","learn","","","learn_trial","24.8654","83.9909","in","1","1","","","","","","","","","","","","","","","","","","","","",""
"","","","","","canvas-keyboard-response","185","222743","0.0-12.0-3.34","2d_cat_multi_stim_exp1","2022-4-20","10:4:51","25","75","3","9","10","40","30","120","48","19","[""White""]","No","Female","1773457","null","null","learn_feedback","","","learn_feedback","24.8654","83.9909","in","","","","","","","","","","","","","","","","","","","","","","",""
"","","","","","canvas-keyboard-response","186","222808","0.0-12.0-4.34","2d_cat_multi_stim_exp1","2022-4-20","10:4:51","25","75","3","9","10","40","30","120","48","19","[""White""]","No","Female","1773457","null","null","","","","clear_screen","","","","","","","","","","","","","","","","","","","","","","","","","",""
"","","","","","canvas-keyboard-response","187","223317","0.0-12.0-0.35","2d_cat_multi_stim_exp1","2022-4-20","10:4:51","25","75","3","9","10","40","30","120","48","19","[""White""]","No","Female","1773457","null","null","","","","fixation","","","","","","","","","","","","","","","","","","","","","","","","","",""
"","","","","","canvas-keyboard-response","188","223832","0.0-12.0-1.35","2d_cat_multi_stim_exp1","2022-4-20","10:4:51","25","75","3","9","10","40","30","120","48","19","[""White""]","No","Female","1773457","null","null","","","","clear_screen","","","","","","","","","","","","","","","","","","","","","","","","","",""
"","","","","","canvas-keyboard-response","189","224592","0.0-12.0-2.35","2d_cat_multi_stim_exp1","2022-4-20","10:4:51","25","75","3","9","10","40","30","120","48","19","[""White""]","No","Female","1773457","747","u","learn","","","learn_trial","25","75","in","1","1","","","","","","","","","","","","","","","","","","","","",""
"","","","","","canvas-keyboard-response","190","225103","0.0-12.0-3.35","2d_cat_multi_stim_exp1","2022-4-20","10:4:51","25","75","3","9","10","40","30","120","48","19","[""White""]","No","Female","1773457","null","null","learn_feedback","","","learn_feedback","25","75","in","","","","","","","","","","","","","","","","","","","","","","",""
"","","","","","canvas-keyboard-response","191","225167","0.0-12.0-4.35","2d_cat_multi_stim_exp1","2022-4-20","10:4:51","25","75","3","9","10","40","30","120","48","19","[""White""]","No","Female","1773457","null","null","","","","clear_screen","","","","","","","","","","","","","","","","","","","","","","","","","",""
"","","","","","canvas-keyboard-response","192","225675","0.0-12.0-0.36","2d_cat_multi_stim_exp1","2022-4-20","10:4:51","25","75","3","9","10","40","30","120","48","19","[""White""]","No","Female","1773457","null","null","","","","fixation","","","","","","","","","","","","","","","","","","","","","","","","","",""
"","","","","","canvas-keyboard-response","193","226189","0.0-12.0-1.36","2d_cat_multi_stim_exp1","2022-4-20","10:4:51","25","75","3","9","10","40","30","120","48","19","[""White""]","No","Female","1773457","null","null","","","","clear_screen","","","","","","","","","","","","","","","","","","","","","","","","","",""
"","","","","","canvas-keyboard-response","194","227552","0.0-12.0-2.36","2d_cat_multi_stim_exp1","2022-4-20","10:4:51","25","75","3","9","10","40","30","120","48","19","[""White""]","No","Female","1773457","1352","u","learn","","","learn_trial","36.6667","120","out","1","0","","","","","","","","","","","","","","","","","","","","",""
"","","","","","canvas-keyboard-response","195","228562","0.0-12.0-3.36","2d_cat_multi_stim_exp1","2022-4-20","10:4:51","25","75","3","9","10","40","30","120","48","19","[""White""]","No","Female","1773457","null","null","learn_feedback","","","learn_feedback","36.6667","120","out","","","","","","","","","","","","","","","","","","","","","","",""
"","","","","","canvas-keyboard-response","196","228628","0.0-12.0-4.36","2d_cat_multi_stim_exp1","2022-4-20","10:4:51","25","75","3","9","10","40","30","120","48","19","[""White""]","No","Female","1773457","null","null","","","","clear_screen","","","","","","","","","","","","","","","","","","","","","","","","","",""
"","","","","","canvas-keyboard-response","197","229138","0.0-12.0-0.37","2d_cat_multi_stim_exp1","2022-4-20","10:4:51","25","75","3","9","10","40","30","120","48","19","[""White""]","No","Female","1773457","null","null","","","","fixation","","","","","","","","","","","","","","","","","","","","","","","","","",""
"","","","","","canvas-keyboard-response","198","229654","0.0-12.0-1.37","2d_cat_multi_stim_exp1","2022-4-20","10:4:51","25","75","3","9","10","40","30","120","48","19","[""White""]","No","Female","1773457","null","null","","","","clear_screen","","","","","","","","","","","","","","","","","","","","","","","","","",""
"","","","","","canvas-keyboard-response","199","230280","0.0-12.0-2.37","2d_cat_multi_stim_exp1","2022-4-20","10:4:51","25","75","3","9","10","40","30","120","48","19","[""White""]","No","Female","1773457","616","u","learn","","","learn_trial","25","75","in","1","1","","","","","","","","","","","","","","","","","","","","",""
"","","","","","canvas-keyboard-response","200","230789","0.0-12.0-3.37","2d_cat_multi_stim_exp1","2022-4-20","10:4:51","25","75","3","9","10","40","30","120","48","19","[""White""]","No","Female","1773457","null","null","learn_feedback","","","learn_feedback","25","75","in","","","","","","","","","","","","","","","","","","","","","","",""
"","","","","","canvas-keyboard-response","201","230852","0.0-12.0-4.37","2d_cat_multi_stim_exp1","2022-4-20","10:4:51","25","75","3","9","10","40","30","120","48","19","[""White""]","No","Female","1773457","null","null","","","","clear_screen","","","","","","","","","","","","","","","","","","","","","","","","","",""
"","","","","","canvas-keyboard-response","202","231362","0.0-12.0-0.38","2d_cat_multi_stim_exp1","2022-4-20","10:4:51","25","75","3","9","10","40","30","120","48","19","[""White""]","No","Female","1773457","null","null","","","","fixation","","","","","","","","","","","","","","","","","","","","","","","","","",""
"","","","","","canvas-keyboard-response","203","231874","0.0-12.0-1.38","2d_cat_multi_stim_exp1","2022-4-20","10:4:51","25","75","3","9","10","40","30","120","48","19","[""White""]","No","Female","1773457","null","null","","","","clear_screen","","","","","","","","","","","","","","","","","","","","","","","","","",""
"","","","","","canvas-keyboard-response","204","232561","0.0-12.0-2.38","2d_cat_multi_stim_exp1","2022-4-20","10:4:51","25","75","3","9","10","40","30","120","48","19","[""White""]","No","Female","1773457","674","u","learn","","","learn_trial","16.6667","80","out","1","0","","","","","","","","","","","","","","","","","","","","",""
"","","","","","canvas-keyboard-response","205","233573","0.0-12.0-3.38","2d_cat_multi_stim_exp1","2022-4-20","10:4:51","25","75","3","9","10","40","30","120","48","19","[""White""]","No","Female","1773457","null","null","learn_feedback","","","learn_feedback","16.6667","80","out","","","","","","","","","","","","","","","","","","","","","","",""
"","","","","","canvas-keyboard-response","206","233636","0.0-12.0-4.38","2d_cat_multi_stim_exp1","2022-4-20","10:4:51","25","75","3","9","10","40","30","120","48","19","[""White""]","No","Female","1773457","null","null","","","","clear_screen","","","","","","","","","","","","","","","","","","","","","","","","","",""
"","","","","","canvas-keyboard-response","207","234147","0.0-12.0-0.39","2d_cat_multi_stim_exp1","2022-4-20","10:4:51","25","75","3","9","10","40","30","120","48","19","[""White""]","No","Female","1773457","null","null","","","","fixation","","","","","","","","","","","","","","","","","","","","","","","","","",""
"","","","","","canvas-keyboard-response","208","234660","0.0-12.0-1.39","2d_cat_multi_stim_exp1","2022-4-20","10:4:51","25","75","3","9","10","40","30","120","48","19","[""White""]","No","Female","1773457","null","null","","","","clear_screen","","","","","","","","","","","","","","","","","","","","","","","","","",""
"","","","","","canvas-keyboard-response","209","235440","0.0-12.0-2.39","2d_cat_multi_stim_exp1","2022-4-20","10:4:51","25","75","3","9","10","40","30","120","48","19","[""White""]","No","Female","1773457","767","u","learn","","","learn_trial","25","75","in","1","1","","","","","","","","","","","","","","","","","","","","",""
"","","","","","canvas-keyboard-response","210","235949","0.0-12.0-3.39","2d_cat_multi_stim_exp1","2022-4-20","10:4:51","25","75","3","9","10","40","30","120","48","19","[""White""]","No","Female","1773457","null","null","learn_feedback","","","learn_feedback","25","75","in","","","","","","","","","","","","","","","","","","","","","","",""
"","","","","","canvas-keyboard-response","211","236011","0.0-12.0-4.39","2d_cat_multi_stim_exp1","2022-4-20","10:4:51","25","75","3","9","10","40","30","120","48","19","[""White""]","No","Female","1773457","null","null","","","","clear_screen","","","","","","","","","","","","","","","","","","","","","","","","","",""
"","","","","","canvas-keyboard-response","212","236523","0.0-12.0-0.40","2d_cat_multi_stim_exp1","2022-4-20","10:4:51","25","75","3","9","10","40","30","120","48","19","[""White""]","No","Female","1773457","null","null","","","","fixation","","","","","","","","","","","","","","","","","","","","","","","","","",""
"","","","","","canvas-keyboard-response","213","237036","0.0-12.0-1.40","2d_cat_multi_stim_exp1","2022-4-20","10:4:51","25","75","3","9","10","40","30","120","48","19","[""White""]","No","Female","1773457","null","null","","","","clear_screen","","","","","","","","","","","","","","","","","","","","","","","","","",""
"","","","","","canvas-keyboard-response","214","237832","0.0-12.0-2.40","2d_cat_multi_stim_exp1","2022-4-20","10:4:51","25","75","3","9","10","40","30","120","48","19","[""White""]","No","Female","1773457","786","u","learn","","","learn_trial","25","75","in","1","1","","","","","","","","","","","","","","","","","","","","",""
"","","","","","canvas-keyboard-response","215","238342","0.0-12.0-3.40","2d_cat_multi_stim_exp1","2022-4-20","10:4:51","25","75","3","9","10","40","30","120","48","19","[""White""]","No","Female","1773457","null","null","learn_feedback","","","learn_feedback","25","75","in","","","","","","","","","","","","","","","","","","","","","","",""
"","","","","","canvas-keyboard-response","216","238402","0.0-12.0-4.40","2d_cat_multi_stim_exp1","2022-4-20","10:4:51","25","75","3","9","10","40","30","120","48","19","[""White""]","No","Female","1773457","null","null","","","","clear_screen","","","","","","","","","","","","","","","","","","","","","","","","","",""
"","","","","","canvas-keyboard-response","217","238913","0.0-12.0-0.41","2d_cat_multi_stim_exp1","2022-4-20","10:4:51","25","75","3","9","10","40","30","120","48","19","[""White""]","No","Female","1773457","null","null","","","","fixation","","","","","","","","","","","","","","","","","","","","","","","","","",""
"","","","","","canvas-keyboard-response","218","239428","0.0-12.0-1.41","2d_cat_multi_stim_exp1","2022-4-20","10:4:51","25","75","3","9","10","40","30","120","48","19","[""White""]","No","Female","1773457","null","null","","","","clear_screen","","","","","","","","","","","","","","","","","","","","","","","","","",""
"","","","","","canvas-keyboard-response","219","240128","0.0-12.0-2.41","2d_cat_multi_stim_exp1","2022-4-20","10:4:51","25","75","3","9","10","40","30","120","48","19","[""White""]","No","Female","1773457","689","i","learn","","","learn_trial","40","120","out","0","1","","","","","","","","","","","","","","","","","","","","",""
"","","","","","canvas-keyboard-response","220","240639","0.0-12.0-3.41","2d_cat_multi_stim_exp1","2022-4-20","10:4:51","25","75","3","9","10","40","30","120","48","19","[""White""]","No","Female","1773457","null","null","learn_feedback","","","learn_feedback","40","120","out","","","","","","","","","","","","","","","","","","","","","","",""
"","","","","","canvas-keyboard-response","221","240704","0.0-12.0-4.41","2d_cat_multi_stim_exp1","2022-4-20","10:4:51","25","75","3","9","10","40","30","120","48","19","[""White""]","No","Female","1773457","null","null","","","","clear_screen","","","","","","","","","","","","","","","","","","","","","","","","","",""
"","","","","","canvas-keyboard-response","222","241212","0.0-12.0-0.42","2d_cat_multi_stim_exp1","2022-4-20","10:4:51","25","75","3","9","10","40","30","120","48","19","[""White""]","No","Female","1773457","null","null","","","","fixation","","","","","","","","","","","","","","","","","","","","","","","","","",""
"","","","","","canvas-keyboard-response","223","241728","0.0-12.0-1.42","2d_cat_multi_stim_exp1","2022-4-20","10:4:51","25","75","3","9","10","40","30","120","48","19","[""White""]","No","Female","1773457","null","null","","","","clear_screen","","","","","","","","","","","","","","","","","","","","","","","","","",""
"","","","","","canvas-keyboard-response","224","242368","0.0-12.0-2.42","2d_cat_multi_stim_exp1","2022-4-20","10:4:51","25","75","3","9","10","40","30","120","48","19","[""White""]","No","Female","1773457","632","u","learn","","","learn_trial","24.3324","66.2256","in","1","1","","","","","","","","","","","","","","","","","","","","",""
"","","","","","canvas-keyboard-response","225","242880","0.0-12.0-3.42","2d_cat_multi_stim_exp1","2022-4-20","10:4:51","25","75","3","9","10","40","30","120","48","19","[""White""]","No","Female","1773457","null","null","learn_feedback","","","learn_feedback","24.3324","66.2256","in","","","","","","","","","","","","","","","","","","","","","","",""
"","","","","","canvas-keyboard-response","226","242941","0.0-12.0-4.42","2d_cat_multi_stim_exp1","2022-4-20","10:4:51","25","75","3","9","10","40","30","120","48","19","[""White""]","No","Female","1773457","null","null","","","","clear_screen","","","","","","","","","","","","","","","","","","","","","","","","","",""
"","","","","","canvas-keyboard-response","227","243453","0.0-12.0-0.43","2d_cat_multi_stim_exp1","2022-4-20","10:4:51","25","75","3","9","10","40","30","120","48","19","[""White""]","No","Female","1773457","null","null","","","","fixation","","","","","","","","","","","","","","","","","","","","","","","","","",""
"","","","","","canvas-keyboard-response","228","243965","0.0-12.0-1.43","2d_cat_multi_stim_exp1","2022-4-20","10:4:51","25","75","3","9","10","40","30","120","48","19","[""White""]","No","Female","1773457","null","null","","","","clear_screen","","","","","","","","","","","","","","","","","","","","","","","","","",""
"","","","","","canvas-keyboard-response","229","244736","0.0-12.0-2.43","2d_cat_multi_stim_exp1","2022-4-20","10:4:51","25","75","3","9","10","40","30","120","48","19","[""White""]","No","Female","1773457","761","u","learn","","","learn_trial","25","75","in","1","1","","","","","","","","","","","","","","","","","","","","",""
"","","","","","canvas-keyboard-response","230","245245","0.0-12.0-3.43","2d_cat_multi_stim_exp1","2022-4-20","10:4:51","25","75","3","9","10","40","30","120","48","19","[""White""]","No","Female","1773457","null","null","learn_feedback","","","learn_feedback","25","75","in","","","","","","","","","","","","","","","","","","","","","","",""
"","","","","","canvas-keyboard-response","231","245310","0.0-12.0-4.43","2d_cat_multi_stim_exp1","2022-4-20","10:4:51","25","75","3","9","10","40","30","120","48","19","[""White""]","No","Female","1773457","null","null","","","","clear_screen","","","","","","","","","","","","","","","","","","","","","","","","","",""
"","","","","","canvas-keyboard-response","232","245822","0.0-12.0-0.44","2d_cat_multi_stim_exp1","2022-4-20","10:4:51","25","75","3","9","10","40","30","120","48","19","[""White""]","No","Female","1773457","null","null","","","","fixation","","","","","","","","","","","","","","","","","","","","","","","","","",""
"","","","","","canvas-keyboard-response","233","246334","0.0-12.0-1.44","2d_cat_multi_stim_exp1","2022-4-20","10:4:51","25","75","3","9","10","40","30","120","48","19","[""White""]","No","Female","1773457","null","null","","","","clear_screen","","","","","","","","","","","","","","","","","","","","","","","","","",""
"","","","","","canvas-keyboard-response","234","247712","0.0-12.0-2.44","2d_cat_multi_stim_exp1","2022-4-20","10:4:51","25","75","3","9","10","40","30","120","48","19","[""White""]","No","Female","1773457","1368","u","learn","","","learn_trial","25","75","in","1","1","","","","","","","","","","","","","","","","","","","","",""
"","","","","","canvas-keyboard-response","235","248224","0.0-12.0-3.44","2d_cat_multi_stim_exp1","2022-4-20","10:4:51","25","75","3","9","10","40","30","120","48","19","[""White""]","No","Female","1773457","null","null","learn_feedback","","","learn_feedback","25","75","in","","","","","","","","","","","","","","","","","","","","","","",""
"","","","","","canvas-keyboard-response","236","248287","0.0-12.0-4.44","2d_cat_multi_stim_exp1","2022-4-20","10:4:51","25","75","3","9","10","40","30","120","48","19","[""White""]","No","Female","1773457","null","null","","","","clear_screen","","","","","","","","","","","","","","","","","","","","","","","","","",""
"","","","","","canvas-keyboard-response","237","248798","0.0-12.0-0.45","2d_cat_multi_stim_exp1","2022-4-20","10:4:51","25","75","3","9","10","40","30","120","48","19","[""White""]","No","Female","1773457","null","null","","","","fixation","","","","","","","","","","","","","","","","","","","","","","","","","",""
"","","","","","canvas-keyboard-response","238","249308","0.0-12.0-1.45","2d_cat_multi_stim_exp1","2022-4-20","10:4:51","25","75","3","9","10","40","30","120","48","19","[""White""]","No","Female","1773457","null","null","","","","clear_screen","","","","","","","","","","","","","","","","","","","","","","","","","",""
"","","","","","canvas-keyboard-response","239","250056","0.0-12.0-2.45","2d_cat_multi_stim_exp1","2022-4-20","10:4:51","25","75","3","9","10","40","30","120","48","19","[""White""]","No","Female","1773457","737","i","learn","","","learn_trial","16.6667","120","out","0","1","","","","","","","","","","","","","","","","","","","","",""
"","","","","","canvas-keyboard-response","240","250566","0.0-12.0-3.45","2d_cat_multi_stim_exp1","2022-4-20","10:4:51","25","75","3","9","10","40","30","120","48","19","[""White""]","No","Female","1773457","null","null","learn_feedback","","","learn_feedback","16.6667","120","out","","","","","","","","","","","","","","","","","","","","","","",""
"","","","","","canvas-keyboard-response","241","250626","0.0-12.0-4.45","2d_cat_multi_stim_exp1","2022-4-20","10:4:51","25","75","3","9","10","40","30","120","48","19","[""White""]","No","Female","1773457","null","null","","","","clear_screen","","","","","","","","","","","","","","","","","","","","","","","","","",""
"","","","","","canvas-keyboard-response","242","251138","0.0-12.0-0.46","2d_cat_multi_stim_exp1","2022-4-20","10:4:51","25","75","3","9","10","40","30","120","48","19","[""White""]","No","Female","1773457","null","null","","","","fixation","","","","","","","","","","","","","","","","","","","","","","","","","",""
"","","","","","canvas-keyboard-response","243","251649","0.0-12.0-1.46","2d_cat_multi_stim_exp1","2022-4-20","10:4:51","25","75","3","9","10","40","30","120","48","19","[""White""]","No","Female","1773457","null","null","","","","clear_screen","","","","","","","","","","","","","","","","","","","","","","","","","",""
"","","","","","canvas-keyboard-response","244","252824","0.0-12.0-2.46","2d_cat_multi_stim_exp1","2022-4-20","10:4:51","25","75","3","9","10","40","30","120","48","19","[""White""]","No","Female","1773457","1163","u","learn","","","learn_trial","25","75","in","1","1","","","","","","","","","","","","","","","","","","","","",""
"","","","","","canvas-keyboard-response","245","253335","0.0-12.0-3.46","2d_cat_multi_stim_exp1","2022-4-20","10:4:51","25","75","3","9","10","40","30","120","48","19","[""White""]","No","Female","1773457","null","null","learn_feedback","","","learn_feedback","25","75","in","","","","","","","","","","","","","","","","","","","","","","",""
"","","","","","canvas-keyboard-response","246","253397","0.0-12.0-4.46","2d_cat_multi_stim_exp1","2022-4-20","10:4:51","25","75","3","9","10","40","30","120","48","19","[""White""]","No","Female","1773457","null","null","","","","clear_screen","","","","","","","","","","","","","","","","","","","","","","","","","",""
"","","","","","canvas-keyboard-response","247","253907","0.0-12.0-0.47","2d_cat_multi_stim_exp1","2022-4-20","10:4:51","25","75","3","9","10","40","30","120","48","19","[""White""]","No","Female","1773457","null","null","","","","fixation","","","","","","","","","","","","","","","","","","","","","","","","","",""
"","","","","","canvas-keyboard-response","248","254417","0.0-12.0-1.47","2d_cat_multi_stim_exp1","2022-4-20","10:4:51","25","75","3","9","10","40","30","120","48","19","[""White""]","No","Female","1773457","null","null","","","","clear_screen","","","","","","","","","","","","","","","","","","","","","","","","","",""
"","","","","","canvas-keyboard-response","249","255512","0.0-12.0-2.47","2d_cat_multi_stim_exp1","2022-4-20","10:4:51","25","75","3","9","10","40","30","120","48","19","[""White""]","No","Female","1773457","1082","u","learn","","","learn_trial","22.2971","71.095","in","1","1","","","","","","","","","","","","","","","","","","","","",""
"","","","","","canvas-keyboard-response","250","256024","0.0-12.0-3.47","2d_cat_multi_stim_exp1","2022-4-20","10:4:51","25","75","3","9","10","40","30","120","48","19","[""White""]","No","Female","1773457","null","null","learn_feedback","","","learn_feedback","22.2971","71.095","in","","","","","","","","","","","","","","","","","","","","","","",""
"","","","","","canvas-keyboard-response","251","256085","0.0-12.0-4.47","2d_cat_multi_stim_exp1","2022-4-20","10:4:51","25","75","3","9","10","40","30","120","48","19","[""White""]","No","Female","1773457","null","null","","","","clear_screen","","","","","","","","","","","","","","","","","","","","","","","","","",""
"","","","","","canvas-keyboard-response","252","256598","0.0-12.0-0.48","2d_cat_multi_stim_exp1","2022-4-20","10:4:51","25","75","3","9","10","40","30","120","48","19","[""White""]","No","Female","1773457","null","null","","","","fixation","","","","","","","","","","","","","","","","","","","","","","","","","",""
"","","","","","canvas-keyboard-response","253","257112","0.0-12.0-1.48","2d_cat_multi_stim_exp1","2022-4-20","10:4:51","25","75","3","9","10","40","30","120","48","19","[""White""]","No","Female","1773457","null","null","","","","clear_screen","","","","","","","","","","","","","","","","","","","","","","","","","",""
"","","","","","canvas-keyboard-response","254","258104","0.0-12.0-2.48","2d_cat_multi_stim_exp1","2022-4-20","10:4:51","25","75","3","9","10","40","30","120","48","19","[""White""]","No","Female","1773457","982","u","learn","","","learn_trial","25","75","in","1","1","","","","","","","","","","","","","","","","","","","","",""
"","","","","","canvas-keyboard-response","255","258619","0.0-12.0-3.48","2d_cat_multi_stim_exp1","2022-4-20","10:4:51","25","75","3","9","10","40","30","120","48","19","[""White""]","No","Female","1773457","null","null","learn_feedback","","","learn_feedback","25","75","in","","","","","","","","","","","","","","","","","","","","","","",""
"","","","","","canvas-keyboard-response","256","258678","0.0-12.0-4.48","2d_cat_multi_stim_exp1","2022-4-20","10:4:51","25","75","3","9","10","40","30","120","48","19","[""White""]","No","Female","1773457","null","null","","","","clear_screen","","","","","","","","","","","","","","","","","","","","","","","","","",""
"","","","","","canvas-keyboard-response","257","259190","0.0-12.0-0.49","2d_cat_multi_stim_exp1","2022-4-20","10:4:51","25","75","3","9","10","40","30","120","48","19","[""White""]","No","Female","1773457","null","null","","","","fixation","","","","","","","","","","","","","","","","","","","","","","","","","",""
"","","","","","canvas-keyboard-response","258","259704","0.0-12.0-1.49","2d_cat_multi_stim_exp1","2022-4-20","10:4:51","25","75","3","9","10","40","30","120","48","19","[""White""]","No","Female","1773457","null","null","","","","clear_screen","","","","","","","","","","","","","","","","","","","","","","","","","",""
"","","","","","canvas-keyboard-response","259","260584","0.0-12.0-2.49","2d_cat_multi_stim_exp1","2022-4-20","10:4:51","25","75","3","9","10","40","30","120","48","19","[""White""]","No","Female","1773457","867","i","learn","","","learn_trial","20","120","out","0","1","","","","","","","","","","","","","","","","","","","","",""
"","","","","","canvas-keyboard-response","260","261095","0.0-12.0-3.49","2d_cat_multi_stim_exp1","2022-4-20","10:4:51","25","75","3","9","10","40","30","120","48","19","[""White""]","No","Female","1773457","null","null","learn_feedback","","","learn_feedback","20","120","out","","","","","","","","","","","","","","","","","","","","","","",""
"","","","","","canvas-keyboard-response","261","261158","0.0-12.0-4.49","2d_cat_multi_stim_exp1","2022-4-20","10:4:51","25","75","3","9","10","40","30","120","48","19","[""White""]","No","Female","1773457","null","null","","","","clear_screen","","","","","","","","","","","","","","","","","","","","","","","","","",""
"","","","","","canvas-keyboard-response","262","261667","0.0-12.0-0.50","2d_cat_multi_stim_exp1","2022-4-20","10:4:51","25","75","3","9","10","40","30","120","48","19","[""White""]","No","Female","1773457","null","null","","","","fixation","","","","","","","","","","","","","","","","","","","","","","","","","",""
"","","","","","canvas-keyboard-response","263","262184","0.0-12.0-1.50","2d_cat_multi_stim_exp1","2022-4-20","10:4:51","25","75","3","9","10","40","30","120","48","19","[""White""]","No","Female","1773457","null","null","","","","clear_screen","","","","","","","","","","","","","","","","","","","","","","","","","",""
"","","","","","canvas-keyboard-response","264","263848","0.0-12.0-2.50","2d_cat_multi_stim_exp1","2022-4-20","10:4:51","25","75","3","9","10","40","30","120","48","19","[""White""]","No","Female","1773457","1652","u","learn","","","learn_trial","25","75","in","1","1","","","","","","","","","","","","","","","","","","","","",""
"","","","","","canvas-keyboard-response","265","264362","0.0-12.0-3.50","2d_cat_multi_stim_exp1","2022-4-20","10:4:51","25","75","3","9","10","40","30","120","48","19","[""White""]","No","Female","1773457","null","null","learn_feedback","","","learn_feedback","25","75","in","","","","","","","","","","","","","","","","","","","","","","",""
"","","","","","canvas-keyboard-response","266","264422","0.0-12.0-4.50","2d_cat_multi_stim_exp1","2022-4-20","10:4:51","25","75","3","9","10","40","30","120","48","19","[""White""]","No","Female","1773457","null","null","","","","clear_screen","","","","","","","","","","","","","","","","","","","","","","","","","",""
"","","","","","canvas-keyboard-response","267","264932","0.0-12.0-0.51","2d_cat_multi_stim_exp1","2022-4-20","10:4:51","25","75","3","9","10","40","30","120","48","19","[""White""]","No","Female","1773457","null","null","","","","fixation","","","","","","","","","","","","","","","","","","","","","","","","","",""
"","","","","","canvas-keyboard-response","268","265447","0.0-12.0-1.51","2d_cat_multi_stim_exp1","2022-4-20","10:4:51","25","75","3","9","10","40","30","120","48","19","[""White""]","No","Female","1773457","null","null","","","","clear_screen","","","","","","","","","","","","","","","","","","","","","","","","","",""
"","","","","","canvas-keyboard-response","269","266224","0.0-12.0-2.51","2d_cat_multi_stim_exp1","2022-4-20","10:4:51","25","75","3","9","10","40","30","120","48","19","[""White""]","No","Female","1773457","763","i","learn","","","learn_trial","31","75","in","0","0","","","","","","","","","","","","","","","","","","","","",""
"","","","","","canvas-keyboard-response","270","267238","0.0-12.0-3.51","2d_cat_multi_stim_exp1","2022-4-20","10:4:51","25","75","3","9","10","40","30","120","48","19","[""White""]","No","Female","1773457","null","null","learn_feedback","","","learn_feedback","31","75","in","","","","","","","","","","","","","","","","","","","","","","",""
"","","","","","canvas-keyboard-response","271","267300","0.0-12.0-4.51","2d_cat_multi_stim_exp1","2022-4-20","10:4:51","25","75","3","9","10","40","30","120","48","19","[""White""]","No","Female","1773457","null","null","","","","clear_screen","","","","","","","","","","","","","","","","","","","","","","","","","",""
"","","","","","canvas-keyboard-response","272","267810","0.0-12.0-0.52","2d_cat_multi_stim_exp1","2022-4-20","10:4:51","25","75","3","9","10","40","30","120","48","19","[""White""]","No","Female","1773457","null","null","","","","fixation","","","","","","","","","","","","","","","","","","","","","","","","","",""
"","","","","","canvas-keyboard-response","273","268323","0.0-12.0-1.52","2d_cat_multi_stim_exp1","2022-4-20","10:4:51","25","75","3","9","10","40","30","120","48","19","[""White""]","No","Female","1773457","null","null","","","","clear_screen","","","","","","","","","","","","","","","","","","","","","","","","","",""
"","","","","","canvas-keyboard-response","274","269360","0.0-12.0-2.52","2d_cat_multi_stim_exp1","2022-4-20","10:4:51","25","75","3","9","10","40","30","120","48","19","[""White""]","No","Female","1773457","1027","i","learn","","","learn_trial","13.3333","50","out","0","1","","","","","","","","","","","","","","","","","","","","",""
"","","","","","canvas-keyboard-response","275","269870","0.0-12.0-3.52","2d_cat_multi_stim_exp1","2022-4-20","10:4:51","25","75","3","9","10","40","30","120","48","19","[""White""]","No","Female","1773457","null","null","learn_feedback","","","learn_feedback","13.3333","50","out","","","","","","","","","","","","","","","","","","","","","","",""
"","","","","","canvas-keyboard-response","276","269930","0.0-12.0-4.52","2d_cat_multi_stim_exp1","2022-4-20","10:4:51","25","75","3","9","10","40","30","120","48","19","[""White""]","No","Female","1773457","null","null","","","","clear_screen","","","","","","","","","","","","","","","","","","","","","","","","","",""
"","","","","","canvas-keyboard-response","277","270440","0.0-12.0-0.53","2d_cat_multi_stim_exp1","2022-4-20","10:4:51","25","75","3","9","10","40","30","120","48","19","[""White""]","No","Female","1773457","null","null","","","","fixation","","","","","","","","","","","","","","","","","","","","","","","","","",""
"","","","","","canvas-keyboard-response","278","270952","0.0-12.0-1.53","2d_cat_multi_stim_exp1","2022-4-20","10:4:51","25","75","3","9","10","40","30","120","48","19","[""White""]","No","Female","1773457","null","null","","","","clear_screen","","","","","","","","","","","","","","","","","","","","","","","","","",""
"","","","","","canvas-keyboard-response","279","271648","0.0-12.0-2.53","2d_cat_multi_stim_exp1","2022-4-20","10:4:51","25","75","3","9","10","40","30","120","48","19","[""White""]","No","Female","1773457","685","i","learn","","","learn_trial","33.3333","30","out","0","1","","","","","","","","","","","","","","","","","","","","",""
"","","","","","canvas-keyboard-response","280","272161","0.0-12.0-3.53","2d_cat_multi_stim_exp1","2022-4-20","10:4:51","25","75","3","9","10","40","30","120","48","19","[""White""]","No","Female","1773457","null","null","learn_feedback","","","learn_feedback","33.3333","30","out","","","","","","","","","","","","","","","","","","","","","","",""
"","","","","","canvas-keyboard-response","281","272221","0.0-12.0-4.53","2d_cat_multi_stim_exp1","2022-4-20","10:4:51","25","75","3","9","10","40","30","120","48","19","[""White""]","No","Female","1773457","null","null","","","","clear_screen","","","","","","","","","","","","","","","","","","","","","","","","","",""
"","","","","","canvas-keyboard-response","282","272731","0.0-12.0-0.54","2d_cat_multi_stim_exp1","2022-4-20","10:4:51","25","75","3","9","10","40","30","120","48","19","[""White""]","No","Female","1773457","null","null","","","","fixation","","","","","","","","","","","","","","","","","","","","","","","","","",""
"","","","","","canvas-keyboard-response","283","273244","0.0-12.0-1.54","2d_cat_multi_stim_exp1","2022-4-20","10:4:51","25","75","3","9","10","40","30","120","48","19","[""White""]","No","Female","1773457","null","null","","","","clear_screen","","","","","","","","","","","","","","","","","","","","","","","","","",""
"","","","","","canvas-keyboard-response","284","274008","0.0-12.0-2.54","2d_cat_multi_stim_exp1","2022-4-20","10:4:51","25","75","3","9","10","40","30","120","48","19","[""White""]","No","Female","1773457","754","i","learn","","","learn_trial","20","30","out","0","1","","","","","","","","","","","","","","","","","","","","",""
"","","","","","canvas-keyboard-response","285","274519","0.0-12.0-3.54","2d_cat_multi_stim_exp1","2022-4-20","10:4:51","25","75","3","9","10","40","30","120","48","19","[""White""]","No","Female","1773457","null","null","learn_feedback","","","learn_feedback","20","30","out","","","","","","","","","","","","","","","","","","","","","","",""
"","","","","","canvas-keyboard-response","286","274584","0.0-12.0-4.54","2d_cat_multi_stim_exp1","2022-4-20","10:4:51","25","75","3","9","10","40","30","120","48","19","[""White""]","No","Female","1773457","null","null","","","","clear_screen","","","","","","","","","","","","","","","","","","","","","","","","","",""
"","","","","","canvas-keyboard-response","287","275094","0.0-12.0-0.55","2d_cat_multi_stim_exp1","2022-4-20","10:4:51","25","75","3","9","10","40","30","120","48","19","[""White""]","No","Female","1773457","null","null","","","","fixation","","","","","","","","","","","","","","","","","","","","","","","","","",""
"","","","","","canvas-keyboard-response","288","275610","0.0-12.0-1.55","2d_cat_multi_stim_exp1","2022-4-20","10:4:51","25","75","3","9","10","40","30","120","48","19","[""White""]","No","Female","1773457","null","null","","","","clear_screen","","","","","","","","","","","","","","","","","","","","","","","","","",""
"","","","","","canvas-keyboard-response","289","277024","0.0-12.0-2.55","2d_cat_multi_stim_exp1","2022-4-20","10:4:51","25","75","3","9","10","40","30","120","48","19","[""White""]","No","Female","1773457","1404","i","learn","","","learn_trial","40","70","out","0","1","","","","","","","","","","","","","","","","","","","","",""
"","","","","","canvas-keyboard-response","290","277535","0.0-12.0-3.55","2d_cat_multi_stim_exp1","2022-4-20","10:4:51","25","75","3","9","10","40","30","120","48","19","[""White""]","No","Female","1773457","null","null","learn_feedback","","","learn_feedback","40","70","out","","","","","","","","","","","","","","","","","","","","","","",""
"","","","","","canvas-keyboard-response","291","277596","0.0-12.0-4.55","2d_cat_multi_stim_exp1","2022-4-20","10:4:51","25","75","3","9","10","40","30","120","48","19","[""White""]","No","Female","1773457","null","null","","","","clear_screen","","","","","","","","","","","","","","","","","","","","","","","","","",""
"","","","","","canvas-keyboard-response","292","278109","0.0-12.0-0.56","2d_cat_multi_stim_exp1","2022-4-20","10:4:51","25","75","3","9","10","40","30","120","48","19","[""White""]","No","Female","1773457","null","null","","","","fixation","","","","","","","","","","","","","","","","","","","","","","","","","",""
"","","","","","canvas-keyboard-response","293","278624","0.0-12.0-1.56","2d_cat_multi_stim_exp1","2022-4-20","10:4:51","25","75","3","9","10","40","30","120","48","19","[""White""]","No","Female","1773457","null","null","","","","clear_screen","","","","","","","","","","","","","","","","","","","","","","","","","",""
"","","","","","canvas-keyboard-response","294","280023","0.0-12.0-2.56","2d_cat_multi_stim_exp1","2022-4-20","10:4:51","25","75","3","9","10","40","30","120","48","19","[""White""]","No","Female","1773457","1392","u","learn","","","learn_trial","23.3333","100","out","1","0","","","","","","","","","","","","","","","","","","","","",""
"","","","","","canvas-keyboard-response","295","281034","0.0-12.0-3.56","2d_cat_multi_stim_exp1","2022-4-20","10:4:51","25","75","3","9","10","40","30","120","48","19","[""White""]","No","Female","1773457","null","null","learn_feedback","","","learn_feedback","23.3333","100","out","","","","","","","","","","","","","","","","","","","","","","",""
"","","","","","canvas-keyboard-response","296","281095","0.0-12.0-4.56","2d_cat_multi_stim_exp1","2022-4-20","10:4:51","25","75","3","9","10","40","30","120","48","19","[""White""]","No","Female","1773457","null","null","","","","clear_screen","","","","","","","","","","","","","","","","","","","","","","","","","",""
