"success","timeout","failed_images","failed_audio","failed_video","trial_type","trial_index","time_elapsed","internal_node_id","exp_name","date","time","angle_mean_in","radius_mean_in","angle_sd_in","radius_sd_in","angle_min_out","angle_max_out","radius_min_out","radius_max_out","sub_n","age","race","ethnicity","gender","exp_duration","rt","response","exp_trial_type","stimulus","view_history","screen_id","angle","radius","distribution","choice","correct","order","angle_a","radius_a","angle_b","radius_b","angle_c","radius_c","jkl_correct","transfer_trial_type","choice_set","abc_correct","tc_correct","tc_angle","tdc_a","tdc_b","tdc_c","pair","category_a","category_b","category_c","question_order"
"true","false","[]","[]","[]","preload","0","15","0.0-0.0","2d_cat_multi_stim_exp1","2022-5-3","15:24:38","25","75","3","9","10","40","30","120","82","22","[""White""]","No","Female","2146497","","","","","","","","","","","","","","","","","","","","","","","","","","","","","","","",""
"","","","","","survey-html-form","1","2781","0.0-1.0","2d_cat_multi_stim_exp1","2022-5-3","15:24:38","25","75","3","9","10","40","30","120","82","22","[""White""]","No","Female","2146497","2760","{""response"":""82""}","enter-sub-number","","","","","","","","","","","","","","","","","","","","","","","","","","","","",""
"true","","","","","fullscreen","2","4941","0.0-2.0","2d_cat_multi_stim_exp1","2022-5-3","15:24:38","25","75","3","9","10","40","30","120","82","22","[""White""]","No","Female","2146497","","","","","","","","","","","","","","","","","","","","","","","","","","","","","","","",""
"","","","","","image-button-response","3","122726","0.0-3.0","2d_cat_multi_stim_exp1","2022-5-3","15:24:38","25","75","3","9","10","40","30","120","82","22","[""White""]","No","Female","2146497","117776","0","","consent.png","","","","","","","","","","","","","","","","","","","","","","","","","","","",""
"","","","","","html-button-response","4","129798","0.0-4.0","2d_cat_multi_stim_exp1","2022-5-3","15:24:38","25","75","3","9","10","40","30","120","82","22","[""White""]","No","Female","2146497","7066","0","","<div style= ""font-size:25px;"" <p> <strong> Welcome to the experiment! </strong><br> <p style=""color:#8B0000; font-size:25px;""><strong> Please do NOT exit full screen until you are done with the experiment. </strong> </p><p style=""font-size:25px;color:#8B0000;""> <strong> The experiment will be canceled and your data will be lost <br> if you try to go back or refresh the page at any point during the experiment.</strong> </p><br><p> <strong> Thanks in advance for your contribution to our research! </strong></p>","","","","","","","","","","","","","","","","","","","","","","","","","","","",""
"","","","","","instructions","5","166286","0.0-5.0","2d_cat_multi_stim_exp1","2022-5-3","15:24:38","25","75","3","9","10","40","30","120","82","22","[""White""]","No","Female","2146497","36482","","","","[{""page_index"":0,""viewing_time"":6594},{""page_index"":1,""viewing_time"":1784},{""page_index"":2,""viewing_time"":3376},{""page_index"":3,""viewing_time"":24728}]","instructions_1","","","","","","","","","","","","","","","","","","","","","","","","","",""
"","","","","","instructions","6","168358","0.0-6.0","2d_cat_multi_stim_exp1","2022-5-3","15:24:38","25","75","3","9","10","40","30","120","82","22","[""White""]","No","Female","2146497","2069","","","","[{""page_index"":0,""viewing_time"":2069}]","Click to see the kinds of turtles that will appear in the study.","","","","","","","","","","","","","","","","","","","","","","","","","",""
"","","","","","canvas-keyboard-response","7","183376","0.0-7.0","2d_cat_multi_stim_exp1","2022-5-3","15:24:38","25","75","3","9","10","40","30","120","82","22","[""White""]","No","Female","2146497","null","null","","","","demo_range","","","","","","","","","","","","","","","","","","","","","","","","","",""
"","","","","","instructions","8","185766","0.0-8.0","2d_cat_multi_stim_exp1","2022-5-3","15:24:38","25","75","3","9","10","40","30","120","82","22","[""White""]","No","Female","2146497","1890","","","","[{""page_index"":0,""viewing_time"":1889}]","Click to see some turtles in the subspecies.","","","","","","","","","","","","","","","","","","","","","","","","","",""
"","","","","","canvas-keyboard-response","9","200785","0.0-9.0","2d_cat_multi_stim_exp1","2022-5-3","15:24:38","25","75","3","9","10","40","30","120","82","22","[""White""]","No","Female","2146497","null","null","","","","demo_in","","","","","","","","","","","","","","","","","","","","","","","","","",""
"","","","","","instructions","10","226503","0.0-10.0","2d_cat_multi_stim_exp1","2022-5-3","15:24:38","25","75","3","9","10","40","30","120","82","22","[""White""]","No","Female","2146497","25216","","","","[{""page_index"":0,""viewing_time"":8807},{""page_index"":1,""viewing_time"":9969},{""page_index"":2,""viewing_time"":6439}]","instructions_2","","","","","","","","","","","","","","","","","","","","","","","","","",""
"","","","","","instructions","11","228244","0.0-11.0","2d_cat_multi_stim_exp1","2022-5-3","15:24:38","25","75","3","9","10","40","30","120","82","22","[""White""]","No","Female","2146497","1740","","","","[{""page_index"":0,""viewing_time"":1740}]","Click to begin the first phase of the experiment.","","","","","","","","","","","","","","","","","","","","","","","","","",""
"","","","","","canvas-keyboard-response","12","228751","0.0-12.0-0.0","2d_cat_multi_stim_exp1","2022-5-3","15:24:38","25","75","3","9","10","40","30","120","82","22","[""White""]","No","Female","2146497","null","null","","","","fixation","","","","","","","","","","","","","","","","","","","","","","","","","",""
"","","","","","canvas-keyboard-response","13","229263","0.0-12.0-1.0","2d_cat_multi_stim_exp1","2022-5-3","15:24:38","25","75","3","9","10","40","30","120","82","22","[""White""]","No","Female","2146497","null","null","","","","clear_screen","","","","","","","","","","","","","","","","","","","","","","","","","",""
"","","","","","canvas-keyboard-response","14","233157","0.0-12.0-2.0","2d_cat_multi_stim_exp1","2022-5-3","15:24:38","25","75","3","9","10","40","30","120","82","22","[""White""]","No","Female","2146497","3884","u","learn","","","learn_trial","26.6667","70","out","1","0","","","","","","","","","","","","","","","","","","","","",""
"","","","","","canvas-keyboard-response","15","234168","0.0-12.0-3.0","2d_cat_multi_stim_exp1","2022-5-3","15:24:38","25","75","3","9","10","40","30","120","82","22","[""White""]","No","Female","2146497","null","null","learn_feedback","","","learn_feedback","26.6667","70","out","","","","","","","","","","","","","","","","","","","","","","",""
"","","","","","canvas-keyboard-response","16","234230","0.0-12.0-4.0","2d_cat_multi_stim_exp1","2022-5-3","15:24:38","25","75","3","9","10","40","30","120","82","22","[""White""]","No","Female","2146497","null","null","","","","clear_screen","","","","","","","","","","","","","","","","","","","","","","","","","",""
"","","","","","canvas-keyboard-response","17","234742","0.0-12.0-0.1","2d_cat_multi_stim_exp1","2022-5-3","15:24:38","25","75","3","9","10","40","30","120","82","22","[""White""]","No","Female","2146497","null","null","","","","fixation","","","","","","","","","","","","","","","","","","","","","","","","","",""
"","","","","","canvas-keyboard-response","18","235253","0.0-12.0-1.1","2d_cat_multi_stim_exp1","2022-5-3","15:24:38","25","75","3","9","10","40","30","120","82","22","[""White""]","No","Female","2146497","null","null","","","","clear_screen","","","","","","","","","","","","","","","","","","","","","","","","","",""
"","","","","","canvas-keyboard-response","19","236581","0.0-12.0-2.1","2d_cat_multi_stim_exp1","2022-5-3","15:24:38","25","75","3","9","10","40","30","120","82","22","[""White""]","No","Female","2146497","1314","u","learn","","","learn_trial","26.6667","40","out","1","0","","","","","","","","","","","","","","","","","","","","",""
"","","","","","canvas-keyboard-response","20","237591","0.0-12.0-3.1","2d_cat_multi_stim_exp1","2022-5-3","15:24:38","25","75","3","9","10","40","30","120","82","22","[""White""]","No","Female","2146497","null","null","learn_feedback","","","learn_feedback","26.6667","40","out","","","","","","","","","","","","","","","","","","","","","","",""
"","","","","","canvas-keyboard-response","21","237650","0.0-12.0-4.1","2d_cat_multi_stim_exp1","2022-5-3","15:24:38","25","75","3","9","10","40","30","120","82","22","[""White""]","No","Female","2146497","null","null","","","","clear_screen","","","","","","","","","","","","","","","","","","","","","","","","","",""
"","","","","","canvas-keyboard-response","22","238160","0.0-12.0-0.2","2d_cat_multi_stim_exp1","2022-5-3","15:24:38","25","75","3","9","10","40","30","120","82","22","[""White""]","No","Female","2146497","null","null","","","","fixation","","","","","","","","","","","","","","","","","","","","","","","","","",""
"","","","","","canvas-keyboard-response","23","238670","0.0-12.0-1.2","2d_cat_multi_stim_exp1","2022-5-3","15:24:38","25","75","3","9","10","40","30","120","82","22","[""White""]","No","Female","2146497","null","null","","","","clear_screen","","","","","","","","","","","","","","","","","","","","","","","","","",""
"","","","","","canvas-keyboard-response","24","240911","0.0-12.0-2.2","2d_cat_multi_stim_exp1","2022-5-3","15:24:38","25","75","3","9","10","40","30","120","82","22","[""White""]","No","Female","2146497","2230","u","learn","","","learn_trial","30","70","out","1","0","","","","","","","","","","","","","","","","","","","","",""
"","","","","","canvas-keyboard-response","25","241920","0.0-12.0-3.2","2d_cat_multi_stim_exp1","2022-5-3","15:24:38","25","75","3","9","10","40","30","120","82","22","[""White""]","No","Female","2146497","null","null","learn_feedback","","","learn_feedback","30","70","out","","","","","","","","","","","","","","","","","","","","","","",""
"","","","","","canvas-keyboard-response","26","241978","0.0-12.0-4.2","2d_cat_multi_stim_exp1","2022-5-3","15:24:38","25","75","3","9","10","40","30","120","82","22","[""White""]","No","Female","2146497","null","null","","","","clear_screen","","","","","","","","","","","","","","","","","","","","","","","","","",""
"","","","","","canvas-keyboard-response","27","242488","0.0-12.0-0.3","2d_cat_multi_stim_exp1","2022-5-3","15:24:38","25","75","3","9","10","40","30","120","82","22","[""White""]","No","Female","2146497","null","null","","","","fixation","","","","","","","","","","","","","","","","","","","","","","","","","",""
"","","","","","canvas-keyboard-response","28","242997","0.0-12.0-1.3","2d_cat_multi_stim_exp1","2022-5-3","15:24:38","25","75","3","9","10","40","30","120","82","22","[""White""]","No","Female","2146497","null","null","","","","clear_screen","","","","","","","","","","","","","","","","","","","","","","","","","",""
"","","","","","canvas-keyboard-response","29","244517","0.0-12.0-2.3","2d_cat_multi_stim_exp1","2022-5-3","15:24:38","25","75","3","9","10","40","30","120","82","22","[""White""]","No","Female","2146497","1510","i","learn","","","learn_trial","25","75","in","0","0","","","","","","","","","","","","","","","","","","","","",""
"","","","","","canvas-keyboard-response","30","245529","0.0-12.0-3.3","2d_cat_multi_stim_exp1","2022-5-3","15:24:38","25","75","3","9","10","40","30","120","82","22","[""White""]","No","Female","2146497","null","null","learn_feedback","","","learn_feedback","25","75","in","","","","","","","","","","","","","","","","","","","","","","",""
"","","","","","canvas-keyboard-response","31","245588","0.0-12.0-4.3","2d_cat_multi_stim_exp1","2022-5-3","15:24:38","25","75","3","9","10","40","30","120","82","22","[""White""]","No","Female","2146497","null","null","","","","clear_screen","","","","","","","","","","","","","","","","","","","","","","","","","",""
"","","","","","canvas-keyboard-response","32","246097","0.0-12.0-0.4","2d_cat_multi_stim_exp1","2022-5-3","15:24:38","25","75","3","9","10","40","30","120","82","22","[""White""]","No","Female","2146497","null","null","","","","fixation","","","","","","","","","","","","","","","","","","","","","","","","","",""
"","","","","","canvas-keyboard-response","33","246611","0.0-12.0-1.4","2d_cat_multi_stim_exp1","2022-5-3","15:24:38","25","75","3","9","10","40","30","120","82","22","[""White""]","No","Female","2146497","null","null","","","","clear_screen","","","","","","","","","","","","","","","","","","","","","","","","","",""
"","","","","","canvas-keyboard-response","34","248301","0.0-12.0-2.4","2d_cat_multi_stim_exp1","2022-5-3","15:24:38","25","75","3","9","10","40","30","120","82","22","[""White""]","No","Female","2146497","1686","i","learn","","","learn_trial","36.6667","40","out","0","1","","","","","","","","","","","","","","","","","","","","",""
"","","","","","canvas-keyboard-response","35","248812","0.0-12.0-3.4","2d_cat_multi_stim_exp1","2022-5-3","15:24:38","25","75","3","9","10","40","30","120","82","22","[""White""]","No","Female","2146497","null","null","learn_feedback","","","learn_feedback","36.6667","40","out","","","","","","","","","","","","","","","","","","","","","","",""
"","","","","","canvas-keyboard-response","36","248873","0.0-12.0-4.4","2d_cat_multi_stim_exp1","2022-5-3","15:24:38","25","75","3","9","10","40","30","120","82","22","[""White""]","No","Female","2146497","null","null","","","","clear_screen","","","","","","","","","","","","","","","","","","","","","","","","","",""
"","","","","","canvas-keyboard-response","37","249383","0.0-12.0-0.5","2d_cat_multi_stim_exp1","2022-5-3","15:24:38","25","75","3","9","10","40","30","120","82","22","[""White""]","No","Female","2146497","null","null","","","","fixation","","","","","","","","","","","","","","","","","","","","","","","","","",""
"","","","","","canvas-keyboard-response","38","249889","0.0-12.0-1.5","2d_cat_multi_stim_exp1","2022-5-3","15:24:38","25","75","3","9","10","40","30","120","82","22","[""White""]","No","Female","2146497","null","null","","","","clear_screen","","","","","","","","","","","","","","","","","","","","","","","","","",""
"","","","","","canvas-keyboard-response","39","251357","0.0-12.0-2.5","2d_cat_multi_stim_exp1","2022-5-3","15:24:38","25","75","3","9","10","40","30","120","82","22","[""White""]","No","Female","2146497","1456","i","learn","","","learn_trial","22.0121","74.1932","in","0","0","","","","","","","","","","","","","","","","","","","","",""
"","","","","","canvas-keyboard-response","40","252367","0.0-12.0-3.5","2d_cat_multi_stim_exp1","2022-5-3","15:24:38","25","75","3","9","10","40","30","120","82","22","[""White""]","No","Female","2146497","null","null","learn_feedback","","","learn_feedback","22.0121","74.1932","in","","","","","","","","","","","","","","","","","","","","","","",""
"","","","","","canvas-keyboard-response","41","252426","0.0-12.0-4.5","2d_cat_multi_stim_exp1","2022-5-3","15:24:38","25","75","3","9","10","40","30","120","82","22","[""White""]","No","Female","2146497","null","null","","","","clear_screen","","","","","","","","","","","","","","","","","","","","","","","","","",""
"","","","","","canvas-keyboard-response","42","252933","0.0-12.0-0.6","2d_cat_multi_stim_exp1","2022-5-3","15:24:38","25","75","3","9","10","40","30","120","82","22","[""White""]","No","Female","2146497","null","null","","","","fixation","","","","","","","","","","","","","","","","","","","","","","","","","",""
"","","","","","canvas-keyboard-response","43","253444","0.0-12.0-1.6","2d_cat_multi_stim_exp1","2022-5-3","15:24:38","25","75","3","9","10","40","30","120","82","22","[""White""]","No","Female","2146497","null","null","","","","clear_screen","","","","","","","","","","","","","","","","","","","","","","","","","",""
"","","","","","canvas-keyboard-response","44","254582","0.0-12.0-2.6","2d_cat_multi_stim_exp1","2022-5-3","15:24:38","25","75","3","9","10","40","30","120","82","22","[""White""]","No","Female","2146497","1130","u","learn","","","learn_trial","25","75","in","1","1","","","","","","","","","","","","","","","","","","","","",""
"","","","","","canvas-keyboard-response","45","255092","0.0-12.0-3.6","2d_cat_multi_stim_exp1","2022-5-3","15:24:38","25","75","3","9","10","40","30","120","82","22","[""White""]","No","Female","2146497","null","null","learn_feedback","","","learn_feedback","25","75","in","","","","","","","","","","","","","","","","","","","","","","",""
"","","","","","canvas-keyboard-response","46","255150","0.0-12.0-4.6","2d_cat_multi_stim_exp1","2022-5-3","15:24:38","25","75","3","9","10","40","30","120","82","22","[""White""]","No","Female","2146497","null","null","","","","clear_screen","","","","","","","","","","","","","","","","","","","","","","","","","",""
"","","","","","canvas-keyboard-response","47","255658","0.0-12.0-0.7","2d_cat_multi_stim_exp1","2022-5-3","15:24:38","25","75","3","9","10","40","30","120","82","22","[""White""]","No","Female","2146497","null","null","","","","fixation","","","","","","","","","","","","","","","","","","","","","","","","","",""
"","","","","","canvas-keyboard-response","48","256163","0.0-12.0-1.7","2d_cat_multi_stim_exp1","2022-5-3","15:24:38","25","75","3","9","10","40","30","120","82","22","[""White""]","No","Female","2146497","null","null","","","","clear_screen","","","","","","","","","","","","","","","","","","","","","","","","","",""
"","","","","","canvas-keyboard-response","49","257141","0.0-12.0-2.7","2d_cat_multi_stim_exp1","2022-5-3","15:24:38","25","75","3","9","10","40","30","120","82","22","[""White""]","No","Female","2146497","970","i","learn","","","learn_trial","36.6667","100","out","0","1","","","","","","","","","","","","","","","","","","","","",""
"","","","","","canvas-keyboard-response","50","257650","0.0-12.0-3.7","2d_cat_multi_stim_exp1","2022-5-3","15:24:38","25","75","3","9","10","40","30","120","82","22","[""White""]","No","Female","2146497","null","null","learn_feedback","","","learn_feedback","36.6667","100","out","","","","","","","","","","","","","","","","","","","","","","",""
"","","","","","canvas-keyboard-response","51","257709","0.0-12.0-4.7","2d_cat_multi_stim_exp1","2022-5-3","15:24:38","25","75","3","9","10","40","30","120","82","22","[""White""]","No","Female","2146497","null","null","","","","clear_screen","","","","","","","","","","","","","","","","","","","","","","","","","",""
"","","","","","canvas-keyboard-response","52","258218","0.0-12.0-0.8","2d_cat_multi_stim_exp1","2022-5-3","15:24:38","25","75","3","9","10","40","30","120","82","22","[""White""]","No","Female","2146497","null","null","","","","fixation","","","","","","","","","","","","","","","","","","","","","","","","","",""
"","","","","","canvas-keyboard-response","53","258729","0.0-12.0-1.8","2d_cat_multi_stim_exp1","2022-5-3","15:24:38","25","75","3","9","10","40","30","120","82","22","[""White""]","No","Female","2146497","null","null","","","","clear_screen","","","","","","","","","","","","","","","","","","","","","","","","","",""
"","","","","","canvas-keyboard-response","54","262030","0.0-12.0-2.8","2d_cat_multi_stim_exp1","2022-5-3","15:24:38","25","75","3","9","10","40","30","120","82","22","[""White""]","No","Female","2146497","3296","i","learn","","","learn_trial","20","60","out","0","1","","","","","","","","","","","","","","","","","","","","",""
"","","","","","canvas-keyboard-response","55","262539","0.0-12.0-3.8","2d_cat_multi_stim_exp1","2022-5-3","15:24:38","25","75","3","9","10","40","30","120","82","22","[""White""]","No","Female","2146497","null","null","learn_feedback","","","learn_feedback","20","60","out","","","","","","","","","","","","","","","","","","","","","","",""
"","","","","","canvas-keyboard-response","56","262599","0.0-12.0-4.8","2d_cat_multi_stim_exp1","2022-5-3","15:24:38","25","75","3","9","10","40","30","120","82","22","[""White""]","No","Female","2146497","null","null","","","","clear_screen","","","","","","","","","","","","","","","","","","","","","","","","","",""
"","","","","","canvas-keyboard-response","57","263107","0.0-12.0-0.9","2d_cat_multi_stim_exp1","2022-5-3","15:24:38","25","75","3","9","10","40","30","120","82","22","[""White""]","No","Female","2146497","null","null","","","","fixation","","","","","","","","","","","","","","","","","","","","","","","","","",""
"","","","","","canvas-keyboard-response","58","263618","0.0-12.0-1.9","2d_cat_multi_stim_exp1","2022-5-3","15:24:38","25","75","3","9","10","40","30","120","82","22","[""White""]","No","Female","2146497","null","null","","","","clear_screen","","","","","","","","","","","","","","","","","","","","","","","","","",""
"","","","","","canvas-keyboard-response","59","265213","0.0-12.0-2.9","2d_cat_multi_stim_exp1","2022-5-3","15:24:38","25","75","3","9","10","40","30","120","82","22","[""White""]","No","Female","2146497","1588","i","learn","","","learn_trial","26.6667","120","out","0","1","","","","","","","","","","","","","","","","","","","","",""
"","","","","","canvas-keyboard-response","60","265724","0.0-12.0-3.9","2d_cat_multi_stim_exp1","2022-5-3","15:24:38","25","75","3","9","10","40","30","120","82","22","[""White""]","No","Female","2146497","null","null","learn_feedback","","","learn_feedback","26.6667","120","out","","","","","","","","","","","","","","","","","","","","","","",""
"","","","","","canvas-keyboard-response","61","265783","0.0-12.0-4.9","2d_cat_multi_stim_exp1","2022-5-3","15:24:38","25","75","3","9","10","40","30","120","82","22","[""White""]","No","Female","2146497","null","null","","","","clear_screen","","","","","","","","","","","","","","","","","","","","","","","","","",""
"","","","","","canvas-keyboard-response","62","266292","0.0-12.0-0.10","2d_cat_multi_stim_exp1","2022-5-3","15:24:38","25","75","3","9","10","40","30","120","82","22","[""White""]","No","Female","2146497","null","null","","","","fixation","","","","","","","","","","","","","","","","","","","","","","","","","",""
"","","","","","canvas-keyboard-response","63","266802","0.0-12.0-1.10","2d_cat_multi_stim_exp1","2022-5-3","15:24:38","25","75","3","9","10","40","30","120","82","22","[""White""]","No","Female","2146497","null","null","","","","clear_screen","","","","","","","","","","","","","","","","","","","","","","","","","",""
"","","","","","canvas-keyboard-response","64","270143","0.0-12.0-2.10","2d_cat_multi_stim_exp1","2022-5-3","15:24:38","25","75","3","9","10","40","30","120","82","22","[""White""]","No","Female","2146497","3326","i","learn","","","learn_trial","25","93","in","0","0","","","","","","","","","","","","","","","","","","","","",""
"","","","","","canvas-keyboard-response","65","271152","0.0-12.0-3.10","2d_cat_multi_stim_exp1","2022-5-3","15:24:38","25","75","3","9","10","40","30","120","82","22","[""White""]","No","Female","2146497","null","null","learn_feedback","","","learn_feedback","25","93","in","","","","","","","","","","","","","","","","","","","","","","",""
"","","","","","canvas-keyboard-response","66","271212","0.0-12.0-4.10","2d_cat_multi_stim_exp1","2022-5-3","15:24:38","25","75","3","9","10","40","30","120","82","22","[""White""]","No","Female","2146497","null","null","","","","clear_screen","","","","","","","","","","","","","","","","","","","","","","","","","",""
"","","","","","canvas-keyboard-response","67","271721","0.0-12.0-0.11","2d_cat_multi_stim_exp1","2022-5-3","15:24:38","25","75","3","9","10","40","30","120","82","22","[""White""]","No","Female","2146497","null","null","","","","fixation","","","","","","","","","","","","","","","","","","","","","","","","","",""
"","","","","","canvas-keyboard-response","68","272232","0.0-12.0-1.11","2d_cat_multi_stim_exp1","2022-5-3","15:24:38","25","75","3","9","10","40","30","120","82","22","[""White""]","No","Female","2146497","null","null","","","","clear_screen","","","","","","","","","","","","","","","","","","","","","","","","","",""
"","","","","","canvas-keyboard-response","69","273909","0.0-12.0-2.11","2d_cat_multi_stim_exp1","2022-5-3","15:24:38","25","75","3","9","10","40","30","120","82","22","[""White""]","No","Female","2146497","1667","i","learn","","","learn_trial","40","100","out","0","1","","","","","","","","","","","","","","","","","","","","",""
"","","","","","canvas-keyboard-response","70","274423","0.0-12.0-3.11","2d_cat_multi_stim_exp1","2022-5-3","15:24:38","25","75","3","9","10","40","30","120","82","22","[""White""]","No","Female","2146497","null","null","learn_feedback","","","learn_feedback","40","100","out","","","","","","","","","","","","","","","","","","","","","","",""
"","","","","","canvas-keyboard-response","71","274480","0.0-12.0-4.11","2d_cat_multi_stim_exp1","2022-5-3","15:24:38","25","75","3","9","10","40","30","120","82","22","[""White""]","No","Female","2146497","null","null","","","","clear_screen","","","","","","","","","","","","","","","","","","","","","","","","","",""
"","","","","","canvas-keyboard-response","72","274988","0.0-12.0-0.12","2d_cat_multi_stim_exp1","2022-5-3","15:24:38","25","75","3","9","10","40","30","120","82","22","[""White""]","No","Female","2146497","null","null","","","","fixation","","","","","","","","","","","","","","","","","","","","","","","","","",""
"","","","","","canvas-keyboard-response","73","275498","0.0-12.0-1.12","2d_cat_multi_stim_exp1","2022-5-3","15:24:38","25","75","3","9","10","40","30","120","82","22","[""White""]","No","Female","2146497","null","null","","","","clear_screen","","","","","","","","","","","","","","","","","","","","","","","","","",""
"","","","","","canvas-keyboard-response","74","276941","0.0-12.0-2.12","2d_cat_multi_stim_exp1","2022-5-3","15:24:38","25","75","3","9","10","40","30","120","82","22","[""White""]","No","Female","2146497","1431","u","learn","","","learn_trial","25","75","in","1","1","","","","","","","","","","","","","","","","","","","","",""
"","","","","","canvas-keyboard-response","75","277448","0.0-12.0-3.12","2d_cat_multi_stim_exp1","2022-5-3","15:24:38","25","75","3","9","10","40","30","120","82","22","[""White""]","No","Female","2146497","null","null","learn_feedback","","","learn_feedback","25","75","in","","","","","","","","","","","","","","","","","","","","","","",""
"","","","","","canvas-keyboard-response","76","277507","0.0-12.0-4.12","2d_cat_multi_stim_exp1","2022-5-3","15:24:38","25","75","3","9","10","40","30","120","82","22","[""White""]","No","Female","2146497","null","null","","","","clear_screen","","","","","","","","","","","","","","","","","","","","","","","","","",""
"","","","","","canvas-keyboard-response","77","278015","0.0-12.0-0.13","2d_cat_multi_stim_exp1","2022-5-3","15:24:38","25","75","3","9","10","40","30","120","82","22","[""White""]","No","Female","2146497","null","null","","","","fixation","","","","","","","","","","","","","","","","","","","","","","","","","",""
"","","","","","canvas-keyboard-response","78","278526","0.0-12.0-1.13","2d_cat_multi_stim_exp1","2022-5-3","15:24:38","25","75","3","9","10","40","30","120","82","22","[""White""]","No","Female","2146497","null","null","","","","clear_screen","","","","","","","","","","","","","","","","","","","","","","","","","",""
"","","","","","canvas-keyboard-response","79","280620","0.0-12.0-2.13","2d_cat_multi_stim_exp1","2022-5-3","15:24:38","25","75","3","9","10","40","30","120","82","22","[""White""]","No","Female","2146497","2087","u","learn","","","learn_trial","36.6667","80","out","1","0","","","","","","","","","","","","","","","","","","","","",""
"","","","","","canvas-keyboard-response","80","281633","0.0-12.0-3.13","2d_cat_multi_stim_exp1","2022-5-3","15:24:38","25","75","3","9","10","40","30","120","82","22","[""White""]","No","Female","2146497","null","null","learn_feedback","","","learn_feedback","36.6667","80","out","","","","","","","","","","","","","","","","","","","","","","",""
"","","","","","canvas-keyboard-response","81","281694","0.0-12.0-4.13","2d_cat_multi_stim_exp1","2022-5-3","15:24:38","25","75","3","9","10","40","30","120","82","22","[""White""]","No","Female","2146497","null","null","","","","clear_screen","","","","","","","","","","","","","","","","","","","","","","","","","",""
"","","","","","canvas-keyboard-response","82","282203","0.0-12.0-0.14","2d_cat_multi_stim_exp1","2022-5-3","15:24:38","25","75","3","9","10","40","30","120","82","22","[""White""]","No","Female","2146497","null","null","","","","fixation","","","","","","","","","","","","","","","","","","","","","","","","","",""
"","","","","","canvas-keyboard-response","83","282712","0.0-12.0-1.14","2d_cat_multi_stim_exp1","2022-5-3","15:24:38","25","75","3","9","10","40","30","120","82","22","[""White""]","No","Female","2146497","null","null","","","","clear_screen","","","","","","","","","","","","","","","","","","","","","","","","","",""
"","","","","","canvas-keyboard-response","84","285813","0.0-12.0-2.14","2d_cat_multi_stim_exp1","2022-5-3","15:24:38","25","75","3","9","10","40","30","120","82","22","[""White""]","No","Female","2146497","3090","i","learn","","","learn_trial","30","40","out","0","1","","","","","","","","","","","","","","","","","","","","",""
"","","","","","canvas-keyboard-response","85","286323","0.0-12.0-3.14","2d_cat_multi_stim_exp1","2022-5-3","15:24:38","25","75","3","9","10","40","30","120","82","22","[""White""]","No","Female","2146497","null","null","learn_feedback","","","learn_feedback","30","40","out","","","","","","","","","","","","","","","","","","","","","","",""
"","","","","","canvas-keyboard-response","86","286382","0.0-12.0-4.14","2d_cat_multi_stim_exp1","2022-5-3","15:24:38","25","75","3","9","10","40","30","120","82","22","[""White""]","No","Female","2146497","null","null","","","","clear_screen","","","","","","","","","","","","","","","","","","","","","","","","","",""
"","","","","","canvas-keyboard-response","87","286892","0.0-12.0-0.15","2d_cat_multi_stim_exp1","2022-5-3","15:24:38","25","75","3","9","10","40","30","120","82","22","[""White""]","No","Female","2146497","null","null","","","","fixation","","","","","","","","","","","","","","","","","","","","","","","","","",""
"","","","","","canvas-keyboard-response","88","287402","0.0-12.0-1.15","2d_cat_multi_stim_exp1","2022-5-3","15:24:38","25","75","3","9","10","40","30","120","82","22","[""White""]","No","Female","2146497","null","null","","","","clear_screen","","","","","","","","","","","","","","","","","","","","","","","","","",""
"","","","","","canvas-keyboard-response","89","289445","0.0-12.0-2.15","2d_cat_multi_stim_exp1","2022-5-3","15:24:38","25","75","3","9","10","40","30","120","82","22","[""White""]","No","Female","2146497","2033","i","learn","","","learn_trial","27.2592","80.9214","in","0","0","","","","","","","","","","","","","","","","","","","","",""
"","","","","","canvas-keyboard-response","90","290455","0.0-12.0-3.15","2d_cat_multi_stim_exp1","2022-5-3","15:24:38","25","75","3","9","10","40","30","120","82","22","[""White""]","No","Female","2146497","null","null","learn_feedback","","","learn_feedback","27.2592","80.9214","in","","","","","","","","","","","","","","","","","","","","","","",""
"","","","","","canvas-keyboard-response","91","290517","0.0-12.0-4.15","2d_cat_multi_stim_exp1","2022-5-3","15:24:38","25","75","3","9","10","40","30","120","82","22","[""White""]","No","Female","2146497","null","null","","","","clear_screen","","","","","","","","","","","","","","","","","","","","","","","","","",""
"","","","","","canvas-keyboard-response","92","291027","0.0-12.0-0.16","2d_cat_multi_stim_exp1","2022-5-3","15:24:38","25","75","3","9","10","40","30","120","82","22","[""White""]","No","Female","2146497","null","null","","","","fixation","","","","","","","","","","","","","","","","","","","","","","","","","",""
"","","","","","canvas-keyboard-response","93","291538","0.0-12.0-1.16","2d_cat_multi_stim_exp1","2022-5-3","15:24:38","25","75","3","9","10","40","30","120","82","22","[""White""]","No","Female","2146497","null","null","","","","clear_screen","","","","","","","","","","","","","","","","","","","","","","","","","",""
"","","","","","canvas-keyboard-response","94","292901","0.0-12.0-2.16","2d_cat_multi_stim_exp1","2022-5-3","15:24:38","25","75","3","9","10","40","30","120","82","22","[""White""]","No","Female","2146497","1353","u","learn","","","learn_trial","27.9518","73.393","in","1","1","","","","","","","","","","","","","","","","","","","","",""
"","","","","","canvas-keyboard-response","95","293409","0.0-12.0-3.16","2d_cat_multi_stim_exp1","2022-5-3","15:24:38","25","75","3","9","10","40","30","120","82","22","[""White""]","No","Female","2146497","null","null","learn_feedback","","","learn_feedback","27.9518","73.393","in","","","","","","","","","","","","","","","","","","","","","","",""
"","","","","","canvas-keyboard-response","96","293469","0.0-12.0-4.16","2d_cat_multi_stim_exp1","2022-5-3","15:24:38","25","75","3","9","10","40","30","120","82","22","[""White""]","No","Female","2146497","null","null","","","","clear_screen","","","","","","","","","","","","","","","","","","","","","","","","","",""
"","","","","","canvas-keyboard-response","97","293979","0.0-12.0-0.17","2d_cat_multi_stim_exp1","2022-5-3","15:24:38","25","75","3","9","10","40","30","120","82","22","[""White""]","No","Female","2146497","null","null","","","","fixation","","","","","","","","","","","","","","","","","","","","","","","","","",""
"","","","","","canvas-keyboard-response","98","294489","0.0-12.0-1.17","2d_cat_multi_stim_exp1","2022-5-3","15:24:38","25","75","3","9","10","40","30","120","82","22","[""White""]","No","Female","2146497","null","null","","","","clear_screen","","","","","","","","","","","","","","","","","","","","","","","","","",""
"","","","","","canvas-keyboard-response","99","301766","0.0-12.0-2.17","2d_cat_multi_stim_exp1","2022-5-3","15:24:38","25","75","3","9","10","40","30","120","82","22","[""White""]","No","Female","2146497","7266","i","learn","","","learn_trial","40","120","out","0","1","","","","","","","","","","","","","","","","","","","","",""
"","","","","","canvas-keyboard-response","100","302279","0.0-12.0-3.17","2d_cat_multi_stim_exp1","2022-5-3","15:24:38","25","75","3","9","10","40","30","120","82","22","[""White""]","No","Female","2146497","null","null","learn_feedback","","","learn_feedback","40","120","out","","","","","","","","","","","","","","","","","","","","","","",""
"","","","","","canvas-keyboard-response","101","302338","0.0-12.0-4.17","2d_cat_multi_stim_exp1","2022-5-3","15:24:38","25","75","3","9","10","40","30","120","82","22","[""White""]","No","Female","2146497","null","null","","","","clear_screen","","","","","","","","","","","","","","","","","","","","","","","","","",""
"","","","","","canvas-keyboard-response","102","302849","0.0-12.0-0.18","2d_cat_multi_stim_exp1","2022-5-3","15:24:38","25","75","3","9","10","40","30","120","82","22","[""White""]","No","Female","2146497","null","null","","","","fixation","","","","","","","","","","","","","","","","","","","","","","","","","",""
"","","","","","canvas-keyboard-response","103","303364","0.0-12.0-1.18","2d_cat_multi_stim_exp1","2022-5-3","15:24:38","25","75","3","9","10","40","30","120","82","22","[""White""]","No","Female","2146497","null","null","","","","clear_screen","","","","","","","","","","","","","","","","","","","","","","","","","",""
"","","","","","canvas-keyboard-response","104","305158","0.0-12.0-2.18","2d_cat_multi_stim_exp1","2022-5-3","15:24:38","25","75","3","9","10","40","30","120","82","22","[""White""]","No","Female","2146497","1781","i","learn","","","learn_trial","16.6667","80","out","0","1","","","","","","","","","","","","","","","","","","","","",""
"","","","","","canvas-keyboard-response","105","305670","0.0-12.0-3.18","2d_cat_multi_stim_exp1","2022-5-3","15:24:38","25","75","3","9","10","40","30","120","82","22","[""White""]","No","Female","2146497","null","null","learn_feedback","","","learn_feedback","16.6667","80","out","","","","","","","","","","","","","","","","","","","","","","",""
"","","","","","canvas-keyboard-response","106","305729","0.0-12.0-4.18","2d_cat_multi_stim_exp1","2022-5-3","15:24:38","25","75","3","9","10","40","30","120","82","22","[""White""]","No","Female","2146497","null","null","","","","clear_screen","","","","","","","","","","","","","","","","","","","","","","","","","",""
"","","","","","canvas-keyboard-response","107","306240","0.0-12.0-0.19","2d_cat_multi_stim_exp1","2022-5-3","15:24:38","25","75","3","9","10","40","30","120","82","22","[""White""]","No","Female","2146497","null","null","","","","fixation","","","","","","","","","","","","","","","","","","","","","","","","","",""
"","","","","","canvas-keyboard-response","108","306753","0.0-12.0-1.19","2d_cat_multi_stim_exp1","2022-5-3","15:24:38","25","75","3","9","10","40","30","120","82","22","[""White""]","No","Female","2146497","null","null","","","","clear_screen","","","","","","","","","","","","","","","","","","","","","","","","","",""
"","","","","","canvas-keyboard-response","109","308093","0.0-12.0-2.19","2d_cat_multi_stim_exp1","2022-5-3","15:24:38","25","75","3","9","10","40","30","120","82","22","[""White""]","No","Female","2146497","1332","i","learn","","","learn_trial","25","75","in","0","0","","","","","","","","","","","","","","","","","","","","",""
"","","","","","canvas-keyboard-response","110","309106","0.0-12.0-3.19","2d_cat_multi_stim_exp1","2022-5-3","15:24:38","25","75","3","9","10","40","30","120","82","22","[""White""]","No","Female","2146497","null","null","learn_feedback","","","learn_feedback","25","75","in","","","","","","","","","","","","","","","","","","","","","","",""
"","","","","","canvas-keyboard-response","111","309164","0.0-12.0-4.19","2d_cat_multi_stim_exp1","2022-5-3","15:24:38","25","75","3","9","10","40","30","120","82","22","[""White""]","No","Female","2146497","null","null","","","","clear_screen","","","","","","","","","","","","","","","","","","","","","","","","","",""
"","","","","","canvas-keyboard-response","112","309675","0.0-12.0-0.20","2d_cat_multi_stim_exp1","2022-5-3","15:24:38","25","75","3","9","10","40","30","120","82","22","[""White""]","No","Female","2146497","null","null","","","","fixation","","","","","","","","","","","","","","","","","","","","","","","","","",""
"","","","","","canvas-keyboard-response","113","310188","0.0-12.0-1.20","2d_cat_multi_stim_exp1","2022-5-3","15:24:38","25","75","3","9","10","40","30","120","82","22","[""White""]","No","Female","2146497","null","null","","","","clear_screen","","","","","","","","","","","","","","","","","","","","","","","","","",""
"","","","","","canvas-keyboard-response","114","312749","0.0-12.0-2.20","2d_cat_multi_stim_exp1","2022-5-3","15:24:38","25","75","3","9","10","40","30","120","82","22","[""White""]","No","Female","2146497","2551","u","learn","","","learn_trial","30","90","out","1","0","","","","","","","","","","","","","","","","","","","","",""
"","","","","","canvas-keyboard-response","115","313763","0.0-12.0-3.20","2d_cat_multi_stim_exp1","2022-5-3","15:24:38","25","75","3","9","10","40","30","120","82","22","[""White""]","No","Female","2146497","null","null","learn_feedback","","","learn_feedback","30","90","out","","","","","","","","","","","","","","","","","","","","","","",""
"","","","","","canvas-keyboard-response","116","313825","0.0-12.0-4.20","2d_cat_multi_stim_exp1","2022-5-3","15:24:38","25","75","3","9","10","40","30","120","82","22","[""White""]","No","Female","2146497","null","null","","","","clear_screen","","","","","","","","","","","","","","","","","","","","","","","","","",""
"","","","","","canvas-keyboard-response","117","314335","0.0-12.0-0.21","2d_cat_multi_stim_exp1","2022-5-3","15:24:38","25","75","3","9","10","40","30","120","82","22","[""White""]","No","Female","2146497","null","null","","","","fixation","","","","","","","","","","","","","","","","","","","","","","","","","",""
"","","","","","canvas-keyboard-response","118","314845","0.0-12.0-1.21","2d_cat_multi_stim_exp1","2022-5-3","15:24:38","25","75","3","9","10","40","30","120","82","22","[""White""]","No","Female","2146497","null","null","","","","clear_screen","","","","","","","","","","","","","","","","","","","","","","","","","",""
"","","","","","canvas-keyboard-response","119","316741","0.0-12.0-2.21","2d_cat_multi_stim_exp1","2022-5-3","15:24:38","25","75","3","9","10","40","30","120","82","22","[""White""]","No","Female","2146497","1885","i","learn","","","learn_trial","27.5753","70.3839","in","0","0","","","","","","","","","","","","","","","","","","","","",""
"","","","","","canvas-keyboard-response","120","317752","0.0-12.0-3.21","2d_cat_multi_stim_exp1","2022-5-3","15:24:38","25","75","3","9","10","40","30","120","82","22","[""White""]","No","Female","2146497","null","null","learn_feedback","","","learn_feedback","27.5753","70.3839","in","","","","","","","","","","","","","","","","","","","","","","",""
"","","","","","canvas-keyboard-response","121","317813","0.0-12.0-4.21","2d_cat_multi_stim_exp1","2022-5-3","15:24:38","25","75","3","9","10","40","30","120","82","22","[""White""]","No","Female","2146497","null","null","","","","clear_screen","","","","","","","","","","","","","","","","","","","","","","","","","",""
"","","","","","canvas-keyboard-response","122","318319","0.0-12.0-0.22","2d_cat_multi_stim_exp1","2022-5-3","15:24:38","25","75","3","9","10","40","30","120","82","22","[""White""]","No","Female","2146497","null","null","","","","fixation","","","","","","","","","","","","","","","","","","","","","","","","","",""
"","","","","","canvas-keyboard-response","123","318829","0.0-12.0-1.22","2d_cat_multi_stim_exp1","2022-5-3","15:24:38","25","75","3","9","10","40","30","120","82","22","[""White""]","No","Female","2146497","null","null","","","","clear_screen","","","","","","","","","","","","","","","","","","","","","","","","","",""
"","","","","","canvas-keyboard-response","124","323517","0.0-12.0-2.22","2d_cat_multi_stim_exp1","2022-5-3","15:24:38","25","75","3","9","10","40","30","120","82","22","[""White""]","No","Female","2146497","4678","i","learn","","","learn_trial","33.3333","90","out","0","1","","","","","","","","","","","","","","","","","","","","",""
"","","","","","canvas-keyboard-response","125","324027","0.0-12.0-3.22","2d_cat_multi_stim_exp1","2022-5-3","15:24:38","25","75","3","9","10","40","30","120","82","22","[""White""]","No","Female","2146497","null","null","learn_feedback","","","learn_feedback","33.3333","90","out","","","","","","","","","","","","","","","","","","","","","","",""
"","","","","","canvas-keyboard-response","126","324088","0.0-12.0-4.22","2d_cat_multi_stim_exp1","2022-5-3","15:24:38","25","75","3","9","10","40","30","120","82","22","[""White""]","No","Female","2146497","null","null","","","","clear_screen","","","","","","","","","","","","","","","","","","","","","","","","","",""
"","","","","","canvas-keyboard-response","127","324597","0.0-12.0-0.23","2d_cat_multi_stim_exp1","2022-5-3","15:24:38","25","75","3","9","10","40","30","120","82","22","[""White""]","No","Female","2146497","null","null","","","","fixation","","","","","","","","","","","","","","","","","","","","","","","","","",""
"","","","","","canvas-keyboard-response","128","325107","0.0-12.0-1.23","2d_cat_multi_stim_exp1","2022-5-3","15:24:38","25","75","3","9","10","40","30","120","82","22","[""White""]","No","Female","2146497","null","null","","","","clear_screen","","","","","","","","","","","","","","","","","","","","","","","","","",""
"","","","","","canvas-keyboard-response","129","326756","0.0-12.0-2.23","2d_cat_multi_stim_exp1","2022-5-3","15:24:38","25","75","3","9","10","40","30","120","82","22","[""White""]","No","Female","2146497","1642","u","learn","","","learn_trial","25","75","in","1","1","","","","","","","","","","","","","","","","","","","","",""
"","","","","","canvas-keyboard-response","130","327264","0.0-12.0-3.23","2d_cat_multi_stim_exp1","2022-5-3","15:24:38","25","75","3","9","10","40","30","120","82","22","[""White""]","No","Female","2146497","null","null","learn_feedback","","","learn_feedback","25","75","in","","","","","","","","","","","","","","","","","","","","","","",""
"","","","","","canvas-keyboard-response","131","327320","0.0-12.0-4.23","2d_cat_multi_stim_exp1","2022-5-3","15:24:38","25","75","3","9","10","40","30","120","82","22","[""White""]","No","Female","2146497","null","null","","","","clear_screen","","","","","","","","","","","","","","","","","","","","","","","","","",""
"","","","","","canvas-keyboard-response","132","327829","0.0-12.0-0.24","2d_cat_multi_stim_exp1","2022-5-3","15:24:38","25","75","3","9","10","40","30","120","82","22","[""White""]","No","Female","2146497","null","null","","","","fixation","","","","","","","","","","","","","","","","","","","","","","","","","",""
"","","","","","canvas-keyboard-response","133","328338","0.0-12.0-1.24","2d_cat_multi_stim_exp1","2022-5-3","15:24:38","25","75","3","9","10","40","30","120","82","22","[""White""]","No","Female","2146497","null","null","","","","clear_screen","","","","","","","","","","","","","","","","","","","","","","","","","",""
"","","","","","canvas-keyboard-response","134","329733","0.0-12.0-2.24","2d_cat_multi_stim_exp1","2022-5-3","15:24:38","25","75","3","9","10","40","30","120","82","22","[""White""]","No","Female","2146497","1383","u","learn","","","learn_trial","27.2592","69.0786","in","1","1","","","","","","","","","","","","","","","","","","","","",""
"","","","","","canvas-keyboard-response","135","330244","0.0-12.0-3.24","2d_cat_multi_stim_exp1","2022-5-3","15:24:38","25","75","3","9","10","40","30","120","82","22","[""White""]","No","Female","2146497","null","null","learn_feedback","","","learn_feedback","27.2592","69.0786","in","","","","","","","","","","","","","","","","","","","","","","",""
"","","","","","canvas-keyboard-response","136","330303","0.0-12.0-4.24","2d_cat_multi_stim_exp1","2022-5-3","15:24:38","25","75","3","9","10","40","30","120","82","22","[""White""]","No","Female","2146497","null","null","","","","clear_screen","","","","","","","","","","","","","","","","","","","","","","","","","",""
"","","","","","canvas-keyboard-response","137","330814","0.0-12.0-0.25","2d_cat_multi_stim_exp1","2022-5-3","15:24:38","25","75","3","9","10","40","30","120","82","22","[""White""]","No","Female","2146497","null","null","","","","fixation","","","","","","","","","","","","","","","","","","","","","","","","","",""
"","","","","","canvas-keyboard-response","138","331323","0.0-12.0-1.25","2d_cat_multi_stim_exp1","2022-5-3","15:24:38","25","75","3","9","10","40","30","120","82","22","[""White""]","No","Female","2146497","null","null","","","","clear_screen","","","","","","","","","","","","","","","","","","","","","","","","","",""
"","","","","","canvas-keyboard-response","139","332478","0.0-12.0-2.25","2d_cat_multi_stim_exp1","2022-5-3","15:24:38","25","75","3","9","10","40","30","120","82","22","[""White""]","No","Female","2146497","1145","u","learn","","","learn_trial","25","75","in","1","1","","","","","","","","","","","","","","","","","","","","",""
"","","","","","canvas-keyboard-response","140","332990","0.0-12.0-3.25","2d_cat_multi_stim_exp1","2022-5-3","15:24:38","25","75","3","9","10","40","30","120","82","22","[""White""]","No","Female","2146497","null","null","learn_feedback","","","learn_feedback","25","75","in","","","","","","","","","","","","","","","","","","","","","","",""
"","","","","","canvas-keyboard-response","141","333050","0.0-12.0-4.25","2d_cat_multi_stim_exp1","2022-5-3","15:24:38","25","75","3","9","10","40","30","120","82","22","[""White""]","No","Female","2146497","null","null","","","","clear_screen","","","","","","","","","","","","","","","","","","","","","","","","","",""
"","","","","","canvas-keyboard-response","142","333560","0.0-12.0-0.26","2d_cat_multi_stim_exp1","2022-5-3","15:24:38","25","75","3","9","10","40","30","120","82","22","[""White""]","No","Female","2146497","null","null","","","","fixation","","","","","","","","","","","","","","","","","","","","","","","","","",""
"","","","","","canvas-keyboard-response","143","334075","0.0-12.0-1.26","2d_cat_multi_stim_exp1","2022-5-3","15:24:38","25","75","3","9","10","40","30","120","82","22","[""White""]","No","Female","2146497","null","null","","","","clear_screen","","","","","","","","","","","","","","","","","","","","","","","","","",""
"","","","","","canvas-keyboard-response","144","334957","0.0-12.0-2.26","2d_cat_multi_stim_exp1","2022-5-3","15:24:38","25","75","3","9","10","40","30","120","82","22","[""White""]","No","Female","2146497","872","i","learn","","","learn_trial","20","110","out","0","1","","","","","","","","","","","","","","","","","","","","",""
"","","","","","canvas-keyboard-response","145","335466","0.0-12.0-3.26","2d_cat_multi_stim_exp1","2022-5-3","15:24:38","25","75","3","9","10","40","30","120","82","22","[""White""]","No","Female","2146497","null","null","learn_feedback","","","learn_feedback","20","110","out","","","","","","","","","","","","","","","","","","","","","","",""
"","","","","","canvas-keyboard-response","146","335526","0.0-12.0-4.26","2d_cat_multi_stim_exp1","2022-5-3","15:24:38","25","75","3","9","10","40","30","120","82","22","[""White""]","No","Female","2146497","null","null","","","","clear_screen","","","","","","","","","","","","","","","","","","","","","","","","","",""
"","","","","","canvas-keyboard-response","147","336034","0.0-12.0-0.27","2d_cat_multi_stim_exp1","2022-5-3","15:24:38","25","75","3","9","10","40","30","120","82","22","[""White""]","No","Female","2146497","null","null","","","","fixation","","","","","","","","","","","","","","","","","","","","","","","","","",""
"","","","","","canvas-keyboard-response","148","336545","0.0-12.0-1.27","2d_cat_multi_stim_exp1","2022-5-3","15:24:38","25","75","3","9","10","40","30","120","82","22","[""White""]","No","Female","2146497","null","null","","","","clear_screen","","","","","","","","","","","","","","","","","","","","","","","","","",""
"","","","","","canvas-keyboard-response","149","337700","0.0-12.0-2.27","2d_cat_multi_stim_exp1","2022-5-3","15:24:38","25","75","3","9","10","40","30","120","82","22","[""White""]","No","Female","2146497","1147","i","learn","","","learn_trial","40","30","out","0","1","","","","","","","","","","","","","","","","","","","","",""
"","","","","","canvas-keyboard-response","150","338210","0.0-12.0-3.27","2d_cat_multi_stim_exp1","2022-5-3","15:24:38","25","75","3","9","10","40","30","120","82","22","[""White""]","No","Female","2146497","null","null","learn_feedback","","","learn_feedback","40","30","out","","","","","","","","","","","","","","","","","","","","","","",""
"","","","","","canvas-keyboard-response","151","338273","0.0-12.0-4.27","2d_cat_multi_stim_exp1","2022-5-3","15:24:38","25","75","3","9","10","40","30","120","82","22","[""White""]","No","Female","2146497","null","null","","","","clear_screen","","","","","","","","","","","","","","","","","","","","","","","","","",""
"","","","","","canvas-keyboard-response","152","338784","0.0-12.0-0.28","2d_cat_multi_stim_exp1","2022-5-3","15:24:38","25","75","3","9","10","40","30","120","82","22","[""White""]","No","Female","2146497","null","null","","","","fixation","","","","","","","","","","","","","","","","","","","","","","","","","",""
"","","","","","canvas-keyboard-response","153","339298","0.0-12.0-1.28","2d_cat_multi_stim_exp1","2022-5-3","15:24:38","25","75","3","9","10","40","30","120","82","22","[""White""]","No","Female","2146497","null","null","","","","clear_screen","","","","","","","","","","","","","","","","","","","","","","","","","",""
"","","","","","canvas-keyboard-response","154","340580","0.0-12.0-2.28","2d_cat_multi_stim_exp1","2022-5-3","15:24:38","25","75","3","9","10","40","30","120","82","22","[""White""]","No","Female","2146497","1269","u","learn","","","learn_trial","25","75","in","1","1","","","","","","","","","","","","","","","","","","","","",""
"","","","","","canvas-keyboard-response","155","341087","0.0-12.0-3.28","2d_cat_multi_stim_exp1","2022-5-3","15:24:38","25","75","3","9","10","40","30","120","82","22","[""White""]","No","Female","2146497","null","null","learn_feedback","","","learn_feedback","25","75","in","","","","","","","","","","","","","","","","","","","","","","",""
"","","","","","canvas-keyboard-response","156","341146","0.0-12.0-4.28","2d_cat_multi_stim_exp1","2022-5-3","15:24:38","25","75","3","9","10","40","30","120","82","22","[""White""]","No","Female","2146497","null","null","","","","clear_screen","","","","","","","","","","","","","","","","","","","","","","","","","",""
"","","","","","canvas-keyboard-response","157","341657","0.0-12.0-0.29","2d_cat_multi_stim_exp1","2022-5-3","15:24:38","25","75","3","9","10","40","30","120","82","22","[""White""]","No","Female","2146497","null","null","","","","fixation","","","","","","","","","","","","","","","","","","","","","","","","","",""
"","","","","","canvas-keyboard-response","158","342169","0.0-12.0-1.29","2d_cat_multi_stim_exp1","2022-5-3","15:24:38","25","75","3","9","10","40","30","120","82","22","[""White""]","No","Female","2146497","null","null","","","","clear_screen","","","","","","","","","","","","","","","","","","","","","","","","","",""
"","","","","","canvas-keyboard-response","159","343326","0.0-12.0-2.29","2d_cat_multi_stim_exp1","2022-5-3","15:24:38","25","75","3","9","10","40","30","120","82","22","[""White""]","No","Female","2146497","1143","i","learn","","","learn_trial","22.2971","78.905","in","0","0","","","","","","","","","","","","","","","","","","","","",""
"","","","","","canvas-keyboard-response","160","344335","0.0-12.0-3.29","2d_cat_multi_stim_exp1","2022-5-3","15:24:38","25","75","3","9","10","40","30","120","82","22","[""White""]","No","Female","2146497","null","null","learn_feedback","","","learn_feedback","22.2971","78.905","in","","","","","","","","","","","","","","","","","","","","","","",""
"","","","","","canvas-keyboard-response","161","344397","0.0-12.0-4.29","2d_cat_multi_stim_exp1","2022-5-3","15:24:38","25","75","3","9","10","40","30","120","82","22","[""White""]","No","Female","2146497","null","null","","","","clear_screen","","","","","","","","","","","","","","","","","","","","","","","","","",""
"","","","","","canvas-keyboard-response","162","344907","0.0-12.0-0.30","2d_cat_multi_stim_exp1","2022-5-3","15:24:38","25","75","3","9","10","40","30","120","82","22","[""White""]","No","Female","2146497","null","null","","","","fixation","","","","","","","","","","","","","","","","","","","","","","","","","",""
"","","","","","canvas-keyboard-response","163","345420","0.0-12.0-1.30","2d_cat_multi_stim_exp1","2022-5-3","15:24:38","25","75","3","9","10","40","30","120","82","22","[""White""]","No","Female","2146497","null","null","","","","clear_screen","","","","","","","","","","","","","","","","","","","","","","","","","",""
"","","","","","canvas-keyboard-response","164","348236","0.0-12.0-2.30","2d_cat_multi_stim_exp1","2022-5-3","15:24:38","25","75","3","9","10","40","30","120","82","22","[""White""]","No","Female","2146497","2809","i","learn","","","learn_trial","20.7574","87.7279","in","0","0","","","","","","","","","","","","","","","","","","","","",""
"","","","","","canvas-keyboard-response","165","349247","0.0-12.0-3.30","2d_cat_multi_stim_exp1","2022-5-3","15:24:38","25","75","3","9","10","40","30","120","82","22","[""White""]","No","Female","2146497","null","null","learn_feedback","","","learn_feedback","20.7574","87.7279","in","","","","","","","","","","","","","","","","","","","","","","",""
"","","","","","canvas-keyboard-response","166","349304","0.0-12.0-4.30","2d_cat_multi_stim_exp1","2022-5-3","15:24:38","25","75","3","9","10","40","30","120","82","22","[""White""]","No","Female","2146497","null","null","","","","clear_screen","","","","","","","","","","","","","","","","","","","","","","","","","",""
"","","","","","canvas-keyboard-response","167","349815","0.0-12.0-0.31","2d_cat_multi_stim_exp1","2022-5-3","15:24:38","25","75","3","9","10","40","30","120","82","22","[""White""]","No","Female","2146497","null","null","","","","fixation","","","","","","","","","","","","","","","","","","","","","","","","","",""
"","","","","","canvas-keyboard-response","168","350327","0.0-12.0-1.31","2d_cat_multi_stim_exp1","2022-5-3","15:24:38","25","75","3","9","10","40","30","120","82","22","[""White""]","No","Female","2146497","null","null","","","","clear_screen","","","","","","","","","","","","","","","","","","","","","","","","","",""
"","","","","","canvas-keyboard-response","169","352317","0.0-12.0-2.31","2d_cat_multi_stim_exp1","2022-5-3","15:24:38","25","75","3","9","10","40","30","120","82","22","[""White""]","No","Female","2146497","1981","u","learn","","","learn_trial","30","80","out","1","0","","","","","","","","","","","","","","","","","","","","",""
"","","","","","canvas-keyboard-response","170","353327","0.0-12.0-3.31","2d_cat_multi_stim_exp1","2022-5-3","15:24:38","25","75","3","9","10","40","30","120","82","22","[""White""]","No","Female","2146497","null","null","learn_feedback","","","learn_feedback","30","80","out","","","","","","","","","","","","","","","","","","","","","","",""
"","","","","","canvas-keyboard-response","171","353386","0.0-12.0-4.31","2d_cat_multi_stim_exp1","2022-5-3","15:24:38","25","75","3","9","10","40","30","120","82","22","[""White""]","No","Female","2146497","null","null","","","","clear_screen","","","","","","","","","","","","","","","","","","","","","","","","","",""
"","","","","","canvas-keyboard-response","172","353895","0.0-12.0-0.32","2d_cat_multi_stim_exp1","2022-5-3","15:24:38","25","75","3","9","10","40","30","120","82","22","[""White""]","No","Female","2146497","null","null","","","","fixation","","","","","","","","","","","","","","","","","","","","","","","","","",""
"","","","","","canvas-keyboard-response","173","354406","0.0-12.0-1.32","2d_cat_multi_stim_exp1","2022-5-3","15:24:38","25","75","3","9","10","40","30","120","82","22","[""White""]","No","Female","2146497","null","null","","","","clear_screen","","","","","","","","","","","","","","","","","","","","","","","","","",""
"","","","","","canvas-keyboard-response","174","355317","0.0-12.0-2.32","2d_cat_multi_stim_exp1","2022-5-3","15:24:38","25","75","3","9","10","40","30","120","82","22","[""White""]","No","Female","2146497","901","i","learn","","","learn_trial","40","60","out","0","1","","","","","","","","","","","","","","","","","","","","",""
"","","","","","canvas-keyboard-response","175","355829","0.0-12.0-3.32","2d_cat_multi_stim_exp1","2022-5-3","15:24:38","25","75","3","9","10","40","30","120","82","22","[""White""]","No","Female","2146497","null","null","learn_feedback","","","learn_feedback","40","60","out","","","","","","","","","","","","","","","","","","","","","","",""
"","","","","","canvas-keyboard-response","176","355892","0.0-12.0-4.32","2d_cat_multi_stim_exp1","2022-5-3","15:24:38","25","75","3","9","10","40","30","120","82","22","[""White""]","No","Female","2146497","null","null","","","","clear_screen","","","","","","","","","","","","","","","","","","","","","","","","","",""
"","","","","","canvas-keyboard-response","177","356403","0.0-12.0-0.33","2d_cat_multi_stim_exp1","2022-5-3","15:24:38","25","75","3","9","10","40","30","120","82","22","[""White""]","No","Female","2146497","null","null","","","","fixation","","","","","","","","","","","","","","","","","","","","","","","","","",""
"","","","","","canvas-keyboard-response","178","356914","0.0-12.0-1.33","2d_cat_multi_stim_exp1","2022-5-3","15:24:38","25","75","3","9","10","40","30","120","82","22","[""White""]","No","Female","2146497","null","null","","","","clear_screen","","","","","","","","","","","","","","","","","","","","","","","","","",""
"","","","","","canvas-keyboard-response","179","359269","0.0-12.0-2.33","2d_cat_multi_stim_exp1","2022-5-3","15:24:38","25","75","3","9","10","40","30","120","82","22","[""White""]","No","Female","2146497","2347","i","learn","","","learn_trial","23.3333","90","out","0","1","","","","","","","","","","","","","","","","","","","","",""
"","","","","","canvas-keyboard-response","180","359777","0.0-12.0-3.33","2d_cat_multi_stim_exp1","2022-5-3","15:24:38","25","75","3","9","10","40","30","120","82","22","[""White""]","No","Female","2146497","null","null","learn_feedback","","","learn_feedback","23.3333","90","out","","","","","","","","","","","","","","","","","","","","","","",""
"","","","","","canvas-keyboard-response","181","359835","0.0-12.0-4.33","2d_cat_multi_stim_exp1","2022-5-3","15:24:38","25","75","3","9","10","40","30","120","82","22","[""White""]","No","Female","2146497","null","null","","","","clear_screen","","","","","","","","","","","","","","","","","","","","","","","","","",""
"","","","","","canvas-keyboard-response","182","360344","0.0-12.0-0.34","2d_cat_multi_stim_exp1","2022-5-3","15:24:38","25","75","3","9","10","40","30","120","82","22","[""White""]","No","Female","2146497","null","null","","","","fixation","","","","","","","","","","","","","","","","","","","","","","","","","",""
"","","","","","canvas-keyboard-response","183","360857","0.0-12.0-1.34","2d_cat_multi_stim_exp1","2022-5-3","15:24:38","25","75","3","9","10","40","30","120","82","22","[""White""]","No","Female","2146497","null","null","","","","clear_screen","","","","","","","","","","","","","","","","","","","","","","","","","",""
"","","","","","canvas-keyboard-response","184","362726","0.0-12.0-2.34","2d_cat_multi_stim_exp1","2022-5-3","15:24:38","25","75","3","9","10","40","30","120","82","22","[""White""]","No","Female","2146497","1859","i","learn","","","learn_trial","36.6667","30","out","0","1","","","","","","","","","","","","","","","","","","","","",""
"","","","","","canvas-keyboard-response","185","363241","0.0-12.0-3.34","2d_cat_multi_stim_exp1","2022-5-3","15:24:38","25","75","3","9","10","40","30","120","82","22","[""White""]","No","Female","2146497","null","null","learn_feedback","","","learn_feedback","36.6667","30","out","","","","","","","","","","","","","","","","","","","","","","",""
"","","","","","canvas-keyboard-response","186","363303","0.0-12.0-4.34","2d_cat_multi_stim_exp1","2022-5-3","15:24:38","25","75","3","9","10","40","30","120","82","22","[""White""]","No","Female","2146497","null","null","","","","clear_screen","","","","","","","","","","","","","","","","","","","","","","","","","",""
"","","","","","canvas-keyboard-response","187","363812","0.0-12.0-0.35","2d_cat_multi_stim_exp1","2022-5-3","15:24:38","25","75","3","9","10","40","30","120","82","22","[""White""]","No","Female","2146497","null","null","","","","fixation","","","","","","","","","","","","","","","","","","","","","","","","","",""
"","","","","","canvas-keyboard-response","188","364328","0.0-12.0-1.35","2d_cat_multi_stim_exp1","2022-5-3","15:24:38","25","75","3","9","10","40","30","120","82","22","[""White""]","No","Female","2146497","null","null","","","","clear_screen","","","","","","","","","","","","","","","","","","","","","","","","","",""
"","","","","","canvas-keyboard-response","189","367893","0.0-12.0-2.35","2d_cat_multi_stim_exp1","2022-5-3","15:24:38","25","75","3","9","10","40","30","120","82","22","[""White""]","No","Female","2146497","3557","u","learn","","","learn_trial","25","75","in","1","1","","","","","","","","","","","","","","","","","","","","",""
"","","","","","canvas-keyboard-response","190","368401","0.0-12.0-3.35","2d_cat_multi_stim_exp1","2022-5-3","15:24:38","25","75","3","9","10","40","30","120","82","22","[""White""]","No","Female","2146497","null","null","learn_feedback","","","learn_feedback","25","75","in","","","","","","","","","","","","","","","","","","","","","","",""
"","","","","","canvas-keyboard-response","191","368461","0.0-12.0-4.35","2d_cat_multi_stim_exp1","2022-5-3","15:24:38","25","75","3","9","10","40","30","120","82","22","[""White""]","No","Female","2146497","null","null","","","","clear_screen","","","","","","","","","","","","","","","","","","","","","","","","","",""
"","","","","","canvas-keyboard-response","192","368969","0.0-12.0-0.36","2d_cat_multi_stim_exp1","2022-5-3","15:24:38","25","75","3","9","10","40","30","120","82","22","[""White""]","No","Female","2146497","null","null","","","","fixation","","","","","","","","","","","","","","","","","","","","","","","","","",""
"","","","","","canvas-keyboard-response","193","369479","0.0-12.0-1.36","2d_cat_multi_stim_exp1","2022-5-3","15:24:38","25","75","3","9","10","40","30","120","82","22","[""White""]","No","Female","2146497","null","null","","","","clear_screen","","","","","","","","","","","","","","","","","","","","","","","","","",""
"","","","","","canvas-keyboard-response","194","373262","0.0-12.0-2.36","2d_cat_multi_stim_exp1","2022-5-3","15:24:38","25","75","3","9","10","40","30","120","82","22","[""White""]","No","Female","2146497","3772","i","learn","","","learn_trial","36.6667","90","out","0","1","","","","","","","","","","","","","","","","","","","","",""
"","","","","","canvas-keyboard-response","195","373771","0.0-12.0-3.36","2d_cat_multi_stim_exp1","2022-5-3","15:24:38","25","75","3","9","10","40","30","120","82","22","[""White""]","No","Female","2146497","null","null","learn_feedback","","","learn_feedback","36.6667","90","out","","","","","","","","","","","","","","","","","","","","","","",""
"","","","","","canvas-keyboard-response","196","373832","0.0-12.0-4.36","2d_cat_multi_stim_exp1","2022-5-3","15:24:38","25","75","3","9","10","40","30","120","82","22","[""White""]","No","Female","2146497","null","null","","","","clear_screen","","","","","","","","","","","","","","","","","","","","","","","","","",""
"","","","","","canvas-keyboard-response","197","374340","0.0-12.0-0.37","2d_cat_multi_stim_exp1","2022-5-3","15:24:38","25","75","3","9","10","40","30","120","82","22","[""White""]","No","Female","2146497","null","null","","","","fixation","","","","","","","","","","","","","","","","","","","","","","","","","",""
"","","","","","canvas-keyboard-response","198","374854","0.0-12.0-1.37","2d_cat_multi_stim_exp1","2022-5-3","15:24:38","25","75","3","9","10","40","30","120","82","22","[""White""]","No","Female","2146497","null","null","","","","clear_screen","","","","","","","","","","","","","","","","","","","","","","","","","",""
"","","","","","canvas-keyboard-response","199","376054","0.0-12.0-2.37","2d_cat_multi_stim_exp1","2022-5-3","15:24:38","25","75","3","9","10","40","30","120","82","22","[""White""]","No","Female","2146497","1188","i","learn","","","learn_trial","25","75","in","0","0","","","","","","","","","","","","","","","","","","","","",""
"","","","","","canvas-keyboard-response","200","377064","0.0-12.0-3.37","2d_cat_multi_stim_exp1","2022-5-3","15:24:38","25","75","3","9","10","40","30","120","82","22","[""White""]","No","Female","2146497","null","null","learn_feedback","","","learn_feedback","25","75","in","","","","","","","","","","","","","","","","","","","","","","",""
"","","","","","canvas-keyboard-response","201","377125","0.0-12.0-4.37","2d_cat_multi_stim_exp1","2022-5-3","15:24:38","25","75","3","9","10","40","30","120","82","22","[""White""]","No","Female","2146497","null","null","","","","clear_screen","","","","","","","","","","","","","","","","","","","","","","","","","",""
"","","","","","canvas-keyboard-response","202","377635","0.0-12.0-0.38","2d_cat_multi_stim_exp1","2022-5-3","15:24:38","25","75","3","9","10","40","30","120","82","22","[""White""]","No","Female","2146497","null","null","","","","fixation","","","","","","","","","","","","","","","","","","","","","","","","","",""
"","","","","","canvas-keyboard-response","203","378145","0.0-12.0-1.38","2d_cat_multi_stim_exp1","2022-5-3","15:24:38","25","75","3","9","10","40","30","120","82","22","[""White""]","No","Female","2146497","null","null","","","","clear_screen","","","","","","","","","","","","","","","","","","","","","","","","","",""
"","","","","","canvas-keyboard-response","204","379254","0.0-12.0-2.38","2d_cat_multi_stim_exp1","2022-5-3","15:24:38","25","75","3","9","10","40","30","120","82","22","[""White""]","No","Female","2146497","1099","i","learn","","","learn_trial","20.7574","62.2721","in","0","0","","","","","","","","","","","","","","","","","","","","",""
"","","","","","canvas-keyboard-response","205","380264","0.0-12.0-3.38","2d_cat_multi_stim_exp1","2022-5-3","15:24:38","25","75","3","9","10","40","30","120","82","22","[""White""]","No","Female","2146497","null","null","learn_feedback","","","learn_feedback","20.7574","62.2721","in","","","","","","","","","","","","","","","","","","","","","","",""
"","","","","","canvas-keyboard-response","206","380325","0.0-12.0-4.38","2d_cat_multi_stim_exp1","2022-5-3","15:24:38","25","75","3","9","10","40","30","120","82","22","[""White""]","No","Female","2146497","null","null","","","","clear_screen","","","","","","","","","","","","","","","","","","","","","","","","","",""
"","","","","","canvas-keyboard-response","207","380831","0.0-12.0-0.39","2d_cat_multi_stim_exp1","2022-5-3","15:24:38","25","75","3","9","10","40","30","120","82","22","[""White""]","No","Female","2146497","null","null","","","","fixation","","","","","","","","","","","","","","","","","","","","","","","","","",""
"","","","","","canvas-keyboard-response","208","381341","0.0-12.0-1.39","2d_cat_multi_stim_exp1","2022-5-3","15:24:38","25","75","3","9","10","40","30","120","82","22","[""White""]","No","Female","2146497","null","null","","","","clear_screen","","","","","","","","","","","","","","","","","","","","","","","","","",""
"","","","","","canvas-keyboard-response","209","382326","0.0-12.0-2.39","2d_cat_multi_stim_exp1","2022-5-3","15:24:38","25","75","3","9","10","40","30","120","82","22","[""White""]","No","Female","2146497","974","i","learn","","","learn_trial","23.3333","120","out","0","1","","","","","","","","","","","","","","","","","","","","",""
"","","","","","canvas-keyboard-response","210","382838","0.0-12.0-3.39","2d_cat_multi_stim_exp1","2022-5-3","15:24:38","25","75","3","9","10","40","30","120","82","22","[""White""]","No","Female","2146497","null","null","learn_feedback","","","learn_feedback","23.3333","120","out","","","","","","","","","","","","","","","","","","","","","","",""
"","","","","","canvas-keyboard-response","211","382898","0.0-12.0-4.39","2d_cat_multi_stim_exp1","2022-5-3","15:24:38","25","75","3","9","10","40","30","120","82","22","[""White""]","No","Female","2146497","null","null","","","","clear_screen","","","","","","","","","","","","","","","","","","","","","","","","","",""
"","","","","","canvas-keyboard-response","212","383404","0.0-12.0-0.40","2d_cat_multi_stim_exp1","2022-5-3","15:24:38","25","75","3","9","10","40","30","120","82","22","[""White""]","No","Female","2146497","null","null","","","","fixation","","","","","","","","","","","","","","","","","","","","","","","","","",""
"","","","","","canvas-keyboard-response","213","383914","0.0-12.0-1.40","2d_cat_multi_stim_exp1","2022-5-3","15:24:38","25","75","3","9","10","40","30","120","82","22","[""White""]","No","Female","2146497","null","null","","","","clear_screen","","","","","","","","","","","","","","","","","","","","","","","","","",""
"","","","","","canvas-keyboard-response","214","384693","0.0-12.0-2.40","2d_cat_multi_stim_exp1","2022-5-3","15:24:38","25","75","3","9","10","40","30","120","82","22","[""White""]","No","Female","2146497","771","u","learn","","","learn_trial","25","75","in","1","1","","","","","","","","","","","","","","","","","","","","",""
"","","","","","canvas-keyboard-response","215","385203","0.0-12.0-3.40","2d_cat_multi_stim_exp1","2022-5-3","15:24:38","25","75","3","9","10","40","30","120","82","22","[""White""]","No","Female","2146497","null","null","learn_feedback","","","learn_feedback","25","75","in","","","","","","","","","","","","","","","","","","","","","","",""
"","","","","","canvas-keyboard-response","216","385262","0.0-12.0-4.40","2d_cat_multi_stim_exp1","2022-5-3","15:24:38","25","75","3","9","10","40","30","120","82","22","[""White""]","No","Female","2146497","null","null","","","","clear_screen","","","","","","","","","","","","","","","","","","","","","","","","","",""
"","","","","","canvas-keyboard-response","217","385771","0.0-12.0-0.41","2d_cat_multi_stim_exp1","2022-5-3","15:24:38","25","75","3","9","10","40","30","120","82","22","[""White""]","No","Female","2146497","null","null","","","","fixation","","","","","","","","","","","","","","","","","","","","","","","","","",""
"","","","","","canvas-keyboard-response","218","386281","0.0-12.0-1.41","2d_cat_multi_stim_exp1","2022-5-3","15:24:38","25","75","3","9","10","40","30","120","82","22","[""White""]","No","Female","2146497","null","null","","","","clear_screen","","","","","","","","","","","","","","","","","","","","","","","","","",""
"","","","","","canvas-keyboard-response","219","387453","0.0-12.0-2.41","2d_cat_multi_stim_exp1","2022-5-3","15:24:38","25","75","3","9","10","40","30","120","82","22","[""White""]","No","Female","2146497","1160","u","learn","","","learn_trial","25.4027","66.0815","in","1","1","","","","","","","","","","","","","","","","","","","","",""
"","","","","","canvas-keyboard-response","220","387961","0.0-12.0-3.41","2d_cat_multi_stim_exp1","2022-5-3","15:24:38","25","75","3","9","10","40","30","120","82","22","[""White""]","No","Female","2146497","null","null","learn_feedback","","","learn_feedback","25.4027","66.0815","in","","","","","","","","","","","","","","","","","","","","","","",""
"","","","","","canvas-keyboard-response","221","388025","0.0-12.0-4.41","2d_cat_multi_stim_exp1","2022-5-3","15:24:38","25","75","3","9","10","40","30","120","82","22","[""White""]","No","Female","2146497","null","null","","","","clear_screen","","","","","","","","","","","","","","","","","","","","","","","","","",""
"","","","","","canvas-keyboard-response","222","388532","0.0-12.0-0.42","2d_cat_multi_stim_exp1","2022-5-3","15:24:38","25","75","3","9","10","40","30","120","82","22","[""White""]","No","Female","2146497","null","null","","","","fixation","","","","","","","","","","","","","","","","","","","","","","","","","",""
"","","","","","canvas-keyboard-response","223","389045","0.0-12.0-1.42","2d_cat_multi_stim_exp1","2022-5-3","15:24:38","25","75","3","9","10","40","30","120","82","22","[""White""]","No","Female","2146497","null","null","","","","clear_screen","","","","","","","","","","","","","","","","","","","","","","","","","",""
"","","","","","canvas-keyboard-response","224","394709","0.0-12.0-2.42","2d_cat_multi_stim_exp1","2022-5-3","15:24:38","25","75","3","9","10","40","30","120","82","22","[""White""]","No","Female","2146497","5654","u","learn","","","learn_trial","26.6667","60","out","1","0","","","","","","","","","","","","","","","","","","","","",""
"","","","","","canvas-keyboard-response","225","395721","0.0-12.0-3.42","2d_cat_multi_stim_exp1","2022-5-3","15:24:38","25","75","3","9","10","40","30","120","82","22","[""White""]","No","Female","2146497","null","null","learn_feedback","","","learn_feedback","26.6667","60","out","","","","","","","","","","","","","","","","","","","","","","",""
"","","","","","canvas-keyboard-response","226","395784","0.0-12.0-4.42","2d_cat_multi_stim_exp1","2022-5-3","15:24:38","25","75","3","9","10","40","30","120","82","22","[""White""]","No","Female","2146497","null","null","","","","clear_screen","","","","","","","","","","","","","","","","","","","","","","","","","",""
"","","","","","canvas-keyboard-response","227","396292","0.0-12.0-0.43","2d_cat_multi_stim_exp1","2022-5-3","15:24:38","25","75","3","9","10","40","30","120","82","22","[""White""]","No","Female","2146497","null","null","","","","fixation","","","","","","","","","","","","","","","","","","","","","","","","","",""
"","","","","","canvas-keyboard-response","228","396802","0.0-12.0-1.43","2d_cat_multi_stim_exp1","2022-5-3","15:24:38","25","75","3","9","10","40","30","120","82","22","[""White""]","No","Female","2146497","null","null","","","","clear_screen","","","","","","","","","","","","","","","","","","","","","","","","","",""
"","","","","","canvas-keyboard-response","229","399125","0.0-12.0-2.43","2d_cat_multi_stim_exp1","2022-5-3","15:24:38","25","75","3","9","10","40","30","120","82","22","[""White""]","No","Female","2146497","2315","i","learn","","","learn_trial","36.6667","60","out","0","1","","","","","","","","","","","","","","","","","","","","",""
"","","","","","canvas-keyboard-response","230","399638","0.0-12.0-3.43","2d_cat_multi_stim_exp1","2022-5-3","15:24:38","25","75","3","9","10","40","30","120","82","22","[""White""]","No","Female","2146497","null","null","learn_feedback","","","learn_feedback","36.6667","60","out","","","","","","","","","","","","","","","","","","","","","","",""
"","","","","","canvas-keyboard-response","231","399696","0.0-12.0-4.43","2d_cat_multi_stim_exp1","2022-5-3","15:24:38","25","75","3","9","10","40","30","120","82","22","[""White""]","No","Female","2146497","null","null","","","","clear_screen","","","","","","","","","","","","","","","","","","","","","","","","","",""
"","","","","","canvas-keyboard-response","232","400207","0.0-12.0-0.44","2d_cat_multi_stim_exp1","2022-5-3","15:24:38","25","75","3","9","10","40","30","120","82","22","[""White""]","No","Female","2146497","null","null","","","","fixation","","","","","","","","","","","","","","","","","","","","","","","","","",""
"","","","","","canvas-keyboard-response","233","400721","0.0-12.0-1.44","2d_cat_multi_stim_exp1","2022-5-3","15:24:38","25","75","3","9","10","40","30","120","82","22","[""White""]","No","Female","2146497","null","null","","","","clear_screen","","","","","","","","","","","","","","","","","","","","","","","","","",""
"","","","","","canvas-keyboard-response","234","402805","0.0-12.0-2.44","2d_cat_multi_stim_exp1","2022-5-3","15:24:38","25","75","3","9","10","40","30","120","82","22","[""White""]","No","Female","2146497","2076","i","learn","","","learn_trial","29.2426","62.2721","in","0","0","","","","","","","","","","","","","","","","","","","","",""
"","","","","","canvas-keyboard-response","235","403816","0.0-12.0-3.44","2d_cat_multi_stim_exp1","2022-5-3","15:24:38","25","75","3","9","10","40","30","120","82","22","[""White""]","No","Female","2146497","null","null","learn_feedback","","","learn_feedback","29.2426","62.2721","in","","","","","","","","","","","","","","","","","","","","","","",""
"","","","","","canvas-keyboard-response","236","403880","0.0-12.0-4.44","2d_cat_multi_stim_exp1","2022-5-3","15:24:38","25","75","3","9","10","40","30","120","82","22","[""White""]","No","Female","2146497","null","null","","","","clear_screen","","","","","","","","","","","","","","","","","","","","","","","","","",""
"","","","","","canvas-keyboard-response","237","404389","0.0-12.0-0.45","2d_cat_multi_stim_exp1","2022-5-3","15:24:38","25","75","3","9","10","40","30","120","82","22","[""White""]","No","Female","2146497","null","null","","","","fixation","","","","","","","","","","","","","","","","","","","","","","","","","",""
"","","","","","canvas-keyboard-response","238","404898","0.0-12.0-1.45","2d_cat_multi_stim_exp1","2022-5-3","15:24:38","25","75","3","9","10","40","30","120","82","22","[""White""]","No","Female","2146497","null","null","","","","clear_screen","","","","","","","","","","","","","","","","","","","","","","","","","",""
"","","","","","canvas-keyboard-response","239","407214","0.0-12.0-2.45","2d_cat_multi_stim_exp1","2022-5-3","15:24:38","25","75","3","9","10","40","30","120","82","22","[""White""]","No","Female","2146497","2307","i","learn","","","learn_trial","23.3333","40","out","0","1","","","","","","","","","","","","","","","","","","","","",""
"","","","","","canvas-keyboard-response","240","407727","0.0-12.0-3.45","2d_cat_multi_stim_exp1","2022-5-3","15:24:38","25","75","3","9","10","40","30","120","82","22","[""White""]","No","Female","2146497","null","null","learn_feedback","","","learn_feedback","23.3333","40","out","","","","","","","","","","","","","","","","","","","","","","",""
"","","","","","canvas-keyboard-response","241","407790","0.0-12.0-4.45","2d_cat_multi_stim_exp1","2022-5-3","15:24:38","25","75","3","9","10","40","30","120","82","22","[""White""]","No","Female","2146497","null","null","","","","clear_screen","","","","","","","","","","","","","","","","","","","","","","","","","",""
"","","","","","canvas-keyboard-response","242","408299","0.0-12.0-0.46","2d_cat_multi_stim_exp1","2022-5-3","15:24:38","25","75","3","9","10","40","30","120","82","22","[""White""]","No","Female","2146497","null","null","","","","fixation","","","","","","","","","","","","","","","","","","","","","","","","","",""
"","","","","","canvas-keyboard-response","243","408811","0.0-12.0-1.46","2d_cat_multi_stim_exp1","2022-5-3","15:24:38","25","75","3","9","10","40","30","120","82","22","[""White""]","No","Female","2146497","null","null","","","","clear_screen","","","","","","","","","","","","","","","","","","","","","","","","","",""
"","","","","","canvas-keyboard-response","244","413701","0.0-12.0-2.46","2d_cat_multi_stim_exp1","2022-5-3","15:24:38","25","75","3","9","10","40","30","120","82","22","[""White""]","No","Female","2146497","4878","u","learn","","","learn_trial","25.4027","83.9185","in","1","1","","","","","","","","","","","","","","","","","","","","",""
"","","","","","canvas-keyboard-response","245","414213","0.0-12.0-3.46","2d_cat_multi_stim_exp1","2022-5-3","15:24:38","25","75","3","9","10","40","30","120","82","22","[""White""]","No","Female","2146497","null","null","learn_feedback","","","learn_feedback","25.4027","83.9185","in","","","","","","","","","","","","","","","","","","","","","","",""
"","","","","","canvas-keyboard-response","246","414271","0.0-12.0-4.46","2d_cat_multi_stim_exp1","2022-5-3","15:24:38","25","75","3","9","10","40","30","120","82","22","[""White""]","No","Female","2146497","null","null","","","","clear_screen","","","","","","","","","","","","","","","","","","","","","","","","","",""
"","","","","","canvas-keyboard-response","247","414781","0.0-12.0-0.47","2d_cat_multi_stim_exp1","2022-5-3","15:24:38","25","75","3","9","10","40","30","120","82","22","[""White""]","No","Female","2146497","null","null","","","","fixation","","","","","","","","","","","","","","","","","","","","","","","","","",""
"","","","","","canvas-keyboard-response","248","415291","0.0-12.0-1.47","2d_cat_multi_stim_exp1","2022-5-3","15:24:38","25","75","3","9","10","40","30","120","82","22","[""White""]","No","Female","2146497","null","null","","","","clear_screen","","","","","","","","","","","","","","","","","","","","","","","","","",""
"","","","","","canvas-keyboard-response","249","418871","0.0-12.0-2.47","2d_cat_multi_stim_exp1","2022-5-3","15:24:38","25","75","3","9","10","40","30","120","82","22","[""White""]","No","Female","2146497","3567","u","learn","","","learn_trial","25","75","in","1","1","","","","","","","","","","","","","","","","","","","","",""
"","","","","","canvas-keyboard-response","250","419384","0.0-12.0-3.47","2d_cat_multi_stim_exp1","2022-5-3","15:24:38","25","75","3","9","10","40","30","120","82","22","[""White""]","No","Female","2146497","null","null","learn_feedback","","","learn_feedback","25","75","in","","","","","","","","","","","","","","","","","","","","","","",""
"","","","","","canvas-keyboard-response","251","419448","0.0-12.0-4.47","2d_cat_multi_stim_exp1","2022-5-3","15:24:38","25","75","3","9","10","40","30","120","82","22","[""White""]","No","Female","2146497","null","null","","","","clear_screen","","","","","","","","","","","","","","","","","","","","","","","","","",""
"","","","","","canvas-keyboard-response","252","419955","0.0-12.0-0.48","2d_cat_multi_stim_exp1","2022-5-3","15:24:38","25","75","3","9","10","40","30","120","82","22","[""White""]","No","Female","2146497","null","null","","","","fixation","","","","","","","","","","","","","","","","","","","","","","","","","",""
"","","","","","canvas-keyboard-response","253","420466","0.0-12.0-1.48","2d_cat_multi_stim_exp1","2022-5-3","15:24:38","25","75","3","9","10","40","30","120","82","22","[""White""]","No","Female","2146497","null","null","","","","clear_screen","","","","","","","","","","","","","","","","","","","","","","","","","",""
"","","","","","canvas-keyboard-response","254","421661","0.0-12.0-2.48","2d_cat_multi_stim_exp1","2022-5-3","15:24:38","25","75","3","9","10","40","30","120","82","22","[""White""]","No","Female","2146497","1186","u","learn","","","learn_trial","22.1081","72.6057","in","1","1","","","","","","","","","","","","","","","","","","","","",""
"","","","","","canvas-keyboard-response","255","422174","0.0-12.0-3.48","2d_cat_multi_stim_exp1","2022-5-3","15:24:38","25","75","3","9","10","40","30","120","82","22","[""White""]","No","Female","2146497","null","null","learn_feedback","","","learn_feedback","22.1081","72.6057","in","","","","","","","","","","","","","","","","","","","","","","",""
"","","","","","canvas-keyboard-response","256","422236","0.0-12.0-4.48","2d_cat_multi_stim_exp1","2022-5-3","15:24:38","25","75","3","9","10","40","30","120","82","22","[""White""]","No","Female","2146497","null","null","","","","clear_screen","","","","","","","","","","","","","","","","","","","","","","","","","",""
"","","","","","canvas-keyboard-response","257","422746","0.0-12.0-0.49","2d_cat_multi_stim_exp1","2022-5-3","15:24:38","25","75","3","9","10","40","30","120","82","22","[""White""]","No","Female","2146497","null","null","","","","fixation","","","","","","","","","","","","","","","","","","","","","","","","","",""
"","","","","","canvas-keyboard-response","258","423259","0.0-12.0-1.49","2d_cat_multi_stim_exp1","2022-5-3","15:24:38","25","75","3","9","10","40","30","120","82","22","[""White""]","No","Female","2146497","null","null","","","","clear_screen","","","","","","","","","","","","","","","","","","","","","","","","","",""
"","","","","","canvas-keyboard-response","259","424046","0.0-12.0-2.49","2d_cat_multi_stim_exp1","2022-5-3","15:24:38","25","75","3","9","10","40","30","120","82","22","[""White""]","No","Female","2146497","774","i","learn","","","learn_trial","40","50","out","0","1","","","","","","","","","","","","","","","","","","","","",""
"","","","","","canvas-keyboard-response","260","424553","0.0-12.0-3.49","2d_cat_multi_stim_exp1","2022-5-3","15:24:38","25","75","3","9","10","40","30","120","82","22","[""White""]","No","Female","2146497","null","null","learn_feedback","","","learn_feedback","40","50","out","","","","","","","","","","","","","","","","","","","","","","",""
"","","","","","canvas-keyboard-response","261","424612","0.0-12.0-4.49","2d_cat_multi_stim_exp1","2022-5-3","15:24:38","25","75","3","9","10","40","30","120","82","22","[""White""]","No","Female","2146497","null","null","","","","clear_screen","","","","","","","","","","","","","","","","","","","","","","","","","",""
"","","","","","canvas-keyboard-response","262","425122","0.0-12.0-0.50","2d_cat_multi_stim_exp1","2022-5-3","15:24:38","25","75","3","9","10","40","30","120","82","22","[""White""]","No","Female","2146497","null","null","","","","fixation","","","","","","","","","","","","","","","","","","","","","","","","","",""
"","","","","","canvas-keyboard-response","263","425633","0.0-12.0-1.50","2d_cat_multi_stim_exp1","2022-5-3","15:24:38","25","75","3","9","10","40","30","120","82","22","[""White""]","No","Female","2146497","null","null","","","","clear_screen","","","","","","","","","","","","","","","","","","","","","","","","","",""
"","","","","","canvas-keyboard-response","264","427205","0.0-12.0-2.50","2d_cat_multi_stim_exp1","2022-5-3","15:24:38","25","75","3","9","10","40","30","120","82","22","[""White""]","No","Female","2146497","1561","u","learn","","","learn_trial","25","57","in","1","1","","","","","","","","","","","","","","","","","","","","",""
"","","","","","canvas-keyboard-response","265","427715","0.0-12.0-3.50","2d_cat_multi_stim_exp1","2022-5-3","15:24:38","25","75","3","9","10","40","30","120","82","22","[""White""]","No","Female","2146497","null","null","learn_feedback","","","learn_feedback","25","57","in","","","","","","","","","","","","","","","","","","","","","","",""
"","","","","","canvas-keyboard-response","266","427777","0.0-12.0-4.50","2d_cat_multi_stim_exp1","2022-5-3","15:24:38","25","75","3","9","10","40","30","120","82","22","[""White""]","No","Female","2146497","null","null","","","","clear_screen","","","","","","","","","","","","","","","","","","","","","","","","","",""
"","","","","","canvas-keyboard-response","267","428287","0.0-12.0-0.51","2d_cat_multi_stim_exp1","2022-5-3","15:24:38","25","75","3","9","10","40","30","120","82","22","[""White""]","No","Female","2146497","null","null","","","","fixation","","","","","","","","","","","","","","","","","","","","","","","","","",""
"","","","","","canvas-keyboard-response","268","428797","0.0-12.0-1.51","2d_cat_multi_stim_exp1","2022-5-3","15:24:38","25","75","3","9","10","40","30","120","82","22","[""White""]","No","Female","2146497","null","null","","","","clear_screen","","","","","","","","","","","","","","","","","","","","","","","","","",""
"","","","","","canvas-keyboard-response","269","430357","0.0-12.0-2.51","2d_cat_multi_stim_exp1","2022-5-3","15:24:38","25","75","3","9","10","40","30","120","82","22","[""White""]","No","Female","2146497","1552","i","learn","","","learn_trial","23.3333","70","out","0","1","","","","","","","","","","","","","","","","","","","","",""
"","","","","","canvas-keyboard-response","270","430865","0.0-12.0-3.51","2d_cat_multi_stim_exp1","2022-5-3","15:24:38","25","75","3","9","10","40","30","120","82","22","[""White""]","No","Female","2146497","null","null","learn_feedback","","","learn_feedback","23.3333","70","out","","","","","","","","","","","","","","","","","","","","","","",""
"","","","","","canvas-keyboard-response","271","430926","0.0-12.0-4.51","2d_cat_multi_stim_exp1","2022-5-3","15:24:38","25","75","3","9","10","40","30","120","82","22","[""White""]","No","Female","2146497","null","null","","","","clear_screen","","","","","","","","","","","","","","","","","","","","","","","","","",""
"","","","","","canvas-keyboard-response","272","431435","0.0-12.0-0.52","2d_cat_multi_stim_exp1","2022-5-3","15:24:38","25","75","3","9","10","40","30","120","82","22","[""White""]","No","Female","2146497","null","null","","","","fixation","","","","","","","","","","","","","","","","","","","","","","","","","",""
"","","","","","canvas-keyboard-response","273","431948","0.0-12.0-1.52","2d_cat_multi_stim_exp1","2022-5-3","15:24:38","25","75","3","9","10","40","30","120","82","22","[""White""]","No","Female","2146497","null","null","","","","clear_screen","","","","","","","","","","","","","","","","","","","","","","","","","",""
"","","","","","canvas-keyboard-response","274","432845","0.0-12.0-2.52","2d_cat_multi_stim_exp1","2022-5-3","15:24:38","25","75","3","9","10","40","30","120","82","22","[""White""]","No","Female","2146497","888","i","learn","","","learn_trial","13.3333","100","out","0","1","","","","","","","","","","","","","","","","","","","","",""
"","","","","","canvas-keyboard-response","275","433359","0.0-12.0-3.52","2d_cat_multi_stim_exp1","2022-5-3","15:24:38","25","75","3","9","10","40","30","120","82","22","[""White""]","No","Female","2146497","null","null","learn_feedback","","","learn_feedback","13.3333","100","out","","","","","","","","","","","","","","","","","","","","","","",""
"","","","","","canvas-keyboard-response","276","433420","0.0-12.0-4.52","2d_cat_multi_stim_exp1","2022-5-3","15:24:38","25","75","3","9","10","40","30","120","82","22","[""White""]","No","Female","2146497","null","null","","","","clear_screen","","","","","","","","","","","","","","","","","","","","","","","","","",""
"","","","","","canvas-keyboard-response","277","433929","0.0-12.0-0.53","2d_cat_multi_stim_exp1","2022-5-3","15:24:38","25","75","3","9","10","40","30","120","82","22","[""White""]","No","Female","2146497","null","null","","","","fixation","","","","","","","","","","","","","","","","","","","","","","","","","",""
"","","","","","canvas-keyboard-response","278","434439","0.0-12.0-1.53","2d_cat_multi_stim_exp1","2022-5-3","15:24:38","25","75","3","9","10","40","30","120","82","22","[""White""]","No","Female","2146497","null","null","","","","clear_screen","","","","","","","","","","","","","","","","","","","","","","","","","",""
"","","","","","canvas-keyboard-response","279","435621","0.0-12.0-2.53","2d_cat_multi_stim_exp1","2022-5-3","15:24:38","25","75","3","9","10","40","30","120","82","22","[""White""]","No","Female","2146497","1168","u","learn","","","learn_trial","25","75","in","1","1","","","","","","","","","","","","","","","","","","","","",""
"","","","","","canvas-keyboard-response","280","436131","0.0-12.0-3.53","2d_cat_multi_stim_exp1","2022-5-3","15:24:38","25","75","3","9","10","40","30","120","82","22","[""White""]","No","Female","2146497","null","null","learn_feedback","","","learn_feedback","25","75","in","","","","","","","","","","","","","","","","","","","","","","",""
"","","","","","canvas-keyboard-response","281","436191","0.0-12.0-4.53","2d_cat_multi_stim_exp1","2022-5-3","15:24:38","25","75","3","9","10","40","30","120","82","22","[""White""]","No","Female","2146497","null","null","","","","clear_screen","","","","","","","","","","","","","","","","","","","","","","","","","",""
"","","","","","canvas-keyboard-response","282","436700","0.0-12.0-0.54","2d_cat_multi_stim_exp1","2022-5-3","15:24:38","25","75","3","9","10","40","30","120","82","22","[""White""]","No","Female","2146497","null","null","","","","fixation","","","","","","","","","","","","","","","","","","","","","","","","","",""
"","","","","","canvas-keyboard-response","283","437213","0.0-12.0-1.54","2d_cat_multi_stim_exp1","2022-5-3","15:24:38","25","75","3","9","10","40","30","120","82","22","[""White""]","No","Female","2146497","null","null","","","","clear_screen","","","","","","","","","","","","","","","","","","","","","","","","","",""
"","","","","","canvas-keyboard-response","284","437989","0.0-12.0-2.54","2d_cat_multi_stim_exp1","2022-5-3","15:24:38","25","75","3","9","10","40","30","120","82","22","[""White""]","No","Female","2146497","766","u","learn","","","learn_trial","25","75","in","1","1","","","","","","","","","","","","","","","","","","","","",""
"","","","","","canvas-keyboard-response","285","438497","0.0-12.0-3.54","2d_cat_multi_stim_exp1","2022-5-3","15:24:38","25","75","3","9","10","40","30","120","82","22","[""White""]","No","Female","2146497","null","null","learn_feedback","","","learn_feedback","25","75","in","","","","","","","","","","","","","","","","","","","","","","",""
"","","","","","canvas-keyboard-response","286","438557","0.0-12.0-4.54","2d_cat_multi_stim_exp1","2022-5-3","15:24:38","25","75","3","9","10","40","30","120","82","22","[""White""]","No","Female","2146497","null","null","","","","clear_screen","","","","","","","","","","","","","","","","","","","","","","","","","",""
"","","","","","canvas-keyboard-response","287","439061","0.0-12.0-0.55","2d_cat_multi_stim_exp1","2022-5-3","15:24:38","25","75","3","9","10","40","30","120","82","22","[""White""]","No","Female","2146497","null","null","","","","fixation","","","","","","","","","","","","","","","","","","","","","","","","","",""
"","","","","","canvas-keyboard-response","288","439573","0.0-12.0-1.55","2d_cat_multi_stim_exp1","2022-5-3","15:24:38","25","75","3","9","10","40","30","120","82","22","[""White""]","No","Female","2146497","null","null","","","","clear_screen","","","","","","","","","","","","","","","","","","","","","","","","","",""
"","","","","","canvas-keyboard-response","289","440237","0.0-12.0-2.55","2d_cat_multi_stim_exp1","2022-5-3","15:24:38","25","75","3","9","10","40","30","120","82","22","[""White""]","No","Female","2146497","661","u","learn","","","learn_trial","25","75","in","1","1","","","","","","","","","","","","","","","","","","","","",""
"","","","","","canvas-keyboard-response","290","440751","0.0-12.0-3.55","2d_cat_multi_stim_exp1","2022-5-3","15:24:38","25","75","3","9","10","40","30","120","82","22","[""White""]","No","Female","2146497","null","null","learn_feedback","","","learn_feedback","25","75","in","","","","","","","","","","","","","","","","","","","","","","",""
"","","","","","canvas-keyboard-response","291","440812","0.0-12.0-4.55","2d_cat_multi_stim_exp1","2022-5-3","15:24:38","25","75","3","9","10","40","30","120","82","22","[""White""]","No","Female","2146497","null","null","","","","clear_screen","","","","","","","","","","","","","","","","","","","","","","","","","",""
"","","","","","canvas-keyboard-response","292","441324","0.0-12.0-0.56","2d_cat_multi_stim_exp1","2022-5-3","15:24:38","25","75","3","9","10","40","30","120","82","22","[""White""]","No","Female","2146497","null","null","","","","fixation","","","","","","","","","","","","","","","","","","","","","","","","","",""
"","","","","","canvas-keyboard-response","293","441835","0.0-12.0-1.56","2d_cat_multi_stim_exp1","2022-5-3","15:24:38","25","75","3","9","10","40","30","120","82","22","[""White""]","No","Female","2146497","null","null","","","","clear_screen","","","","","","","","","","","","","","","","","","","","","","","","","",""
"","","","","","canvas-keyboard-response","294","442397","0.0-12.0-2.56","2d_cat_multi_stim_exp1","2022-5-3","15:24:38","25","75","3","9","10","40","30","120","82","22","[""White""]","No","Female","2146497","548","i","learn","","","learn_trial","13.3333","40","out","0","1","","","","","","","","","","","","","","","","","","","","",""
"","","","","","canvas-keyboard-response","295","442908","0.0-12.0-3.56","2d_cat_multi_stim_exp1","2022-5-3","15:24:38","25","75","3","9","10","40","30","120","82","22","[""White""]","No","Female","2146497","null","null","learn_feedback","","","learn_feedback","13.3333","40","out","","","","","","","","","","","","","","","","","","","","","","",""
"","","","","","canvas-keyboard-response","296","442971","0.0-12.0-4.56","2d_cat_multi_stim_exp1","2022-5-3","15:24:38","25","75","3","9","10","40","30","120","82","22","[""White""]","No","Female","2146497","null","null","","","","clear_screen","","","","","","","","","","","","","","","","","","","","","","","","","",""
"","","","","","canvas-keyboard-response","297","443482","0.0-12.0-0.57","2d_cat_multi_stim_exp1","2022-5-3","15:24:38","25","75","3","9","10","40","30","120","82","22","[""White""]","No","Female","2146497","null","null","","","","fixation","","","","","","","","","","","","","","","","","","","","","","","","","",""
