"success","timeout","failed_images","failed_audio","failed_video","trial_type","trial_index","time_elapsed","internal_node_id","exp_name","date","time","angle_mean_in","radius_mean_in","angle_sd_in","radius_sd_in","angle_min_out","angle_max_out","radius_min_out","radius_max_out","sub_n","age","race","ethnicity","gender","exp_duration","rt","response","exp_trial_type","stimulus","view_history","screen_id","angle","radius","distribution","choice","correct","order","angle_a","radius_a","angle_b","radius_b","angle_c","radius_c","jkl_correct","transfer_trial_type","choice_set","abc_correct","tc_correct","tc_angle","tdc_a","tdc_b","tdc_c","pair","category_a","category_b","category_c","question_order"
"true","false","[]","[]","[]","preload","0","17","0.0-0.0","2d_cat_multi_stim_exp1","2022-4-6","15:47:28","25","75","3","9","10","40","30","120","17","18","[""Other""]","No","Female","2063496","","","","","","","","","","","","","","","","","","","","","","","","","","","","","","","",""
"","","","","","survey-html-form","1","3770","0.0-1.0","2d_cat_multi_stim_exp1","2022-4-6","15:47:28","25","75","3","9","10","40","30","120","17","18","[""Other""]","No","Female","2063496","3742","{""response"":""17""}","enter-sub-number","","","","","","","","","","","","","","","","","","","","","","","","","","","","",""
"true","","","","","fullscreen","2","7470","0.0-2.0","2d_cat_multi_stim_exp1","2022-4-6","15:47:28","25","75","3","9","10","40","30","120","17","18","[""Other""]","No","Female","2063496","","","","","","","","","","","","","","","","","","","","","","","","","","","","","","","",""
"","","","","","image-button-response","3","110863","0.0-3.0","2d_cat_multi_stim_exp1","2022-4-6","15:47:28","25","75","3","9","10","40","30","120","17","18","[""Other""]","No","Female","2063496","103382","0","","consent.png","","","","","","","","","","","","","","","","","","","","","","","","","","","",""
"","","","","","html-button-response","4","113126","0.0-4.0","2d_cat_multi_stim_exp1","2022-4-6","15:47:28","25","75","3","9","10","40","30","120","17","18","[""Other""]","No","Female","2063496","2256","0","","<div style= ""font-size:25px;"" <p> <strong> Welcome to the experiment! </strong><br> <p style=""color:#8B0000; font-size:25px;""><strong> Please do NOT exit full screen until you are done with the experiment. </strong> </p><p style=""font-size:25px;color:#8B0000;""> <strong> The experiment will be canceled and your data will be lost <br> if you try to go back or refresh the page at any point during the experiment.</strong> </p><br><p> <strong> Thanks in advance for your contribution to our research! </strong></p>","","","","","","","","","","","","","","","","","","","","","","","","","","","",""
"","","","","","instructions","5","169598","0.0-5.0","2d_cat_multi_stim_exp1","2022-4-6","15:47:28","25","75","3","9","10","40","30","120","17","18","[""Other""]","No","Female","2063496","56466","","","","[{""page_index"":0,""viewing_time"":6401},{""page_index"":1,""viewing_time"":3367},{""page_index"":2,""viewing_time"":18184},{""page_index"":3,""viewing_time"":28513}]","instructions_1","","","","","","","","","","","","","","","","","","","","","","","","","",""
"","","","","","instructions","6","172230","0.0-6.0","2d_cat_multi_stim_exp1","2022-4-6","15:47:28","25","75","3","9","10","40","30","120","17","18","[""Other""]","No","Female","2063496","2628","","","","[{""page_index"":0,""viewing_time"":2627}]","Click to see the kinds of turtles that will appear in the study.","","","","","","","","","","","","","","","","","","","","","","","","","",""
"","","","","","canvas-keyboard-response","7","187249","0.0-7.0","2d_cat_multi_stim_exp1","2022-4-6","15:47:28","25","75","3","9","10","40","30","120","17","18","[""Other""]","No","Female","2063496","null","null","","","","demo_range","","","","","","","","","","","","","","","","","","","","","","","","","",""
"","","","","","instructions","8","190830","0.0-8.0","2d_cat_multi_stim_exp1","2022-4-6","15:47:28","25","75","3","9","10","40","30","120","17","18","[""Other""]","No","Female","2063496","3080","","","","[{""page_index"":0,""viewing_time"":3078}]","Click to see some turtles in the subspecies.","","","","","","","","","","","","","","","","","","","","","","","","","",""
"","","","","","canvas-keyboard-response","9","205847","0.0-9.0","2d_cat_multi_stim_exp1","2022-4-6","15:47:28","25","75","3","9","10","40","30","120","17","18","[""Other""]","No","Female","2063496","null","null","","","","demo_in","","","","","","","","","","","","","","","","","","","","","","","","","",""
"","","","","","instructions","10","257590","0.0-10.0","2d_cat_multi_stim_exp1","2022-4-6","15:47:28","25","75","3","9","10","40","30","120","17","18","[""Other""]","No","Female","2063496","51240","","","","[{""page_index"":0,""viewing_time"":8032},{""page_index"":1,""viewing_time"":37208},{""page_index"":2,""viewing_time"":6000}]","instructions_2","","","","","","","","","","","","","","","","","","","","","","","","","",""
"","","","","","instructions","11","260950","0.0-11.0","2d_cat_multi_stim_exp1","2022-4-6","15:47:28","25","75","3","9","10","40","30","120","17","18","[""Other""]","No","Female","2063496","3356","","","","[{""page_index"":0,""viewing_time"":3356}]","Click to begin the first phase of the experiment.","","","","","","","","","","","","","","","","","","","","","","","","","",""
"","","","","","canvas-keyboard-response","12","261460","0.0-12.0-0.0","2d_cat_multi_stim_exp1","2022-4-6","15:47:28","25","75","3","9","10","40","30","120","17","18","[""Other""]","No","Female","2063496","null","null","","","","fixation","","","","","","","","","","","","","","","","","","","","","","","","","",""
"","","","","","canvas-keyboard-response","13","261973","0.0-12.0-1.0","2d_cat_multi_stim_exp1","2022-4-6","15:47:28","25","75","3","9","10","40","30","120","17","18","[""Other""]","No","Female","2063496","null","null","","","","clear_screen","","","","","","","","","","","","","","","","","","","","","","","","","",""
"","","","","","canvas-keyboard-response","14","265895","0.0-12.0-2.0","2d_cat_multi_stim_exp1","2022-4-6","15:47:28","25","75","3","9","10","40","30","120","17","18","[""Other""]","No","Female","2063496","3909","u","learn","","","learn_trial","26.6667","110","out","1","0","","","","","","","","","","","","","","","","","","","","",""
"","","","","","canvas-keyboard-response","15","266906","0.0-12.0-3.0","2d_cat_multi_stim_exp1","2022-4-6","15:47:28","25","75","3","9","10","40","30","120","17","18","[""Other""]","No","Female","2063496","null","null","learn_feedback","","","learn_feedback","26.6667","110","out","","","","","","","","","","","","","","","","","","","","","","",""
"","","","","","canvas-keyboard-response","16","266966","0.0-12.0-4.0","2d_cat_multi_stim_exp1","2022-4-6","15:47:28","25","75","3","9","10","40","30","120","17","18","[""Other""]","No","Female","2063496","null","null","","","","clear_screen","","","","","","","","","","","","","","","","","","","","","","","","","",""
"","","","","","canvas-keyboard-response","17","267482","0.0-12.0-0.1","2d_cat_multi_stim_exp1","2022-4-6","15:47:28","25","75","3","9","10","40","30","120","17","18","[""Other""]","No","Female","2063496","null","null","","","","fixation","","","","","","","","","","","","","","","","","","","","","","","","","",""
"","","","","","canvas-keyboard-response","18","267997","0.0-12.0-1.1","2d_cat_multi_stim_exp1","2022-4-6","15:47:28","25","75","3","9","10","40","30","120","17","18","[""Other""]","No","Female","2063496","null","null","","","","clear_screen","","","","","","","","","","","","","","","","","","","","","","","","","",""
"","","","","","canvas-keyboard-response","19","270277","0.0-12.0-2.1","2d_cat_multi_stim_exp1","2022-4-6","15:47:28","25","75","3","9","10","40","30","120","17","18","[""Other""]","No","Female","2063496","2269","i","learn","","","learn_trial","40","90","out","0","1","","","","","","","","","","","","","","","","","","","","",""
"","","","","","canvas-keyboard-response","20","270792","0.0-12.0-3.1","2d_cat_multi_stim_exp1","2022-4-6","15:47:28","25","75","3","9","10","40","30","120","17","18","[""Other""]","No","Female","2063496","null","null","learn_feedback","","","learn_feedback","40","90","out","","","","","","","","","","","","","","","","","","","","","","",""
"","","","","","canvas-keyboard-response","21","270856","0.0-12.0-4.1","2d_cat_multi_stim_exp1","2022-4-6","15:47:28","25","75","3","9","10","40","30","120","17","18","[""Other""]","No","Female","2063496","null","null","","","","clear_screen","","","","","","","","","","","","","","","","","","","","","","","","","",""
"","","","","","canvas-keyboard-response","22","271370","0.0-12.0-0.2","2d_cat_multi_stim_exp1","2022-4-6","15:47:28","25","75","3","9","10","40","30","120","17","18","[""Other""]","No","Female","2063496","null","null","","","","fixation","","","","","","","","","","","","","","","","","","","","","","","","","",""
"","","","","","canvas-keyboard-response","23","271881","0.0-12.0-1.2","2d_cat_multi_stim_exp1","2022-4-6","15:47:28","25","75","3","9","10","40","30","120","17","18","[""Other""]","No","Female","2063496","null","null","","","","clear_screen","","","","","","","","","","","","","","","","","","","","","","","","","",""
"","","","","","canvas-keyboard-response","24","273933","0.0-12.0-2.2","2d_cat_multi_stim_exp1","2022-4-6","15:47:28","25","75","3","9","10","40","30","120","17","18","[""Other""]","No","Female","2063496","2041","u","learn","","","learn_trial","16.6667","50","out","1","0","","","","","","","","","","","","","","","","","","","","",""
"","","","","","canvas-keyboard-response","25","274943","0.0-12.0-3.2","2d_cat_multi_stim_exp1","2022-4-6","15:47:28","25","75","3","9","10","40","30","120","17","18","[""Other""]","No","Female","2063496","null","null","learn_feedback","","","learn_feedback","16.6667","50","out","","","","","","","","","","","","","","","","","","","","","","",""
"","","","","","canvas-keyboard-response","26","275006","0.0-12.0-4.2","2d_cat_multi_stim_exp1","2022-4-6","15:47:28","25","75","3","9","10","40","30","120","17","18","[""Other""]","No","Female","2063496","null","null","","","","clear_screen","","","","","","","","","","","","","","","","","","","","","","","","","",""
"","","","","","canvas-keyboard-response","27","275518","0.0-12.0-0.3","2d_cat_multi_stim_exp1","2022-4-6","15:47:28","25","75","3","9","10","40","30","120","17","18","[""Other""]","No","Female","2063496","null","null","","","","fixation","","","","","","","","","","","","","","","","","","","","","","","","","",""
"","","","","","canvas-keyboard-response","28","276030","0.0-12.0-1.3","2d_cat_multi_stim_exp1","2022-4-6","15:47:28","25","75","3","9","10","40","30","120","17","18","[""Other""]","No","Female","2063496","null","null","","","","clear_screen","","","","","","","","","","","","","","","","","","","","","","","","","",""
"","","","","","canvas-keyboard-response","29","277309","0.0-12.0-2.3","2d_cat_multi_stim_exp1","2022-4-6","15:47:28","25","75","3","9","10","40","30","120","17","18","[""Other""]","No","Female","2063496","1271","u","learn","","","learn_trial","25.9271","83.5595","in","1","1","","","","","","","","","","","","","","","","","","","","",""
"","","","","","canvas-keyboard-response","30","277824","0.0-12.0-3.3","2d_cat_multi_stim_exp1","2022-4-6","15:47:28","25","75","3","9","10","40","30","120","17","18","[""Other""]","No","Female","2063496","null","null","learn_feedback","","","learn_feedback","25.9271","83.5595","in","","","","","","","","","","","","","","","","","","","","","","",""
"","","","","","canvas-keyboard-response","31","277888","0.0-12.0-4.3","2d_cat_multi_stim_exp1","2022-4-6","15:47:28","25","75","3","9","10","40","30","120","17","18","[""Other""]","No","Female","2063496","null","null","","","","clear_screen","","","","","","","","","","","","","","","","","","","","","","","","","",""
"","","","","","canvas-keyboard-response","32","278400","0.0-12.0-0.4","2d_cat_multi_stim_exp1","2022-4-6","15:47:28","25","75","3","9","10","40","30","120","17","18","[""Other""]","No","Female","2063496","null","null","","","","fixation","","","","","","","","","","","","","","","","","","","","","","","","","",""
"","","","","","canvas-keyboard-response","33","278910","0.0-12.0-1.4","2d_cat_multi_stim_exp1","2022-4-6","15:47:28","25","75","3","9","10","40","30","120","17","18","[""Other""]","No","Female","2063496","null","null","","","","clear_screen","","","","","","","","","","","","","","","","","","","","","","","","","",""
"","","","","","canvas-keyboard-response","34","279982","0.0-12.0-2.4","2d_cat_multi_stim_exp1","2022-4-6","15:47:28","25","75","3","9","10","40","30","120","17","18","[""Other""]","No","Female","2063496","1062","i","learn","","","learn_trial","16.6667","60","out","0","1","","","","","","","","","","","","","","","","","","","","",""
"","","","","","canvas-keyboard-response","35","280490","0.0-12.0-3.4","2d_cat_multi_stim_exp1","2022-4-6","15:47:28","25","75","3","9","10","40","30","120","17","18","[""Other""]","No","Female","2063496","null","null","learn_feedback","","","learn_feedback","16.6667","60","out","","","","","","","","","","","","","","","","","","","","","","",""
"","","","","","canvas-keyboard-response","36","280553","0.0-12.0-4.4","2d_cat_multi_stim_exp1","2022-4-6","15:47:28","25","75","3","9","10","40","30","120","17","18","[""Other""]","No","Female","2063496","null","null","","","","clear_screen","","","","","","","","","","","","","","","","","","","","","","","","","",""
"","","","","","canvas-keyboard-response","37","281063","0.0-12.0-0.5","2d_cat_multi_stim_exp1","2022-4-6","15:47:28","25","75","3","9","10","40","30","120","17","18","[""Other""]","No","Female","2063496","null","null","","","","fixation","","","","","","","","","","","","","","","","","","","","","","","","","",""
"","","","","","canvas-keyboard-response","38","281573","0.0-12.0-1.5","2d_cat_multi_stim_exp1","2022-4-6","15:47:28","25","75","3","9","10","40","30","120","17","18","[""Other""]","No","Female","2063496","null","null","","","","clear_screen","","","","","","","","","","","","","","","","","","","","","","","","","",""
"","","","","","canvas-keyboard-response","39","283877","0.0-12.0-2.5","2d_cat_multi_stim_exp1","2022-4-6","15:47:28","25","75","3","9","10","40","30","120","17","18","[""Other""]","No","Female","2063496","2295","i","learn","","","learn_trial","40","120","out","0","1","","","","","","","","","","","","","","","","","","","","",""
"","","","","","canvas-keyboard-response","40","284390","0.0-12.0-3.5","2d_cat_multi_stim_exp1","2022-4-6","15:47:28","25","75","3","9","10","40","30","120","17","18","[""Other""]","No","Female","2063496","null","null","learn_feedback","","","learn_feedback","40","120","out","","","","","","","","","","","","","","","","","","","","","","",""
"","","","","","canvas-keyboard-response","41","284451","0.0-12.0-4.5","2d_cat_multi_stim_exp1","2022-4-6","15:47:28","25","75","3","9","10","40","30","120","17","18","[""Other""]","No","Female","2063496","null","null","","","","clear_screen","","","","","","","","","","","","","","","","","","","","","","","","","",""
"","","","","","canvas-keyboard-response","42","284963","0.0-12.0-0.6","2d_cat_multi_stim_exp1","2022-4-6","15:47:28","25","75","3","9","10","40","30","120","17","18","[""Other""]","No","Female","2063496","null","null","","","","fixation","","","","","","","","","","","","","","","","","","","","","","","","","",""
"","","","","","canvas-keyboard-response","43","285475","0.0-12.0-1.6","2d_cat_multi_stim_exp1","2022-4-6","15:47:28","25","75","3","9","10","40","30","120","17","18","[""Other""]","No","Female","2063496","null","null","","","","clear_screen","","","","","","","","","","","","","","","","","","","","","","","","","",""
"","","","","","canvas-keyboard-response","44","286517","0.0-12.0-2.6","2d_cat_multi_stim_exp1","2022-4-6","15:47:28","25","75","3","9","10","40","30","120","17","18","[""Other""]","No","Female","2063496","1028","u","learn","","","learn_trial","25","75","in","1","1","","","","","","","","","","","","","","","","","","","","",""
"","","","","","canvas-keyboard-response","45","287029","0.0-12.0-3.6","2d_cat_multi_stim_exp1","2022-4-6","15:47:28","25","75","3","9","10","40","30","120","17","18","[""Other""]","No","Female","2063496","null","null","learn_feedback","","","learn_feedback","25","75","in","","","","","","","","","","","","","","","","","","","","","","",""
"","","","","","canvas-keyboard-response","46","287089","0.0-12.0-4.6","2d_cat_multi_stim_exp1","2022-4-6","15:47:28","25","75","3","9","10","40","30","120","17","18","[""Other""]","No","Female","2063496","null","null","","","","clear_screen","","","","","","","","","","","","","","","","","","","","","","","","","",""
"","","","","","canvas-keyboard-response","47","287599","0.0-12.0-0.7","2d_cat_multi_stim_exp1","2022-4-6","15:47:28","25","75","3","9","10","40","30","120","17","18","[""Other""]","No","Female","2063496","null","null","","","","fixation","","","","","","","","","","","","","","","","","","","","","","","","","",""
"","","","","","canvas-keyboard-response","48","288113","0.0-12.0-1.7","2d_cat_multi_stim_exp1","2022-4-6","15:47:28","25","75","3","9","10","40","30","120","17","18","[""Other""]","No","Female","2063496","null","null","","","","clear_screen","","","","","","","","","","","","","","","","","","","","","","","","","",""
"","","","","","canvas-keyboard-response","49","289181","0.0-12.0-2.7","2d_cat_multi_stim_exp1","2022-4-6","15:47:28","25","75","3","9","10","40","30","120","17","18","[""Other""]","No","Female","2063496","1056","u","learn","","","learn_trial","25","75","in","1","1","","","","","","","","","","","","","","","","","","","","",""
"","","","","","canvas-keyboard-response","50","289692","0.0-12.0-3.7","2d_cat_multi_stim_exp1","2022-4-6","15:47:28","25","75","3","9","10","40","30","120","17","18","[""Other""]","No","Female","2063496","null","null","learn_feedback","","","learn_feedback","25","75","in","","","","","","","","","","","","","","","","","","","","","","",""
"","","","","","canvas-keyboard-response","51","289755","0.0-12.0-4.7","2d_cat_multi_stim_exp1","2022-4-6","15:47:28","25","75","3","9","10","40","30","120","17","18","[""Other""]","No","Female","2063496","null","null","","","","clear_screen","","","","","","","","","","","","","","","","","","","","","","","","","",""
"","","","","","canvas-keyboard-response","52","290265","0.0-12.0-0.8","2d_cat_multi_stim_exp1","2022-4-6","15:47:28","25","75","3","9","10","40","30","120","17","18","[""Other""]","No","Female","2063496","null","null","","","","fixation","","","","","","","","","","","","","","","","","","","","","","","","","",""
"","","","","","canvas-keyboard-response","53","290777","0.0-12.0-1.8","2d_cat_multi_stim_exp1","2022-4-6","15:47:28","25","75","3","9","10","40","30","120","17","18","[""Other""]","No","Female","2063496","null","null","","","","clear_screen","","","","","","","","","","","","","","","","","","","","","","","","","",""
"","","","","","canvas-keyboard-response","54","291789","0.0-12.0-2.8","2d_cat_multi_stim_exp1","2022-4-6","15:47:28","25","75","3","9","10","40","30","120","17","18","[""Other""]","No","Female","2063496","1001","i","learn","","","learn_trial","23.3333","100","out","0","1","","","","","","","","","","","","","","","","","","","","",""
"","","","","","canvas-keyboard-response","55","292298","0.0-12.0-3.8","2d_cat_multi_stim_exp1","2022-4-6","15:47:28","25","75","3","9","10","40","30","120","17","18","[""Other""]","No","Female","2063496","null","null","learn_feedback","","","learn_feedback","23.3333","100","out","","","","","","","","","","","","","","","","","","","","","","",""
"","","","","","canvas-keyboard-response","56","292358","0.0-12.0-4.8","2d_cat_multi_stim_exp1","2022-4-6","15:47:28","25","75","3","9","10","40","30","120","17","18","[""Other""]","No","Female","2063496","null","null","","","","clear_screen","","","","","","","","","","","","","","","","","","","","","","","","","",""
"","","","","","canvas-keyboard-response","57","292870","0.0-12.0-0.9","2d_cat_multi_stim_exp1","2022-4-6","15:47:28","25","75","3","9","10","40","30","120","17","18","[""Other""]","No","Female","2063496","null","null","","","","fixation","","","","","","","","","","","","","","","","","","","","","","","","","",""
"","","","","","canvas-keyboard-response","58","293384","0.0-12.0-1.9","2d_cat_multi_stim_exp1","2022-4-6","15:47:28","25","75","3","9","10","40","30","120","17","18","[""Other""]","No","Female","2063496","null","null","","","","clear_screen","","","","","","","","","","","","","","","","","","","","","","","","","",""
"","","","","","canvas-keyboard-response","59","295213","0.0-12.0-2.9","2d_cat_multi_stim_exp1","2022-4-6","15:47:28","25","75","3","9","10","40","30","120","17","18","[""Other""]","No","Female","2063496","1819","i","learn","","","learn_trial","16.6667","120","out","0","1","","","","","","","","","","","","","","","","","","","","",""
"","","","","","canvas-keyboard-response","60","295722","0.0-12.0-3.9","2d_cat_multi_stim_exp1","2022-4-6","15:47:28","25","75","3","9","10","40","30","120","17","18","[""Other""]","No","Female","2063496","null","null","learn_feedback","","","learn_feedback","16.6667","120","out","","","","","","","","","","","","","","","","","","","","","","",""
"","","","","","canvas-keyboard-response","61","295785","0.0-12.0-4.9","2d_cat_multi_stim_exp1","2022-4-6","15:47:28","25","75","3","9","10","40","30","120","17","18","[""Other""]","No","Female","2063496","null","null","","","","clear_screen","","","","","","","","","","","","","","","","","","","","","","","","","",""
"","","","","","canvas-keyboard-response","62","296295","0.0-12.0-0.10","2d_cat_multi_stim_exp1","2022-4-6","15:47:28","25","75","3","9","10","40","30","120","17","18","[""Other""]","No","Female","2063496","null","null","","","","fixation","","","","","","","","","","","","","","","","","","","","","","","","","",""
"","","","","","canvas-keyboard-response","63","296809","0.0-12.0-1.10","2d_cat_multi_stim_exp1","2022-4-6","15:47:28","25","75","3","9","10","40","30","120","17","18","[""Other""]","No","Female","2063496","null","null","","","","clear_screen","","","","","","","","","","","","","","","","","","","","","","","","","",""
"","","","","","canvas-keyboard-response","64","298797","0.0-12.0-2.10","2d_cat_multi_stim_exp1","2022-4-6","15:47:28","25","75","3","9","10","40","30","120","17","18","[""Other""]","No","Female","2063496","1981","i","learn","","","learn_trial","26.6667","50","out","0","1","","","","","","","","","","","","","","","","","","","","",""
"","","","","","canvas-keyboard-response","65","299308","0.0-12.0-3.10","2d_cat_multi_stim_exp1","2022-4-6","15:47:28","25","75","3","9","10","40","30","120","17","18","[""Other""]","No","Female","2063496","null","null","learn_feedback","","","learn_feedback","26.6667","50","out","","","","","","","","","","","","","","","","","","","","","","",""
"","","","","","canvas-keyboard-response","66","299370","0.0-12.0-4.10","2d_cat_multi_stim_exp1","2022-4-6","15:47:28","25","75","3","9","10","40","30","120","17","18","[""Other""]","No","Female","2063496","null","null","","","","clear_screen","","","","","","","","","","","","","","","","","","","","","","","","","",""
"","","","","","canvas-keyboard-response","67","299882","0.0-12.0-0.11","2d_cat_multi_stim_exp1","2022-4-6","15:47:28","25","75","3","9","10","40","30","120","17","18","[""Other""]","No","Female","2063496","null","null","","","","fixation","","","","","","","","","","","","","","","","","","","","","","","","","",""
"","","","","","canvas-keyboard-response","68","300394","0.0-12.0-1.11","2d_cat_multi_stim_exp1","2022-4-6","15:47:28","25","75","3","9","10","40","30","120","17","18","[""Other""]","No","Female","2063496","null","null","","","","clear_screen","","","","","","","","","","","","","","","","","","","","","","","","","",""
"","","","","","canvas-keyboard-response","69","301317","0.0-12.0-2.11","2d_cat_multi_stim_exp1","2022-4-6","15:47:28","25","75","3","9","10","40","30","120","17","18","[""Other""]","No","Female","2063496","913","u","learn","","","learn_trial","27.9518","76.607","in","1","1","","","","","","","","","","","","","","","","","","","","",""
"","","","","","canvas-keyboard-response","70","301830","0.0-12.0-3.11","2d_cat_multi_stim_exp1","2022-4-6","15:47:28","25","75","3","9","10","40","30","120","17","18","[""Other""]","No","Female","2063496","null","null","learn_feedback","","","learn_feedback","27.9518","76.607","in","","","","","","","","","","","","","","","","","","","","","","",""
"","","","","","canvas-keyboard-response","71","301890","0.0-12.0-4.11","2d_cat_multi_stim_exp1","2022-4-6","15:47:28","25","75","3","9","10","40","30","120","17","18","[""Other""]","No","Female","2063496","null","null","","","","clear_screen","","","","","","","","","","","","","","","","","","","","","","","","","",""
"","","","","","canvas-keyboard-response","72","302399","0.0-12.0-0.12","2d_cat_multi_stim_exp1","2022-4-6","15:47:28","25","75","3","9","10","40","30","120","17","18","[""Other""]","No","Female","2063496","null","null","","","","fixation","","","","","","","","","","","","","","","","","","","","","","","","","",""
"","","","","","canvas-keyboard-response","73","302910","0.0-12.0-1.12","2d_cat_multi_stim_exp1","2022-4-6","15:47:28","25","75","3","9","10","40","30","120","17","18","[""Other""]","No","Female","2063496","null","null","","","","clear_screen","","","","","","","","","","","","","","","","","","","","","","","","","",""
"","","","","","canvas-keyboard-response","74","303748","0.0-12.0-2.12","2d_cat_multi_stim_exp1","2022-4-6","15:47:28","25","75","3","9","10","40","30","120","17","18","[""Other""]","No","Female","2063496","829","u","learn","","","learn_trial","22.0121","74.1932","in","1","1","","","","","","","","","","","","","","","","","","","","",""
"","","","","","canvas-keyboard-response","75","304257","0.0-12.0-3.12","2d_cat_multi_stim_exp1","2022-4-6","15:47:28","25","75","3","9","10","40","30","120","17","18","[""Other""]","No","Female","2063496","null","null","learn_feedback","","","learn_feedback","22.0121","74.1932","in","","","","","","","","","","","","","","","","","","","","","","",""
"","","","","","canvas-keyboard-response","76","304321","0.0-12.0-4.12","2d_cat_multi_stim_exp1","2022-4-6","15:47:28","25","75","3","9","10","40","30","120","17","18","[""Other""]","No","Female","2063496","null","null","","","","clear_screen","","","","","","","","","","","","","","","","","","","","","","","","","",""
"","","","","","canvas-keyboard-response","77","304829","0.0-12.0-0.13","2d_cat_multi_stim_exp1","2022-4-6","15:47:28","25","75","3","9","10","40","30","120","17","18","[""Other""]","No","Female","2063496","null","null","","","","fixation","","","","","","","","","","","","","","","","","","","","","","","","","",""
"","","","","","canvas-keyboard-response","78","305341","0.0-12.0-1.13","2d_cat_multi_stim_exp1","2022-4-6","15:47:28","25","75","3","9","10","40","30","120","17","18","[""Other""]","No","Female","2063496","null","null","","","","clear_screen","","","","","","","","","","","","","","","","","","","","","","","","","",""
"","","","","","canvas-keyboard-response","79","308125","0.0-12.0-2.13","2d_cat_multi_stim_exp1","2022-4-6","15:47:28","25","75","3","9","10","40","30","120","17","18","[""Other""]","No","Female","2063496","2773","u","learn","","","learn_trial","29.2426","62.2721","in","1","1","","","","","","","","","","","","","","","","","","","","",""
"","","","","","canvas-keyboard-response","80","308636","0.0-12.0-3.13","2d_cat_multi_stim_exp1","2022-4-6","15:47:28","25","75","3","9","10","40","30","120","17","18","[""Other""]","No","Female","2063496","null","null","learn_feedback","","","learn_feedback","29.2426","62.2721","in","","","","","","","","","","","","","","","","","","","","","","",""
"","","","","","canvas-keyboard-response","81","308700","0.0-12.0-4.13","2d_cat_multi_stim_exp1","2022-4-6","15:47:28","25","75","3","9","10","40","30","120","17","18","[""Other""]","No","Female","2063496","null","null","","","","clear_screen","","","","","","","","","","","","","","","","","","","","","","","","","",""
"","","","","","canvas-keyboard-response","82","309211","0.0-12.0-0.14","2d_cat_multi_stim_exp1","2022-4-6","15:47:28","25","75","3","9","10","40","30","120","17","18","[""Other""]","No","Female","2063496","null","null","","","","fixation","","","","","","","","","","","","","","","","","","","","","","","","","",""
"","","","","","canvas-keyboard-response","83","309724","0.0-12.0-1.14","2d_cat_multi_stim_exp1","2022-4-6","15:47:28","25","75","3","9","10","40","30","120","17","18","[""Other""]","No","Female","2063496","null","null","","","","clear_screen","","","","","","","","","","","","","","","","","","","","","","","","","",""
"","","","","","canvas-keyboard-response","84","312093","0.0-12.0-2.14","2d_cat_multi_stim_exp1","2022-4-6","15:47:28","25","75","3","9","10","40","30","120","17","18","[""Other""]","No","Female","2063496","2360","u","learn","","","learn_trial","30","120","out","1","0","","","","","","","","","","","","","","","","","","","","",""
"","","","","","canvas-keyboard-response","85","313107","0.0-12.0-3.14","2d_cat_multi_stim_exp1","2022-4-6","15:47:28","25","75","3","9","10","40","30","120","17","18","[""Other""]","No","Female","2063496","null","null","learn_feedback","","","learn_feedback","30","120","out","","","","","","","","","","","","","","","","","","","","","","",""
"","","","","","canvas-keyboard-response","86","313167","0.0-12.0-4.14","2d_cat_multi_stim_exp1","2022-4-6","15:47:28","25","75","3","9","10","40","30","120","17","18","[""Other""]","No","Female","2063496","null","null","","","","clear_screen","","","","","","","","","","","","","","","","","","","","","","","","","",""
"","","","","","canvas-keyboard-response","87","313678","0.0-12.0-0.15","2d_cat_multi_stim_exp1","2022-4-6","15:47:28","25","75","3","9","10","40","30","120","17","18","[""Other""]","No","Female","2063496","null","null","","","","fixation","","","","","","","","","","","","","","","","","","","","","","","","","",""
"","","","","","canvas-keyboard-response","88","314193","0.0-12.0-1.15","2d_cat_multi_stim_exp1","2022-4-6","15:47:28","25","75","3","9","10","40","30","120","17","18","[""Other""]","No","Female","2063496","null","null","","","","clear_screen","","","","","","","","","","","","","","","","","","","","","","","","","",""
"","","","","","canvas-keyboard-response","89","315053","0.0-12.0-2.15","2d_cat_multi_stim_exp1","2022-4-6","15:47:28","25","75","3","9","10","40","30","120","17","18","[""Other""]","No","Female","2063496","850","u","learn","","","learn_trial","25","75","in","1","1","","","","","","","","","","","","","","","","","","","","",""
"","","","","","canvas-keyboard-response","90","315562","0.0-12.0-3.15","2d_cat_multi_stim_exp1","2022-4-6","15:47:28","25","75","3","9","10","40","30","120","17","18","[""Other""]","No","Female","2063496","null","null","learn_feedback","","","learn_feedback","25","75","in","","","","","","","","","","","","","","","","","","","","","","",""
"","","","","","canvas-keyboard-response","91","315621","0.0-12.0-4.15","2d_cat_multi_stim_exp1","2022-4-6","15:47:28","25","75","3","9","10","40","30","120","17","18","[""Other""]","No","Female","2063496","null","null","","","","clear_screen","","","","","","","","","","","","","","","","","","","","","","","","","",""
"","","","","","canvas-keyboard-response","92","316131","0.0-12.0-0.16","2d_cat_multi_stim_exp1","2022-4-6","15:47:28","25","75","3","9","10","40","30","120","17","18","[""Other""]","No","Female","2063496","null","null","","","","fixation","","","","","","","","","","","","","","","","","","","","","","","","","",""
"","","","","","canvas-keyboard-response","93","316642","0.0-12.0-1.16","2d_cat_multi_stim_exp1","2022-4-6","15:47:28","25","75","3","9","10","40","30","120","17","18","[""Other""]","No","Female","2063496","null","null","","","","clear_screen","","","","","","","","","","","","","","","","","","","","","","","","","",""
"","","","","","canvas-keyboard-response","94","317613","0.0-12.0-2.16","2d_cat_multi_stim_exp1","2022-4-6","15:47:28","25","75","3","9","10","40","30","120","17","18","[""Other""]","No","Female","2063496","960","u","learn","","","learn_trial","25.4027","83.9185","in","1","1","","","","","","","","","","","","","","","","","","","","",""
"","","","","","canvas-keyboard-response","95","318125","0.0-12.0-3.16","2d_cat_multi_stim_exp1","2022-4-6","15:47:28","25","75","3","9","10","40","30","120","17","18","[""Other""]","No","Female","2063496","null","null","learn_feedback","","","learn_feedback","25.4027","83.9185","in","","","","","","","","","","","","","","","","","","","","","","",""
"","","","","","canvas-keyboard-response","96","318189","0.0-12.0-4.16","2d_cat_multi_stim_exp1","2022-4-6","15:47:28","25","75","3","9","10","40","30","120","17","18","[""Other""]","No","Female","2063496","null","null","","","","clear_screen","","","","","","","","","","","","","","","","","","","","","","","","","",""
"","","","","","canvas-keyboard-response","97","318699","0.0-12.0-0.17","2d_cat_multi_stim_exp1","2022-4-6","15:47:28","25","75","3","9","10","40","30","120","17","18","[""Other""]","No","Female","2063496","null","null","","","","fixation","","","","","","","","","","","","","","","","","","","","","","","","","",""
"","","","","","canvas-keyboard-response","98","319211","0.0-12.0-1.17","2d_cat_multi_stim_exp1","2022-4-6","15:47:28","25","75","3","9","10","40","30","120","17","18","[""Other""]","No","Female","2063496","null","null","","","","clear_screen","","","","","","","","","","","","","","","","","","","","","","","","","",""
"","","","","","canvas-keyboard-response","99","320277","0.0-12.0-2.17","2d_cat_multi_stim_exp1","2022-4-6","15:47:28","25","75","3","9","10","40","30","120","17","18","[""Other""]","No","Female","2063496","1053","i","learn","","","learn_trial","13.3333","100","out","0","1","","","","","","","","","","","","","","","","","","","","",""
"","","","","","canvas-keyboard-response","100","320787","0.0-12.0-3.17","2d_cat_multi_stim_exp1","2022-4-6","15:47:28","25","75","3","9","10","40","30","120","17","18","[""Other""]","No","Female","2063496","null","null","learn_feedback","","","learn_feedback","13.3333","100","out","","","","","","","","","","","","","","","","","","","","","","",""
"","","","","","canvas-keyboard-response","101","320846","0.0-12.0-4.17","2d_cat_multi_stim_exp1","2022-4-6","15:47:28","25","75","3","9","10","40","30","120","17","18","[""Other""]","No","Female","2063496","null","null","","","","clear_screen","","","","","","","","","","","","","","","","","","","","","","","","","",""
"","","","","","canvas-keyboard-response","102","321355","0.0-12.0-0.18","2d_cat_multi_stim_exp1","2022-4-6","15:47:28","25","75","3","9","10","40","30","120","17","18","[""Other""]","No","Female","2063496","null","null","","","","fixation","","","","","","","","","","","","","","","","","","","","","","","","","",""
"","","","","","canvas-keyboard-response","103","321869","0.0-12.0-1.18","2d_cat_multi_stim_exp1","2022-4-6","15:47:28","25","75","3","9","10","40","30","120","17","18","[""Other""]","No","Female","2063496","null","null","","","","clear_screen","","","","","","","","","","","","","","","","","","","","","","","","","",""
"","","","","","canvas-keyboard-response","104","322701","0.0-12.0-2.18","2d_cat_multi_stim_exp1","2022-4-6","15:47:28","25","75","3","9","10","40","30","120","17","18","[""Other""]","No","Female","2063496","820","u","learn","","","learn_trial","25","75","in","1","1","","","","","","","","","","","","","","","","","","","","",""
"","","","","","canvas-keyboard-response","105","323210","0.0-12.0-3.18","2d_cat_multi_stim_exp1","2022-4-6","15:47:28","25","75","3","9","10","40","30","120","17","18","[""Other""]","No","Female","2063496","null","null","learn_feedback","","","learn_feedback","25","75","in","","","","","","","","","","","","","","","","","","","","","","",""
"","","","","","canvas-keyboard-response","106","323276","0.0-12.0-4.18","2d_cat_multi_stim_exp1","2022-4-6","15:47:28","25","75","3","9","10","40","30","120","17","18","[""Other""]","No","Female","2063496","null","null","","","","clear_screen","","","","","","","","","","","","","","","","","","","","","","","","","",""
"","","","","","canvas-keyboard-response","107","323784","0.0-12.0-0.19","2d_cat_multi_stim_exp1","2022-4-6","15:47:28","25","75","3","9","10","40","30","120","17","18","[""Other""]","No","Female","2063496","null","null","","","","fixation","","","","","","","","","","","","","","","","","","","","","","","","","",""
"","","","","","canvas-keyboard-response","108","324294","0.0-12.0-1.19","2d_cat_multi_stim_exp1","2022-4-6","15:47:28","25","75","3","9","10","40","30","120","17","18","[""Other""]","No","Female","2063496","null","null","","","","clear_screen","","","","","","","","","","","","","","","","","","","","","","","","","",""
"","","","","","canvas-keyboard-response","109","325373","0.0-12.0-2.19","2d_cat_multi_stim_exp1","2022-4-6","15:47:28","25","75","3","9","10","40","30","120","17","18","[""Other""]","No","Female","2063496","1067","i","learn","","","learn_trial","33.3333","30","out","0","1","","","","","","","","","","","","","","","","","","","","",""
"","","","","","canvas-keyboard-response","110","325886","0.0-12.0-3.19","2d_cat_multi_stim_exp1","2022-4-6","15:47:28","25","75","3","9","10","40","30","120","17","18","[""Other""]","No","Female","2063496","null","null","learn_feedback","","","learn_feedback","33.3333","30","out","","","","","","","","","","","","","","","","","","","","","","",""
"","","","","","canvas-keyboard-response","111","325946","0.0-12.0-4.19","2d_cat_multi_stim_exp1","2022-4-6","15:47:28","25","75","3","9","10","40","30","120","17","18","[""Other""]","No","Female","2063496","null","null","","","","clear_screen","","","","","","","","","","","","","","","","","","","","","","","","","",""
"","","","","","canvas-keyboard-response","112","326456","0.0-12.0-0.20","2d_cat_multi_stim_exp1","2022-4-6","15:47:28","25","75","3","9","10","40","30","120","17","18","[""Other""]","No","Female","2063496","null","null","","","","fixation","","","","","","","","","","","","","","","","","","","","","","","","","",""
"","","","","","canvas-keyboard-response","113","326967","0.0-12.0-1.20","2d_cat_multi_stim_exp1","2022-4-6","15:47:28","25","75","3","9","10","40","30","120","17","18","[""Other""]","No","Female","2063496","null","null","","","","clear_screen","","","","","","","","","","","","","","","","","","","","","","","","","",""
"","","","","","canvas-keyboard-response","114","328533","0.0-12.0-2.20","2d_cat_multi_stim_exp1","2022-4-6","15:47:28","25","75","3","9","10","40","30","120","17","18","[""Other""]","No","Female","2063496","1557","u","learn","","","learn_trial","25","75","in","1","1","","","","","","","","","","","","","","","","","","","","",""
"","","","","","canvas-keyboard-response","115","329042","0.0-12.0-3.20","2d_cat_multi_stim_exp1","2022-4-6","15:47:28","25","75","3","9","10","40","30","120","17","18","[""Other""]","No","Female","2063496","null","null","learn_feedback","","","learn_feedback","25","75","in","","","","","","","","","","","","","","","","","","","","","","",""
"","","","","","canvas-keyboard-response","116","329105","0.0-12.0-4.20","2d_cat_multi_stim_exp1","2022-4-6","15:47:28","25","75","3","9","10","40","30","120","17","18","[""Other""]","No","Female","2063496","null","null","","","","clear_screen","","","","","","","","","","","","","","","","","","","","","","","","","",""
"","","","","","canvas-keyboard-response","117","329614","0.0-12.0-0.21","2d_cat_multi_stim_exp1","2022-4-6","15:47:28","25","75","3","9","10","40","30","120","17","18","[""Other""]","No","Female","2063496","null","null","","","","fixation","","","","","","","","","","","","","","","","","","","","","","","","","",""
"","","","","","canvas-keyboard-response","118","330126","0.0-12.0-1.21","2d_cat_multi_stim_exp1","2022-4-6","15:47:28","25","75","3","9","10","40","30","120","17","18","[""Other""]","No","Female","2063496","null","null","","","","clear_screen","","","","","","","","","","","","","","","","","","","","","","","","","",""
"","","","","","canvas-keyboard-response","119","335357","0.0-12.0-2.21","2d_cat_multi_stim_exp1","2022-4-6","15:47:28","25","75","3","9","10","40","30","120","17","18","[""Other""]","No","Female","2063496","5222","i","learn","","","learn_trial","13.3333","110","out","0","1","","","","","","","","","","","","","","","","","","","","",""
"","","","","","canvas-keyboard-response","120","335868","0.0-12.0-3.21","2d_cat_multi_stim_exp1","2022-4-6","15:47:28","25","75","3","9","10","40","30","120","17","18","[""Other""]","No","Female","2063496","null","null","learn_feedback","","","learn_feedback","13.3333","110","out","","","","","","","","","","","","","","","","","","","","","","",""
"","","","","","canvas-keyboard-response","121","335933","0.0-12.0-4.21","2d_cat_multi_stim_exp1","2022-4-6","15:47:28","25","75","3","9","10","40","30","120","17","18","[""Other""]","No","Female","2063496","null","null","","","","clear_screen","","","","","","","","","","","","","","","","","","","","","","","","","",""
"","","","","","canvas-keyboard-response","122","336442","0.0-12.0-0.22","2d_cat_multi_stim_exp1","2022-4-6","15:47:28","25","75","3","9","10","40","30","120","17","18","[""Other""]","No","Female","2063496","null","null","","","","fixation","","","","","","","","","","","","","","","","","","","","","","","","","",""
"","","","","","canvas-keyboard-response","123","336953","0.0-12.0-1.22","2d_cat_multi_stim_exp1","2022-4-6","15:47:28","25","75","3","9","10","40","30","120","17","18","[""Other""]","No","Female","2063496","null","null","","","","clear_screen","","","","","","","","","","","","","","","","","","","","","","","","","",""
"","","","","","canvas-keyboard-response","124","337749","0.0-12.0-2.22","2d_cat_multi_stim_exp1","2022-4-6","15:47:28","25","75","3","9","10","40","30","120","17","18","[""Other""]","No","Female","2063496","785","u","learn","","","learn_trial","25","75","in","1","1","","","","","","","","","","","","","","","","","","","","",""
"","","","","","canvas-keyboard-response","125","338263","0.0-12.0-3.22","2d_cat_multi_stim_exp1","2022-4-6","15:47:28","25","75","3","9","10","40","30","120","17","18","[""Other""]","No","Female","2063496","null","null","learn_feedback","","","learn_feedback","25","75","in","","","","","","","","","","","","","","","","","","","","","","",""
"","","","","","canvas-keyboard-response","126","338328","0.0-12.0-4.22","2d_cat_multi_stim_exp1","2022-4-6","15:47:28","25","75","3","9","10","40","30","120","17","18","[""Other""]","No","Female","2063496","null","null","","","","clear_screen","","","","","","","","","","","","","","","","","","","","","","","","","",""
"","","","","","canvas-keyboard-response","127","338839","0.0-12.0-0.23","2d_cat_multi_stim_exp1","2022-4-6","15:47:28","25","75","3","9","10","40","30","120","17","18","[""Other""]","No","Female","2063496","null","null","","","","fixation","","","","","","","","","","","","","","","","","","","","","","","","","",""
"","","","","","canvas-keyboard-response","128","339352","0.0-12.0-1.23","2d_cat_multi_stim_exp1","2022-4-6","15:47:28","25","75","3","9","10","40","30","120","17","18","[""Other""]","No","Female","2063496","null","null","","","","clear_screen","","","","","","","","","","","","","","","","","","","","","","","","","",""
"","","","","","canvas-keyboard-response","129","340070","0.0-12.0-2.23","2d_cat_multi_stim_exp1","2022-4-6","15:47:28","25","75","3","9","10","40","30","120","17","18","[""Other""]","No","Female","2063496","705","u","learn","","","learn_trial","26.8705","67.9635","in","1","1","","","","","","","","","","","","","","","","","","","","",""
"","","","","","canvas-keyboard-response","130","340578","0.0-12.0-3.23","2d_cat_multi_stim_exp1","2022-4-6","15:47:28","25","75","3","9","10","40","30","120","17","18","[""Other""]","No","Female","2063496","null","null","learn_feedback","","","learn_feedback","26.8705","67.9635","in","","","","","","","","","","","","","","","","","","","","","","",""
"","","","","","canvas-keyboard-response","131","340639","0.0-12.0-4.23","2d_cat_multi_stim_exp1","2022-4-6","15:47:28","25","75","3","9","10","40","30","120","17","18","[""Other""]","No","Female","2063496","null","null","","","","clear_screen","","","","","","","","","","","","","","","","","","","","","","","","","",""
"","","","","","canvas-keyboard-response","132","341151","0.0-12.0-0.24","2d_cat_multi_stim_exp1","2022-4-6","15:47:28","25","75","3","9","10","40","30","120","17","18","[""Other""]","No","Female","2063496","null","null","","","","fixation","","","","","","","","","","","","","","","","","","","","","","","","","",""
"","","","","","canvas-keyboard-response","133","341661","0.0-12.0-1.24","2d_cat_multi_stim_exp1","2022-4-6","15:47:28","25","75","3","9","10","40","30","120","17","18","[""Other""]","No","Female","2063496","null","null","","","","clear_screen","","","","","","","","","","","","","","","","","","","","","","","","","",""
"","","","","","canvas-keyboard-response","134","342229","0.0-12.0-2.24","2d_cat_multi_stim_exp1","2022-4-6","15:47:28","25","75","3","9","10","40","30","120","17","18","[""Other""]","No","Female","2063496","558","u","learn","","","learn_trial","30","70","out","1","0","","","","","","","","","","","","","","","","","","","","",""
"","","","","","canvas-keyboard-response","135","343237","0.0-12.0-3.24","2d_cat_multi_stim_exp1","2022-4-6","15:47:28","25","75","3","9","10","40","30","120","17","18","[""Other""]","No","Female","2063496","null","null","learn_feedback","","","learn_feedback","30","70","out","","","","","","","","","","","","","","","","","","","","","","",""
"","","","","","canvas-keyboard-response","136","343301","0.0-12.0-4.24","2d_cat_multi_stim_exp1","2022-4-6","15:47:28","25","75","3","9","10","40","30","120","17","18","[""Other""]","No","Female","2063496","null","null","","","","clear_screen","","","","","","","","","","","","","","","","","","","","","","","","","",""
"","","","","","canvas-keyboard-response","137","343812","0.0-12.0-0.25","2d_cat_multi_stim_exp1","2022-4-6","15:47:28","25","75","3","9","10","40","30","120","17","18","[""Other""]","No","Female","2063496","null","null","","","","fixation","","","","","","","","","","","","","","","","","","","","","","","","","",""
"","","","","","canvas-keyboard-response","138","344325","0.0-12.0-1.25","2d_cat_multi_stim_exp1","2022-4-6","15:47:28","25","75","3","9","10","40","30","120","17","18","[""Other""]","No","Female","2063496","null","null","","","","clear_screen","","","","","","","","","","","","","","","","","","","","","","","","","",""
"","","","","","canvas-keyboard-response","139","345053","0.0-12.0-2.25","2d_cat_multi_stim_exp1","2022-4-6","15:47:28","25","75","3","9","10","40","30","120","17","18","[""Other""]","No","Female","2063496","715","u","learn","","","learn_trial","23.8209","66.7243","in","1","1","","","","","","","","","","","","","","","","","","","","",""
"","","","","","canvas-keyboard-response","140","345562","0.0-12.0-3.25","2d_cat_multi_stim_exp1","2022-4-6","15:47:28","25","75","3","9","10","40","30","120","17","18","[""Other""]","No","Female","2063496","null","null","learn_feedback","","","learn_feedback","23.8209","66.7243","in","","","","","","","","","","","","","","","","","","","","","","",""
"","","","","","canvas-keyboard-response","141","345623","0.0-12.0-4.25","2d_cat_multi_stim_exp1","2022-4-6","15:47:28","25","75","3","9","10","40","30","120","17","18","[""Other""]","No","Female","2063496","null","null","","","","clear_screen","","","","","","","","","","","","","","","","","","","","","","","","","",""
"","","","","","canvas-keyboard-response","142","346134","0.0-12.0-0.26","2d_cat_multi_stim_exp1","2022-4-6","15:47:28","25","75","3","9","10","40","30","120","17","18","[""Other""]","No","Female","2063496","null","null","","","","fixation","","","","","","","","","","","","","","","","","","","","","","","","","",""
"","","","","","canvas-keyboard-response","143","346646","0.0-12.0-1.26","2d_cat_multi_stim_exp1","2022-4-6","15:47:28","25","75","3","9","10","40","30","120","17","18","[""Other""]","No","Female","2063496","null","null","","","","clear_screen","","","","","","","","","","","","","","","","","","","","","","","","","",""
"","","","","","canvas-keyboard-response","144","347741","0.0-12.0-2.26","2d_cat_multi_stim_exp1","2022-4-6","15:47:28","25","75","3","9","10","40","30","120","17","18","[""Other""]","No","Female","2063496","1087","u","learn","","","learn_trial","25.9271","66.4405","in","1","1","","","","","","","","","","","","","","","","","","","","",""
"","","","","","canvas-keyboard-response","145","348253","0.0-12.0-3.26","2d_cat_multi_stim_exp1","2022-4-6","15:47:28","25","75","3","9","10","40","30","120","17","18","[""Other""]","No","Female","2063496","null","null","learn_feedback","","","learn_feedback","25.9271","66.4405","in","","","","","","","","","","","","","","","","","","","","","","",""
"","","","","","canvas-keyboard-response","146","348317","0.0-12.0-4.26","2d_cat_multi_stim_exp1","2022-4-6","15:47:28","25","75","3","9","10","40","30","120","17","18","[""Other""]","No","Female","2063496","null","null","","","","clear_screen","","","","","","","","","","","","","","","","","","","","","","","","","",""
"","","","","","canvas-keyboard-response","147","348825","0.0-12.0-0.27","2d_cat_multi_stim_exp1","2022-4-6","15:47:28","25","75","3","9","10","40","30","120","17","18","[""Other""]","No","Female","2063496","null","null","","","","fixation","","","","","","","","","","","","","","","","","","","","","","","","","",""
"","","","","","canvas-keyboard-response","148","349341","0.0-12.0-1.27","2d_cat_multi_stim_exp1","2022-4-6","15:47:28","25","75","3","9","10","40","30","120","17","18","[""Other""]","No","Female","2063496","null","null","","","","clear_screen","","","","","","","","","","","","","","","","","","","","","","","","","",""
"","","","","","canvas-keyboard-response","149","351901","0.0-12.0-2.27","2d_cat_multi_stim_exp1","2022-4-6","15:47:28","25","75","3","9","10","40","30","120","17","18","[""Other""]","No","Female","2063496","2547","u","learn","","","learn_trial","22.2971","71.095","in","1","1","","","","","","","","","","","","","","","","","","","","",""
"","","","","","canvas-keyboard-response","150","352410","0.0-12.0-3.27","2d_cat_multi_stim_exp1","2022-4-6","15:47:28","25","75","3","9","10","40","30","120","17","18","[""Other""]","No","Female","2063496","null","null","learn_feedback","","","learn_feedback","22.2971","71.095","in","","","","","","","","","","","","","","","","","","","","","","",""
"","","","","","canvas-keyboard-response","151","352472","0.0-12.0-4.27","2d_cat_multi_stim_exp1","2022-4-6","15:47:28","25","75","3","9","10","40","30","120","17","18","[""Other""]","No","Female","2063496","null","null","","","","clear_screen","","","","","","","","","","","","","","","","","","","","","","","","","",""
"","","","","","canvas-keyboard-response","152","352984","0.0-12.0-0.28","2d_cat_multi_stim_exp1","2022-4-6","15:47:28","25","75","3","9","10","40","30","120","17","18","[""Other""]","No","Female","2063496","null","null","","","","fixation","","","","","","","","","","","","","","","","","","","","","","","","","",""
"","","","","","canvas-keyboard-response","153","353496","0.0-12.0-1.28","2d_cat_multi_stim_exp1","2022-4-6","15:47:28","25","75","3","9","10","40","30","120","17","18","[""Other""]","No","Female","2063496","null","null","","","","clear_screen","","","","","","","","","","","","","","","","","","","","","","","","","",""
"","","","","","canvas-keyboard-response","154","354221","0.0-12.0-2.28","2d_cat_multi_stim_exp1","2022-4-6","15:47:28","25","75","3","9","10","40","30","120","17","18","[""Other""]","No","Female","2063496","714","u","learn","","","learn_trial","22.1081","77.3943","in","1","1","","","","","","","","","","","","","","","","","","","","",""
"","","","","","canvas-keyboard-response","155","354733","0.0-12.0-3.28","2d_cat_multi_stim_exp1","2022-4-6","15:47:28","25","75","3","9","10","40","30","120","17","18","[""Other""]","No","Female","2063496","null","null","learn_feedback","","","learn_feedback","22.1081","77.3943","in","","","","","","","","","","","","","","","","","","","","","","",""
"","","","","","canvas-keyboard-response","156","354797","0.0-12.0-4.28","2d_cat_multi_stim_exp1","2022-4-6","15:47:28","25","75","3","9","10","40","30","120","17","18","[""Other""]","No","Female","2063496","null","null","","","","clear_screen","","","","","","","","","","","","","","","","","","","","","","","","","",""
"","","","","","canvas-keyboard-response","157","355307","0.0-12.0-0.29","2d_cat_multi_stim_exp1","2022-4-6","15:47:28","25","75","3","9","10","40","30","120","17","18","[""Other""]","No","Female","2063496","null","null","","","","fixation","","","","","","","","","","","","","","","","","","","","","","","","","",""
"","","","","","canvas-keyboard-response","158","355819","0.0-12.0-1.29","2d_cat_multi_stim_exp1","2022-4-6","15:47:28","25","75","3","9","10","40","30","120","17","18","[""Other""]","No","Female","2063496","null","null","","","","clear_screen","","","","","","","","","","","","","","","","","","","","","","","","","",""
"","","","","","canvas-keyboard-response","159","357717","0.0-12.0-2.29","2d_cat_multi_stim_exp1","2022-4-6","15:47:28","25","75","3","9","10","40","30","120","17","18","[""Other""]","No","Female","2063496","1887","u","learn","","","learn_trial","26.6667","90","out","1","0","","","","","","","","","","","","","","","","","","","","",""
"","","","","","canvas-keyboard-response","160","358728","0.0-12.0-3.29","2d_cat_multi_stim_exp1","2022-4-6","15:47:28","25","75","3","9","10","40","30","120","17","18","[""Other""]","No","Female","2063496","null","null","learn_feedback","","","learn_feedback","26.6667","90","out","","","","","","","","","","","","","","","","","","","","","","",""
"","","","","","canvas-keyboard-response","161","358791","0.0-12.0-4.29","2d_cat_multi_stim_exp1","2022-4-6","15:47:28","25","75","3","9","10","40","30","120","17","18","[""Other""]","No","Female","2063496","null","null","","","","clear_screen","","","","","","","","","","","","","","","","","","","","","","","","","",""
"","","","","","canvas-keyboard-response","162","359301","0.0-12.0-0.30","2d_cat_multi_stim_exp1","2022-4-6","15:47:28","25","75","3","9","10","40","30","120","17","18","[""Other""]","No","Female","2063496","null","null","","","","fixation","","","","","","","","","","","","","","","","","","","","","","","","","",""
"","","","","","canvas-keyboard-response","163","359813","0.0-12.0-1.30","2d_cat_multi_stim_exp1","2022-4-6","15:47:28","25","75","3","9","10","40","30","120","17","18","[""Other""]","No","Female","2063496","null","null","","","","clear_screen","","","","","","","","","","","","","","","","","","","","","","","","","",""
"","","","","","canvas-keyboard-response","164","360629","0.0-12.0-2.30","2d_cat_multi_stim_exp1","2022-4-6","15:47:28","25","75","3","9","10","40","30","120","17","18","[""Other""]","No","Female","2063496","805","i","learn","","","learn_trial","40","80","out","0","1","","","","","","","","","","","","","","","","","","","","",""
"","","","","","canvas-keyboard-response","165","361142","0.0-12.0-3.30","2d_cat_multi_stim_exp1","2022-4-6","15:47:28","25","75","3","9","10","40","30","120","17","18","[""Other""]","No","Female","2063496","null","null","learn_feedback","","","learn_feedback","40","80","out","","","","","","","","","","","","","","","","","","","","","","",""
"","","","","","canvas-keyboard-response","166","361203","0.0-12.0-4.30","2d_cat_multi_stim_exp1","2022-4-6","15:47:28","25","75","3","9","10","40","30","120","17","18","[""Other""]","No","Female","2063496","null","null","","","","clear_screen","","","","","","","","","","","","","","","","","","","","","","","","","",""
"","","","","","canvas-keyboard-response","167","361715","0.0-12.0-0.31","2d_cat_multi_stim_exp1","2022-4-6","15:47:28","25","75","3","9","10","40","30","120","17","18","[""Other""]","No","Female","2063496","null","null","","","","fixation","","","","","","","","","","","","","","","","","","","","","","","","","",""
"","","","","","canvas-keyboard-response","168","362229","0.0-12.0-1.31","2d_cat_multi_stim_exp1","2022-4-6","15:47:28","25","75","3","9","10","40","30","120","17","18","[""Other""]","No","Female","2063496","null","null","","","","clear_screen","","","","","","","","","","","","","","","","","","","","","","","","","",""
"","","","","","canvas-keyboard-response","169","363981","0.0-12.0-2.31","2d_cat_multi_stim_exp1","2022-4-6","15:47:28","25","75","3","9","10","40","30","120","17","18","[""Other""]","No","Female","2063496","1741","u","learn","","","learn_trial","25","75","in","1","1","","","","","","","","","","","","","","","","","","","","",""
"","","","","","canvas-keyboard-response","170","364492","0.0-12.0-3.31","2d_cat_multi_stim_exp1","2022-4-6","15:47:28","25","75","3","9","10","40","30","120","17","18","[""Other""]","No","Female","2063496","null","null","learn_feedback","","","learn_feedback","25","75","in","","","","","","","","","","","","","","","","","","","","","","",""
"","","","","","canvas-keyboard-response","171","364554","0.0-12.0-4.31","2d_cat_multi_stim_exp1","2022-4-6","15:47:28","25","75","3","9","10","40","30","120","17","18","[""Other""]","No","Female","2063496","null","null","","","","clear_screen","","","","","","","","","","","","","","","","","","","","","","","","","",""
"","","","","","canvas-keyboard-response","172","365064","0.0-12.0-0.32","2d_cat_multi_stim_exp1","2022-4-6","15:47:28","25","75","3","9","10","40","30","120","17","18","[""Other""]","No","Female","2063496","null","null","","","","fixation","","","","","","","","","","","","","","","","","","","","","","","","","",""
"","","","","","canvas-keyboard-response","173","365578","0.0-12.0-1.32","2d_cat_multi_stim_exp1","2022-4-6","15:47:28","25","75","3","9","10","40","30","120","17","18","[""Other""]","No","Female","2063496","null","null","","","","clear_screen","","","","","","","","","","","","","","","","","","","","","","","","","",""
"","","","","","canvas-keyboard-response","174","366292","0.0-12.0-2.32","2d_cat_multi_stim_exp1","2022-4-6","15:47:28","25","75","3","9","10","40","30","120","17","18","[""Other""]","No","Female","2063496","705","i","learn","","","learn_trial","13.3333","120","out","0","1","","","","","","","","","","","","","","","","","","","","",""
"","","","","","canvas-keyboard-response","175","366804","0.0-12.0-3.32","2d_cat_multi_stim_exp1","2022-4-6","15:47:28","25","75","3","9","10","40","30","120","17","18","[""Other""]","No","Female","2063496","null","null","learn_feedback","","","learn_feedback","13.3333","120","out","","","","","","","","","","","","","","","","","","","","","","",""
"","","","","","canvas-keyboard-response","176","366864","0.0-12.0-4.32","2d_cat_multi_stim_exp1","2022-4-6","15:47:28","25","75","3","9","10","40","30","120","17","18","[""Other""]","No","Female","2063496","null","null","","","","clear_screen","","","","","","","","","","","","","","","","","","","","","","","","","",""
"","","","","","canvas-keyboard-response","177","367375","0.0-12.0-0.33","2d_cat_multi_stim_exp1","2022-4-6","15:47:28","25","75","3","9","10","40","30","120","17","18","[""Other""]","No","Female","2063496","null","null","","","","fixation","","","","","","","","","","","","","","","","","","","","","","","","","",""
"","","","","","canvas-keyboard-response","178","367887","0.0-12.0-1.33","2d_cat_multi_stim_exp1","2022-4-6","15:47:28","25","75","3","9","10","40","30","120","17","18","[""Other""]","No","Female","2063496","null","null","","","","clear_screen","","","","","","","","","","","","","","","","","","","","","","","","","",""
"","","","","","canvas-keyboard-response","179","368526","0.0-12.0-2.33","2d_cat_multi_stim_exp1","2022-4-6","15:47:28","25","75","3","9","10","40","30","120","17","18","[""Other""]","No","Female","2063496","625","u","learn","","","learn_trial","25","75","in","1","1","","","","","","","","","","","","","","","","","","","","",""
"","","","","","canvas-keyboard-response","180","369036","0.0-12.0-3.33","2d_cat_multi_stim_exp1","2022-4-6","15:47:28","25","75","3","9","10","40","30","120","17","18","[""Other""]","No","Female","2063496","null","null","learn_feedback","","","learn_feedback","25","75","in","","","","","","","","","","","","","","","","","","","","","","",""
"","","","","","canvas-keyboard-response","181","369100","0.0-12.0-4.33","2d_cat_multi_stim_exp1","2022-4-6","15:47:28","25","75","3","9","10","40","30","120","17","18","[""Other""]","No","Female","2063496","null","null","","","","clear_screen","","","","","","","","","","","","","","","","","","","","","","","","","",""
"","","","","","canvas-keyboard-response","182","369610","0.0-12.0-0.34","2d_cat_multi_stim_exp1","2022-4-6","15:47:28","25","75","3","9","10","40","30","120","17","18","[""Other""]","No","Female","2063496","null","null","","","","fixation","","","","","","","","","","","","","","","","","","","","","","","","","",""
"","","","","","canvas-keyboard-response","183","370124","0.0-12.0-1.34","2d_cat_multi_stim_exp1","2022-4-6","15:47:28","25","75","3","9","10","40","30","120","17","18","[""Other""]","No","Female","2063496","null","null","","","","clear_screen","","","","","","","","","","","","","","","","","","","","","","","","","",""
"","","","","","canvas-keyboard-response","184","370837","0.0-12.0-2.34","2d_cat_multi_stim_exp1","2022-4-6","15:47:28","25","75","3","9","10","40","30","120","17","18","[""Other""]","No","Female","2063496","702","i","learn","","","learn_trial","30","30","out","0","1","","","","","","","","","","","","","","","","","","","","",""
"","","","","","canvas-keyboard-response","185","371351","0.0-12.0-3.34","2d_cat_multi_stim_exp1","2022-4-6","15:47:28","25","75","3","9","10","40","30","120","17","18","[""Other""]","No","Female","2063496","null","null","learn_feedback","","","learn_feedback","30","30","out","","","","","","","","","","","","","","","","","","","","","","",""
"","","","","","canvas-keyboard-response","186","371410","0.0-12.0-4.34","2d_cat_multi_stim_exp1","2022-4-6","15:47:28","25","75","3","9","10","40","30","120","17","18","[""Other""]","No","Female","2063496","null","null","","","","clear_screen","","","","","","","","","","","","","","","","","","","","","","","","","",""
"","","","","","canvas-keyboard-response","187","371922","0.0-12.0-0.35","2d_cat_multi_stim_exp1","2022-4-6","15:47:28","25","75","3","9","10","40","30","120","17","18","[""Other""]","No","Female","2063496","null","null","","","","fixation","","","","","","","","","","","","","","","","","","","","","","","","","",""
"","","","","","canvas-keyboard-response","188","372436","0.0-12.0-1.35","2d_cat_multi_stim_exp1","2022-4-6","15:47:28","25","75","3","9","10","40","30","120","17","18","[""Other""]","No","Female","2063496","null","null","","","","clear_screen","","","","","","","","","","","","","","","","","","","","","","","","","",""
"","","","","","canvas-keyboard-response","189","373164","0.0-12.0-2.35","2d_cat_multi_stim_exp1","2022-4-6","15:47:28","25","75","3","9","10","40","30","120","17","18","[""Other""]","No","Female","2063496","718","u","learn","","","learn_trial","23.3473","67.4888","in","1","1","","","","","","","","","","","","","","","","","","","","",""
"","","","","","canvas-keyboard-response","190","373676","0.0-12.0-3.35","2d_cat_multi_stim_exp1","2022-4-6","15:47:28","25","75","3","9","10","40","30","120","17","18","[""Other""]","No","Female","2063496","null","null","learn_feedback","","","learn_feedback","23.3473","67.4888","in","","","","","","","","","","","","","","","","","","","","","","",""
"","","","","","canvas-keyboard-response","191","373735","0.0-12.0-4.35","2d_cat_multi_stim_exp1","2022-4-6","15:47:28","25","75","3","9","10","40","30","120","17","18","[""Other""]","No","Female","2063496","null","null","","","","clear_screen","","","","","","","","","","","","","","","","","","","","","","","","","",""
"","","","","","canvas-keyboard-response","192","374246","0.0-12.0-0.36","2d_cat_multi_stim_exp1","2022-4-6","15:47:28","25","75","3","9","10","40","30","120","17","18","[""Other""]","No","Female","2063496","null","null","","","","fixation","","","","","","","","","","","","","","","","","","","","","","","","","",""
"","","","","","canvas-keyboard-response","193","374757","0.0-12.0-1.36","2d_cat_multi_stim_exp1","2022-4-6","15:47:28","25","75","3","9","10","40","30","120","17","18","[""Other""]","No","Female","2063496","null","null","","","","clear_screen","","","","","","","","","","","","","","","","","","","","","","","","","",""
"","","","","","canvas-keyboard-response","194","375413","0.0-12.0-2.36","2d_cat_multi_stim_exp1","2022-4-6","15:47:28","25","75","3","9","10","40","30","120","17","18","[""Other""]","No","Female","2063496","646","i","learn","","","learn_trial","10","80","out","0","1","","","","","","","","","","","","","","","","","","","","",""
"","","","","","canvas-keyboard-response","195","375923","0.0-12.0-3.36","2d_cat_multi_stim_exp1","2022-4-6","15:47:28","25","75","3","9","10","40","30","120","17","18","[""Other""]","No","Female","2063496","null","null","learn_feedback","","","learn_feedback","10","80","out","","","","","","","","","","","","","","","","","","","","","","",""
"","","","","","canvas-keyboard-response","196","375985","0.0-12.0-4.36","2d_cat_multi_stim_exp1","2022-4-6","15:47:28","25","75","3","9","10","40","30","120","17","18","[""Other""]","No","Female","2063496","null","null","","","","clear_screen","","","","","","","","","","","","","","","","","","","","","","","","","",""
"","","","","","canvas-keyboard-response","197","376495","0.0-12.0-0.37","2d_cat_multi_stim_exp1","2022-4-6","15:47:28","25","75","3","9","10","40","30","120","17","18","[""Other""]","No","Female","2063496","null","null","","","","fixation","","","","","","","","","","","","","","","","","","","","","","","","","",""
"","","","","","canvas-keyboard-response","198","377012","0.0-12.0-1.37","2d_cat_multi_stim_exp1","2022-4-6","15:47:28","25","75","3","9","10","40","30","120","17","18","[""Other""]","No","Female","2063496","null","null","","","","clear_screen","","","","","","","","","","","","","","","","","","","","","","","","","",""
"","","","","","canvas-keyboard-response","199","377605","0.0-12.0-2.37","2d_cat_multi_stim_exp1","2022-4-6","15:47:28","25","75","3","9","10","40","30","120","17","18","[""Other""]","No","Female","2063496","582","u","learn","","","learn_trial","22.0121","75.8068","in","1","1","","","","","","","","","","","","","","","","","","","","",""
"","","","","","canvas-keyboard-response","200","378116","0.0-12.0-3.37","2d_cat_multi_stim_exp1","2022-4-6","15:47:28","25","75","3","9","10","40","30","120","17","18","[""Other""]","No","Female","2063496","null","null","learn_feedback","","","learn_feedback","22.0121","75.8068","in","","","","","","","","","","","","","","","","","","","","","","",""
"","","","","","canvas-keyboard-response","201","378177","0.0-12.0-4.37","2d_cat_multi_stim_exp1","2022-4-6","15:47:28","25","75","3","9","10","40","30","120","17","18","[""Other""]","No","Female","2063496","null","null","","","","clear_screen","","","","","","","","","","","","","","","","","","","","","","","","","",""
"","","","","","canvas-keyboard-response","202","378691","0.0-12.0-0.38","2d_cat_multi_stim_exp1","2022-4-6","15:47:28","25","75","3","9","10","40","30","120","17","18","[""Other""]","No","Female","2063496","null","null","","","","fixation","","","","","","","","","","","","","","","","","","","","","","","","","",""
"","","","","","canvas-keyboard-response","203","379202","0.0-12.0-1.38","2d_cat_multi_stim_exp1","2022-4-6","15:47:28","25","75","3","9","10","40","30","120","17","18","[""Other""]","No","Female","2063496","null","null","","","","clear_screen","","","","","","","","","","","","","","","","","","","","","","","","","",""
"","","","","","canvas-keyboard-response","204","380109","0.0-12.0-2.38","2d_cat_multi_stim_exp1","2022-4-6","15:47:28","25","75","3","9","10","40","30","120","17","18","[""Other""]","No","Female","2063496","898","u","learn","","","learn_trial","19","75","in","1","1","","","","","","","","","","","","","","","","","","","","",""
"","","","","","canvas-keyboard-response","205","380617","0.0-12.0-3.38","2d_cat_multi_stim_exp1","2022-4-6","15:47:28","25","75","3","9","10","40","30","120","17","18","[""Other""]","No","Female","2063496","null","null","learn_feedback","","","learn_feedback","19","75","in","","","","","","","","","","","","","","","","","","","","","","",""
"","","","","","canvas-keyboard-response","206","380678","0.0-12.0-4.38","2d_cat_multi_stim_exp1","2022-4-6","15:47:28","25","75","3","9","10","40","30","120","17","18","[""Other""]","No","Female","2063496","null","null","","","","clear_screen","","","","","","","","","","","","","","","","","","","","","","","","","",""
"","","","","","canvas-keyboard-response","207","381187","0.0-12.0-0.39","2d_cat_multi_stim_exp1","2022-4-6","15:47:28","25","75","3","9","10","40","30","120","17","18","[""Other""]","No","Female","2063496","null","null","","","","fixation","","","","","","","","","","","","","","","","","","","","","","","","","",""
"","","","","","canvas-keyboard-response","208","381701","0.0-12.0-1.39","2d_cat_multi_stim_exp1","2022-4-6","15:47:28","25","75","3","9","10","40","30","120","17","18","[""Other""]","No","Female","2063496","null","null","","","","clear_screen","","","","","","","","","","","","","","","","","","","","","","","","","",""
"","","","","","canvas-keyboard-response","209","382285","0.0-12.0-2.39","2d_cat_multi_stim_exp1","2022-4-6","15:47:28","25","75","3","9","10","40","30","120","17","18","[""Other""]","No","Female","2063496","570","i","learn","","","learn_trial","10","50","out","0","1","","","","","","","","","","","","","","","","","","","","",""
"","","","","","canvas-keyboard-response","210","382795","0.0-12.0-3.39","2d_cat_multi_stim_exp1","2022-4-6","15:47:28","25","75","3","9","10","40","30","120","17","18","[""Other""]","No","Female","2063496","null","null","learn_feedback","","","learn_feedback","10","50","out","","","","","","","","","","","","","","","","","","","","","","",""
"","","","","","canvas-keyboard-response","211","382858","0.0-12.0-4.39","2d_cat_multi_stim_exp1","2022-4-6","15:47:28","25","75","3","9","10","40","30","120","17","18","[""Other""]","No","Female","2063496","null","null","","","","clear_screen","","","","","","","","","","","","","","","","","","","","","","","","","",""
"","","","","","canvas-keyboard-response","212","383371","0.0-12.0-0.40","2d_cat_multi_stim_exp1","2022-4-6","15:47:28","25","75","3","9","10","40","30","120","17","18","[""Other""]","No","Female","2063496","null","null","","","","fixation","","","","","","","","","","","","","","","","","","","","","","","","","",""
"","","","","","canvas-keyboard-response","213","383884","0.0-12.0-1.40","2d_cat_multi_stim_exp1","2022-4-6","15:47:28","25","75","3","9","10","40","30","120","17","18","[""Other""]","No","Female","2063496","null","null","","","","clear_screen","","","","","","","","","","","","","","","","","","","","","","","","","",""
"","","","","","canvas-keyboard-response","214","384885","0.0-12.0-2.40","2d_cat_multi_stim_exp1","2022-4-6","15:47:28","25","75","3","9","10","40","30","120","17","18","[""Other""]","No","Female","2063496","988","i","learn","","","learn_trial","26.6667","40","out","0","1","","","","","","","","","","","","","","","","","","","","",""
"","","","","","canvas-keyboard-response","215","385396","0.0-12.0-3.40","2d_cat_multi_stim_exp1","2022-4-6","15:47:28","25","75","3","9","10","40","30","120","17","18","[""Other""]","No","Female","2063496","null","null","learn_feedback","","","learn_feedback","26.6667","40","out","","","","","","","","","","","","","","","","","","","","","","",""
"","","","","","canvas-keyboard-response","216","385461","0.0-12.0-4.40","2d_cat_multi_stim_exp1","2022-4-6","15:47:28","25","75","3","9","10","40","30","120","17","18","[""Other""]","No","Female","2063496","null","null","","","","clear_screen","","","","","","","","","","","","","","","","","","","","","","","","","",""
"","","","","","canvas-keyboard-response","217","385970","0.0-12.0-0.41","2d_cat_multi_stim_exp1","2022-4-6","15:47:28","25","75","3","9","10","40","30","120","17","18","[""Other""]","No","Female","2063496","null","null","","","","fixation","","","","","","","","","","","","","","","","","","","","","","","","","",""
"","","","","","canvas-keyboard-response","218","386485","0.0-12.0-1.41","2d_cat_multi_stim_exp1","2022-4-6","15:47:28","25","75","3","9","10","40","30","120","17","18","[""Other""]","No","Female","2063496","null","null","","","","clear_screen","","","","","","","","","","","","","","","","","","","","","","","","","",""
"","","","","","canvas-keyboard-response","219","387165","0.0-12.0-2.41","2d_cat_multi_stim_exp1","2022-4-6","15:47:28","25","75","3","9","10","40","30","120","17","18","[""Other""]","No","Female","2063496","671","u","learn","","","learn_trial","25","75","in","1","1","","","","","","","","","","","","","","","","","","","","",""
"","","","","","canvas-keyboard-response","220","387678","0.0-12.0-3.41","2d_cat_multi_stim_exp1","2022-4-6","15:47:28","25","75","3","9","10","40","30","120","17","18","[""Other""]","No","Female","2063496","null","null","learn_feedback","","","learn_feedback","25","75","in","","","","","","","","","","","","","","","","","","","","","","",""
"","","","","","canvas-keyboard-response","221","387741","0.0-12.0-4.41","2d_cat_multi_stim_exp1","2022-4-6","15:47:28","25","75","3","9","10","40","30","120","17","18","[""Other""]","No","Female","2063496","null","null","","","","clear_screen","","","","","","","","","","","","","","","","","","","","","","","","","",""
"","","","","","canvas-keyboard-response","222","388254","0.0-12.0-0.42","2d_cat_multi_stim_exp1","2022-4-6","15:47:28","25","75","3","9","10","40","30","120","17","18","[""Other""]","No","Female","2063496","null","null","","","","fixation","","","","","","","","","","","","","","","","","","","","","","","","","",""
"","","","","","canvas-keyboard-response","223","388766","0.0-12.0-1.42","2d_cat_multi_stim_exp1","2022-4-6","15:47:28","25","75","3","9","10","40","30","120","17","18","[""Other""]","No","Female","2063496","null","null","","","","clear_screen","","","","","","","","","","","","","","","","","","","","","","","","","",""
"","","","","","canvas-keyboard-response","224","389461","0.0-12.0-2.42","2d_cat_multi_stim_exp1","2022-4-6","15:47:28","25","75","3","9","10","40","30","120","17","18","[""Other""]","No","Female","2063496","687","i","learn","","","learn_trial","26.6667","30","out","0","1","","","","","","","","","","","","","","","","","","","","",""
"","","","","","canvas-keyboard-response","225","389975","0.0-12.0-3.42","2d_cat_multi_stim_exp1","2022-4-6","15:47:28","25","75","3","9","10","40","30","120","17","18","[""Other""]","No","Female","2063496","null","null","learn_feedback","","","learn_feedback","26.6667","30","out","","","","","","","","","","","","","","","","","","","","","","",""
"","","","","","canvas-keyboard-response","226","390037","0.0-12.0-4.42","2d_cat_multi_stim_exp1","2022-4-6","15:47:28","25","75","3","9","10","40","30","120","17","18","[""Other""]","No","Female","2063496","null","null","","","","clear_screen","","","","","","","","","","","","","","","","","","","","","","","","","",""
"","","","","","canvas-keyboard-response","227","390548","0.0-12.0-0.43","2d_cat_multi_stim_exp1","2022-4-6","15:47:28","25","75","3","9","10","40","30","120","17","18","[""Other""]","No","Female","2063496","null","null","","","","fixation","","","","","","","","","","","","","","","","","","","","","","","","","",""
"","","","","","canvas-keyboard-response","228","391061","0.0-12.0-1.43","2d_cat_multi_stim_exp1","2022-4-6","15:47:28","25","75","3","9","10","40","30","120","17","18","[""Other""]","No","Female","2063496","null","null","","","","clear_screen","","","","","","","","","","","","","","","","","","","","","","","","","",""
"","","","","","canvas-keyboard-response","229","392101","0.0-12.0-2.43","2d_cat_multi_stim_exp1","2022-4-6","15:47:28","25","75","3","9","10","40","30","120","17","18","[""Other""]","No","Female","2063496","1030","u","learn","","","learn_trial","25","57","in","1","1","","","","","","","","","","","","","","","","","","","","",""
"","","","","","canvas-keyboard-response","230","392613","0.0-12.0-3.43","2d_cat_multi_stim_exp1","2022-4-6","15:47:28","25","75","3","9","10","40","30","120","17","18","[""Other""]","No","Female","2063496","null","null","learn_feedback","","","learn_feedback","25","57","in","","","","","","","","","","","","","","","","","","","","","","",""
"","","","","","canvas-keyboard-response","231","392677","0.0-12.0-4.43","2d_cat_multi_stim_exp1","2022-4-6","15:47:28","25","75","3","9","10","40","30","120","17","18","[""Other""]","No","Female","2063496","null","null","","","","clear_screen","","","","","","","","","","","","","","","","","","","","","","","","","",""
"","","","","","canvas-keyboard-response","232","393190","0.0-12.0-0.44","2d_cat_multi_stim_exp1","2022-4-6","15:47:28","25","75","3","9","10","40","30","120","17","18","[""Other""]","No","Female","2063496","null","null","","","","fixation","","","","","","","","","","","","","","","","","","","","","","","","","",""
"","","","","","canvas-keyboard-response","233","393700","0.0-12.0-1.44","2d_cat_multi_stim_exp1","2022-4-6","15:47:28","25","75","3","9","10","40","30","120","17","18","[""Other""]","No","Female","2063496","null","null","","","","clear_screen","","","","","","","","","","","","","","","","","","","","","","","","","",""
"","","","","","canvas-keyboard-response","234","394493","0.0-12.0-2.44","2d_cat_multi_stim_exp1","2022-4-6","15:47:28","25","75","3","9","10","40","30","120","17","18","[""Other""]","No","Female","2063496","783","u","learn","","","learn_trial","20","50","out","1","0","","","","","","","","","","","","","","","","","","","","",""
"","","","","","canvas-keyboard-response","235","395505","0.0-12.0-3.44","2d_cat_multi_stim_exp1","2022-4-6","15:47:28","25","75","3","9","10","40","30","120","17","18","[""Other""]","No","Female","2063496","null","null","learn_feedback","","","learn_feedback","20","50","out","","","","","","","","","","","","","","","","","","","","","","",""
"","","","","","canvas-keyboard-response","236","395565","0.0-12.0-4.44","2d_cat_multi_stim_exp1","2022-4-6","15:47:28","25","75","3","9","10","40","30","120","17","18","[""Other""]","No","Female","2063496","null","null","","","","clear_screen","","","","","","","","","","","","","","","","","","","","","","","","","",""
"","","","","","canvas-keyboard-response","237","396076","0.0-12.0-0.45","2d_cat_multi_stim_exp1","2022-4-6","15:47:28","25","75","3","9","10","40","30","120","17","18","[""Other""]","No","Female","2063496","null","null","","","","fixation","","","","","","","","","","","","","","","","","","","","","","","","","",""
"","","","","","canvas-keyboard-response","238","396590","0.0-12.0-1.45","2d_cat_multi_stim_exp1","2022-4-6","15:47:28","25","75","3","9","10","40","30","120","17","18","[""Other""]","No","Female","2063496","null","null","","","","clear_screen","","","","","","","","","","","","","","","","","","","","","","","","","",""
"","","","","","canvas-keyboard-response","239","397637","0.0-12.0-2.45","2d_cat_multi_stim_exp1","2022-4-6","15:47:28","25","75","3","9","10","40","30","120","17","18","[""Other""]","No","Female","2063496","1037","i","learn","","","learn_trial","40","40","out","0","1","","","","","","","","","","","","","","","","","","","","",""
"","","","","","canvas-keyboard-response","240","398147","0.0-12.0-3.45","2d_cat_multi_stim_exp1","2022-4-6","15:47:28","25","75","3","9","10","40","30","120","17","18","[""Other""]","No","Female","2063496","null","null","learn_feedback","","","learn_feedback","40","40","out","","","","","","","","","","","","","","","","","","","","","","",""
"","","","","","canvas-keyboard-response","241","398206","0.0-12.0-4.45","2d_cat_multi_stim_exp1","2022-4-6","15:47:28","25","75","3","9","10","40","30","120","17","18","[""Other""]","No","Female","2063496","null","null","","","","clear_screen","","","","","","","","","","","","","","","","","","","","","","","","","",""
"","","","","","canvas-keyboard-response","242","398716","0.0-12.0-0.46","2d_cat_multi_stim_exp1","2022-4-6","15:47:28","25","75","3","9","10","40","30","120","17","18","[""Other""]","No","Female","2063496","null","null","","","","fixation","","","","","","","","","","","","","","","","","","","","","","","","","",""
"","","","","","canvas-keyboard-response","243","399227","0.0-12.0-1.46","2d_cat_multi_stim_exp1","2022-4-6","15:47:28","25","75","3","9","10","40","30","120","17","18","[""Other""]","No","Female","2063496","null","null","","","","clear_screen","","","","","","","","","","","","","","","","","","","","","","","","","",""
"","","","","","canvas-keyboard-response","244","400133","0.0-12.0-2.46","2d_cat_multi_stim_exp1","2022-4-6","15:47:28","25","75","3","9","10","40","30","120","17","18","[""Other""]","No","Female","2063496","896","u","learn","","","learn_trial","25","75","in","1","1","","","","","","","","","","","","","","","","","","","","",""
"","","","","","canvas-keyboard-response","245","400647","0.0-12.0-3.46","2d_cat_multi_stim_exp1","2022-4-6","15:47:28","25","75","3","9","10","40","30","120","17","18","[""Other""]","No","Female","2063496","null","null","learn_feedback","","","learn_feedback","25","75","in","","","","","","","","","","","","","","","","","","","","","","",""
"","","","","","canvas-keyboard-response","246","400709","0.0-12.0-4.46","2d_cat_multi_stim_exp1","2022-4-6","15:47:28","25","75","3","9","10","40","30","120","17","18","[""Other""]","No","Female","2063496","null","null","","","","clear_screen","","","","","","","","","","","","","","","","","","","","","","","","","",""
"","","","","","canvas-keyboard-response","247","401219","0.0-12.0-0.47","2d_cat_multi_stim_exp1","2022-4-6","15:47:28","25","75","3","9","10","40","30","120","17","18","[""Other""]","No","Female","2063496","null","null","","","","fixation","","","","","","","","","","","","","","","","","","","","","","","","","",""
"","","","","","canvas-keyboard-response","248","401734","0.0-12.0-1.47","2d_cat_multi_stim_exp1","2022-4-6","15:47:28","25","75","3","9","10","40","30","120","17","18","[""Other""]","No","Female","2063496","null","null","","","","clear_screen","","","","","","","","","","","","","","","","","","","","","","","","","",""
"","","","","","canvas-keyboard-response","249","403533","0.0-12.0-2.47","2d_cat_multi_stim_exp1","2022-4-6","15:47:28","25","75","3","9","10","40","30","120","17","18","[""Other""]","No","Female","2063496","1788","u","learn","","","learn_trial","26.4216","82.9254","in","1","1","","","","","","","","","","","","","","","","","","","","",""
"","","","","","canvas-keyboard-response","250","404046","0.0-12.0-3.47","2d_cat_multi_stim_exp1","2022-4-6","15:47:28","25","75","3","9","10","40","30","120","17","18","[""Other""]","No","Female","2063496","null","null","learn_feedback","","","learn_feedback","26.4216","82.9254","in","","","","","","","","","","","","","","","","","","","","","","",""
"","","","","","canvas-keyboard-response","251","404109","0.0-12.0-4.47","2d_cat_multi_stim_exp1","2022-4-6","15:47:28","25","75","3","9","10","40","30","120","17","18","[""Other""]","No","Female","2063496","null","null","","","","clear_screen","","","","","","","","","","","","","","","","","","","","","","","","","",""
"","","","","","canvas-keyboard-response","252","404617","0.0-12.0-0.48","2d_cat_multi_stim_exp1","2022-4-6","15:47:28","25","75","3","9","10","40","30","120","17","18","[""Other""]","No","Female","2063496","null","null","","","","fixation","","","","","","","","","","","","","","","","","","","","","","","","","",""
"","","","","","canvas-keyboard-response","253","405128","0.0-12.0-1.48","2d_cat_multi_stim_exp1","2022-4-6","15:47:28","25","75","3","9","10","40","30","120","17","18","[""Other""]","No","Female","2063496","null","null","","","","clear_screen","","","","","","","","","","","","","","","","","","","","","","","","","",""
"","","","","","canvas-keyboard-response","254","406437","0.0-12.0-2.48","2d_cat_multi_stim_exp1","2022-4-6","15:47:28","25","75","3","9","10","40","30","120","17","18","[""Other""]","No","Female","2063496","1299","u","learn","","","learn_trial","22.1081","72.6057","in","1","1","","","","","","","","","","","","","","","","","","","","",""
"","","","","","canvas-keyboard-response","255","406949","0.0-12.0-3.48","2d_cat_multi_stim_exp1","2022-4-6","15:47:28","25","75","3","9","10","40","30","120","17","18","[""Other""]","No","Female","2063496","null","null","learn_feedback","","","learn_feedback","22.1081","72.6057","in","","","","","","","","","","","","","","","","","","","","","","",""
"","","","","","canvas-keyboard-response","256","407008","0.0-12.0-4.48","2d_cat_multi_stim_exp1","2022-4-6","15:47:28","25","75","3","9","10","40","30","120","17","18","[""Other""]","No","Female","2063496","null","null","","","","clear_screen","","","","","","","","","","","","","","","","","","","","","","","","","",""
"","","","","","canvas-keyboard-response","257","407523","0.0-12.0-0.49","2d_cat_multi_stim_exp1","2022-4-6","15:47:28","25","75","3","9","10","40","30","120","17","18","[""Other""]","No","Female","2063496","null","null","","","","fixation","","","","","","","","","","","","","","","","","","","","","","","","","",""
"","","","","","canvas-keyboard-response","258","408034","0.0-12.0-1.49","2d_cat_multi_stim_exp1","2022-4-6","15:47:28","25","75","3","9","10","40","30","120","17","18","[""Other""]","No","Female","2063496","null","null","","","","clear_screen","","","","","","","","","","","","","","","","","","","","","","","","","",""
"","","","","","canvas-keyboard-response","259","408917","0.0-12.0-2.49","2d_cat_multi_stim_exp1","2022-4-6","15:47:28","25","75","3","9","10","40","30","120","17","18","[""Other""]","No","Female","2063496","870","i","learn","","","learn_trial","10","100","out","0","1","","","","","","","","","","","","","","","","","","","","",""
"","","","","","canvas-keyboard-response","260","409431","0.0-12.0-3.49","2d_cat_multi_stim_exp1","2022-4-6","15:47:28","25","75","3","9","10","40","30","120","17","18","[""Other""]","No","Female","2063496","null","null","learn_feedback","","","learn_feedback","10","100","out","","","","","","","","","","","","","","","","","","","","","","",""
"","","","","","canvas-keyboard-response","261","409493","0.0-12.0-4.49","2d_cat_multi_stim_exp1","2022-4-6","15:47:28","25","75","3","9","10","40","30","120","17","18","[""Other""]","No","Female","2063496","null","null","","","","clear_screen","","","","","","","","","","","","","","","","","","","","","","","","","",""
"","","","","","canvas-keyboard-response","262","410006","0.0-12.0-0.50","2d_cat_multi_stim_exp1","2022-4-6","15:47:28","25","75","3","9","10","40","30","120","17","18","[""Other""]","No","Female","2063496","null","null","","","","fixation","","","","","","","","","","","","","","","","","","","","","","","","","",""
"","","","","","canvas-keyboard-response","263","410520","0.0-12.0-1.50","2d_cat_multi_stim_exp1","2022-4-6","15:47:28","25","75","3","9","10","40","30","120","17","18","[""Other""]","No","Female","2063496","null","null","","","","clear_screen","","","","","","","","","","","","","","","","","","","","","","","","","",""
"","","","","","canvas-keyboard-response","264","411428","0.0-12.0-2.50","2d_cat_multi_stim_exp1","2022-4-6","15:47:28","25","75","3","9","10","40","30","120","17","18","[""Other""]","No","Female","2063496","895","u","learn","","","learn_trial","26.8705","82.0365","in","1","1","","","","","","","","","","","","","","","","","","","","",""
"","","","","","canvas-keyboard-response","265","411939","0.0-12.0-3.50","2d_cat_multi_stim_exp1","2022-4-6","15:47:28","25","75","3","9","10","40","30","120","17","18","[""Other""]","No","Female","2063496","null","null","learn_feedback","","","learn_feedback","26.8705","82.0365","in","","","","","","","","","","","","","","","","","","","","","","",""
"","","","","","canvas-keyboard-response","266","412004","0.0-12.0-4.50","2d_cat_multi_stim_exp1","2022-4-6","15:47:28","25","75","3","9","10","40","30","120","17","18","[""Other""]","No","Female","2063496","null","null","","","","clear_screen","","","","","","","","","","","","","","","","","","","","","","","","","",""
"","","","","","canvas-keyboard-response","267","412518","0.0-12.0-0.51","2d_cat_multi_stim_exp1","2022-4-6","15:47:28","25","75","3","9","10","40","30","120","17","18","[""Other""]","No","Female","2063496","null","null","","","","fixation","","","","","","","","","","","","","","","","","","","","","","","","","",""
"","","","","","canvas-keyboard-response","268","413029","0.0-12.0-1.51","2d_cat_multi_stim_exp1","2022-4-6","15:47:28","25","75","3","9","10","40","30","120","17","18","[""Other""]","No","Female","2063496","null","null","","","","clear_screen","","","","","","","","","","","","","","","","","","","","","","","","","",""
"","","","","","canvas-keyboard-response","269","416413","0.0-12.0-2.51","2d_cat_multi_stim_exp1","2022-4-6","15:47:28","25","75","3","9","10","40","30","120","17","18","[""Other""]","No","Female","2063496","3373","u","learn","","","learn_trial","16.6667","90","out","1","0","","","","","","","","","","","","","","","","","","","","",""
"","","","","","canvas-keyboard-response","270","417427","0.0-12.0-3.51","2d_cat_multi_stim_exp1","2022-4-6","15:47:28","25","75","3","9","10","40","30","120","17","18","[""Other""]","No","Female","2063496","null","null","learn_feedback","","","learn_feedback","16.6667","90","out","","","","","","","","","","","","","","","","","","","","","","",""
"","","","","","canvas-keyboard-response","271","417489","0.0-12.0-4.51","2d_cat_multi_stim_exp1","2022-4-6","15:47:28","25","75","3","9","10","40","30","120","17","18","[""Other""]","No","Female","2063496","null","null","","","","clear_screen","","","","","","","","","","","","","","","","","","","","","","","","","",""
"","","","","","canvas-keyboard-response","272","418002","0.0-12.0-0.52","2d_cat_multi_stim_exp1","2022-4-6","15:47:28","25","75","3","9","10","40","30","120","17","18","[""Other""]","No","Female","2063496","null","null","","","","fixation","","","","","","","","","","","","","","","","","","","","","","","","","",""
"","","","","","canvas-keyboard-response","273","418517","0.0-12.0-1.52","2d_cat_multi_stim_exp1","2022-4-6","15:47:28","25","75","3","9","10","40","30","120","17","18","[""Other""]","No","Female","2063496","null","null","","","","clear_screen","","","","","","","","","","","","","","","","","","","","","","","","","",""
"","","","","","canvas-keyboard-response","274","419141","0.0-12.0-2.52","2d_cat_multi_stim_exp1","2022-4-6","15:47:28","25","75","3","9","10","40","30","120","17","18","[""Other""]","No","Female","2063496","611","i","learn","","","learn_trial","16.6667","30","out","0","1","","","","","","","","","","","","","","","","","","","","",""
"","","","","","canvas-keyboard-response","275","419652","0.0-12.0-3.52","2d_cat_multi_stim_exp1","2022-4-6","15:47:28","25","75","3","9","10","40","30","120","17","18","[""Other""]","No","Female","2063496","null","null","learn_feedback","","","learn_feedback","16.6667","30","out","","","","","","","","","","","","","","","","","","","","","","",""
"","","","","","canvas-keyboard-response","276","419716","0.0-12.0-4.52","2d_cat_multi_stim_exp1","2022-4-6","15:47:28","25","75","3","9","10","40","30","120","17","18","[""Other""]","No","Female","2063496","null","null","","","","clear_screen","","","","","","","","","","","","","","","","","","","","","","","","","",""
"","","","","","canvas-keyboard-response","277","420226","0.0-12.0-0.53","2d_cat_multi_stim_exp1","2022-4-6","15:47:28","25","75","3","9","10","40","30","120","17","18","[""Other""]","No","Female","2063496","null","null","","","","fixation","","","","","","","","","","","","","","","","","","","","","","","","","",""
"","","","","","canvas-keyboard-response","278","420737","0.0-12.0-1.53","2d_cat_multi_stim_exp1","2022-4-6","15:47:28","25","75","3","9","10","40","30","120","17","18","[""Other""]","No","Female","2063496","null","null","","","","clear_screen","","","","","","","","","","","","","","","","","","","","","","","","","",""
"","","","","","canvas-keyboard-response","279","421581","0.0-12.0-2.53","2d_cat_multi_stim_exp1","2022-4-6","15:47:28","25","75","3","9","10","40","30","120","17","18","[""Other""]","No","Female","2063496","834","i","learn","","","learn_trial","40","100","out","0","1","","","","","","","","","","","","","","","","","","","","",""
"","","","","","canvas-keyboard-response","280","422092","0.0-12.0-3.53","2d_cat_multi_stim_exp1","2022-4-6","15:47:28","25","75","3","9","10","40","30","120","17","18","[""Other""]","No","Female","2063496","null","null","learn_feedback","","","learn_feedback","40","100","out","","","","","","","","","","","","","","","","","","","","","","",""
"","","","","","canvas-keyboard-response","281","422157","0.0-12.0-4.53","2d_cat_multi_stim_exp1","2022-4-6","15:47:28","25","75","3","9","10","40","30","120","17","18","[""Other""]","No","Female","2063496","null","null","","","","clear_screen","","","","","","","","","","","","","","","","","","","","","","","","","",""
"","","","","","canvas-keyboard-response","282","422668","0.0-12.0-0.54","2d_cat_multi_stim_exp1","2022-4-6","15:47:28","25","75","3","9","10","40","30","120","17","18","[""Other""]","No","Female","2063496","null","null","","","","fixation","","","","","","","","","","","","","","","","","","","","","","","","","",""
"","","","","","canvas-keyboard-response","283","423178","0.0-12.0-1.54","2d_cat_multi_stim_exp1","2022-4-6","15:47:28","25","75","3","9","10","40","30","120","17","18","[""Other""]","No","Female","2063496","null","null","","","","clear_screen","","","","","","","","","","","","","","","","","","","","","","","","","",""
"","","","","","canvas-keyboard-response","284","424045","0.0-12.0-2.54","2d_cat_multi_stim_exp1","2022-4-6","15:47:28","25","75","3","9","10","40","30","120","17","18","[""Other""]","No","Female","2063496","857","u","learn","","","learn_trial","25","75","in","1","1","","","","","","","","","","","","","","","","","","","","",""
"","","","","","canvas-keyboard-response","285","424554","0.0-12.0-3.54","2d_cat_multi_stim_exp1","2022-4-6","15:47:28","25","75","3","9","10","40","30","120","17","18","[""Other""]","No","Female","2063496","null","null","learn_feedback","","","learn_feedback","25","75","in","","","","","","","","","","","","","","","","","","","","","","",""
"","","","","","canvas-keyboard-response","286","424616","0.0-12.0-4.54","2d_cat_multi_stim_exp1","2022-4-6","15:47:28","25","75","3","9","10","40","30","120","17","18","[""Other""]","No","Female","2063496","null","null","","","","clear_screen","","","","","","","","","","","","","","","","","","","","","","","","","",""
"","","","","","canvas-keyboard-response","287","425125","0.0-12.0-0.55","2d_cat_multi_stim_exp1","2022-4-6","15:47:28","25","75","3","9","10","40","30","120","17","18","[""Other""]","No","Female","2063496","null","null","","","","fixation","","","","","","","","","","","","","","","","","","","","","","","","","",""
"","","","","","canvas-keyboard-response","288","425636","0.0-12.0-1.55","2d_cat_multi_stim_exp1","2022-4-6","15:47:28","25","75","3","9","10","40","30","120","17","18","[""Other""]","No","Female","2063496","null","null","","","","clear_screen","","","","","","","","","","","","","","","","","","","","","","","","","",""
"","","","","","canvas-keyboard-response","289","427653","0.0-12.0-2.55","2d_cat_multi_stim_exp1","2022-4-6","15:47:28","25","75","3","9","10","40","30","120","17","18","[""Other""]","No","Female","2063496","2006","u","learn","","","learn_trial","30","90","out","1","0","","","","","","","","","","","","","","","","","","","","",""
"","","","","","canvas-keyboard-response","290","428665","0.0-12.0-3.55","2d_cat_multi_stim_exp1","2022-4-6","15:47:28","25","75","3","9","10","40","30","120","17","18","[""Other""]","No","Female","2063496","null","null","learn_feedback","","","learn_feedback","30","90","out","","","","","","","","","","","","","","","","","","","","","","",""
"","","","","","canvas-keyboard-response","291","428729","0.0-12.0-4.55","2d_cat_multi_stim_exp1","2022-4-6","15:47:28","25","75","3","9","10","40","30","120","17","18","[""Other""]","No","Female","2063496","null","null","","","","clear_screen","","","","","","","","","","","","","","","","","","","","","","","","","",""
"","","","","","canvas-keyboard-response","292","429238","0.0-12.0-0.56","2d_cat_multi_stim_exp1","2022-4-6","15:47:28","25","75","3","9","10","40","30","120","17","18","[""Other""]","No","Female","2063496","null","null","","","","fixation","","","","","","","","","","","","","","","","","","","","","","","","","",""
"","","","","","canvas-keyboard-response","293","429749","0.0-12.0-1.56","2d_cat_multi_stim_exp1","2022-4-6","15:47:28","25","75","3","9","10","40","30","120","17","18","[""Other""]","No","Female","2063496","null","null","","","","clear_screen","","","","","","","","","","","","","","","","","","","","","","","","","",""
"","","","","","canvas-keyboard-response","294","431637","0.0-12.0-2.56","2d_cat_multi_stim_exp1","2022-4-6","15:47:28","25","75","3","9","10","40","30","120","17","18","[""Other""]","No","Female","2063496","1875","u","learn","","","learn_trial","20.7574","87.7279","in","1","1","","","","","","","","","","","","","","","","","","","","",""
"","","","","","canvas-keyboard-response","295","432148","0.0-12.0-3.56","2d_cat_multi_stim_exp1","2022-4-6","15:47:28","25","75","3","9","10","40","30","120","17","18","[""Other""]","No","Female","2063496","null","null","learn_feedback","","","learn_feedback","20.7574","87.7279","in","","","","","","","","","","","","","","","","","","","","","","",""
"","","","","","canvas-keyboard-response","296","432209","0.0-12.0-4.56","2d_cat_multi_stim_exp1","2022-4-6","15:47:28","25","75","3","9","10","40","30","120","17","18","[""Other""]","No","Female","2063496","null","null","","","","clear_screen","","","","","","","","","","","","","","","","","","","","","","","","","",""
"","","","","","canvas-keyboard-response","297","432722","0.0-12.0-0.57","2d_cat_multi_stim_exp1","2022-4-6","15:47:28","25","75","3","9","10","40","30","120","17","18","[""Other""]","No","Female","2063496","null","null","","","","fixation","","","","","","","","","","","","","","","","","","","","","","","","","",""
