"success","timeout","failed_images","failed_audio","failed_video","trial_type","trial_index","time_elapsed","internal_node_id","exp_name","date","time","angle_mean_in","radius_mean_in","angle_sd_in","radius_sd_in","angle_min_out","angle_max_out","radius_min_out","radius_max_out","sub_n","age","race","ethnicity","gender","exp_duration","rt","response","exp_trial_type","stimulus","view_history","screen_id","angle","radius","distribution","correct","choice","order","angle_a","radius_a","angle_b","radius_b","angle_c","radius_c","jkl_correct","transfer_trial_type","choice_set","abc_correct","tc_correct","tc_angle","tdc_a","tdc_b","tdc_c","pair","category_a","category_b","category_c","question_order"
"true","false","[]","[]","[]","preload","0","20","0.0-0.0","2d_cat_multi_stim_exp1","2022-4-15","14:30:5","25","75","3","9","10","40","30","120","42","20","[""Black or African-American""]","No","Female","1774413","","","","","","","","","","","","","","","","","","","","","","","","","","","","","","","",""
"","","","","","survey-html-form","1","2015","0.0-1.0","2d_cat_multi_stim_exp1","2022-4-15","14:30:5","25","75","3","9","10","40","30","120","42","20","[""Black or African-American""]","No","Female","1774413","1975","{""response"":""42""}","enter-sub-number","","","","","","","","","","","","","","","","","","","","","","","","","","","","",""
"true","","","","","fullscreen","2","5272","0.0-2.0","2d_cat_multi_stim_exp1","2022-4-15","14:30:5","25","75","3","9","10","40","30","120","42","20","[""Black or African-American""]","No","Female","1774413","","","","","","","","","","","","","","","","","","","","","","","","","","","","","","","",""
"","","","","","image-button-response","3","76995","0.0-3.0","2d_cat_multi_stim_exp1","2022-4-15","14:30:5","25","75","3","9","10","40","30","120","42","20","[""Black or African-American""]","No","Female","1774413","71714","0","","consent.png","","","","","","","","","","","","","","","","","","","","","","","","","","","",""
"","","","","","html-button-response","4","81769","0.0-4.0","2d_cat_multi_stim_exp1","2022-4-15","14:30:5","25","75","3","9","10","40","30","120","42","20","[""Black or African-American""]","No","Female","1774413","4770","0","","<div style= ""font-size:25px;"" <p> <strong> Welcome to the experiment! </strong><br> <p style=""color:#8B0000; font-size:25px;""><strong> Please do NOT exit full screen until you are done with the experiment. </strong> </p><p style=""font-size:25px;color:#8B0000;""> <strong> The experiment will be canceled and your data will be lost <br> if you try to go back or refresh the page at any point during the experiment.</strong> </p><br><p> <strong> Thanks in advance for your contribution to our research! </strong></p>","","","","","","","","","","","","","","","","","","","","","","","","","","","",""
"","","","","","instructions","5","141121","0.0-5.0","2d_cat_multi_stim_exp1","2022-4-15","14:30:5","25","75","3","9","10","40","30","120","42","20","[""Black or African-American""]","No","Female","1774413","59346","","","","[{""page_index"":0,""viewing_time"":7499},{""page_index"":1,""viewing_time"":4399},{""page_index"":2,""viewing_time"":12448},{""page_index"":3,""viewing_time"":21071},{""page_index"":2,""viewing_time"":12689},{""page_index"":3,""viewing_time"":1240}]","instructions_1","","","","","","","","","","","","","","","","","","","","","","","","","",""
"","","","","","instructions","6","143265","0.0-6.0","2d_cat_multi_stim_exp1","2022-4-15","14:30:5","25","75","3","9","10","40","30","120","42","20","[""Black or African-American""]","No","Female","1774413","2141","","","","[{""page_index"":0,""viewing_time"":2141}]","Click to see the kinds of turtles that will appear in the study.","","","","","","","","","","","","","","","","","","","","","","","","","",""
"","","","","","canvas-keyboard-response","7","158282","0.0-7.0","2d_cat_multi_stim_exp1","2022-4-15","14:30:5","25","75","3","9","10","40","30","120","42","20","[""Black or African-American""]","No","Female","1774413","null","null","","","","demo_range","","","","","","","","","","","","","","","","","","","","","","","","","",""
"","","","","","instructions","8","161641","0.0-8.0","2d_cat_multi_stim_exp1","2022-4-15","14:30:5","25","75","3","9","10","40","30","120","42","20","[""Black or African-American""]","No","Female","1774413","2857","","","","[{""page_index"":0,""viewing_time"":2856}]","Click to see some turtles in the subspecies.","","","","","","","","","","","","","","","","","","","","","","","","","",""
"","","","","","canvas-keyboard-response","9","176658","0.0-9.0","2d_cat_multi_stim_exp1","2022-4-15","14:30:5","25","75","3","9","10","40","30","120","42","20","[""Black or African-American""]","No","Female","1774413","null","null","","","","demo_in","","","","","","","","","","","","","","","","","","","","","","","","","",""
"","","","","","instructions","10","225513","0.0-10.0","2d_cat_multi_stim_exp1","2022-4-15","14:30:5","25","75","3","9","10","40","30","120","42","20","[""Black or African-American""]","No","Female","1774413","48352","","","","[{""page_index"":0,""viewing_time"":5286},{""page_index"":1,""viewing_time"":36305},{""page_index"":2,""viewing_time"":6760}]","instructions_2","","","","","","","","","","","","","","","","","","","","","","","","","",""
"","","","","","instructions","11","226747","0.0-11.0","2d_cat_multi_stim_exp1","2022-4-15","14:30:5","25","75","3","9","10","40","30","120","42","20","[""Black or African-American""]","No","Female","1774413","1230","","","","[{""page_index"":0,""viewing_time"":1230}]","Click to begin the first phase of the experiment.","","","","","","","","","","","","","","","","","","","","","","","","","",""
"","","","","","canvas-keyboard-response","12","227255","0.0-12.0-0.0","2d_cat_multi_stim_exp1","2022-4-15","14:30:5","25","75","3","9","10","40","30","120","42","20","[""Black or African-American""]","No","Female","1774413","null","null","","","","fixation","","","","","","","","","","","","","","","","","","","","","","","","","",""
"","","","","","canvas-keyboard-response","13","227765","0.0-12.0-1.0","2d_cat_multi_stim_exp1","2022-4-15","14:30:5","25","75","3","9","10","40","30","120","42","20","[""Black or African-American""]","No","Female","1774413","null","null","","","","clear_screen","","","","","","","","","","","","","","","","","","","","","","","","","",""
"","","","","","canvas-keyboard-response","14","230369","0.0-12.0-2.0","2d_cat_multi_stim_exp1","2022-4-15","14:30:5","25","75","3","9","10","40","30","120","42","20","[""Black or African-American""]","No","Female","1774413","2595","i","learn","","","learn_trial","29.2426","62.2721","in","0","0","","","","","","","","","","","","","","","","","","","","",""
"","","","","","canvas-keyboard-response","15","231383","0.0-12.0-3.0","2d_cat_multi_stim_exp1","2022-4-15","14:30:5","25","75","3","9","10","40","30","120","42","20","[""Black or African-American""]","No","Female","1774413","null","null","learn_feedback","","","learn_feedback","29.2426","62.2721","in","","","","","","","","","","","","","","","","","","","","","","",""
"","","","","","canvas-keyboard-response","16","231449","0.0-12.0-4.0","2d_cat_multi_stim_exp1","2022-4-15","14:30:5","25","75","3","9","10","40","30","120","42","20","[""Black or African-American""]","No","Female","1774413","null","null","","","","clear_screen","","","","","","","","","","","","","","","","","","","","","","","","","",""
"","","","","","canvas-keyboard-response","17","231959","0.0-12.0-0.1","2d_cat_multi_stim_exp1","2022-4-15","14:30:5","25","75","3","9","10","40","30","120","42","20","[""Black or African-American""]","No","Female","1774413","null","null","","","","fixation","","","","","","","","","","","","","","","","","","","","","","","","","",""
"","","","","","canvas-keyboard-response","18","232473","0.0-12.0-1.1","2d_cat_multi_stim_exp1","2022-4-15","14:30:5","25","75","3","9","10","40","30","120","42","20","[""Black or African-American""]","No","Female","1774413","null","null","","","","clear_screen","","","","","","","","","","","","","","","","","","","","","","","","","",""
"","","","","","canvas-keyboard-response","19","233617","0.0-12.0-2.1","2d_cat_multi_stim_exp1","2022-4-15","14:30:5","25","75","3","9","10","40","30","120","42","20","[""Black or African-American""]","No","Female","1774413","1133","u","learn","","","learn_trial","22.0121","75.8068","in","1","1","","","","","","","","","","","","","","","","","","","","",""
"","","","","","canvas-keyboard-response","20","234129","0.0-12.0-3.1","2d_cat_multi_stim_exp1","2022-4-15","14:30:5","25","75","3","9","10","40","30","120","42","20","[""Black or African-American""]","No","Female","1774413","null","null","learn_feedback","","","learn_feedback","22.0121","75.8068","in","","","","","","","","","","","","","","","","","","","","","","",""
"","","","","","canvas-keyboard-response","21","234189","0.0-12.0-4.1","2d_cat_multi_stim_exp1","2022-4-15","14:30:5","25","75","3","9","10","40","30","120","42","20","[""Black or African-American""]","No","Female","1774413","null","null","","","","clear_screen","","","","","","","","","","","","","","","","","","","","","","","","","",""
"","","","","","canvas-keyboard-response","22","234698","0.0-12.0-0.2","2d_cat_multi_stim_exp1","2022-4-15","14:30:5","25","75","3","9","10","40","30","120","42","20","[""Black or African-American""]","No","Female","1774413","null","null","","","","fixation","","","","","","","","","","","","","","","","","","","","","","","","","",""
"","","","","","canvas-keyboard-response","23","235209","0.0-12.0-1.2","2d_cat_multi_stim_exp1","2022-4-15","14:30:5","25","75","3","9","10","40","30","120","42","20","[""Black or African-American""]","No","Female","1774413","null","null","","","","clear_screen","","","","","","","","","","","","","","","","","","","","","","","","","",""
"","","","","","canvas-keyboard-response","24","236104","0.0-12.0-2.2","2d_cat_multi_stim_exp1","2022-4-15","14:30:5","25","75","3","9","10","40","30","120","42","20","[""Black or African-American""]","No","Female","1774413","883","u","learn","","","learn_trial","23.3473","67.4888","in","1","1","","","","","","","","","","","","","","","","","","","","",""
"","","","","","canvas-keyboard-response","25","236618","0.0-12.0-3.2","2d_cat_multi_stim_exp1","2022-4-15","14:30:5","25","75","3","9","10","40","30","120","42","20","[""Black or African-American""]","No","Female","1774413","null","null","learn_feedback","","","learn_feedback","23.3473","67.4888","in","","","","","","","","","","","","","","","","","","","","","","",""
"","","","","","canvas-keyboard-response","26","236676","0.0-12.0-4.2","2d_cat_multi_stim_exp1","2022-4-15","14:30:5","25","75","3","9","10","40","30","120","42","20","[""Black or African-American""]","No","Female","1774413","null","null","","","","clear_screen","","","","","","","","","","","","","","","","","","","","","","","","","",""
"","","","","","canvas-keyboard-response","27","237185","0.0-12.0-0.3","2d_cat_multi_stim_exp1","2022-4-15","14:30:5","25","75","3","9","10","40","30","120","42","20","[""Black or African-American""]","No","Female","1774413","null","null","","","","fixation","","","","","","","","","","","","","","","","","","","","","","","","","",""
"","","","","","canvas-keyboard-response","28","237696","0.0-12.0-1.3","2d_cat_multi_stim_exp1","2022-4-15","14:30:5","25","75","3","9","10","40","30","120","42","20","[""Black or African-American""]","No","Female","1774413","null","null","","","","clear_screen","","","","","","","","","","","","","","","","","","","","","","","","","",""
"","","","","","canvas-keyboard-response","29","238536","0.0-12.0-2.3","2d_cat_multi_stim_exp1","2022-4-15","14:30:5","25","75","3","9","10","40","30","120","42","20","[""Black or African-American""]","No","Female","1774413","832","u","learn","","","learn_trial","22.1081","77.3943","in","1","1","","","","","","","","","","","","","","","","","","","","",""
"","","","","","canvas-keyboard-response","30","239046","0.0-12.0-3.3","2d_cat_multi_stim_exp1","2022-4-15","14:30:5","25","75","3","9","10","40","30","120","42","20","[""Black or African-American""]","No","Female","1774413","null","null","learn_feedback","","","learn_feedback","22.1081","77.3943","in","","","","","","","","","","","","","","","","","","","","","","",""
"","","","","","canvas-keyboard-response","31","239106","0.0-12.0-4.3","2d_cat_multi_stim_exp1","2022-4-15","14:30:5","25","75","3","9","10","40","30","120","42","20","[""Black or African-American""]","No","Female","1774413","null","null","","","","clear_screen","","","","","","","","","","","","","","","","","","","","","","","","","",""
"","","","","","canvas-keyboard-response","32","239615","0.0-12.0-0.4","2d_cat_multi_stim_exp1","2022-4-15","14:30:5","25","75","3","9","10","40","30","120","42","20","[""Black or African-American""]","No","Female","1774413","null","null","","","","fixation","","","","","","","","","","","","","","","","","","","","","","","","","",""
"","","","","","canvas-keyboard-response","33","240128","0.0-12.0-1.4","2d_cat_multi_stim_exp1","2022-4-15","14:30:5","25","75","3","9","10","40","30","120","42","20","[""Black or African-American""]","No","Female","1774413","null","null","","","","clear_screen","","","","","","","","","","","","","","","","","","","","","","","","","",""
"","","","","","canvas-keyboard-response","34","241041","0.0-12.0-2.4","2d_cat_multi_stim_exp1","2022-4-15","14:30:5","25","75","3","9","10","40","30","120","42","20","[""Black or African-American""]","No","Female","1774413","905","i","learn","","","learn_trial","23.3333","50","out","1","0","","","","","","","","","","","","","","","","","","","","",""
"","","","","","canvas-keyboard-response","35","241552","0.0-12.0-3.4","2d_cat_multi_stim_exp1","2022-4-15","14:30:5","25","75","3","9","10","40","30","120","42","20","[""Black or African-American""]","No","Female","1774413","null","null","learn_feedback","","","learn_feedback","23.3333","50","out","","","","","","","","","","","","","","","","","","","","","","",""
"","","","","","canvas-keyboard-response","36","241613","0.0-12.0-4.4","2d_cat_multi_stim_exp1","2022-4-15","14:30:5","25","75","3","9","10","40","30","120","42","20","[""Black or African-American""]","No","Female","1774413","null","null","","","","clear_screen","","","","","","","","","","","","","","","","","","","","","","","","","",""
"","","","","","canvas-keyboard-response","37","242121","0.0-12.0-0.5","2d_cat_multi_stim_exp1","2022-4-15","14:30:5","25","75","3","9","10","40","30","120","42","20","[""Black or African-American""]","No","Female","1774413","null","null","","","","fixation","","","","","","","","","","","","","","","","","","","","","","","","","",""
"","","","","","canvas-keyboard-response","38","242635","0.0-12.0-1.5","2d_cat_multi_stim_exp1","2022-4-15","14:30:5","25","75","3","9","10","40","30","120","42","20","[""Black or African-American""]","No","Female","1774413","null","null","","","","clear_screen","","","","","","","","","","","","","","","","","","","","","","","","","",""
"","","","","","canvas-keyboard-response","39","243376","0.0-12.0-2.5","2d_cat_multi_stim_exp1","2022-4-15","14:30:5","25","75","3","9","10","40","30","120","42","20","[""Black or African-American""]","No","Female","1774413","733","u","learn","","","learn_trial","20","70","out","0","1","","","","","","","","","","","","","","","","","","","","",""
"","","","","","canvas-keyboard-response","40","244386","0.0-12.0-3.5","2d_cat_multi_stim_exp1","2022-4-15","14:30:5","25","75","3","9","10","40","30","120","42","20","[""Black or African-American""]","No","Female","1774413","null","null","learn_feedback","","","learn_feedback","20","70","out","","","","","","","","","","","","","","","","","","","","","","",""
"","","","","","canvas-keyboard-response","41","244445","0.0-12.0-4.5","2d_cat_multi_stim_exp1","2022-4-15","14:30:5","25","75","3","9","10","40","30","120","42","20","[""Black or African-American""]","No","Female","1774413","null","null","","","","clear_screen","","","","","","","","","","","","","","","","","","","","","","","","","",""
"","","","","","canvas-keyboard-response","42","244955","0.0-12.0-0.6","2d_cat_multi_stim_exp1","2022-4-15","14:30:5","25","75","3","9","10","40","30","120","42","20","[""Black or African-American""]","No","Female","1774413","null","null","","","","fixation","","","","","","","","","","","","","","","","","","","","","","","","","",""
"","","","","","canvas-keyboard-response","43","245468","0.0-12.0-1.6","2d_cat_multi_stim_exp1","2022-4-15","14:30:5","25","75","3","9","10","40","30","120","42","20","[""Black or African-American""]","No","Female","1774413","null","null","","","","clear_screen","","","","","","","","","","","","","","","","","","","","","","","","","",""
"","","","","","canvas-keyboard-response","44","246304","0.0-12.0-2.6","2d_cat_multi_stim_exp1","2022-4-15","14:30:5","25","75","3","9","10","40","30","120","42","20","[""Black or African-American""]","No","Female","1774413","825","i","learn","","","learn_trial","10","90","out","1","0","","","","","","","","","","","","","","","","","","","","",""
"","","","","","canvas-keyboard-response","45","246815","0.0-12.0-3.6","2d_cat_multi_stim_exp1","2022-4-15","14:30:5","25","75","3","9","10","40","30","120","42","20","[""Black or African-American""]","No","Female","1774413","null","null","learn_feedback","","","learn_feedback","10","90","out","","","","","","","","","","","","","","","","","","","","","","",""
"","","","","","canvas-keyboard-response","46","246876","0.0-12.0-4.6","2d_cat_multi_stim_exp1","2022-4-15","14:30:5","25","75","3","9","10","40","30","120","42","20","[""Black or African-American""]","No","Female","1774413","null","null","","","","clear_screen","","","","","","","","","","","","","","","","","","","","","","","","","",""
"","","","","","canvas-keyboard-response","47","247384","0.0-12.0-0.7","2d_cat_multi_stim_exp1","2022-4-15","14:30:5","25","75","3","9","10","40","30","120","42","20","[""Black or African-American""]","No","Female","1774413","null","null","","","","fixation","","","","","","","","","","","","","","","","","","","","","","","","","",""
"","","","","","canvas-keyboard-response","48","247894","0.0-12.0-1.7","2d_cat_multi_stim_exp1","2022-4-15","14:30:5","25","75","3","9","10","40","30","120","42","20","[""Black or African-American""]","No","Female","1774413","null","null","","","","clear_screen","","","","","","","","","","","","","","","","","","","","","","","","","",""
"","","","","","canvas-keyboard-response","49","248617","0.0-12.0-2.7","2d_cat_multi_stim_exp1","2022-4-15","14:30:5","25","75","3","9","10","40","30","120","42","20","[""Black or African-American""]","No","Female","1774413","712","u","learn","","","learn_trial","25","75","in","1","1","","","","","","","","","","","","","","","","","","","","",""
"","","","","","canvas-keyboard-response","50","249128","0.0-12.0-3.7","2d_cat_multi_stim_exp1","2022-4-15","14:30:5","25","75","3","9","10","40","30","120","42","20","[""Black or African-American""]","No","Female","1774413","null","null","learn_feedback","","","learn_feedback","25","75","in","","","","","","","","","","","","","","","","","","","","","","",""
"","","","","","canvas-keyboard-response","51","249188","0.0-12.0-4.7","2d_cat_multi_stim_exp1","2022-4-15","14:30:5","25","75","3","9","10","40","30","120","42","20","[""Black or African-American""]","No","Female","1774413","null","null","","","","clear_screen","","","","","","","","","","","","","","","","","","","","","","","","","",""
"","","","","","canvas-keyboard-response","52","249696","0.0-12.0-0.8","2d_cat_multi_stim_exp1","2022-4-15","14:30:5","25","75","3","9","10","40","30","120","42","20","[""Black or African-American""]","No","Female","1774413","null","null","","","","fixation","","","","","","","","","","","","","","","","","","","","","","","","","",""
"","","","","","canvas-keyboard-response","53","250207","0.0-12.0-1.8","2d_cat_multi_stim_exp1","2022-4-15","14:30:5","25","75","3","9","10","40","30","120","42","20","[""Black or African-American""]","No","Female","1774413","null","null","","","","clear_screen","","","","","","","","","","","","","","","","","","","","","","","","","",""
"","","","","","canvas-keyboard-response","54","250936","0.0-12.0-2.8","2d_cat_multi_stim_exp1","2022-4-15","14:30:5","25","75","3","9","10","40","30","120","42","20","[""Black or African-American""]","No","Female","1774413","718","u","learn","","","learn_trial","25","75","in","1","1","","","","","","","","","","","","","","","","","","","","",""
"","","","","","canvas-keyboard-response","55","251445","0.0-12.0-3.8","2d_cat_multi_stim_exp1","2022-4-15","14:30:5","25","75","3","9","10","40","30","120","42","20","[""Black or African-American""]","No","Female","1774413","null","null","learn_feedback","","","learn_feedback","25","75","in","","","","","","","","","","","","","","","","","","","","","","",""
"","","","","","canvas-keyboard-response","56","251505","0.0-12.0-4.8","2d_cat_multi_stim_exp1","2022-4-15","14:30:5","25","75","3","9","10","40","30","120","42","20","[""Black or African-American""]","No","Female","1774413","null","null","","","","clear_screen","","","","","","","","","","","","","","","","","","","","","","","","","",""
"","","","","","canvas-keyboard-response","57","252013","0.0-12.0-0.9","2d_cat_multi_stim_exp1","2022-4-15","14:30:5","25","75","3","9","10","40","30","120","42","20","[""Black or African-American""]","No","Female","1774413","null","null","","","","fixation","","","","","","","","","","","","","","","","","","","","","","","","","",""
"","","","","","canvas-keyboard-response","58","252527","0.0-12.0-1.9","2d_cat_multi_stim_exp1","2022-4-15","14:30:5","25","75","3","9","10","40","30","120","42","20","[""Black or African-American""]","No","Female","1774413","null","null","","","","clear_screen","","","","","","","","","","","","","","","","","","","","","","","","","",""
"","","","","","canvas-keyboard-response","59","253736","0.0-12.0-2.9","2d_cat_multi_stim_exp1","2022-4-15","14:30:5","25","75","3","9","10","40","30","120","42","20","[""Black or African-American""]","No","Female","1774413","1201","u","learn","","","learn_trial","22.9268","68.4948","in","1","1","","","","","","","","","","","","","","","","","","","","",""
"","","","","","canvas-keyboard-response","60","254246","0.0-12.0-3.9","2d_cat_multi_stim_exp1","2022-4-15","14:30:5","25","75","3","9","10","40","30","120","42","20","[""Black or African-American""]","No","Female","1774413","null","null","learn_feedback","","","learn_feedback","22.9268","68.4948","in","","","","","","","","","","","","","","","","","","","","","","",""
"","","","","","canvas-keyboard-response","61","254306","0.0-12.0-4.9","2d_cat_multi_stim_exp1","2022-4-15","14:30:5","25","75","3","9","10","40","30","120","42","20","[""Black or African-American""]","No","Female","1774413","null","null","","","","clear_screen","","","","","","","","","","","","","","","","","","","","","","","","","",""
"","","","","","canvas-keyboard-response","62","254814","0.0-12.0-0.10","2d_cat_multi_stim_exp1","2022-4-15","14:30:5","25","75","3","9","10","40","30","120","42","20","[""Black or African-American""]","No","Female","1774413","null","null","","","","fixation","","","","","","","","","","","","","","","","","","","","","","","","","",""
"","","","","","canvas-keyboard-response","63","255328","0.0-12.0-1.10","2d_cat_multi_stim_exp1","2022-4-15","14:30:5","25","75","3","9","10","40","30","120","42","20","[""Black or African-American""]","No","Female","1774413","null","null","","","","clear_screen","","","","","","","","","","","","","","","","","","","","","","","","","",""
"","","","","","canvas-keyboard-response","64","256105","0.0-12.0-2.10","2d_cat_multi_stim_exp1","2022-4-15","14:30:5","25","75","3","9","10","40","30","120","42","20","[""Black or African-American""]","No","Female","1774413","766","i","learn","","","learn_trial","30","40","out","1","0","","","","","","","","","","","","","","","","","","","","",""
"","","","","","canvas-keyboard-response","65","256617","0.0-12.0-3.10","2d_cat_multi_stim_exp1","2022-4-15","14:30:5","25","75","3","9","10","40","30","120","42","20","[""Black or African-American""]","No","Female","1774413","null","null","learn_feedback","","","learn_feedback","30","40","out","","","","","","","","","","","","","","","","","","","","","","",""
"","","","","","canvas-keyboard-response","66","256675","0.0-12.0-4.10","2d_cat_multi_stim_exp1","2022-4-15","14:30:5","25","75","3","9","10","40","30","120","42","20","[""Black or African-American""]","No","Female","1774413","null","null","","","","clear_screen","","","","","","","","","","","","","","","","","","","","","","","","","",""
"","","","","","canvas-keyboard-response","67","257187","0.0-12.0-0.11","2d_cat_multi_stim_exp1","2022-4-15","14:30:5","25","75","3","9","10","40","30","120","42","20","[""Black or African-American""]","No","Female","1774413","null","null","","","","fixation","","","","","","","","","","","","","","","","","","","","","","","","","",""
"","","","","","canvas-keyboard-response","68","257697","0.0-12.0-1.11","2d_cat_multi_stim_exp1","2022-4-15","14:30:5","25","75","3","9","10","40","30","120","42","20","[""Black or African-American""]","No","Female","1774413","null","null","","","","clear_screen","","","","","","","","","","","","","","","","","","","","","","","","","",""
"","","","","","canvas-keyboard-response","69","258432","0.0-12.0-2.11","2d_cat_multi_stim_exp1","2022-4-15","14:30:5","25","75","3","9","10","40","30","120","42","20","[""Black or African-American""]","No","Female","1774413","726","i","learn","","","learn_trial","30","50","out","1","0","","","","","","","","","","","","","","","","","","","","",""
"","","","","","canvas-keyboard-response","70","258944","0.0-12.0-3.11","2d_cat_multi_stim_exp1","2022-4-15","14:30:5","25","75","3","9","10","40","30","120","42","20","[""Black or African-American""]","No","Female","1774413","null","null","learn_feedback","","","learn_feedback","30","50","out","","","","","","","","","","","","","","","","","","","","","","",""
"","","","","","canvas-keyboard-response","71","259003","0.0-12.0-4.11","2d_cat_multi_stim_exp1","2022-4-15","14:30:5","25","75","3","9","10","40","30","120","42","20","[""Black or African-American""]","No","Female","1774413","null","null","","","","clear_screen","","","","","","","","","","","","","","","","","","","","","","","","","",""
"","","","","","canvas-keyboard-response","72","259511","0.0-12.0-0.12","2d_cat_multi_stim_exp1","2022-4-15","14:30:5","25","75","3","9","10","40","30","120","42","20","[""Black or African-American""]","No","Female","1774413","null","null","","","","fixation","","","","","","","","","","","","","","","","","","","","","","","","","",""
"","","","","","canvas-keyboard-response","73","260021","0.0-12.0-1.12","2d_cat_multi_stim_exp1","2022-4-15","14:30:5","25","75","3","9","10","40","30","120","42","20","[""Black or African-American""]","No","Female","1774413","null","null","","","","clear_screen","","","","","","","","","","","","","","","","","","","","","","","","","",""
"","","","","","canvas-keyboard-response","74","260808","0.0-12.0-2.12","2d_cat_multi_stim_exp1","2022-4-15","14:30:5","25","75","3","9","10","40","30","120","42","20","[""Black or African-American""]","No","Female","1774413","776","u","learn","","","learn_trial","25","75","in","1","1","","","","","","","","","","","","","","","","","","","","",""
"","","","","","canvas-keyboard-response","75","261313","0.0-12.0-3.12","2d_cat_multi_stim_exp1","2022-4-15","14:30:5","25","75","3","9","10","40","30","120","42","20","[""Black or African-American""]","No","Female","1774413","null","null","learn_feedback","","","learn_feedback","25","75","in","","","","","","","","","","","","","","","","","","","","","","",""
"","","","","","canvas-keyboard-response","76","261376","0.0-12.0-4.12","2d_cat_multi_stim_exp1","2022-4-15","14:30:5","25","75","3","9","10","40","30","120","42","20","[""Black or African-American""]","No","Female","1774413","null","null","","","","clear_screen","","","","","","","","","","","","","","","","","","","","","","","","","",""
"","","","","","canvas-keyboard-response","77","261887","0.0-12.0-0.13","2d_cat_multi_stim_exp1","2022-4-15","14:30:5","25","75","3","9","10","40","30","120","42","20","[""Black or African-American""]","No","Female","1774413","null","null","","","","fixation","","","","","","","","","","","","","","","","","","","","","","","","","",""
"","","","","","canvas-keyboard-response","78","262402","0.0-12.0-1.13","2d_cat_multi_stim_exp1","2022-4-15","14:30:5","25","75","3","9","10","40","30","120","42","20","[""Black or African-American""]","No","Female","1774413","null","null","","","","clear_screen","","","","","","","","","","","","","","","","","","","","","","","","","",""
"","","","","","canvas-keyboard-response","79","263185","0.0-12.0-2.13","2d_cat_multi_stim_exp1","2022-4-15","14:30:5","25","75","3","9","10","40","30","120","42","20","[""Black or African-American""]","No","Female","1774413","769","u","learn","","","learn_trial","27.9518","76.607","in","1","1","","","","","","","","","","","","","","","","","","","","",""
"","","","","","canvas-keyboard-response","80","263694","0.0-12.0-3.13","2d_cat_multi_stim_exp1","2022-4-15","14:30:5","25","75","3","9","10","40","30","120","42","20","[""Black or African-American""]","No","Female","1774413","null","null","learn_feedback","","","learn_feedback","27.9518","76.607","in","","","","","","","","","","","","","","","","","","","","","","",""
"","","","","","canvas-keyboard-response","81","263754","0.0-12.0-4.13","2d_cat_multi_stim_exp1","2022-4-15","14:30:5","25","75","3","9","10","40","30","120","42","20","[""Black or African-American""]","No","Female","1774413","null","null","","","","clear_screen","","","","","","","","","","","","","","","","","","","","","","","","","",""
"","","","","","canvas-keyboard-response","82","264265","0.0-12.0-0.14","2d_cat_multi_stim_exp1","2022-4-15","14:30:5","25","75","3","9","10","40","30","120","42","20","[""Black or African-American""]","No","Female","1774413","null","null","","","","fixation","","","","","","","","","","","","","","","","","","","","","","","","","",""
"","","","","","canvas-keyboard-response","83","264777","0.0-12.0-1.14","2d_cat_multi_stim_exp1","2022-4-15","14:30:5","25","75","3","9","10","40","30","120","42","20","[""Black or African-American""]","No","Female","1774413","null","null","","","","clear_screen","","","","","","","","","","","","","","","","","","","","","","","","","",""
"","","","","","canvas-keyboard-response","84","265352","0.0-12.0-2.14","2d_cat_multi_stim_exp1","2022-4-15","14:30:5","25","75","3","9","10","40","30","120","42","20","[""Black or African-American""]","No","Female","1774413","563","u","learn","","","learn_trial","25","75","in","1","1","","","","","","","","","","","","","","","","","","","","",""
"","","","","","canvas-keyboard-response","85","265863","0.0-12.0-3.14","2d_cat_multi_stim_exp1","2022-4-15","14:30:5","25","75","3","9","10","40","30","120","42","20","[""Black or African-American""]","No","Female","1774413","null","null","learn_feedback","","","learn_feedback","25","75","in","","","","","","","","","","","","","","","","","","","","","","",""
"","","","","","canvas-keyboard-response","86","265924","0.0-12.0-4.14","2d_cat_multi_stim_exp1","2022-4-15","14:30:5","25","75","3","9","10","40","30","120","42","20","[""Black or African-American""]","No","Female","1774413","null","null","","","","clear_screen","","","","","","","","","","","","","","","","","","","","","","","","","",""
"","","","","","canvas-keyboard-response","87","266432","0.0-12.0-0.15","2d_cat_multi_stim_exp1","2022-4-15","14:30:5","25","75","3","9","10","40","30","120","42","20","[""Black or African-American""]","No","Female","1774413","null","null","","","","fixation","","","","","","","","","","","","","","","","","","","","","","","","","",""
"","","","","","canvas-keyboard-response","88","266943","0.0-12.0-1.15","2d_cat_multi_stim_exp1","2022-4-15","14:30:5","25","75","3","9","10","40","30","120","42","20","[""Black or African-American""]","No","Female","1774413","null","null","","","","clear_screen","","","","","","","","","","","","","","","","","","","","","","","","","",""
"","","","","","canvas-keyboard-response","89","267672","0.0-12.0-2.15","2d_cat_multi_stim_exp1","2022-4-15","14:30:5","25","75","3","9","10","40","30","120","42","20","[""Black or African-American""]","No","Female","1774413","720","u","learn","","","learn_trial","25","75","in","1","1","","","","","","","","","","","","","","","","","","","","",""
"","","","","","canvas-keyboard-response","90","268185","0.0-12.0-3.15","2d_cat_multi_stim_exp1","2022-4-15","14:30:5","25","75","3","9","10","40","30","120","42","20","[""Black or African-American""]","No","Female","1774413","null","null","learn_feedback","","","learn_feedback","25","75","in","","","","","","","","","","","","","","","","","","","","","","",""
"","","","","","canvas-keyboard-response","91","268244","0.0-12.0-4.15","2d_cat_multi_stim_exp1","2022-4-15","14:30:5","25","75","3","9","10","40","30","120","42","20","[""Black or African-American""]","No","Female","1774413","null","null","","","","clear_screen","","","","","","","","","","","","","","","","","","","","","","","","","",""
"","","","","","canvas-keyboard-response","92","268755","0.0-12.0-0.16","2d_cat_multi_stim_exp1","2022-4-15","14:30:5","25","75","3","9","10","40","30","120","42","20","[""Black or African-American""]","No","Female","1774413","null","null","","","","fixation","","","","","","","","","","","","","","","","","","","","","","","","","",""
"","","","","","canvas-keyboard-response","93","269266","0.0-12.0-1.16","2d_cat_multi_stim_exp1","2022-4-15","14:30:5","25","75","3","9","10","40","30","120","42","20","[""Black or African-American""]","No","Female","1774413","null","null","","","","clear_screen","","","","","","","","","","","","","","","","","","","","","","","","","",""
"","","","","","canvas-keyboard-response","94","269944","0.0-12.0-2.16","2d_cat_multi_stim_exp1","2022-4-15","14:30:5","25","75","3","9","10","40","30","120","42","20","[""Black or African-American""]","No","Female","1774413","671","i","learn","","","learn_trial","36.6667","100","out","1","0","","","","","","","","","","","","","","","","","","","","",""
"","","","","","canvas-keyboard-response","95","270455","0.0-12.0-3.16","2d_cat_multi_stim_exp1","2022-4-15","14:30:5","25","75","3","9","10","40","30","120","42","20","[""Black or African-American""]","No","Female","1774413","null","null","learn_feedback","","","learn_feedback","36.6667","100","out","","","","","","","","","","","","","","","","","","","","","","",""
"","","","","","canvas-keyboard-response","96","270517","0.0-12.0-4.16","2d_cat_multi_stim_exp1","2022-4-15","14:30:5","25","75","3","9","10","40","30","120","42","20","[""Black or African-American""]","No","Female","1774413","null","null","","","","clear_screen","","","","","","","","","","","","","","","","","","","","","","","","","",""
"","","","","","canvas-keyboard-response","97","271027","0.0-12.0-0.17","2d_cat_multi_stim_exp1","2022-4-15","14:30:5","25","75","3","9","10","40","30","120","42","20","[""Black or African-American""]","No","Female","1774413","null","null","","","","fixation","","","","","","","","","","","","","","","","","","","","","","","","","",""
"","","","","","canvas-keyboard-response","98","271541","0.0-12.0-1.17","2d_cat_multi_stim_exp1","2022-4-15","14:30:5","25","75","3","9","10","40","30","120","42","20","[""Black or African-American""]","No","Female","1774413","null","null","","","","clear_screen","","","","","","","","","","","","","","","","","","","","","","","","","",""
"","","","","","canvas-keyboard-response","99","272432","0.0-12.0-2.17","2d_cat_multi_stim_exp1","2022-4-15","14:30:5","25","75","3","9","10","40","30","120","42","20","[""Black or African-American""]","No","Female","1774413","884","i","learn","","","learn_trial","10","80","out","1","0","","","","","","","","","","","","","","","","","","","","",""
"","","","","","canvas-keyboard-response","100","272944","0.0-12.0-3.17","2d_cat_multi_stim_exp1","2022-4-15","14:30:5","25","75","3","9","10","40","30","120","42","20","[""Black or African-American""]","No","Female","1774413","null","null","learn_feedback","","","learn_feedback","10","80","out","","","","","","","","","","","","","","","","","","","","","","",""
"","","","","","canvas-keyboard-response","101","273003","0.0-12.0-4.17","2d_cat_multi_stim_exp1","2022-4-15","14:30:5","25","75","3","9","10","40","30","120","42","20","[""Black or African-American""]","No","Female","1774413","null","null","","","","clear_screen","","","","","","","","","","","","","","","","","","","","","","","","","",""
"","","","","","canvas-keyboard-response","102","273513","0.0-12.0-0.18","2d_cat_multi_stim_exp1","2022-4-15","14:30:5","25","75","3","9","10","40","30","120","42","20","[""Black or African-American""]","No","Female","1774413","null","null","","","","fixation","","","","","","","","","","","","","","","","","","","","","","","","","",""
"","","","","","canvas-keyboard-response","103","274025","0.0-12.0-1.18","2d_cat_multi_stim_exp1","2022-4-15","14:30:5","25","75","3","9","10","40","30","120","42","20","[""Black or African-American""]","No","Female","1774413","null","null","","","","clear_screen","","","","","","","","","","","","","","","","","","","","","","","","","",""
"","","","","","canvas-keyboard-response","104","274593","0.0-12.0-2.18","2d_cat_multi_stim_exp1","2022-4-15","14:30:5","25","75","3","9","10","40","30","120","42","20","[""Black or African-American""]","No","Female","1774413","559","u","learn","","","learn_trial","20.7574","87.7279","in","1","1","","","","","","","","","","","","","","","","","","","","",""
"","","","","","canvas-keyboard-response","105","275105","0.0-12.0-3.18","2d_cat_multi_stim_exp1","2022-4-15","14:30:5","25","75","3","9","10","40","30","120","42","20","[""Black or African-American""]","No","Female","1774413","null","null","learn_feedback","","","learn_feedback","20.7574","87.7279","in","","","","","","","","","","","","","","","","","","","","","","",""
"","","","","","canvas-keyboard-response","106","275165","0.0-12.0-4.18","2d_cat_multi_stim_exp1","2022-4-15","14:30:5","25","75","3","9","10","40","30","120","42","20","[""Black or African-American""]","No","Female","1774413","null","null","","","","clear_screen","","","","","","","","","","","","","","","","","","","","","","","","","",""
"","","","","","canvas-keyboard-response","107","275675","0.0-12.0-0.19","2d_cat_multi_stim_exp1","2022-4-15","14:30:5","25","75","3","9","10","40","30","120","42","20","[""Black or African-American""]","No","Female","1774413","null","null","","","","fixation","","","","","","","","","","","","","","","","","","","","","","","","","",""
"","","","","","canvas-keyboard-response","108","276180","0.0-12.0-1.19","2d_cat_multi_stim_exp1","2022-4-15","14:30:5","25","75","3","9","10","40","30","120","42","20","[""Black or African-American""]","No","Female","1774413","null","null","","","","clear_screen","","","","","","","","","","","","","","","","","","","","","","","","","",""
"","","","","","canvas-keyboard-response","109","276920","0.0-12.0-2.19","2d_cat_multi_stim_exp1","2022-4-15","14:30:5","25","75","3","9","10","40","30","120","42","20","[""Black or African-American""]","No","Female","1774413","731","u","learn","","","learn_trial","22.2971","71.095","in","1","1","","","","","","","","","","","","","","","","","","","","",""
"","","","","","canvas-keyboard-response","110","277431","0.0-12.0-3.19","2d_cat_multi_stim_exp1","2022-4-15","14:30:5","25","75","3","9","10","40","30","120","42","20","[""Black or African-American""]","No","Female","1774413","null","null","learn_feedback","","","learn_feedback","22.2971","71.095","in","","","","","","","","","","","","","","","","","","","","","","",""
"","","","","","canvas-keyboard-response","111","277492","0.0-12.0-4.19","2d_cat_multi_stim_exp1","2022-4-15","14:30:5","25","75","3","9","10","40","30","120","42","20","[""Black or African-American""]","No","Female","1774413","null","null","","","","clear_screen","","","","","","","","","","","","","","","","","","","","","","","","","",""
"","","","","","canvas-keyboard-response","112","278002","0.0-12.0-0.20","2d_cat_multi_stim_exp1","2022-4-15","14:30:5","25","75","3","9","10","40","30","120","42","20","[""Black or African-American""]","No","Female","1774413","null","null","","","","fixation","","","","","","","","","","","","","","","","","","","","","","","","","",""
"","","","","","canvas-keyboard-response","113","278511","0.0-12.0-1.20","2d_cat_multi_stim_exp1","2022-4-15","14:30:5","25","75","3","9","10","40","30","120","42","20","[""Black or African-American""]","No","Female","1774413","null","null","","","","clear_screen","","","","","","","","","","","","","","","","","","","","","","","","","",""
"","","","","","canvas-keyboard-response","114","279264","0.0-12.0-2.20","2d_cat_multi_stim_exp1","2022-4-15","14:30:5","25","75","3","9","10","40","30","120","42","20","[""Black or African-American""]","No","Female","1774413","743","i","learn","","","learn_trial","13.3333","40","out","1","0","","","","","","","","","","","","","","","","","","","","",""
"","","","","","canvas-keyboard-response","115","279774","0.0-12.0-3.20","2d_cat_multi_stim_exp1","2022-4-15","14:30:5","25","75","3","9","10","40","30","120","42","20","[""Black or African-American""]","No","Female","1774413","null","null","learn_feedback","","","learn_feedback","13.3333","40","out","","","","","","","","","","","","","","","","","","","","","","",""
"","","","","","canvas-keyboard-response","116","279837","0.0-12.0-4.20","2d_cat_multi_stim_exp1","2022-4-15","14:30:5","25","75","3","9","10","40","30","120","42","20","[""Black or African-American""]","No","Female","1774413","null","null","","","","clear_screen","","","","","","","","","","","","","","","","","","","","","","","","","",""
"","","","","","canvas-keyboard-response","117","280348","0.0-12.0-0.21","2d_cat_multi_stim_exp1","2022-4-15","14:30:5","25","75","3","9","10","40","30","120","42","20","[""Black or African-American""]","No","Female","1774413","null","null","","","","fixation","","","","","","","","","","","","","","","","","","","","","","","","","",""
"","","","","","canvas-keyboard-response","118","280858","0.0-12.0-1.21","2d_cat_multi_stim_exp1","2022-4-15","14:30:5","25","75","3","9","10","40","30","120","42","20","[""Black or African-American""]","No","Female","1774413","null","null","","","","clear_screen","","","","","","","","","","","","","","","","","","","","","","","","","",""
"","","","","","canvas-keyboard-response","119","281472","0.0-12.0-2.21","2d_cat_multi_stim_exp1","2022-4-15","14:30:5","25","75","3","9","10","40","30","120","42","20","[""Black or African-American""]","No","Female","1774413","605","i","learn","","","learn_trial","40","30","out","1","0","","","","","","","","","","","","","","","","","","","","",""
"","","","","","canvas-keyboard-response","120","281982","0.0-12.0-3.21","2d_cat_multi_stim_exp1","2022-4-15","14:30:5","25","75","3","9","10","40","30","120","42","20","[""Black or African-American""]","No","Female","1774413","null","null","learn_feedback","","","learn_feedback","40","30","out","","","","","","","","","","","","","","","","","","","","","","",""
"","","","","","canvas-keyboard-response","121","282045","0.0-12.0-4.21","2d_cat_multi_stim_exp1","2022-4-15","14:30:5","25","75","3","9","10","40","30","120","42","20","[""Black or African-American""]","No","Female","1774413","null","null","","","","clear_screen","","","","","","","","","","","","","","","","","","","","","","","","","",""
"","","","","","canvas-keyboard-response","122","282555","0.0-12.0-0.22","2d_cat_multi_stim_exp1","2022-4-15","14:30:5","25","75","3","9","10","40","30","120","42","20","[""Black or African-American""]","No","Female","1774413","null","null","","","","fixation","","","","","","","","","","","","","","","","","","","","","","","","","",""
"","","","","","canvas-keyboard-response","123","283068","0.0-12.0-1.22","2d_cat_multi_stim_exp1","2022-4-15","14:30:5","25","75","3","9","10","40","30","120","42","20","[""Black or African-American""]","No","Female","1774413","null","null","","","","clear_screen","","","","","","","","","","","","","","","","","","","","","","","","","",""
"","","","","","canvas-keyboard-response","124","285208","0.0-12.0-2.22","2d_cat_multi_stim_exp1","2022-4-15","14:30:5","25","75","3","9","10","40","30","120","42","20","[""Black or African-American""]","No","Female","1774413","2135","i","learn","","","learn_trial","20.7574","62.2721","in","0","0","","","","","","","","","","","","","","","","","","","","",""
"","","","","","canvas-keyboard-response","125","286217","0.0-12.0-3.22","2d_cat_multi_stim_exp1","2022-4-15","14:30:5","25","75","3","9","10","40","30","120","42","20","[""Black or African-American""]","No","Female","1774413","null","null","learn_feedback","","","learn_feedback","20.7574","62.2721","in","","","","","","","","","","","","","","","","","","","","","","",""
"","","","","","canvas-keyboard-response","126","286275","0.0-12.0-4.22","2d_cat_multi_stim_exp1","2022-4-15","14:30:5","25","75","3","9","10","40","30","120","42","20","[""Black or African-American""]","No","Female","1774413","null","null","","","","clear_screen","","","","","","","","","","","","","","","","","","","","","","","","","",""
"","","","","","canvas-keyboard-response","127","286784","0.0-12.0-0.23","2d_cat_multi_stim_exp1","2022-4-15","14:30:5","25","75","3","9","10","40","30","120","42","20","[""Black or African-American""]","No","Female","1774413","null","null","","","","fixation","","","","","","","","","","","","","","","","","","","","","","","","","",""
"","","","","","canvas-keyboard-response","128","287295","0.0-12.0-1.23","2d_cat_multi_stim_exp1","2022-4-15","14:30:5","25","75","3","9","10","40","30","120","42","20","[""Black or African-American""]","No","Female","1774413","null","null","","","","clear_screen","","","","","","","","","","","","","","","","","","","","","","","","","",""
"","","","","","canvas-keyboard-response","129","288064","0.0-12.0-2.23","2d_cat_multi_stim_exp1","2022-4-15","14:30:5","25","75","3","9","10","40","30","120","42","20","[""Black or African-American""]","No","Female","1774413","762","i","learn","","","learn_trial","36.6667","30","out","1","0","","","","","","","","","","","","","","","","","","","","",""
"","","","","","canvas-keyboard-response","130","288573","0.0-12.0-3.23","2d_cat_multi_stim_exp1","2022-4-15","14:30:5","25","75","3","9","10","40","30","120","42","20","[""Black or African-American""]","No","Female","1774413","null","null","learn_feedback","","","learn_feedback","36.6667","30","out","","","","","","","","","","","","","","","","","","","","","","",""
"","","","","","canvas-keyboard-response","131","288636","0.0-12.0-4.23","2d_cat_multi_stim_exp1","2022-4-15","14:30:5","25","75","3","9","10","40","30","120","42","20","[""Black or African-American""]","No","Female","1774413","null","null","","","","clear_screen","","","","","","","","","","","","","","","","","","","","","","","","","",""
"","","","","","canvas-keyboard-response","132","289146","0.0-12.0-0.24","2d_cat_multi_stim_exp1","2022-4-15","14:30:5","25","75","3","9","10","40","30","120","42","20","[""Black or African-American""]","No","Female","1774413","null","null","","","","fixation","","","","","","","","","","","","","","","","","","","","","","","","","",""
"","","","","","canvas-keyboard-response","133","289661","0.0-12.0-1.24","2d_cat_multi_stim_exp1","2022-4-15","14:30:5","25","75","3","9","10","40","30","120","42","20","[""Black or African-American""]","No","Female","1774413","null","null","","","","clear_screen","","","","","","","","","","","","","","","","","","","","","","","","","",""
"","","","","","canvas-keyboard-response","134","290368","0.0-12.0-2.24","2d_cat_multi_stim_exp1","2022-4-15","14:30:5","25","75","3","9","10","40","30","120","42","20","[""Black or African-American""]","No","Female","1774413","697","u","learn","","","learn_trial","25","75","in","1","1","","","","","","","","","","","","","","","","","","","","",""
"","","","","","canvas-keyboard-response","135","290882","0.0-12.0-3.24","2d_cat_multi_stim_exp1","2022-4-15","14:30:5","25","75","3","9","10","40","30","120","42","20","[""Black or African-American""]","No","Female","1774413","null","null","learn_feedback","","","learn_feedback","25","75","in","","","","","","","","","","","","","","","","","","","","","","",""
"","","","","","canvas-keyboard-response","136","290945","0.0-12.0-4.24","2d_cat_multi_stim_exp1","2022-4-15","14:30:5","25","75","3","9","10","40","30","120","42","20","[""Black or African-American""]","No","Female","1774413","null","null","","","","clear_screen","","","","","","","","","","","","","","","","","","","","","","","","","",""
"","","","","","canvas-keyboard-response","137","291453","0.0-12.0-0.25","2d_cat_multi_stim_exp1","2022-4-15","14:30:5","25","75","3","9","10","40","30","120","42","20","[""Black or African-American""]","No","Female","1774413","null","null","","","","fixation","","","","","","","","","","","","","","","","","","","","","","","","","",""
"","","","","","canvas-keyboard-response","138","291962","0.0-12.0-1.25","2d_cat_multi_stim_exp1","2022-4-15","14:30:5","25","75","3","9","10","40","30","120","42","20","[""Black or African-American""]","No","Female","1774413","null","null","","","","clear_screen","","","","","","","","","","","","","","","","","","","","","","","","","",""
"","","","","","canvas-keyboard-response","139","292536","0.0-12.0-2.25","2d_cat_multi_stim_exp1","2022-4-15","14:30:5","25","75","3","9","10","40","30","120","42","20","[""Black or African-American""]","No","Female","1774413","566","u","learn","","","learn_trial","27.5753","70.3839","in","1","1","","","","","","","","","","","","","","","","","","","","",""
"","","","","","canvas-keyboard-response","140","293047","0.0-12.0-3.25","2d_cat_multi_stim_exp1","2022-4-15","14:30:5","25","75","3","9","10","40","30","120","42","20","[""Black or African-American""]","No","Female","1774413","null","null","learn_feedback","","","learn_feedback","27.5753","70.3839","in","","","","","","","","","","","","","","","","","","","","","","",""
"","","","","","canvas-keyboard-response","141","293107","0.0-12.0-4.25","2d_cat_multi_stim_exp1","2022-4-15","14:30:5","25","75","3","9","10","40","30","120","42","20","[""Black or African-American""]","No","Female","1774413","null","null","","","","clear_screen","","","","","","","","","","","","","","","","","","","","","","","","","",""
"","","","","","canvas-keyboard-response","142","293620","0.0-12.0-0.26","2d_cat_multi_stim_exp1","2022-4-15","14:30:5","25","75","3","9","10","40","30","120","42","20","[""Black or African-American""]","No","Female","1774413","null","null","","","","fixation","","","","","","","","","","","","","","","","","","","","","","","","","",""
"","","","","","canvas-keyboard-response","143","294138","0.0-12.0-1.26","2d_cat_multi_stim_exp1","2022-4-15","14:30:5","25","75","3","9","10","40","30","120","42","20","[""Black or African-American""]","No","Female","1774413","null","null","","","","clear_screen","","","","","","","","","","","","","","","","","","","","","","","","","",""
"","","","","","canvas-keyboard-response","144","294752","0.0-12.0-2.26","2d_cat_multi_stim_exp1","2022-4-15","14:30:5","25","75","3","9","10","40","30","120","42","20","[""Black or African-American""]","No","Female","1774413","604","u","learn","","","learn_trial","25","75","in","1","1","","","","","","","","","","","","","","","","","","","","",""
"","","","","","canvas-keyboard-response","145","295264","0.0-12.0-3.26","2d_cat_multi_stim_exp1","2022-4-15","14:30:5","25","75","3","9","10","40","30","120","42","20","[""Black or African-American""]","No","Female","1774413","null","null","learn_feedback","","","learn_feedback","25","75","in","","","","","","","","","","","","","","","","","","","","","","",""
"","","","","","canvas-keyboard-response","146","295324","0.0-12.0-4.26","2d_cat_multi_stim_exp1","2022-4-15","14:30:5","25","75","3","9","10","40","30","120","42","20","[""Black or African-American""]","No","Female","1774413","null","null","","","","clear_screen","","","","","","","","","","","","","","","","","","","","","","","","","",""
"","","","","","canvas-keyboard-response","147","295833","0.0-12.0-0.27","2d_cat_multi_stim_exp1","2022-4-15","14:30:5","25","75","3","9","10","40","30","120","42","20","[""Black or African-American""]","No","Female","1774413","null","null","","","","fixation","","","","","","","","","","","","","","","","","","","","","","","","","",""
"","","","","","canvas-keyboard-response","148","296346","0.0-12.0-1.27","2d_cat_multi_stim_exp1","2022-4-15","14:30:5","25","75","3","9","10","40","30","120","42","20","[""Black or African-American""]","No","Female","1774413","null","null","","","","clear_screen","","","","","","","","","","","","","","","","","","","","","","","","","",""
"","","","","","canvas-keyboard-response","149","296993","0.0-12.0-2.27","2d_cat_multi_stim_exp1","2022-4-15","14:30:5","25","75","3","9","10","40","30","120","42","20","[""Black or African-American""]","No","Female","1774413","637","i","learn","","","learn_trial","23.3333","120","out","1","0","","","","","","","","","","","","","","","","","","","","",""
"","","","","","canvas-keyboard-response","150","297504","0.0-12.0-3.27","2d_cat_multi_stim_exp1","2022-4-15","14:30:5","25","75","3","9","10","40","30","120","42","20","[""Black or African-American""]","No","Female","1774413","null","null","learn_feedback","","","learn_feedback","23.3333","120","out","","","","","","","","","","","","","","","","","","","","","","",""
"","","","","","canvas-keyboard-response","151","297566","0.0-12.0-4.27","2d_cat_multi_stim_exp1","2022-4-15","14:30:5","25","75","3","9","10","40","30","120","42","20","[""Black or African-American""]","No","Female","1774413","null","null","","","","clear_screen","","","","","","","","","","","","","","","","","","","","","","","","","",""
"","","","","","canvas-keyboard-response","152","298077","0.0-12.0-0.28","2d_cat_multi_stim_exp1","2022-4-15","14:30:5","25","75","3","9","10","40","30","120","42","20","[""Black or African-American""]","No","Female","1774413","null","null","","","","fixation","","","","","","","","","","","","","","","","","","","","","","","","","",""
"","","","","","canvas-keyboard-response","153","298592","0.0-12.0-1.28","2d_cat_multi_stim_exp1","2022-4-15","14:30:5","25","75","3","9","10","40","30","120","42","20","[""Black or African-American""]","No","Female","1774413","null","null","","","","clear_screen","","","","","","","","","","","","","","","","","","","","","","","","","",""
"","","","","","canvas-keyboard-response","154","299136","0.0-12.0-2.28","2d_cat_multi_stim_exp1","2022-4-15","14:30:5","25","75","3","9","10","40","30","120","42","20","[""Black or African-American""]","No","Female","1774413","538","u","learn","","","learn_trial","36.6667","70","out","0","1","","","","","","","","","","","","","","","","","","","","",""
"","","","","","canvas-keyboard-response","155","300147","0.0-12.0-3.28","2d_cat_multi_stim_exp1","2022-4-15","14:30:5","25","75","3","9","10","40","30","120","42","20","[""Black or African-American""]","No","Female","1774413","null","null","learn_feedback","","","learn_feedback","36.6667","70","out","","","","","","","","","","","","","","","","","","","","","","",""
"","","","","","canvas-keyboard-response","156","300208","0.0-12.0-4.28","2d_cat_multi_stim_exp1","2022-4-15","14:30:5","25","75","3","9","10","40","30","120","42","20","[""Black or African-American""]","No","Female","1774413","null","null","","","","clear_screen","","","","","","","","","","","","","","","","","","","","","","","","","",""
"","","","","","canvas-keyboard-response","157","300715","0.0-12.0-0.29","2d_cat_multi_stim_exp1","2022-4-15","14:30:5","25","75","3","9","10","40","30","120","42","20","[""Black or African-American""]","No","Female","1774413","null","null","","","","fixation","","","","","","","","","","","","","","","","","","","","","","","","","",""
"","","","","","canvas-keyboard-response","158","301226","0.0-12.0-1.29","2d_cat_multi_stim_exp1","2022-4-15","14:30:5","25","75","3","9","10","40","30","120","42","20","[""Black or African-American""]","No","Female","1774413","null","null","","","","clear_screen","","","","","","","","","","","","","","","","","","","","","","","","","",""
"","","","","","canvas-keyboard-response","159","301873","0.0-12.0-2.29","2d_cat_multi_stim_exp1","2022-4-15","14:30:5","25","75","3","9","10","40","30","120","42","20","[""Black or African-American""]","No","Female","1774413","637","u","learn","","","learn_trial","25","75","in","1","1","","","","","","","","","","","","","","","","","","","","",""
"","","","","","canvas-keyboard-response","160","302383","0.0-12.0-3.29","2d_cat_multi_stim_exp1","2022-4-15","14:30:5","25","75","3","9","10","40","30","120","42","20","[""Black or African-American""]","No","Female","1774413","null","null","learn_feedback","","","learn_feedback","25","75","in","","","","","","","","","","","","","","","","","","","","","","",""
"","","","","","canvas-keyboard-response","161","302442","0.0-12.0-4.29","2d_cat_multi_stim_exp1","2022-4-15","14:30:5","25","75","3","9","10","40","30","120","42","20","[""Black or African-American""]","No","Female","1774413","null","null","","","","clear_screen","","","","","","","","","","","","","","","","","","","","","","","","","",""
"","","","","","canvas-keyboard-response","162","302953","0.0-12.0-0.30","2d_cat_multi_stim_exp1","2022-4-15","14:30:5","25","75","3","9","10","40","30","120","42","20","[""Black or African-American""]","No","Female","1774413","null","null","","","","fixation","","","","","","","","","","","","","","","","","","","","","","","","","",""
"","","","","","canvas-keyboard-response","163","303465","0.0-12.0-1.30","2d_cat_multi_stim_exp1","2022-4-15","14:30:5","25","75","3","9","10","40","30","120","42","20","[""Black or African-American""]","No","Female","1774413","null","null","","","","clear_screen","","","","","","","","","","","","","","","","","","","","","","","","","",""
"","","","","","canvas-keyboard-response","164","304401","0.0-12.0-2.30","2d_cat_multi_stim_exp1","2022-4-15","14:30:5","25","75","3","9","10","40","30","120","42","20","[""Black or African-American""]","No","Female","1774413","926","u","learn","","","learn_trial","25","75","in","1","1","","","","","","","","","","","","","","","","","","","","",""
"","","","","","canvas-keyboard-response","165","304911","0.0-12.0-3.30","2d_cat_multi_stim_exp1","2022-4-15","14:30:5","25","75","3","9","10","40","30","120","42","20","[""Black or African-American""]","No","Female","1774413","null","null","learn_feedback","","","learn_feedback","25","75","in","","","","","","","","","","","","","","","","","","","","","","",""
"","","","","","canvas-keyboard-response","166","304969","0.0-12.0-4.30","2d_cat_multi_stim_exp1","2022-4-15","14:30:5","25","75","3","9","10","40","30","120","42","20","[""Black or African-American""]","No","Female","1774413","null","null","","","","clear_screen","","","","","","","","","","","","","","","","","","","","","","","","","",""
"","","","","","canvas-keyboard-response","167","305476","0.0-12.0-0.31","2d_cat_multi_stim_exp1","2022-4-15","14:30:5","25","75","3","9","10","40","30","120","42","20","[""Black or African-American""]","No","Female","1774413","null","null","","","","fixation","","","","","","","","","","","","","","","","","","","","","","","","","",""
"","","","","","canvas-keyboard-response","168","305987","0.0-12.0-1.31","2d_cat_multi_stim_exp1","2022-4-15","14:30:5","25","75","3","9","10","40","30","120","42","20","[""Black or African-American""]","No","Female","1774413","null","null","","","","clear_screen","","","","","","","","","","","","","","","","","","","","","","","","","",""
"","","","","","canvas-keyboard-response","169","306608","0.0-12.0-2.31","2d_cat_multi_stim_exp1","2022-4-15","14:30:5","25","75","3","9","10","40","30","120","42","20","[""Black or African-American""]","No","Female","1774413","612","u","learn","","","learn_trial","27.5753","79.6161","in","1","1","","","","","","","","","","","","","","","","","","","","",""
"","","","","","canvas-keyboard-response","170","307120","0.0-12.0-3.31","2d_cat_multi_stim_exp1","2022-4-15","14:30:5","25","75","3","9","10","40","30","120","42","20","[""Black or African-American""]","No","Female","1774413","null","null","learn_feedback","","","learn_feedback","27.5753","79.6161","in","","","","","","","","","","","","","","","","","","","","","","",""
"","","","","","canvas-keyboard-response","171","307181","0.0-12.0-4.31","2d_cat_multi_stim_exp1","2022-4-15","14:30:5","25","75","3","9","10","40","30","120","42","20","[""Black or African-American""]","No","Female","1774413","null","null","","","","clear_screen","","","","","","","","","","","","","","","","","","","","","","","","","",""
"","","","","","canvas-keyboard-response","172","307691","0.0-12.0-0.32","2d_cat_multi_stim_exp1","2022-4-15","14:30:5","25","75","3","9","10","40","30","120","42","20","[""Black or African-American""]","No","Female","1774413","null","null","","","","fixation","","","","","","","","","","","","","","","","","","","","","","","","","",""
"","","","","","canvas-keyboard-response","173","308200","0.0-12.0-1.32","2d_cat_multi_stim_exp1","2022-4-15","14:30:5","25","75","3","9","10","40","30","120","42","20","[""Black or African-American""]","No","Female","1774413","null","null","","","","clear_screen","","","","","","","","","","","","","","","","","","","","","","","","","",""
"","","","","","canvas-keyboard-response","174","308800","0.0-12.0-2.32","2d_cat_multi_stim_exp1","2022-4-15","14:30:5","25","75","3","9","10","40","30","120","42","20","[""Black or African-American""]","No","Female","1774413","590","u","learn","","","learn_trial","25","75","in","1","1","","","","","","","","","","","","","","","","","","","","",""
"","","","","","canvas-keyboard-response","175","309310","0.0-12.0-3.32","2d_cat_multi_stim_exp1","2022-4-15","14:30:5","25","75","3","9","10","40","30","120","42","20","[""Black or African-American""]","No","Female","1774413","null","null","learn_feedback","","","learn_feedback","25","75","in","","","","","","","","","","","","","","","","","","","","","","",""
"","","","","","canvas-keyboard-response","176","309374","0.0-12.0-4.32","2d_cat_multi_stim_exp1","2022-4-15","14:30:5","25","75","3","9","10","40","30","120","42","20","[""Black or African-American""]","No","Female","1774413","null","null","","","","clear_screen","","","","","","","","","","","","","","","","","","","","","","","","","",""
"","","","","","canvas-keyboard-response","177","309883","0.0-12.0-0.33","2d_cat_multi_stim_exp1","2022-4-15","14:30:5","25","75","3","9","10","40","30","120","42","20","[""Black or African-American""]","No","Female","1774413","null","null","","","","fixation","","","","","","","","","","","","","","","","","","","","","","","","","",""
"","","","","","canvas-keyboard-response","178","310393","0.0-12.0-1.33","2d_cat_multi_stim_exp1","2022-4-15","14:30:5","25","75","3","9","10","40","30","120","42","20","[""Black or African-American""]","No","Female","1774413","null","null","","","","clear_screen","","","","","","","","","","","","","","","","","","","","","","","","","",""
"","","","","","canvas-keyboard-response","179","311137","0.0-12.0-2.33","2d_cat_multi_stim_exp1","2022-4-15","14:30:5","25","75","3","9","10","40","30","120","42","20","[""Black or African-American""]","No","Female","1774413","739","u","learn","","","learn_trial","25","75","in","1","1","","","","","","","","","","","","","","","","","","","","",""
"","","","","","canvas-keyboard-response","180","311645","0.0-12.0-3.33","2d_cat_multi_stim_exp1","2022-4-15","14:30:5","25","75","3","9","10","40","30","120","42","20","[""Black or African-American""]","No","Female","1774413","null","null","learn_feedback","","","learn_feedback","25","75","in","","","","","","","","","","","","","","","","","","","","","","",""
"","","","","","canvas-keyboard-response","181","311703","0.0-12.0-4.33","2d_cat_multi_stim_exp1","2022-4-15","14:30:5","25","75","3","9","10","40","30","120","42","20","[""Black or African-American""]","No","Female","1774413","null","null","","","","clear_screen","","","","","","","","","","","","","","","","","","","","","","","","","",""
"","","","","","canvas-keyboard-response","182","312213","0.0-12.0-0.34","2d_cat_multi_stim_exp1","2022-4-15","14:30:5","25","75","3","9","10","40","30","120","42","20","[""Black or African-American""]","No","Female","1774413","null","null","","","","fixation","","","","","","","","","","","","","","","","","","","","","","","","","",""
"","","","","","canvas-keyboard-response","183","312724","0.0-12.0-1.34","2d_cat_multi_stim_exp1","2022-4-15","14:30:5","25","75","3","9","10","40","30","120","42","20","[""Black or African-American""]","No","Female","1774413","null","null","","","","clear_screen","","","","","","","","","","","","","","","","","","","","","","","","","",""
"","","","","","canvas-keyboard-response","184","313592","0.0-12.0-2.34","2d_cat_multi_stim_exp1","2022-4-15","14:30:5","25","75","3","9","10","40","30","120","42","20","[""Black or African-American""]","No","Female","1774413","860","i","learn","","","learn_trial","36.6667","90","out","1","0","","","","","","","","","","","","","","","","","","","","",""
"","","","","","canvas-keyboard-response","185","314104","0.0-12.0-3.34","2d_cat_multi_stim_exp1","2022-4-15","14:30:5","25","75","3","9","10","40","30","120","42","20","[""Black or African-American""]","No","Female","1774413","null","null","learn_feedback","","","learn_feedback","36.6667","90","out","","","","","","","","","","","","","","","","","","","","","","",""
"","","","","","canvas-keyboard-response","186","314163","0.0-12.0-4.34","2d_cat_multi_stim_exp1","2022-4-15","14:30:5","25","75","3","9","10","40","30","120","42","20","[""Black or African-American""]","No","Female","1774413","null","null","","","","clear_screen","","","","","","","","","","","","","","","","","","","","","","","","","",""
"","","","","","canvas-keyboard-response","187","314672","0.0-12.0-0.35","2d_cat_multi_stim_exp1","2022-4-15","14:30:5","25","75","3","9","10","40","30","120","42","20","[""Black or African-American""]","No","Female","1774413","null","null","","","","fixation","","","","","","","","","","","","","","","","","","","","","","","","","",""
"","","","","","canvas-keyboard-response","188","315184","0.0-12.0-1.35","2d_cat_multi_stim_exp1","2022-4-15","14:30:5","25","75","3","9","10","40","30","120","42","20","[""Black or African-American""]","No","Female","1774413","null","null","","","","clear_screen","","","","","","","","","","","","","","","","","","","","","","","","","",""
"","","","","","canvas-keyboard-response","189","315976","0.0-12.0-2.35","2d_cat_multi_stim_exp1","2022-4-15","14:30:5","25","75","3","9","10","40","30","120","42","20","[""Black or African-American""]","No","Female","1774413","783","i","learn","","","learn_trial","16.6667","70","out","1","0","","","","","","","","","","","","","","","","","","","","",""
"","","","","","canvas-keyboard-response","190","316486","0.0-12.0-3.35","2d_cat_multi_stim_exp1","2022-4-15","14:30:5","25","75","3","9","10","40","30","120","42","20","[""Black or African-American""]","No","Female","1774413","null","null","learn_feedback","","","learn_feedback","16.6667","70","out","","","","","","","","","","","","","","","","","","","","","","",""
"","","","","","canvas-keyboard-response","191","316548","0.0-12.0-4.35","2d_cat_multi_stim_exp1","2022-4-15","14:30:5","25","75","3","9","10","40","30","120","42","20","[""Black or African-American""]","No","Female","1774413","null","null","","","","clear_screen","","","","","","","","","","","","","","","","","","","","","","","","","",""
"","","","","","canvas-keyboard-response","192","317056","0.0-12.0-0.36","2d_cat_multi_stim_exp1","2022-4-15","14:30:5","25","75","3","9","10","40","30","120","42","20","[""Black or African-American""]","No","Female","1774413","null","null","","","","fixation","","","","","","","","","","","","","","","","","","","","","","","","","",""
"","","","","","canvas-keyboard-response","193","317566","0.0-12.0-1.36","2d_cat_multi_stim_exp1","2022-4-15","14:30:5","25","75","3","9","10","40","30","120","42","20","[""Black or African-American""]","No","Female","1774413","null","null","","","","clear_screen","","","","","","","","","","","","","","","","","","","","","","","","","",""
"","","","","","canvas-keyboard-response","194","318312","0.0-12.0-2.36","2d_cat_multi_stim_exp1","2022-4-15","14:30:5","25","75","3","9","10","40","30","120","42","20","[""Black or African-American""]","No","Female","1774413","737","u","learn","","","learn_trial","23.8209","66.7243","in","1","1","","","","","","","","","","","","","","","","","","","","",""
"","","","","","canvas-keyboard-response","195","318824","0.0-12.0-3.36","2d_cat_multi_stim_exp1","2022-4-15","14:30:5","25","75","3","9","10","40","30","120","42","20","[""Black or African-American""]","No","Female","1774413","null","null","learn_feedback","","","learn_feedback","23.8209","66.7243","in","","","","","","","","","","","","","","","","","","","","","","",""
"","","","","","canvas-keyboard-response","196","318884","0.0-12.0-4.36","2d_cat_multi_stim_exp1","2022-4-15","14:30:5","25","75","3","9","10","40","30","120","42","20","[""Black or African-American""]","No","Female","1774413","null","null","","","","clear_screen","","","","","","","","","","","","","","","","","","","","","","","","","",""
"","","","","","canvas-keyboard-response","197","319394","0.0-12.0-0.37","2d_cat_multi_stim_exp1","2022-4-15","14:30:5","25","75","3","9","10","40","30","120","42","20","[""Black or African-American""]","No","Female","1774413","null","null","","","","fixation","","","","","","","","","","","","","","","","","","","","","","","","","",""
"","","","","","canvas-keyboard-response","198","319904","0.0-12.0-1.37","2d_cat_multi_stim_exp1","2022-4-15","14:30:5","25","75","3","9","10","40","30","120","42","20","[""Black or African-American""]","No","Female","1774413","null","null","","","","clear_screen","","","","","","","","","","","","","","","","","","","","","","","","","",""
"","","","","","canvas-keyboard-response","199","320712","0.0-12.0-2.37","2d_cat_multi_stim_exp1","2022-4-15","14:30:5","25","75","3","9","10","40","30","120","42","20","[""Black or African-American""]","No","Female","1774413","799","i","learn","","","learn_trial","20","90","out","1","0","","","","","","","","","","","","","","","","","","","","",""
"","","","","","canvas-keyboard-response","200","321224","0.0-12.0-3.37","2d_cat_multi_stim_exp1","2022-4-15","14:30:5","25","75","3","9","10","40","30","120","42","20","[""Black or African-American""]","No","Female","1774413","null","null","learn_feedback","","","learn_feedback","20","90","out","","","","","","","","","","","","","","","","","","","","","","",""
"","","","","","canvas-keyboard-response","201","321284","0.0-12.0-4.37","2d_cat_multi_stim_exp1","2022-4-15","14:30:5","25","75","3","9","10","40","30","120","42","20","[""Black or African-American""]","No","Female","1774413","null","null","","","","clear_screen","","","","","","","","","","","","","","","","","","","","","","","","","",""
"","","","","","canvas-keyboard-response","202","321795","0.0-12.0-0.38","2d_cat_multi_stim_exp1","2022-4-15","14:30:5","25","75","3","9","10","40","30","120","42","20","[""Black or African-American""]","No","Female","1774413","null","null","","","","fixation","","","","","","","","","","","","","","","","","","","","","","","","","",""
"","","","","","canvas-keyboard-response","203","322304","0.0-12.0-1.38","2d_cat_multi_stim_exp1","2022-4-15","14:30:5","25","75","3","9","10","40","30","120","42","20","[""Black or African-American""]","No","Female","1774413","null","null","","","","clear_screen","","","","","","","","","","","","","","","","","","","","","","","","","",""
"","","","","","canvas-keyboard-response","204","326952","0.0-12.0-2.38","2d_cat_multi_stim_exp1","2022-4-15","14:30:5","25","75","3","9","10","40","30","120","42","20","[""Black or African-American""]","No","Female","1774413","4638","i","learn","","","learn_trial","10","110","out","1","0","","","","","","","","","","","","","","","","","","","","",""
"","","","","","canvas-keyboard-response","205","327463","0.0-12.0-3.38","2d_cat_multi_stim_exp1","2022-4-15","14:30:5","25","75","3","9","10","40","30","120","42","20","[""Black or African-American""]","No","Female","1774413","null","null","learn_feedback","","","learn_feedback","10","110","out","","","","","","","","","","","","","","","","","","","","","","",""
"","","","","","canvas-keyboard-response","206","327524","0.0-12.0-4.38","2d_cat_multi_stim_exp1","2022-4-15","14:30:5","25","75","3","9","10","40","30","120","42","20","[""Black or African-American""]","No","Female","1774413","null","null","","","","clear_screen","","","","","","","","","","","","","","","","","","","","","","","","","",""
"","","","","","canvas-keyboard-response","207","328037","0.0-12.0-0.39","2d_cat_multi_stim_exp1","2022-4-15","14:30:5","25","75","3","9","10","40","30","120","42","20","[""Black or African-American""]","No","Female","1774413","null","null","","","","fixation","","","","","","","","","","","","","","","","","","","","","","","","","",""
"","","","","","canvas-keyboard-response","208","328550","0.0-12.0-1.39","2d_cat_multi_stim_exp1","2022-4-15","14:30:5","25","75","3","9","10","40","30","120","42","20","[""Black or African-American""]","No","Female","1774413","null","null","","","","clear_screen","","","","","","","","","","","","","","","","","","","","","","","","","",""
"","","","","","canvas-keyboard-response","209","329369","0.0-12.0-2.39","2d_cat_multi_stim_exp1","2022-4-15","14:30:5","25","75","3","9","10","40","30","120","42","20","[""Black or African-American""]","No","Female","1774413","805","i","learn","","","learn_trial","33.3333","30","out","1","0","","","","","","","","","","","","","","","","","","","","",""
"","","","","","canvas-keyboard-response","210","329880","0.0-12.0-3.39","2d_cat_multi_stim_exp1","2022-4-15","14:30:5","25","75","3","9","10","40","30","120","42","20","[""Black or African-American""]","No","Female","1774413","null","null","learn_feedback","","","learn_feedback","33.3333","30","out","","","","","","","","","","","","","","","","","","","","","","",""
"","","","","","canvas-keyboard-response","211","329942","0.0-12.0-4.39","2d_cat_multi_stim_exp1","2022-4-15","14:30:5","25","75","3","9","10","40","30","120","42","20","[""Black or African-American""]","No","Female","1774413","null","null","","","","clear_screen","","","","","","","","","","","","","","","","","","","","","","","","","",""
"","","","","","canvas-keyboard-response","212","330453","0.0-12.0-0.40","2d_cat_multi_stim_exp1","2022-4-15","14:30:5","25","75","3","9","10","40","30","120","42","20","[""Black or African-American""]","No","Female","1774413","null","null","","","","fixation","","","","","","","","","","","","","","","","","","","","","","","","","",""
"","","","","","canvas-keyboard-response","213","330967","0.0-12.0-1.40","2d_cat_multi_stim_exp1","2022-4-15","14:30:5","25","75","3","9","10","40","30","120","42","20","[""Black or African-American""]","No","Female","1774413","null","null","","","","clear_screen","","","","","","","","","","","","","","","","","","","","","","","","","",""
"","","","","","canvas-keyboard-response","214","332784","0.0-12.0-2.40","2d_cat_multi_stim_exp1","2022-4-15","14:30:5","25","75","3","9","10","40","30","120","42","20","[""Black or African-American""]","No","Female","1774413","1805","i","learn","","","learn_trial","36.6667","40","out","1","0","","","","","","","","","","","","","","","","","","","","",""
"","","","","","canvas-keyboard-response","215","333293","0.0-12.0-3.40","2d_cat_multi_stim_exp1","2022-4-15","14:30:5","25","75","3","9","10","40","30","120","42","20","[""Black or African-American""]","No","Female","1774413","null","null","learn_feedback","","","learn_feedback","36.6667","40","out","","","","","","","","","","","","","","","","","","","","","","",""
"","","","","","canvas-keyboard-response","216","333352","0.0-12.0-4.40","2d_cat_multi_stim_exp1","2022-4-15","14:30:5","25","75","3","9","10","40","30","120","42","20","[""Black or African-American""]","No","Female","1774413","null","null","","","","clear_screen","","","","","","","","","","","","","","","","","","","","","","","","","",""
"","","","","","canvas-keyboard-response","217","333861","0.0-12.0-0.41","2d_cat_multi_stim_exp1","2022-4-15","14:30:5","25","75","3","9","10","40","30","120","42","20","[""Black or African-American""]","No","Female","1774413","null","null","","","","fixation","","","","","","","","","","","","","","","","","","","","","","","","","",""
"","","","","","canvas-keyboard-response","218","334374","0.0-12.0-1.41","2d_cat_multi_stim_exp1","2022-4-15","14:30:5","25","75","3","9","10","40","30","120","42","20","[""Black or African-American""]","No","Female","1774413","null","null","","","","clear_screen","","","","","","","","","","","","","","","","","","","","","","","","","",""
"","","","","","canvas-keyboard-response","219","335561","0.0-12.0-2.41","2d_cat_multi_stim_exp1","2022-4-15","14:30:5","25","75","3","9","10","40","30","120","42","20","[""Black or African-American""]","No","Female","1774413","1179","i","learn","","","learn_trial","13.3333","100","out","1","0","","","","","","","","","","","","","","","","","","","","",""
"","","","","","canvas-keyboard-response","220","336071","0.0-12.0-3.41","2d_cat_multi_stim_exp1","2022-4-15","14:30:5","25","75","3","9","10","40","30","120","42","20","[""Black or African-American""]","No","Female","1774413","null","null","learn_feedback","","","learn_feedback","13.3333","100","out","","","","","","","","","","","","","","","","","","","","","","",""
"","","","","","canvas-keyboard-response","221","336135","0.0-12.0-4.41","2d_cat_multi_stim_exp1","2022-4-15","14:30:5","25","75","3","9","10","40","30","120","42","20","[""Black or African-American""]","No","Female","1774413","null","null","","","","clear_screen","","","","","","","","","","","","","","","","","","","","","","","","","",""
"","","","","","canvas-keyboard-response","222","336641","0.0-12.0-0.42","2d_cat_multi_stim_exp1","2022-4-15","14:30:5","25","75","3","9","10","40","30","120","42","20","[""Black or African-American""]","No","Female","1774413","null","null","","","","fixation","","","","","","","","","","","","","","","","","","","","","","","","","",""
"","","","","","canvas-keyboard-response","223","337153","0.0-12.0-1.42","2d_cat_multi_stim_exp1","2022-4-15","14:30:5","25","75","3","9","10","40","30","120","42","20","[""Black or African-American""]","No","Female","1774413","null","null","","","","clear_screen","","","","","","","","","","","","","","","","","","","","","","","","","",""
"","","","","","canvas-keyboard-response","224","337745","0.0-12.0-2.42","2d_cat_multi_stim_exp1","2022-4-15","14:30:5","25","75","3","9","10","40","30","120","42","20","[""Black or African-American""]","No","Female","1774413","583","i","learn","","","learn_trial","16.6667","120","out","1","0","","","","","","","","","","","","","","","","","","","","",""
"","","","","","canvas-keyboard-response","225","338255","0.0-12.0-3.42","2d_cat_multi_stim_exp1","2022-4-15","14:30:5","25","75","3","9","10","40","30","120","42","20","[""Black or African-American""]","No","Female","1774413","null","null","learn_feedback","","","learn_feedback","16.6667","120","out","","","","","","","","","","","","","","","","","","","","","","",""
"","","","","","canvas-keyboard-response","226","338317","0.0-12.0-4.42","2d_cat_multi_stim_exp1","2022-4-15","14:30:5","25","75","3","9","10","40","30","120","42","20","[""Black or African-American""]","No","Female","1774413","null","null","","","","clear_screen","","","","","","","","","","","","","","","","","","","","","","","","","",""
"","","","","","canvas-keyboard-response","227","338827","0.0-12.0-0.43","2d_cat_multi_stim_exp1","2022-4-15","14:30:5","25","75","3","9","10","40","30","120","42","20","[""Black or African-American""]","No","Female","1774413","null","null","","","","fixation","","","","","","","","","","","","","","","","","","","","","","","","","",""
"","","","","","canvas-keyboard-response","228","339340","0.0-12.0-1.43","2d_cat_multi_stim_exp1","2022-4-15","14:30:5","25","75","3","9","10","40","30","120","42","20","[""Black or African-American""]","No","Female","1774413","null","null","","","","clear_screen","","","","","","","","","","","","","","","","","","","","","","","","","",""
"","","","","","canvas-keyboard-response","229","340313","0.0-12.0-2.43","2d_cat_multi_stim_exp1","2022-4-15","14:30:5","25","75","3","9","10","40","30","120","42","20","[""Black or African-American""]","No","Female","1774413","963","u","learn","","","learn_trial","25","75","in","1","1","","","","","","","","","","","","","","","","","","","","",""
"","","","","","canvas-keyboard-response","230","340821","0.0-12.0-3.43","2d_cat_multi_stim_exp1","2022-4-15","14:30:5","25","75","3","9","10","40","30","120","42","20","[""Black or African-American""]","No","Female","1774413","null","null","learn_feedback","","","learn_feedback","25","75","in","","","","","","","","","","","","","","","","","","","","","","",""
"","","","","","canvas-keyboard-response","231","340885","0.0-12.0-4.43","2d_cat_multi_stim_exp1","2022-4-15","14:30:5","25","75","3","9","10","40","30","120","42","20","[""Black or African-American""]","No","Female","1774413","null","null","","","","clear_screen","","","","","","","","","","","","","","","","","","","","","","","","","",""
"","","","","","canvas-keyboard-response","232","341393","0.0-12.0-0.44","2d_cat_multi_stim_exp1","2022-4-15","14:30:5","25","75","3","9","10","40","30","120","42","20","[""Black or African-American""]","No","Female","1774413","null","null","","","","fixation","","","","","","","","","","","","","","","","","","","","","","","","","",""
"","","","","","canvas-keyboard-response","233","341905","0.0-12.0-1.44","2d_cat_multi_stim_exp1","2022-4-15","14:30:5","25","75","3","9","10","40","30","120","42","20","[""Black or African-American""]","No","Female","1774413","null","null","","","","clear_screen","","","","","","","","","","","","","","","","","","","","","","","","","",""
"","","","","","canvas-keyboard-response","234","342897","0.0-12.0-2.44","2d_cat_multi_stim_exp1","2022-4-15","14:30:5","25","75","3","9","10","40","30","120","42","20","[""Black or African-American""]","No","Female","1774413","982","u","learn","","","learn_trial","25.4027","83.9185","in","1","1","","","","","","","","","","","","","","","","","","","","",""
"","","","","","canvas-keyboard-response","235","343405","0.0-12.0-3.44","2d_cat_multi_stim_exp1","2022-4-15","14:30:5","25","75","3","9","10","40","30","120","42","20","[""Black or African-American""]","No","Female","1774413","null","null","learn_feedback","","","learn_feedback","25.4027","83.9185","in","","","","","","","","","","","","","","","","","","","","","","",""
"","","","","","canvas-keyboard-response","236","343468","0.0-12.0-4.44","2d_cat_multi_stim_exp1","2022-4-15","14:30:5","25","75","3","9","10","40","30","120","42","20","[""Black or African-American""]","No","Female","1774413","null","null","","","","clear_screen","","","","","","","","","","","","","","","","","","","","","","","","","",""
"","","","","","canvas-keyboard-response","237","343976","0.0-12.0-0.45","2d_cat_multi_stim_exp1","2022-4-15","14:30:5","25","75","3","9","10","40","30","120","42","20","[""Black or African-American""]","No","Female","1774413","null","null","","","","fixation","","","","","","","","","","","","","","","","","","","","","","","","","",""
"","","","","","canvas-keyboard-response","238","344489","0.0-12.0-1.45","2d_cat_multi_stim_exp1","2022-4-15","14:30:5","25","75","3","9","10","40","30","120","42","20","[""Black or African-American""]","No","Female","1774413","null","null","","","","clear_screen","","","","","","","","","","","","","","","","","","","","","","","","","",""
"","","","","","canvas-keyboard-response","239","345552","0.0-12.0-2.45","2d_cat_multi_stim_exp1","2022-4-15","14:30:5","25","75","3","9","10","40","30","120","42","20","[""Black or African-American""]","No","Female","1774413","1053","u","learn","","","learn_trial","25","75","in","1","1","","","","","","","","","","","","","","","","","","","","",""
"","","","","","canvas-keyboard-response","240","346063","0.0-12.0-3.45","2d_cat_multi_stim_exp1","2022-4-15","14:30:5","25","75","3","9","10","40","30","120","42","20","[""Black or African-American""]","No","Female","1774413","null","null","learn_feedback","","","learn_feedback","25","75","in","","","","","","","","","","","","","","","","","","","","","","",""
"","","","","","canvas-keyboard-response","241","346125","0.0-12.0-4.45","2d_cat_multi_stim_exp1","2022-4-15","14:30:5","25","75","3","9","10","40","30","120","42","20","[""Black or African-American""]","No","Female","1774413","null","null","","","","clear_screen","","","","","","","","","","","","","","","","","","","","","","","","","",""
"","","","","","canvas-keyboard-response","242","346632","0.0-12.0-0.46","2d_cat_multi_stim_exp1","2022-4-15","14:30:5","25","75","3","9","10","40","30","120","42","20","[""Black or African-American""]","No","Female","1774413","null","null","","","","fixation","","","","","","","","","","","","","","","","","","","","","","","","","",""
"","","","","","canvas-keyboard-response","243","347141","0.0-12.0-1.46","2d_cat_multi_stim_exp1","2022-4-15","14:30:5","25","75","3","9","10","40","30","120","42","20","[""Black or African-American""]","No","Female","1774413","null","null","","","","clear_screen","","","","","","","","","","","","","","","","","","","","","","","","","",""
"","","","","","canvas-keyboard-response","244","348137","0.0-12.0-2.46","2d_cat_multi_stim_exp1","2022-4-15","14:30:5","25","75","3","9","10","40","30","120","42","20","[""Black or African-American""]","No","Female","1774413","986","i","learn","","","learn_trial","20","30","out","1","0","","","","","","","","","","","","","","","","","","","","",""
"","","","","","canvas-keyboard-response","245","348646","0.0-12.0-3.46","2d_cat_multi_stim_exp1","2022-4-15","14:30:5","25","75","3","9","10","40","30","120","42","20","[""Black or African-American""]","No","Female","1774413","null","null","learn_feedback","","","learn_feedback","20","30","out","","","","","","","","","","","","","","","","","","","","","","",""
"","","","","","canvas-keyboard-response","246","348706","0.0-12.0-4.46","2d_cat_multi_stim_exp1","2022-4-15","14:30:5","25","75","3","9","10","40","30","120","42","20","[""Black or African-American""]","No","Female","1774413","null","null","","","","clear_screen","","","","","","","","","","","","","","","","","","","","","","","","","",""
"","","","","","canvas-keyboard-response","247","349216","0.0-12.0-0.47","2d_cat_multi_stim_exp1","2022-4-15","14:30:5","25","75","3","9","10","40","30","120","42","20","[""Black or African-American""]","No","Female","1774413","null","null","","","","fixation","","","","","","","","","","","","","","","","","","","","","","","","","",""
"","","","","","canvas-keyboard-response","248","349726","0.0-12.0-1.47","2d_cat_multi_stim_exp1","2022-4-15","14:30:5","25","75","3","9","10","40","30","120","42","20","[""Black or African-American""]","No","Female","1774413","null","null","","","","clear_screen","","","","","","","","","","","","","","","","","","","","","","","","","",""
"","","","","","canvas-keyboard-response","249","350632","0.0-12.0-2.47","2d_cat_multi_stim_exp1","2022-4-15","14:30:5","25","75","3","9","10","40","30","120","42","20","[""Black or African-American""]","No","Female","1774413","896","i","learn","","","learn_trial","40","60","out","1","0","","","","","","","","","","","","","","","","","","","","",""
"","","","","","canvas-keyboard-response","250","351143","0.0-12.0-3.47","2d_cat_multi_stim_exp1","2022-4-15","14:30:5","25","75","3","9","10","40","30","120","42","20","[""Black or African-American""]","No","Female","1774413","null","null","learn_feedback","","","learn_feedback","40","60","out","","","","","","","","","","","","","","","","","","","","","","",""
"","","","","","canvas-keyboard-response","251","351203","0.0-12.0-4.47","2d_cat_multi_stim_exp1","2022-4-15","14:30:5","25","75","3","9","10","40","30","120","42","20","[""Black or African-American""]","No","Female","1774413","null","null","","","","clear_screen","","","","","","","","","","","","","","","","","","","","","","","","","",""
"","","","","","canvas-keyboard-response","252","351710","0.0-12.0-0.48","2d_cat_multi_stim_exp1","2022-4-15","14:30:5","25","75","3","9","10","40","30","120","42","20","[""Black or African-American""]","No","Female","1774413","null","null","","","","fixation","","","","","","","","","","","","","","","","","","","","","","","","","",""
"","","","","","canvas-keyboard-response","253","352221","0.0-12.0-1.48","2d_cat_multi_stim_exp1","2022-4-15","14:30:5","25","75","3","9","10","40","30","120","42","20","[""Black or African-American""]","No","Female","1774413","null","null","","","","clear_screen","","","","","","","","","","","","","","","","","","","","","","","","","",""
"","","","","","canvas-keyboard-response","254","352904","0.0-12.0-2.48","2d_cat_multi_stim_exp1","2022-4-15","14:30:5","25","75","3","9","10","40","30","120","42","20","[""Black or African-American""]","No","Female","1774413","675","u","learn","","","learn_trial","23.3473","82.5112","in","1","1","","","","","","","","","","","","","","","","","","","","",""
"","","","","","canvas-keyboard-response","255","353415","0.0-12.0-3.48","2d_cat_multi_stim_exp1","2022-4-15","14:30:5","25","75","3","9","10","40","30","120","42","20","[""Black or African-American""]","No","Female","1774413","null","null","learn_feedback","","","learn_feedback","23.3473","82.5112","in","","","","","","","","","","","","","","","","","","","","","","",""
"","","","","","canvas-keyboard-response","256","353476","0.0-12.0-4.48","2d_cat_multi_stim_exp1","2022-4-15","14:30:5","25","75","3","9","10","40","30","120","42","20","[""Black or African-American""]","No","Female","1774413","null","null","","","","clear_screen","","","","","","","","","","","","","","","","","","","","","","","","","",""
"","","","","","canvas-keyboard-response","257","353986","0.0-12.0-0.49","2d_cat_multi_stim_exp1","2022-4-15","14:30:5","25","75","3","9","10","40","30","120","42","20","[""Black or African-American""]","No","Female","1774413","null","null","","","","fixation","","","","","","","","","","","","","","","","","","","","","","","","","",""
"","","","","","canvas-keyboard-response","258","354500","0.0-12.0-1.49","2d_cat_multi_stim_exp1","2022-4-15","14:30:5","25","75","3","9","10","40","30","120","42","20","[""Black or African-American""]","No","Female","1774413","null","null","","","","clear_screen","","","","","","","","","","","","","","","","","","","","","","","","","",""
"","","","","","canvas-keyboard-response","259","355209","0.0-12.0-2.49","2d_cat_multi_stim_exp1","2022-4-15","14:30:5","25","75","3","9","10","40","30","120","42","20","[""Black or African-American""]","No","Female","1774413","699","i","learn","","","learn_trial","13.3333","80","out","1","0","","","","","","","","","","","","","","","","","","","","",""
"","","","","","canvas-keyboard-response","260","355719","0.0-12.0-3.49","2d_cat_multi_stim_exp1","2022-4-15","14:30:5","25","75","3","9","10","40","30","120","42","20","[""Black or African-American""]","No","Female","1774413","null","null","learn_feedback","","","learn_feedback","13.3333","80","out","","","","","","","","","","","","","","","","","","","","","","",""
"","","","","","canvas-keyboard-response","261","355781","0.0-12.0-4.49","2d_cat_multi_stim_exp1","2022-4-15","14:30:5","25","75","3","9","10","40","30","120","42","20","[""Black or African-American""]","No","Female","1774413","null","null","","","","clear_screen","","","","","","","","","","","","","","","","","","","","","","","","","",""
"","","","","","canvas-keyboard-response","262","356292","0.0-12.0-0.50","2d_cat_multi_stim_exp1","2022-4-15","14:30:5","25","75","3","9","10","40","30","120","42","20","[""Black or African-American""]","No","Female","1774413","null","null","","","","fixation","","","","","","","","","","","","","","","","","","","","","","","","","",""
"","","","","","canvas-keyboard-response","263","356802","0.0-12.0-1.50","2d_cat_multi_stim_exp1","2022-4-15","14:30:5","25","75","3","9","10","40","30","120","42","20","[""Black or African-American""]","No","Female","1774413","null","null","","","","clear_screen","","","","","","","","","","","","","","","","","","","","","","","","","",""
"","","","","","canvas-keyboard-response","264","357488","0.0-12.0-2.50","2d_cat_multi_stim_exp1","2022-4-15","14:30:5","25","75","3","9","10","40","30","120","42","20","[""Black or African-American""]","No","Female","1774413","678","i","learn","","","learn_trial","13.3333","30","out","1","0","","","","","","","","","","","","","","","","","","","","",""
"","","","","","canvas-keyboard-response","265","358001","0.0-12.0-3.50","2d_cat_multi_stim_exp1","2022-4-15","14:30:5","25","75","3","9","10","40","30","120","42","20","[""Black or African-American""]","No","Female","1774413","null","null","learn_feedback","","","learn_feedback","13.3333","30","out","","","","","","","","","","","","","","","","","","","","","","",""
"","","","","","canvas-keyboard-response","266","358061","0.0-12.0-4.50","2d_cat_multi_stim_exp1","2022-4-15","14:30:5","25","75","3","9","10","40","30","120","42","20","[""Black or African-American""]","No","Female","1774413","null","null","","","","clear_screen","","","","","","","","","","","","","","","","","","","","","","","","","",""
"","","","","","canvas-keyboard-response","267","358571","0.0-12.0-0.51","2d_cat_multi_stim_exp1","2022-4-15","14:30:5","25","75","3","9","10","40","30","120","42","20","[""Black or African-American""]","No","Female","1774413","null","null","","","","fixation","","","","","","","","","","","","","","","","","","","","","","","","","",""
"","","","","","canvas-keyboard-response","268","359085","0.0-12.0-1.51","2d_cat_multi_stim_exp1","2022-4-15","14:30:5","25","75","3","9","10","40","30","120","42","20","[""Black or African-American""]","No","Female","1774413","null","null","","","","clear_screen","","","","","","","","","","","","","","","","","","","","","","","","","",""
"","","","","","canvas-keyboard-response","269","359600","0.0-12.0-2.51","2d_cat_multi_stim_exp1","2022-4-15","14:30:5","25","75","3","9","10","40","30","120","42","20","[""Black or African-American""]","No","Female","1774413","504","u","learn","","","learn_trial","26.6667","70","out","0","1","","","","","","","","","","","","","","","","","","","","",""
"","","","","","canvas-keyboard-response","270","360610","0.0-12.0-3.51","2d_cat_multi_stim_exp1","2022-4-15","14:30:5","25","75","3","9","10","40","30","120","42","20","[""Black or African-American""]","No","Female","1774413","null","null","learn_feedback","","","learn_feedback","26.6667","70","out","","","","","","","","","","","","","","","","","","","","","","",""
"","","","","","canvas-keyboard-response","271","360670","0.0-12.0-4.51","2d_cat_multi_stim_exp1","2022-4-15","14:30:5","25","75","3","9","10","40","30","120","42","20","[""Black or African-American""]","No","Female","1774413","null","null","","","","clear_screen","","","","","","","","","","","","","","","","","","","","","","","","","",""
"","","","","","canvas-keyboard-response","272","361180","0.0-12.0-0.52","2d_cat_multi_stim_exp1","2022-4-15","14:30:5","25","75","3","9","10","40","30","120","42","20","[""Black or African-American""]","No","Female","1774413","null","null","","","","fixation","","","","","","","","","","","","","","","","","","","","","","","","","",""
"","","","","","canvas-keyboard-response","273","361692","0.0-12.0-1.52","2d_cat_multi_stim_exp1","2022-4-15","14:30:5","25","75","3","9","10","40","30","120","42","20","[""Black or African-American""]","No","Female","1774413","null","null","","","","clear_screen","","","","","","","","","","","","","","","","","","","","","","","","","",""
"","","","","","canvas-keyboard-response","274","362248","0.0-12.0-2.52","2d_cat_multi_stim_exp1","2022-4-15","14:30:5","25","75","3","9","10","40","30","120","42","20","[""Black or African-American""]","No","Female","1774413","548","u","learn","","","learn_trial","25","75","in","1","1","","","","","","","","","","","","","","","","","","","","",""
"","","","","","canvas-keyboard-response","275","362758","0.0-12.0-3.52","2d_cat_multi_stim_exp1","2022-4-15","14:30:5","25","75","3","9","10","40","30","120","42","20","[""Black or African-American""]","No","Female","1774413","null","null","learn_feedback","","","learn_feedback","25","75","in","","","","","","","","","","","","","","","","","","","","","","",""
"","","","","","canvas-keyboard-response","276","362817","0.0-12.0-4.52","2d_cat_multi_stim_exp1","2022-4-15","14:30:5","25","75","3","9","10","40","30","120","42","20","[""Black or African-American""]","No","Female","1774413","null","null","","","","clear_screen","","","","","","","","","","","","","","","","","","","","","","","","","",""
"","","","","","canvas-keyboard-response","277","363329","0.0-12.0-0.53","2d_cat_multi_stim_exp1","2022-4-15","14:30:5","25","75","3","9","10","40","30","120","42","20","[""Black or African-American""]","No","Female","1774413","null","null","","","","fixation","","","","","","","","","","","","","","","","","","","","","","","","","",""
"","","","","","canvas-keyboard-response","278","363842","0.0-12.0-1.53","2d_cat_multi_stim_exp1","2022-4-15","14:30:5","25","75","3","9","10","40","30","120","42","20","[""Black or African-American""]","No","Female","1774413","null","null","","","","clear_screen","","","","","","","","","","","","","","","","","","","","","","","","","",""
"","","","","","canvas-keyboard-response","279","364688","0.0-12.0-2.53","2d_cat_multi_stim_exp1","2022-4-15","14:30:5","25","75","3","9","10","40","30","120","42","20","[""Black or African-American""]","No","Female","1774413","836","u","learn","","","learn_trial","26.8705","67.9635","in","1","1","","","","","","","","","","","","","","","","","","","","",""
