"success","timeout","failed_images","failed_audio","failed_video","trial_type","trial_index","time_elapsed","internal_node_id","exp_name","date","time","angle_mean_in","radius_mean_in","angle_sd_in","radius_sd_in","angle_min_out","angle_max_out","radius_min_out","radius_max_out","sub_n","age","race","ethnicity","gender","exp_duration","rt","response","exp_trial_type","stimulus","view_history","screen_id","angle","radius","distribution","choice","correct","order","angle_a","radius_a","angle_b","radius_b","jkl_correct","transfer_trial_type","choice_set","abc_correct","tc_correct","tc_angle","tdc_a","tdc_b","tdc_c","pair","category_a","category_b","category_c","angle_c","radius_c","question_order"
"true","false","[]","[]","[]","preload","0","19","0.0-0.0","2d_cat_multi_stim_exp1","2022-4-11","10:54:56","25","75","3","9","10","40","30","120","24","19","[""Asian""]","No","Female","1683435","","","","","","","","","","","","","","","","","","","","","","","","","","","","","","","",""
"","","","","","survey-html-form","1","3219","0.0-1.0","2d_cat_multi_stim_exp1","2022-4-11","10:54:56","25","75","3","9","10","40","30","120","24","19","[""Asian""]","No","Female","1683435","3186","{""response"":""24""}","enter-sub-number","","","","","","","","","","","","","","","","","","","","","","","","","","","","",""
"true","","","","","fullscreen","2","15976","0.0-2.0","2d_cat_multi_stim_exp1","2022-4-11","10:54:56","25","75","3","9","10","40","30","120","24","19","[""Asian""]","No","Female","1683435","","","","","","","","","","","","","","","","","","","","","","","","","","","","","","","",""
"","","","","","image-button-response","3","22079","0.0-3.0","2d_cat_multi_stim_exp1","2022-4-11","10:54:56","25","75","3","9","10","40","30","120","24","19","[""Asian""]","No","Female","1683435","6095","0","","consent.png","","","","","","","","","","","","","","","","","","","","","","","","","","","",""
"","","","","","html-button-response","4","24519","0.0-4.0","2d_cat_multi_stim_exp1","2022-4-11","10:54:56","25","75","3","9","10","40","30","120","24","19","[""Asian""]","No","Female","1683435","2435","0","","<div style= ""font-size:25px;"" <p> <strong> Welcome to the experiment! </strong><br> <p style=""color:#8B0000; font-size:25px;""><strong> Please do NOT exit full screen until you are done with the experiment. </strong> </p><p style=""font-size:25px;color:#8B0000;""> <strong> The experiment will be canceled and your data will be lost <br> if you try to go back or refresh the page at any point during the experiment.</strong> </p><br><p> <strong> Thanks in advance for your contribution to our research! </strong></p>","","","","","","","","","","","","","","","","","","","","","","","","","","","",""
"","","","","","instructions","5","41312","0.0-5.0","2d_cat_multi_stim_exp1","2022-4-11","10:54:56","25","75","3","9","10","40","30","120","24","19","[""Asian""]","No","Female","1683435","16788","","","","[{""page_index"":0,""viewing_time"":3211},{""page_index"":1,""viewing_time"":1825},{""page_index"":2,""viewing_time"":8503},{""page_index"":3,""viewing_time"":3249}]","instructions_1","","","","","","","","","","","","","","","","","","","","","","","","","",""
"","","","","","instructions","6","43303","0.0-6.0","2d_cat_multi_stim_exp1","2022-4-11","10:54:56","25","75","3","9","10","40","30","120","24","19","[""Asian""]","No","Female","1683435","1990","","","","[{""page_index"":0,""viewing_time"":1989}]","Click to see the kinds of turtles that will appear in the study.","","","","","","","","","","","","","","","","","","","","","","","","","",""
"","","","","","canvas-keyboard-response","7","58320","0.0-7.0","2d_cat_multi_stim_exp1","2022-4-11","10:54:56","25","75","3","9","10","40","30","120","24","19","[""Asian""]","No","Female","1683435","null","null","","","","demo_range","","","","","","","","","","","","","","","","","","","","","","","","","",""
"","","","","","instructions","8","60406","0.0-8.0","2d_cat_multi_stim_exp1","2022-4-11","10:54:56","25","75","3","9","10","40","30","120","24","19","[""Asian""]","No","Female","1683435","1585","","","","[{""page_index"":0,""viewing_time"":1585}]","Click to see some turtles in the subspecies.","","","","","","","","","","","","","","","","","","","","","","","","","",""
"","","","","","canvas-keyboard-response","9","75419","0.0-9.0","2d_cat_multi_stim_exp1","2022-4-11","10:54:56","25","75","3","9","10","40","30","120","24","19","[""Asian""]","No","Female","1683435","null","null","","","","demo_in","","","","","","","","","","","","","","","","","","","","","","","","","",""
"","","","","","instructions","10","99463","0.0-10.0","2d_cat_multi_stim_exp1","2022-4-11","10:54:56","25","75","3","9","10","40","30","120","24","19","[""Asian""]","No","Female","1683435","23539","","","","[{""page_index"":0,""viewing_time"":3252},{""page_index"":1,""viewing_time"":16327},{""page_index"":2,""viewing_time"":3960}]","instructions_2","","","","","","","","","","","","","","","","","","","","","","","","","",""
"","","","","","instructions","11","100879","0.0-11.0","2d_cat_multi_stim_exp1","2022-4-11","10:54:56","25","75","3","9","10","40","30","120","24","19","[""Asian""]","No","Female","1683435","1412","","","","[{""page_index"":0,""viewing_time"":1412}]","Click to begin the first phase of the experiment.","","","","","","","","","","","","","","","","","","","","","","","","","",""
"","","","","","canvas-keyboard-response","12","101389","0.0-12.0-0.0","2d_cat_multi_stim_exp1","2022-4-11","10:54:56","25","75","3","9","10","40","30","120","24","19","[""Asian""]","No","Female","1683435","null","null","","","","fixation","","","","","","","","","","","","","","","","","","","","","","","","","",""
"","","","","","canvas-keyboard-response","13","101903","0.0-12.0-1.0","2d_cat_multi_stim_exp1","2022-4-11","10:54:56","25","75","3","9","10","40","30","120","24","19","[""Asian""]","No","Female","1683435","null","null","","","","clear_screen","","","","","","","","","","","","","","","","","","","","","","","","","",""
"","","","","","canvas-keyboard-response","14","106560","0.0-12.0-2.0","2d_cat_multi_stim_exp1","2022-4-11","10:54:56","25","75","3","9","10","40","30","120","24","19","[""Asian""]","No","Female","1683435","4647","u","learn","","","learn_trial","13.3333","90","out","1","0","","","","","","","","","","","","","","","","","","","","",""
"","","","","","canvas-keyboard-response","15","107571","0.0-12.0-3.0","2d_cat_multi_stim_exp1","2022-4-11","10:54:56","25","75","3","9","10","40","30","120","24","19","[""Asian""]","No","Female","1683435","null","null","learn_feedback","","","learn_feedback","13.3333","90","out","","","","","","","","","","","","","","","","","","","","","","",""
"","","","","","canvas-keyboard-response","16","107631","0.0-12.0-4.0","2d_cat_multi_stim_exp1","2022-4-11","10:54:56","25","75","3","9","10","40","30","120","24","19","[""Asian""]","No","Female","1683435","null","null","","","","clear_screen","","","","","","","","","","","","","","","","","","","","","","","","","",""
"","","","","","canvas-keyboard-response","17","108142","0.0-12.0-0.1","2d_cat_multi_stim_exp1","2022-4-11","10:54:56","25","75","3","9","10","40","30","120","24","19","[""Asian""]","No","Female","1683435","null","null","","","","fixation","","","","","","","","","","","","","","","","","","","","","","","","","",""
"","","","","","canvas-keyboard-response","18","108656","0.0-12.0-1.1","2d_cat_multi_stim_exp1","2022-4-11","10:54:56","25","75","3","9","10","40","30","120","24","19","[""Asian""]","No","Female","1683435","null","null","","","","clear_screen","","","","","","","","","","","","","","","","","","","","","","","","","",""
"","","","","","canvas-keyboard-response","19","111472","0.0-12.0-2.1","2d_cat_multi_stim_exp1","2022-4-11","10:54:56","25","75","3","9","10","40","30","120","24","19","[""Asian""]","No","Female","1683435","2806","i","learn","","","learn_trial","10","100","out","0","1","","","","","","","","","","","","","","","","","","","","",""
"","","","","","canvas-keyboard-response","20","111986","0.0-12.0-3.1","2d_cat_multi_stim_exp1","2022-4-11","10:54:56","25","75","3","9","10","40","30","120","24","19","[""Asian""]","No","Female","1683435","null","null","learn_feedback","","","learn_feedback","10","100","out","","","","","","","","","","","","","","","","","","","","","","",""
"","","","","","canvas-keyboard-response","21","112046","0.0-12.0-4.1","2d_cat_multi_stim_exp1","2022-4-11","10:54:56","25","75","3","9","10","40","30","120","24","19","[""Asian""]","No","Female","1683435","null","null","","","","clear_screen","","","","","","","","","","","","","","","","","","","","","","","","","",""
"","","","","","canvas-keyboard-response","22","112555","0.0-12.0-0.2","2d_cat_multi_stim_exp1","2022-4-11","10:54:56","25","75","3","9","10","40","30","120","24","19","[""Asian""]","No","Female","1683435","null","null","","","","fixation","","","","","","","","","","","","","","","","","","","","","","","","","",""
"","","","","","canvas-keyboard-response","23","113065","0.0-12.0-1.2","2d_cat_multi_stim_exp1","2022-4-11","10:54:56","25","75","3","9","10","40","30","120","24","19","[""Asian""]","No","Female","1683435","null","null","","","","clear_screen","","","","","","","","","","","","","","","","","","","","","","","","","",""
"","","","","","canvas-keyboard-response","24","114703","0.0-12.0-2.2","2d_cat_multi_stim_exp1","2022-4-11","10:54:56","25","75","3","9","10","40","30","120","24","19","[""Asian""]","No","Female","1683435","1628","i","learn","","","learn_trial","30","80","out","0","1","","","","","","","","","","","","","","","","","","","","",""
"","","","","","canvas-keyboard-response","25","115213","0.0-12.0-3.2","2d_cat_multi_stim_exp1","2022-4-11","10:54:56","25","75","3","9","10","40","30","120","24","19","[""Asian""]","No","Female","1683435","null","null","learn_feedback","","","learn_feedback","30","80","out","","","","","","","","","","","","","","","","","","","","","","",""
"","","","","","canvas-keyboard-response","26","115272","0.0-12.0-4.2","2d_cat_multi_stim_exp1","2022-4-11","10:54:56","25","75","3","9","10","40","30","120","24","19","[""Asian""]","No","Female","1683435","null","null","","","","clear_screen","","","","","","","","","","","","","","","","","","","","","","","","","",""
"","","","","","canvas-keyboard-response","27","115781","0.0-12.0-0.3","2d_cat_multi_stim_exp1","2022-4-11","10:54:56","25","75","3","9","10","40","30","120","24","19","[""Asian""]","No","Female","1683435","null","null","","","","fixation","","","","","","","","","","","","","","","","","","","","","","","","","",""
"","","","","","canvas-keyboard-response","28","116296","0.0-12.0-1.3","2d_cat_multi_stim_exp1","2022-4-11","10:54:56","25","75","3","9","10","40","30","120","24","19","[""Asian""]","No","Female","1683435","null","null","","","","clear_screen","","","","","","","","","","","","","","","","","","","","","","","","","",""
"","","","","","canvas-keyboard-response","29","118319","0.0-12.0-2.3","2d_cat_multi_stim_exp1","2022-4-11","10:54:56","25","75","3","9","10","40","30","120","24","19","[""Asian""]","No","Female","1683435","2015","u","learn","","","learn_trial","25","75","in","1","1","","","","","","","","","","","","","","","","","","","","",""
"","","","","","canvas-keyboard-response","30","118830","0.0-12.0-3.3","2d_cat_multi_stim_exp1","2022-4-11","10:54:56","25","75","3","9","10","40","30","120","24","19","[""Asian""]","No","Female","1683435","null","null","learn_feedback","","","learn_feedback","25","75","in","","","","","","","","","","","","","","","","","","","","","","",""
"","","","","","canvas-keyboard-response","31","118890","0.0-12.0-4.3","2d_cat_multi_stim_exp1","2022-4-11","10:54:56","25","75","3","9","10","40","30","120","24","19","[""Asian""]","No","Female","1683435","null","null","","","","clear_screen","","","","","","","","","","","","","","","","","","","","","","","","","",""
"","","","","","canvas-keyboard-response","32","119402","0.0-12.0-0.4","2d_cat_multi_stim_exp1","2022-4-11","10:54:56","25","75","3","9","10","40","30","120","24","19","[""Asian""]","No","Female","1683435","null","null","","","","fixation","","","","","","","","","","","","","","","","","","","","","","","","","",""
"","","","","","canvas-keyboard-response","33","119911","0.0-12.0-1.4","2d_cat_multi_stim_exp1","2022-4-11","10:54:56","25","75","3","9","10","40","30","120","24","19","[""Asian""]","No","Female","1683435","null","null","","","","clear_screen","","","","","","","","","","","","","","","","","","","","","","","","","",""
"","","","","","canvas-keyboard-response","34","121552","0.0-12.0-2.4","2d_cat_multi_stim_exp1","2022-4-11","10:54:56","25","75","3","9","10","40","30","120","24","19","[""Asian""]","No","Female","1683435","1632","u","learn","","","learn_trial","26.6667","100","out","1","0","","","","","","","","","","","","","","","","","","","","",""
"","","","","","canvas-keyboard-response","35","122562","0.0-12.0-3.4","2d_cat_multi_stim_exp1","2022-4-11","10:54:56","25","75","3","9","10","40","30","120","24","19","[""Asian""]","No","Female","1683435","null","null","learn_feedback","","","learn_feedback","26.6667","100","out","","","","","","","","","","","","","","","","","","","","","","",""
"","","","","","canvas-keyboard-response","36","122616","0.0-12.0-4.4","2d_cat_multi_stim_exp1","2022-4-11","10:54:56","25","75","3","9","10","40","30","120","24","19","[""Asian""]","No","Female","1683435","null","null","","","","clear_screen","","","","","","","","","","","","","","","","","","","","","","","","","",""
"","","","","","canvas-keyboard-response","37","123124","0.0-12.0-0.5","2d_cat_multi_stim_exp1","2022-4-11","10:54:56","25","75","3","9","10","40","30","120","24","19","[""Asian""]","No","Female","1683435","null","null","","","","fixation","","","","","","","","","","","","","","","","","","","","","","","","","",""
"","","","","","canvas-keyboard-response","38","123634","0.0-12.0-1.5","2d_cat_multi_stim_exp1","2022-4-11","10:54:56","25","75","3","9","10","40","30","120","24","19","[""Asian""]","No","Female","1683435","null","null","","","","clear_screen","","","","","","","","","","","","","","","","","","","","","","","","","",""
"","","","","","canvas-keyboard-response","39","125151","0.0-12.0-2.5","2d_cat_multi_stim_exp1","2022-4-11","10:54:56","25","75","3","9","10","40","30","120","24","19","[""Asian""]","No","Female","1683435","1506","u","learn","","","learn_trial","27.8087","78.1624","in","1","1","","","","","","","","","","","","","","","","","","","","",""
"","","","","","canvas-keyboard-response","40","125660","0.0-12.0-3.5","2d_cat_multi_stim_exp1","2022-4-11","10:54:56","25","75","3","9","10","40","30","120","24","19","[""Asian""]","No","Female","1683435","null","null","learn_feedback","","","learn_feedback","27.8087","78.1624","in","","","","","","","","","","","","","","","","","","","","","","",""
"","","","","","canvas-keyboard-response","41","125720","0.0-12.0-4.5","2d_cat_multi_stim_exp1","2022-4-11","10:54:56","25","75","3","9","10","40","30","120","24","19","[""Asian""]","No","Female","1683435","null","null","","","","clear_screen","","","","","","","","","","","","","","","","","","","","","","","","","",""
"","","","","","canvas-keyboard-response","42","126229","0.0-12.0-0.6","2d_cat_multi_stim_exp1","2022-4-11","10:54:56","25","75","3","9","10","40","30","120","24","19","[""Asian""]","No","Female","1683435","null","null","","","","fixation","","","","","","","","","","","","","","","","","","","","","","","","","",""
"","","","","","canvas-keyboard-response","43","126743","0.0-12.0-1.6","2d_cat_multi_stim_exp1","2022-4-11","10:54:56","25","75","3","9","10","40","30","120","24","19","[""Asian""]","No","Female","1683435","null","null","","","","clear_screen","","","","","","","","","","","","","","","","","","","","","","","","","",""
"","","","","","canvas-keyboard-response","44","127816","0.0-12.0-2.6","2d_cat_multi_stim_exp1","2022-4-11","10:54:56","25","75","3","9","10","40","30","120","24","19","[""Asian""]","No","Female","1683435","1064","i","learn","","","learn_trial","36.6667","50","out","0","1","","","","","","","","","","","","","","","","","","","","",""
"","","","","","canvas-keyboard-response","45","128326","0.0-12.0-3.6","2d_cat_multi_stim_exp1","2022-4-11","10:54:56","25","75","3","9","10","40","30","120","24","19","[""Asian""]","No","Female","1683435","null","null","learn_feedback","","","learn_feedback","36.6667","50","out","","","","","","","","","","","","","","","","","","","","","","",""
"","","","","","canvas-keyboard-response","46","128388","0.0-12.0-4.6","2d_cat_multi_stim_exp1","2022-4-11","10:54:56","25","75","3","9","10","40","30","120","24","19","[""Asian""]","No","Female","1683435","null","null","","","","clear_screen","","","","","","","","","","","","","","","","","","","","","","","","","",""
"","","","","","canvas-keyboard-response","47","128896","0.0-12.0-0.7","2d_cat_multi_stim_exp1","2022-4-11","10:54:56","25","75","3","9","10","40","30","120","24","19","[""Asian""]","No","Female","1683435","null","null","","","","fixation","","","","","","","","","","","","","","","","","","","","","","","","","",""
"","","","","","canvas-keyboard-response","48","129409","0.0-12.0-1.7","2d_cat_multi_stim_exp1","2022-4-11","10:54:56","25","75","3","9","10","40","30","120","24","19","[""Asian""]","No","Female","1683435","null","null","","","","clear_screen","","","","","","","","","","","","","","","","","","","","","","","","","",""
"","","","","","canvas-keyboard-response","49","130608","0.0-12.0-2.7","2d_cat_multi_stim_exp1","2022-4-11","10:54:56","25","75","3","9","10","40","30","120","24","19","[""Asian""]","No","Female","1683435","1187","u","learn","","","learn_trial","25","75","in","1","1","","","","","","","","","","","","","","","","","","","","",""
"","","","","","canvas-keyboard-response","50","131117","0.0-12.0-3.7","2d_cat_multi_stim_exp1","2022-4-11","10:54:56","25","75","3","9","10","40","30","120","24","19","[""Asian""]","No","Female","1683435","null","null","learn_feedback","","","learn_feedback","25","75","in","","","","","","","","","","","","","","","","","","","","","","",""
"","","","","","canvas-keyboard-response","51","131180","0.0-12.0-4.7","2d_cat_multi_stim_exp1","2022-4-11","10:54:56","25","75","3","9","10","40","30","120","24","19","[""Asian""]","No","Female","1683435","null","null","","","","clear_screen","","","","","","","","","","","","","","","","","","","","","","","","","",""
"","","","","","canvas-keyboard-response","52","131690","0.0-12.0-0.8","2d_cat_multi_stim_exp1","2022-4-11","10:54:56","25","75","3","9","10","40","30","120","24","19","[""Asian""]","No","Female","1683435","null","null","","","","fixation","","","","","","","","","","","","","","","","","","","","","","","","","",""
"","","","","","canvas-keyboard-response","53","132203","0.0-12.0-1.8","2d_cat_multi_stim_exp1","2022-4-11","10:54:56","25","75","3","9","10","40","30","120","24","19","[""Asian""]","No","Female","1683435","null","null","","","","clear_screen","","","","","","","","","","","","","","","","","","","","","","","","","",""
"","","","","","canvas-keyboard-response","54","133870","0.0-12.0-2.8","2d_cat_multi_stim_exp1","2022-4-11","10:54:56","25","75","3","9","10","40","30","120","24","19","[""Asian""]","No","Female","1683435","1662","i","learn","","","learn_trial","40","70","out","0","1","","","","","","","","","","","","","","","","","","","","",""
"","","","","","canvas-keyboard-response","55","134376","0.0-12.0-3.8","2d_cat_multi_stim_exp1","2022-4-11","10:54:56","25","75","3","9","10","40","30","120","24","19","[""Asian""]","No","Female","1683435","null","null","learn_feedback","","","learn_feedback","40","70","out","","","","","","","","","","","","","","","","","","","","","","",""
"","","","","","canvas-keyboard-response","56","134435","0.0-12.0-4.8","2d_cat_multi_stim_exp1","2022-4-11","10:54:56","25","75","3","9","10","40","30","120","24","19","[""Asian""]","No","Female","1683435","null","null","","","","clear_screen","","","","","","","","","","","","","","","","","","","","","","","","","",""
"","","","","","canvas-keyboard-response","57","134945","0.0-12.0-0.9","2d_cat_multi_stim_exp1","2022-4-11","10:54:56","25","75","3","9","10","40","30","120","24","19","[""Asian""]","No","Female","1683435","null","null","","","","fixation","","","","","","","","","","","","","","","","","","","","","","","","","",""
"","","","","","canvas-keyboard-response","58","135457","0.0-12.0-1.9","2d_cat_multi_stim_exp1","2022-4-11","10:54:56","25","75","3","9","10","40","30","120","24","19","[""Asian""]","No","Female","1683435","null","null","","","","clear_screen","","","","","","","","","","","","","","","","","","","","","","","","","",""
"","","","","","canvas-keyboard-response","59","136847","0.0-12.0-2.9","2d_cat_multi_stim_exp1","2022-4-11","10:54:56","25","75","3","9","10","40","30","120","24","19","[""Asian""]","No","Female","1683435","1381","i","learn","","","learn_trial","22.0121","75.8068","in","0","0","","","","","","","","","","","","","","","","","","","","",""
"","","","","","canvas-keyboard-response","60","137856","0.0-12.0-3.9","2d_cat_multi_stim_exp1","2022-4-11","10:54:56","25","75","3","9","10","40","30","120","24","19","[""Asian""]","No","Female","1683435","null","null","learn_feedback","","","learn_feedback","22.0121","75.8068","in","","","","","","","","","","","","","","","","","","","","","","",""
"","","","","","canvas-keyboard-response","61","137916","0.0-12.0-4.9","2d_cat_multi_stim_exp1","2022-4-11","10:54:56","25","75","3","9","10","40","30","120","24","19","[""Asian""]","No","Female","1683435","null","null","","","","clear_screen","","","","","","","","","","","","","","","","","","","","","","","","","",""
"","","","","","canvas-keyboard-response","62","138425","0.0-12.0-0.10","2d_cat_multi_stim_exp1","2022-4-11","10:54:56","25","75","3","9","10","40","30","120","24","19","[""Asian""]","No","Female","1683435","null","null","","","","fixation","","","","","","","","","","","","","","","","","","","","","","","","","",""
"","","","","","canvas-keyboard-response","63","138934","0.0-12.0-1.10","2d_cat_multi_stim_exp1","2022-4-11","10:54:56","25","75","3","9","10","40","30","120","24","19","[""Asian""]","No","Female","1683435","null","null","","","","clear_screen","","","","","","","","","","","","","","","","","","","","","","","","","",""
"","","","","","canvas-keyboard-response","64","140287","0.0-12.0-2.10","2d_cat_multi_stim_exp1","2022-4-11","10:54:56","25","75","3","9","10","40","30","120","24","19","[""Asian""]","No","Female","1683435","1345","u","learn","","","learn_trial","25","75","in","1","1","","","","","","","","","","","","","","","","","","","","",""
"","","","","","canvas-keyboard-response","65","140798","0.0-12.0-3.10","2d_cat_multi_stim_exp1","2022-4-11","10:54:56","25","75","3","9","10","40","30","120","24","19","[""Asian""]","No","Female","1683435","null","null","learn_feedback","","","learn_feedback","25","75","in","","","","","","","","","","","","","","","","","","","","","","",""
"","","","","","canvas-keyboard-response","66","140862","0.0-12.0-4.10","2d_cat_multi_stim_exp1","2022-4-11","10:54:56","25","75","3","9","10","40","30","120","24","19","[""Asian""]","No","Female","1683435","null","null","","","","clear_screen","","","","","","","","","","","","","","","","","","","","","","","","","",""
"","","","","","canvas-keyboard-response","67","141372","0.0-12.0-0.11","2d_cat_multi_stim_exp1","2022-4-11","10:54:56","25","75","3","9","10","40","30","120","24","19","[""Asian""]","No","Female","1683435","null","null","","","","fixation","","","","","","","","","","","","","","","","","","","","","","","","","",""
"","","","","","canvas-keyboard-response","68","141884","0.0-12.0-1.11","2d_cat_multi_stim_exp1","2022-4-11","10:54:56","25","75","3","9","10","40","30","120","24","19","[""Asian""]","No","Female","1683435","null","null","","","","clear_screen","","","","","","","","","","","","","","","","","","","","","","","","","",""
"","","","","","canvas-keyboard-response","69","142904","0.0-12.0-2.11","2d_cat_multi_stim_exp1","2022-4-11","10:54:56","25","75","3","9","10","40","30","120","24","19","[""Asian""]","No","Female","1683435","1010","i","learn","","","learn_trial","30","60","out","0","1","","","","","","","","","","","","","","","","","","","","",""
"","","","","","canvas-keyboard-response","70","143413","0.0-12.0-3.11","2d_cat_multi_stim_exp1","2022-4-11","10:54:56","25","75","3","9","10","40","30","120","24","19","[""Asian""]","No","Female","1683435","null","null","learn_feedback","","","learn_feedback","30","60","out","","","","","","","","","","","","","","","","","","","","","","",""
"","","","","","canvas-keyboard-response","71","143472","0.0-12.0-4.11","2d_cat_multi_stim_exp1","2022-4-11","10:54:56","25","75","3","9","10","40","30","120","24","19","[""Asian""]","No","Female","1683435","null","null","","","","clear_screen","","","","","","","","","","","","","","","","","","","","","","","","","",""
"","","","","","canvas-keyboard-response","72","143982","0.0-12.0-0.12","2d_cat_multi_stim_exp1","2022-4-11","10:54:56","25","75","3","9","10","40","30","120","24","19","[""Asian""]","No","Female","1683435","null","null","","","","fixation","","","","","","","","","","","","","","","","","","","","","","","","","",""
"","","","","","canvas-keyboard-response","73","144492","0.0-12.0-1.12","2d_cat_multi_stim_exp1","2022-4-11","10:54:56","25","75","3","9","10","40","30","120","24","19","[""Asian""]","No","Female","1683435","null","null","","","","clear_screen","","","","","","","","","","","","","","","","","","","","","","","","","",""
"","","","","","canvas-keyboard-response","74","145575","0.0-12.0-2.12","2d_cat_multi_stim_exp1","2022-4-11","10:54:56","25","75","3","9","10","40","30","120","24","19","[""Asian""]","No","Female","1683435","1076","u","learn","","","learn_trial","25","75","in","1","1","","","","","","","","","","","","","","","","","","","","",""
"","","","","","canvas-keyboard-response","75","146085","0.0-12.0-3.12","2d_cat_multi_stim_exp1","2022-4-11","10:54:56","25","75","3","9","10","40","30","120","24","19","[""Asian""]","No","Female","1683435","null","null","learn_feedback","","","learn_feedback","25","75","in","","","","","","","","","","","","","","","","","","","","","","",""
"","","","","","canvas-keyboard-response","76","146148","0.0-12.0-4.12","2d_cat_multi_stim_exp1","2022-4-11","10:54:56","25","75","3","9","10","40","30","120","24","19","[""Asian""]","No","Female","1683435","null","null","","","","clear_screen","","","","","","","","","","","","","","","","","","","","","","","","","",""
"","","","","","canvas-keyboard-response","77","146654","0.0-12.0-0.13","2d_cat_multi_stim_exp1","2022-4-11","10:54:56","25","75","3","9","10","40","30","120","24","19","[""Asian""]","No","Female","1683435","null","null","","","","fixation","","","","","","","","","","","","","","","","","","","","","","","","","",""
"","","","","","canvas-keyboard-response","78","147164","0.0-12.0-1.13","2d_cat_multi_stim_exp1","2022-4-11","10:54:56","25","75","3","9","10","40","30","120","24","19","[""Asian""]","No","Female","1683435","null","null","","","","clear_screen","","","","","","","","","","","","","","","","","","","","","","","","","",""
"","","","","","canvas-keyboard-response","79","148175","0.0-12.0-2.13","2d_cat_multi_stim_exp1","2022-4-11","10:54:56","25","75","3","9","10","40","30","120","24","19","[""Asian""]","No","Female","1683435","1004","i","learn","","","learn_trial","22.1081","77.3943","in","0","0","","","","","","","","","","","","","","","","","","","","",""
"","","","","","canvas-keyboard-response","80","149184","0.0-12.0-3.13","2d_cat_multi_stim_exp1","2022-4-11","10:54:56","25","75","3","9","10","40","30","120","24","19","[""Asian""]","No","Female","1683435","null","null","learn_feedback","","","learn_feedback","22.1081","77.3943","in","","","","","","","","","","","","","","","","","","","","","","",""
"","","","","","canvas-keyboard-response","81","149242","0.0-12.0-4.13","2d_cat_multi_stim_exp1","2022-4-11","10:54:56","25","75","3","9","10","40","30","120","24","19","[""Asian""]","No","Female","1683435","null","null","","","","clear_screen","","","","","","","","","","","","","","","","","","","","","","","","","",""
"","","","","","canvas-keyboard-response","82","149751","0.0-12.0-0.14","2d_cat_multi_stim_exp1","2022-4-11","10:54:56","25","75","3","9","10","40","30","120","24","19","[""Asian""]","No","Female","1683435","null","null","","","","fixation","","","","","","","","","","","","","","","","","","","","","","","","","",""
"","","","","","canvas-keyboard-response","83","150260","0.0-12.0-1.14","2d_cat_multi_stim_exp1","2022-4-11","10:54:56","25","75","3","9","10","40","30","120","24","19","[""Asian""]","No","Female","1683435","null","null","","","","clear_screen","","","","","","","","","","","","","","","","","","","","","","","","","",""
"","","","","","canvas-keyboard-response","84","151151","0.0-12.0-2.14","2d_cat_multi_stim_exp1","2022-4-11","10:54:56","25","75","3","9","10","40","30","120","24","19","[""Asian""]","No","Female","1683435","880","i","learn","","","learn_trial","20","120","out","0","1","","","","","","","","","","","","","","","","","","","","",""
"","","","","","canvas-keyboard-response","85","151664","0.0-12.0-3.14","2d_cat_multi_stim_exp1","2022-4-11","10:54:56","25","75","3","9","10","40","30","120","24","19","[""Asian""]","No","Female","1683435","null","null","learn_feedback","","","learn_feedback","20","120","out","","","","","","","","","","","","","","","","","","","","","","",""
"","","","","","canvas-keyboard-response","86","151727","0.0-12.0-4.14","2d_cat_multi_stim_exp1","2022-4-11","10:54:56","25","75","3","9","10","40","30","120","24","19","[""Asian""]","No","Female","1683435","null","null","","","","clear_screen","","","","","","","","","","","","","","","","","","","","","","","","","",""
"","","","","","canvas-keyboard-response","87","152237","0.0-12.0-0.15","2d_cat_multi_stim_exp1","2022-4-11","10:54:56","25","75","3","9","10","40","30","120","24","19","[""Asian""]","No","Female","1683435","null","null","","","","fixation","","","","","","","","","","","","","","","","","","","","","","","","","",""
"","","","","","canvas-keyboard-response","88","152747","0.0-12.0-1.15","2d_cat_multi_stim_exp1","2022-4-11","10:54:56","25","75","3","9","10","40","30","120","24","19","[""Asian""]","No","Female","1683435","null","null","","","","clear_screen","","","","","","","","","","","","","","","","","","","","","","","","","",""
"","","","","","canvas-keyboard-response","89","154079","0.0-12.0-2.15","2d_cat_multi_stim_exp1","2022-4-11","10:54:56","25","75","3","9","10","40","30","120","24","19","[""Asian""]","No","Female","1683435","1324","u","learn","","","learn_trial","24.3324","66.2256","in","1","1","","","","","","","","","","","","","","","","","","","","",""
"","","","","","canvas-keyboard-response","90","154588","0.0-12.0-3.15","2d_cat_multi_stim_exp1","2022-4-11","10:54:56","25","75","3","9","10","40","30","120","24","19","[""Asian""]","No","Female","1683435","null","null","learn_feedback","","","learn_feedback","24.3324","66.2256","in","","","","","","","","","","","","","","","","","","","","","","",""
"","","","","","canvas-keyboard-response","91","154648","0.0-12.0-4.15","2d_cat_multi_stim_exp1","2022-4-11","10:54:56","25","75","3","9","10","40","30","120","24","19","[""Asian""]","No","Female","1683435","null","null","","","","clear_screen","","","","","","","","","","","","","","","","","","","","","","","","","",""
"","","","","","canvas-keyboard-response","92","155158","0.0-12.0-0.16","2d_cat_multi_stim_exp1","2022-4-11","10:54:56","25","75","3","9","10","40","30","120","24","19","[""Asian""]","No","Female","1683435","null","null","","","","fixation","","","","","","","","","","","","","","","","","","","","","","","","","",""
"","","","","","canvas-keyboard-response","93","155668","0.0-12.0-1.16","2d_cat_multi_stim_exp1","2022-4-11","10:54:56","25","75","3","9","10","40","30","120","24","19","[""Asian""]","No","Female","1683435","null","null","","","","clear_screen","","","","","","","","","","","","","","","","","","","","","","","","","",""
"","","","","","canvas-keyboard-response","94","156391","0.0-12.0-2.16","2d_cat_multi_stim_exp1","2022-4-11","10:54:56","25","75","3","9","10","40","30","120","24","19","[""Asian""]","No","Female","1683435","711","u","learn","","","learn_trial","25","75","in","1","1","","","","","","","","","","","","","","","","","","","","",""
"","","","","","canvas-keyboard-response","95","156903","0.0-12.0-3.16","2d_cat_multi_stim_exp1","2022-4-11","10:54:56","25","75","3","9","10","40","30","120","24","19","[""Asian""]","No","Female","1683435","null","null","learn_feedback","","","learn_feedback","25","75","in","","","","","","","","","","","","","","","","","","","","","","",""
"","","","","","canvas-keyboard-response","96","156964","0.0-12.0-4.16","2d_cat_multi_stim_exp1","2022-4-11","10:54:56","25","75","3","9","10","40","30","120","24","19","[""Asian""]","No","Female","1683435","null","null","","","","clear_screen","","","","","","","","","","","","","","","","","","","","","","","","","",""
"","","","","","canvas-keyboard-response","97","157472","0.0-12.0-0.17","2d_cat_multi_stim_exp1","2022-4-11","10:54:56","25","75","3","9","10","40","30","120","24","19","[""Asian""]","No","Female","1683435","null","null","","","","fixation","","","","","","","","","","","","","","","","","","","","","","","","","",""
"","","","","","canvas-keyboard-response","98","157982","0.0-12.0-1.17","2d_cat_multi_stim_exp1","2022-4-11","10:54:56","25","75","3","9","10","40","30","120","24","19","[""Asian""]","No","Female","1683435","null","null","","","","clear_screen","","","","","","","","","","","","","","","","","","","","","","","","","",""
"","","","","","canvas-keyboard-response","99","158654","0.0-12.0-2.17","2d_cat_multi_stim_exp1","2022-4-11","10:54:56","25","75","3","9","10","40","30","120","24","19","[""Asian""]","No","Female","1683435","663","u","learn","","","learn_trial","22.9268","68.4948","in","1","1","","","","","","","","","","","","","","","","","","","","",""
"","","","","","canvas-keyboard-response","100","159166","0.0-12.0-3.17","2d_cat_multi_stim_exp1","2022-4-11","10:54:56","25","75","3","9","10","40","30","120","24","19","[""Asian""]","No","Female","1683435","null","null","learn_feedback","","","learn_feedback","22.9268","68.4948","in","","","","","","","","","","","","","","","","","","","","","","",""
"","","","","","canvas-keyboard-response","101","159227","0.0-12.0-4.17","2d_cat_multi_stim_exp1","2022-4-11","10:54:56","25","75","3","9","10","40","30","120","24","19","[""Asian""]","No","Female","1683435","null","null","","","","clear_screen","","","","","","","","","","","","","","","","","","","","","","","","","",""
"","","","","","canvas-keyboard-response","102","159736","0.0-12.0-0.18","2d_cat_multi_stim_exp1","2022-4-11","10:54:56","25","75","3","9","10","40","30","120","24","19","[""Asian""]","No","Female","1683435","null","null","","","","fixation","","","","","","","","","","","","","","","","","","","","","","","","","",""
"","","","","","canvas-keyboard-response","103","160250","0.0-12.0-1.18","2d_cat_multi_stim_exp1","2022-4-11","10:54:56","25","75","3","9","10","40","30","120","24","19","[""Asian""]","No","Female","1683435","null","null","","","","clear_screen","","","","","","","","","","","","","","","","","","","","","","","","","",""
"","","","","","canvas-keyboard-response","104","160911","0.0-12.0-2.18","2d_cat_multi_stim_exp1","2022-4-11","10:54:56","25","75","3","9","10","40","30","120","24","19","[""Asian""]","No","Female","1683435","649","i","learn","","","learn_trial","20","40","out","0","1","","","","","","","","","","","","","","","","","","","","",""
"","","","","","canvas-keyboard-response","105","161420","0.0-12.0-3.18","2d_cat_multi_stim_exp1","2022-4-11","10:54:56","25","75","3","9","10","40","30","120","24","19","[""Asian""]","No","Female","1683435","null","null","learn_feedback","","","learn_feedback","20","40","out","","","","","","","","","","","","","","","","","","","","","","",""
"","","","","","canvas-keyboard-response","106","161480","0.0-12.0-4.18","2d_cat_multi_stim_exp1","2022-4-11","10:54:56","25","75","3","9","10","40","30","120","24","19","[""Asian""]","No","Female","1683435","null","null","","","","clear_screen","","","","","","","","","","","","","","","","","","","","","","","","","",""
"","","","","","canvas-keyboard-response","107","161989","0.0-12.0-0.19","2d_cat_multi_stim_exp1","2022-4-11","10:54:56","25","75","3","9","10","40","30","120","24","19","[""Asian""]","No","Female","1683435","null","null","","","","fixation","","","","","","","","","","","","","","","","","","","","","","","","","",""
"","","","","","canvas-keyboard-response","108","162499","0.0-12.0-1.19","2d_cat_multi_stim_exp1","2022-4-11","10:54:56","25","75","3","9","10","40","30","120","24","19","[""Asian""]","No","Female","1683435","null","null","","","","clear_screen","","","","","","","","","","","","","","","","","","","","","","","","","",""
"","","","","","canvas-keyboard-response","109","163159","0.0-12.0-2.19","2d_cat_multi_stim_exp1","2022-4-11","10:54:56","25","75","3","9","10","40","30","120","24","19","[""Asian""]","No","Female","1683435","650","i","learn","","","learn_trial","10","30","out","0","1","","","","","","","","","","","","","","","","","","","","",""
"","","","","","canvas-keyboard-response","110","163669","0.0-12.0-3.19","2d_cat_multi_stim_exp1","2022-4-11","10:54:56","25","75","3","9","10","40","30","120","24","19","[""Asian""]","No","Female","1683435","null","null","learn_feedback","","","learn_feedback","10","30","out","","","","","","","","","","","","","","","","","","","","","","",""
"","","","","","canvas-keyboard-response","111","163728","0.0-12.0-4.19","2d_cat_multi_stim_exp1","2022-4-11","10:54:56","25","75","3","9","10","40","30","120","24","19","[""Asian""]","No","Female","1683435","null","null","","","","clear_screen","","","","","","","","","","","","","","","","","","","","","","","","","",""
"","","","","","canvas-keyboard-response","112","164236","0.0-12.0-0.20","2d_cat_multi_stim_exp1","2022-4-11","10:54:56","25","75","3","9","10","40","30","120","24","19","[""Asian""]","No","Female","1683435","null","null","","","","fixation","","","","","","","","","","","","","","","","","","","","","","","","","",""
"","","","","","canvas-keyboard-response","113","164748","0.0-12.0-1.20","2d_cat_multi_stim_exp1","2022-4-11","10:54:56","25","75","3","9","10","40","30","120","24","19","[""Asian""]","No","Female","1683435","null","null","","","","clear_screen","","","","","","","","","","","","","","","","","","","","","","","","","",""
"","","","","","canvas-keyboard-response","114","165575","0.0-12.0-2.20","2d_cat_multi_stim_exp1","2022-4-11","10:54:56","25","75","3","9","10","40","30","120","24","19","[""Asian""]","No","Female","1683435","817","u","learn","","","learn_trial","25","75","in","1","1","","","","","","","","","","","","","","","","","","","","",""
"","","","","","canvas-keyboard-response","115","166084","0.0-12.0-3.20","2d_cat_multi_stim_exp1","2022-4-11","10:54:56","25","75","3","9","10","40","30","120","24","19","[""Asian""]","No","Female","1683435","null","null","learn_feedback","","","learn_feedback","25","75","in","","","","","","","","","","","","","","","","","","","","","","",""
"","","","","","canvas-keyboard-response","116","166143","0.0-12.0-4.20","2d_cat_multi_stim_exp1","2022-4-11","10:54:56","25","75","3","9","10","40","30","120","24","19","[""Asian""]","No","Female","1683435","null","null","","","","clear_screen","","","","","","","","","","","","","","","","","","","","","","","","","",""
"","","","","","canvas-keyboard-response","117","166655","0.0-12.0-0.21","2d_cat_multi_stim_exp1","2022-4-11","10:54:56","25","75","3","9","10","40","30","120","24","19","[""Asian""]","No","Female","1683435","null","null","","","","fixation","","","","","","","","","","","","","","","","","","","","","","","","","",""
"","","","","","canvas-keyboard-response","118","167166","0.0-12.0-1.21","2d_cat_multi_stim_exp1","2022-4-11","10:54:56","25","75","3","9","10","40","30","120","24","19","[""Asian""]","No","Female","1683435","null","null","","","","clear_screen","","","","","","","","","","","","","","","","","","","","","","","","","",""
"","","","","","canvas-keyboard-response","119","167736","0.0-12.0-2.21","2d_cat_multi_stim_exp1","2022-4-11","10:54:56","25","75","3","9","10","40","30","120","24","19","[""Asian""]","No","Female","1683435","561","u","learn","","","learn_trial","27.9518","76.607","in","1","1","","","","","","","","","","","","","","","","","","","","",""
"","","","","","canvas-keyboard-response","120","168243","0.0-12.0-3.21","2d_cat_multi_stim_exp1","2022-4-11","10:54:56","25","75","3","9","10","40","30","120","24","19","[""Asian""]","No","Female","1683435","null","null","learn_feedback","","","learn_feedback","27.9518","76.607","in","","","","","","","","","","","","","","","","","","","","","","",""
"","","","","","canvas-keyboard-response","121","168302","0.0-12.0-4.21","2d_cat_multi_stim_exp1","2022-4-11","10:54:56","25","75","3","9","10","40","30","120","24","19","[""Asian""]","No","Female","1683435","null","null","","","","clear_screen","","","","","","","","","","","","","","","","","","","","","","","","","",""
"","","","","","canvas-keyboard-response","122","168812","0.0-12.0-0.22","2d_cat_multi_stim_exp1","2022-4-11","10:54:56","25","75","3","9","10","40","30","120","24","19","[""Asian""]","No","Female","1683435","null","null","","","","fixation","","","","","","","","","","","","","","","","","","","","","","","","","",""
"","","","","","canvas-keyboard-response","123","169322","0.0-12.0-1.22","2d_cat_multi_stim_exp1","2022-4-11","10:54:56","25","75","3","9","10","40","30","120","24","19","[""Asian""]","No","Female","1683435","null","null","","","","clear_screen","","","","","","","","","","","","","","","","","","","","","","","","","",""
"","","","","","canvas-keyboard-response","124","169919","0.0-12.0-2.22","2d_cat_multi_stim_exp1","2022-4-11","10:54:56","25","75","3","9","10","40","30","120","24","19","[""Asian""]","No","Female","1683435","589","u","learn","","","learn_trial","23.8209","83.2757","in","1","1","","","","","","","","","","","","","","","","","","","","",""
"","","","","","canvas-keyboard-response","125","170430","0.0-12.0-3.22","2d_cat_multi_stim_exp1","2022-4-11","10:54:56","25","75","3","9","10","40","30","120","24","19","[""Asian""]","No","Female","1683435","null","null","learn_feedback","","","learn_feedback","23.8209","83.2757","in","","","","","","","","","","","","","","","","","","","","","","",""
"","","","","","canvas-keyboard-response","126","170493","0.0-12.0-4.22","2d_cat_multi_stim_exp1","2022-4-11","10:54:56","25","75","3","9","10","40","30","120","24","19","[""Asian""]","No","Female","1683435","null","null","","","","clear_screen","","","","","","","","","","","","","","","","","","","","","","","","","",""
"","","","","","canvas-keyboard-response","127","171004","0.0-12.0-0.23","2d_cat_multi_stim_exp1","2022-4-11","10:54:56","25","75","3","9","10","40","30","120","24","19","[""Asian""]","No","Female","1683435","null","null","","","","fixation","","","","","","","","","","","","","","","","","","","","","","","","","",""
"","","","","","canvas-keyboard-response","128","171518","0.0-12.0-1.23","2d_cat_multi_stim_exp1","2022-4-11","10:54:56","25","75","3","9","10","40","30","120","24","19","[""Asian""]","No","Female","1683435","null","null","","","","clear_screen","","","","","","","","","","","","","","","","","","","","","","","","","",""
"","","","","","canvas-keyboard-response","129","172384","0.0-12.0-2.23","2d_cat_multi_stim_exp1","2022-4-11","10:54:56","25","75","3","9","10","40","30","120","24","19","[""Asian""]","No","Female","1683435","853","i","learn","","","learn_trial","40","90","out","0","1","","","","","","","","","","","","","","","","","","","","",""
"","","","","","canvas-keyboard-response","130","172894","0.0-12.0-3.23","2d_cat_multi_stim_exp1","2022-4-11","10:54:56","25","75","3","9","10","40","30","120","24","19","[""Asian""]","No","Female","1683435","null","null","learn_feedback","","","learn_feedback","40","90","out","","","","","","","","","","","","","","","","","","","","","","",""
"","","","","","canvas-keyboard-response","131","172954","0.0-12.0-4.23","2d_cat_multi_stim_exp1","2022-4-11","10:54:56","25","75","3","9","10","40","30","120","24","19","[""Asian""]","No","Female","1683435","null","null","","","","clear_screen","","","","","","","","","","","","","","","","","","","","","","","","","",""
"","","","","","canvas-keyboard-response","132","173463","0.0-12.0-0.24","2d_cat_multi_stim_exp1","2022-4-11","10:54:56","25","75","3","9","10","40","30","120","24","19","[""Asian""]","No","Female","1683435","null","null","","","","fixation","","","","","","","","","","","","","","","","","","","","","","","","","",""
"","","","","","canvas-keyboard-response","133","173976","0.0-12.0-1.24","2d_cat_multi_stim_exp1","2022-4-11","10:54:56","25","75","3","9","10","40","30","120","24","19","[""Asian""]","No","Female","1683435","null","null","","","","clear_screen","","","","","","","","","","","","","","","","","","","","","","","","","",""
"","","","","","canvas-keyboard-response","134","174855","0.0-12.0-2.24","2d_cat_multi_stim_exp1","2022-4-11","10:54:56","25","75","3","9","10","40","30","120","24","19","[""Asian""]","No","Female","1683435","868","u","learn","","","learn_trial","25","75","in","1","1","","","","","","","","","","","","","","","","","","","","",""
"","","","","","canvas-keyboard-response","135","175366","0.0-12.0-3.24","2d_cat_multi_stim_exp1","2022-4-11","10:54:56","25","75","3","9","10","40","30","120","24","19","[""Asian""]","No","Female","1683435","null","null","learn_feedback","","","learn_feedback","25","75","in","","","","","","","","","","","","","","","","","","","","","","",""
"","","","","","canvas-keyboard-response","136","175428","0.0-12.0-4.24","2d_cat_multi_stim_exp1","2022-4-11","10:54:56","25","75","3","9","10","40","30","120","24","19","[""Asian""]","No","Female","1683435","null","null","","","","clear_screen","","","","","","","","","","","","","","","","","","","","","","","","","",""
"","","","","","canvas-keyboard-response","137","175937","0.0-12.0-0.25","2d_cat_multi_stim_exp1","2022-4-11","10:54:56","25","75","3","9","10","40","30","120","24","19","[""Asian""]","No","Female","1683435","null","null","","","","fixation","","","","","","","","","","","","","","","","","","","","","","","","","",""
"","","","","","canvas-keyboard-response","138","176451","0.0-12.0-1.25","2d_cat_multi_stim_exp1","2022-4-11","10:54:56","25","75","3","9","10","40","30","120","24","19","[""Asian""]","No","Female","1683435","null","null","","","","clear_screen","","","","","","","","","","","","","","","","","","","","","","","","","",""
"","","","","","canvas-keyboard-response","139","177103","0.0-12.0-2.25","2d_cat_multi_stim_exp1","2022-4-11","10:54:56","25","75","3","9","10","40","30","120","24","19","[""Asian""]","No","Female","1683435","642","i","learn","","","learn_trial","40","50","out","0","1","","","","","","","","","","","","","","","","","","","","",""
"","","","","","canvas-keyboard-response","140","177614","0.0-12.0-3.25","2d_cat_multi_stim_exp1","2022-4-11","10:54:56","25","75","3","9","10","40","30","120","24","19","[""Asian""]","No","Female","1683435","null","null","learn_feedback","","","learn_feedback","40","50","out","","","","","","","","","","","","","","","","","","","","","","",""
"","","","","","canvas-keyboard-response","141","177673","0.0-12.0-4.25","2d_cat_multi_stim_exp1","2022-4-11","10:54:56","25","75","3","9","10","40","30","120","24","19","[""Asian""]","No","Female","1683435","null","null","","","","clear_screen","","","","","","","","","","","","","","","","","","","","","","","","","",""
"","","","","","canvas-keyboard-response","142","178181","0.0-12.0-0.26","2d_cat_multi_stim_exp1","2022-4-11","10:54:56","25","75","3","9","10","40","30","120","24","19","[""Asian""]","No","Female","1683435","null","null","","","","fixation","","","","","","","","","","","","","","","","","","","","","","","","","",""
"","","","","","canvas-keyboard-response","143","178694","0.0-12.0-1.26","2d_cat_multi_stim_exp1","2022-4-11","10:54:56","25","75","3","9","10","40","30","120","24","19","[""Asian""]","No","Female","1683435","null","null","","","","clear_screen","","","","","","","","","","","","","","","","","","","","","","","","","",""
"","","","","","canvas-keyboard-response","144","179551","0.0-12.0-2.26","2d_cat_multi_stim_exp1","2022-4-11","10:54:56","25","75","3","9","10","40","30","120","24","19","[""Asian""]","No","Female","1683435","849","i","learn","","","learn_trial","13.3333","120","out","0","1","","","","","","","","","","","","","","","","","","","","",""
"","","","","","canvas-keyboard-response","145","180060","0.0-12.0-3.26","2d_cat_multi_stim_exp1","2022-4-11","10:54:56","25","75","3","9","10","40","30","120","24","19","[""Asian""]","No","Female","1683435","null","null","learn_feedback","","","learn_feedback","13.3333","120","out","","","","","","","","","","","","","","","","","","","","","","",""
"","","","","","canvas-keyboard-response","146","180120","0.0-12.0-4.26","2d_cat_multi_stim_exp1","2022-4-11","10:54:56","25","75","3","9","10","40","30","120","24","19","[""Asian""]","No","Female","1683435","null","null","","","","clear_screen","","","","","","","","","","","","","","","","","","","","","","","","","",""
"","","","","","canvas-keyboard-response","147","180629","0.0-12.0-0.27","2d_cat_multi_stim_exp1","2022-4-11","10:54:56","25","75","3","9","10","40","30","120","24","19","[""Asian""]","No","Female","1683435","null","null","","","","fixation","","","","","","","","","","","","","","","","","","","","","","","","","",""
"","","","","","canvas-keyboard-response","148","181143","0.0-12.0-1.27","2d_cat_multi_stim_exp1","2022-4-11","10:54:56","25","75","3","9","10","40","30","120","24","19","[""Asian""]","No","Female","1683435","null","null","","","","clear_screen","","","","","","","","","","","","","","","","","","","","","","","","","",""
"","","","","","canvas-keyboard-response","149","182176","0.0-12.0-2.27","2d_cat_multi_stim_exp1","2022-4-11","10:54:56","25","75","3","9","10","40","30","120","24","19","[""Asian""]","No","Female","1683435","1023","i","learn","","","learn_trial","13.3333","50","out","0","1","","","","","","","","","","","","","","","","","","","","",""
"","","","","","canvas-keyboard-response","150","182687","0.0-12.0-3.27","2d_cat_multi_stim_exp1","2022-4-11","10:54:56","25","75","3","9","10","40","30","120","24","19","[""Asian""]","No","Female","1683435","null","null","learn_feedback","","","learn_feedback","13.3333","50","out","","","","","","","","","","","","","","","","","","","","","","",""
"","","","","","canvas-keyboard-response","151","182751","0.0-12.0-4.27","2d_cat_multi_stim_exp1","2022-4-11","10:54:56","25","75","3","9","10","40","30","120","24","19","[""Asian""]","No","Female","1683435","null","null","","","","clear_screen","","","","","","","","","","","","","","","","","","","","","","","","","",""
"","","","","","canvas-keyboard-response","152","183258","0.0-12.0-0.28","2d_cat_multi_stim_exp1","2022-4-11","10:54:56","25","75","3","9","10","40","30","120","24","19","[""Asian""]","No","Female","1683435","null","null","","","","fixation","","","","","","","","","","","","","","","","","","","","","","","","","",""
"","","","","","canvas-keyboard-response","153","183772","0.0-12.0-1.28","2d_cat_multi_stim_exp1","2022-4-11","10:54:56","25","75","3","9","10","40","30","120","24","19","[""Asian""]","No","Female","1683435","null","null","","","","clear_screen","","","","","","","","","","","","","","","","","","","","","","","","","",""
"","","","","","canvas-keyboard-response","154","184302","0.0-12.0-2.28","2d_cat_multi_stim_exp1","2022-4-11","10:54:56","25","75","3","9","10","40","30","120","24","19","[""Asian""]","No","Female","1683435","524","u","learn","","","learn_trial","25","75","in","1","1","","","","","","","","","","","","","","","","","","","","",""
"","","","","","canvas-keyboard-response","155","184811","0.0-12.0-3.28","2d_cat_multi_stim_exp1","2022-4-11","10:54:56","25","75","3","9","10","40","30","120","24","19","[""Asian""]","No","Female","1683435","null","null","learn_feedback","","","learn_feedback","25","75","in","","","","","","","","","","","","","","","","","","","","","","",""
"","","","","","canvas-keyboard-response","156","184874","0.0-12.0-4.28","2d_cat_multi_stim_exp1","2022-4-11","10:54:56","25","75","3","9","10","40","30","120","24","19","[""Asian""]","No","Female","1683435","null","null","","","","clear_screen","","","","","","","","","","","","","","","","","","","","","","","","","",""
"","","","","","canvas-keyboard-response","157","185383","0.0-12.0-0.29","2d_cat_multi_stim_exp1","2022-4-11","10:54:56","25","75","3","9","10","40","30","120","24","19","[""Asian""]","No","Female","1683435","null","null","","","","fixation","","","","","","","","","","","","","","","","","","","","","","","","","",""
"","","","","","canvas-keyboard-response","158","185896","0.0-12.0-1.29","2d_cat_multi_stim_exp1","2022-4-11","10:54:56","25","75","3","9","10","40","30","120","24","19","[""Asian""]","No","Female","1683435","null","null","","","","clear_screen","","","","","","","","","","","","","","","","","","","","","","","","","",""
"","","","","","canvas-keyboard-response","159","186479","0.0-12.0-2.29","2d_cat_multi_stim_exp1","2022-4-11","10:54:56","25","75","3","9","10","40","30","120","24","19","[""Asian""]","No","Female","1683435","573","u","learn","","","learn_trial","28","75","in","1","1","","","","","","","","","","","","","","","","","","","","",""
"","","","","","canvas-keyboard-response","160","186990","0.0-12.0-3.29","2d_cat_multi_stim_exp1","2022-4-11","10:54:56","25","75","3","9","10","40","30","120","24","19","[""Asian""]","No","Female","1683435","null","null","learn_feedback","","","learn_feedback","28","75","in","","","","","","","","","","","","","","","","","","","","","","",""
"","","","","","canvas-keyboard-response","161","187052","0.0-12.0-4.29","2d_cat_multi_stim_exp1","2022-4-11","10:54:56","25","75","3","9","10","40","30","120","24","19","[""Asian""]","No","Female","1683435","null","null","","","","clear_screen","","","","","","","","","","","","","","","","","","","","","","","","","",""
"","","","","","canvas-keyboard-response","162","187560","0.0-12.0-0.30","2d_cat_multi_stim_exp1","2022-4-11","10:54:56","25","75","3","9","10","40","30","120","24","19","[""Asian""]","No","Female","1683435","null","null","","","","fixation","","","","","","","","","","","","","","","","","","","","","","","","","",""
"","","","","","canvas-keyboard-response","163","188074","0.0-12.0-1.30","2d_cat_multi_stim_exp1","2022-4-11","10:54:56","25","75","3","9","10","40","30","120","24","19","[""Asian""]","No","Female","1683435","null","null","","","","clear_screen","","","","","","","","","","","","","","","","","","","","","","","","","",""
"","","","","","canvas-keyboard-response","164","188735","0.0-12.0-2.30","2d_cat_multi_stim_exp1","2022-4-11","10:54:56","25","75","3","9","10","40","30","120","24","19","[""Asian""]","No","Female","1683435","652","i","learn","","","learn_trial","40","110","out","0","1","","","","","","","","","","","","","","","","","","","","",""
"","","","","","canvas-keyboard-response","165","189246","0.0-12.0-3.30","2d_cat_multi_stim_exp1","2022-4-11","10:54:56","25","75","3","9","10","40","30","120","24","19","[""Asian""]","No","Female","1683435","null","null","learn_feedback","","","learn_feedback","40","110","out","","","","","","","","","","","","","","","","","","","","","","",""
"","","","","","canvas-keyboard-response","166","189305","0.0-12.0-4.30","2d_cat_multi_stim_exp1","2022-4-11","10:54:56","25","75","3","9","10","40","30","120","24","19","[""Asian""]","No","Female","1683435","null","null","","","","clear_screen","","","","","","","","","","","","","","","","","","","","","","","","","",""
"","","","","","canvas-keyboard-response","167","189814","0.0-12.0-0.31","2d_cat_multi_stim_exp1","2022-4-11","10:54:56","25","75","3","9","10","40","30","120","24","19","[""Asian""]","No","Female","1683435","null","null","","","","fixation","","","","","","","","","","","","","","","","","","","","","","","","","",""
"","","","","","canvas-keyboard-response","168","190326","0.0-12.0-1.31","2d_cat_multi_stim_exp1","2022-4-11","10:54:56","25","75","3","9","10","40","30","120","24","19","[""Asian""]","No","Female","1683435","null","null","","","","clear_screen","","","","","","","","","","","","","","","","","","","","","","","","","",""
"","","","","","canvas-keyboard-response","169","190903","0.0-12.0-2.31","2d_cat_multi_stim_exp1","2022-4-11","10:54:56","25","75","3","9","10","40","30","120","24","19","[""Asian""]","No","Female","1683435","568","i","learn","","","learn_trial","23.3333","50","out","0","1","","","","","","","","","","","","","","","","","","","","",""
"","","","","","canvas-keyboard-response","170","191414","0.0-12.0-3.31","2d_cat_multi_stim_exp1","2022-4-11","10:54:56","25","75","3","9","10","40","30","120","24","19","[""Asian""]","No","Female","1683435","null","null","learn_feedback","","","learn_feedback","23.3333","50","out","","","","","","","","","","","","","","","","","","","","","","",""
"","","","","","canvas-keyboard-response","171","191474","0.0-12.0-4.31","2d_cat_multi_stim_exp1","2022-4-11","10:54:56","25","75","3","9","10","40","30","120","24","19","[""Asian""]","No","Female","1683435","null","null","","","","clear_screen","","","","","","","","","","","","","","","","","","","","","","","","","",""
"","","","","","canvas-keyboard-response","172","191985","0.0-12.0-0.32","2d_cat_multi_stim_exp1","2022-4-11","10:54:56","25","75","3","9","10","40","30","120","24","19","[""Asian""]","No","Female","1683435","null","null","","","","fixation","","","","","","","","","","","","","","","","","","","","","","","","","",""
"","","","","","canvas-keyboard-response","173","192498","0.0-12.0-1.32","2d_cat_multi_stim_exp1","2022-4-11","10:54:56","25","75","3","9","10","40","30","120","24","19","[""Asian""]","No","Female","1683435","null","null","","","","clear_screen","","","","","","","","","","","","","","","","","","","","","","","","","",""
"","","","","","canvas-keyboard-response","174","193246","0.0-12.0-2.32","2d_cat_multi_stim_exp1","2022-4-11","10:54:56","25","75","3","9","10","40","30","120","24","19","[""Asian""]","No","Female","1683435","738","i","learn","","","learn_trial","25","75","in","0","0","","","","","","","","","","","","","","","","","","","","",""
"","","","","","canvas-keyboard-response","175","194256","0.0-12.0-3.32","2d_cat_multi_stim_exp1","2022-4-11","10:54:56","25","75","3","9","10","40","30","120","24","19","[""Asian""]","No","Female","1683435","null","null","learn_feedback","","","learn_feedback","25","75","in","","","","","","","","","","","","","","","","","","","","","","",""
"","","","","","canvas-keyboard-response","176","194316","0.0-12.0-4.32","2d_cat_multi_stim_exp1","2022-4-11","10:54:56","25","75","3","9","10","40","30","120","24","19","[""Asian""]","No","Female","1683435","null","null","","","","clear_screen","","","","","","","","","","","","","","","","","","","","","","","","","",""
"","","","","","canvas-keyboard-response","177","194827","0.0-12.0-0.33","2d_cat_multi_stim_exp1","2022-4-11","10:54:56","25","75","3","9","10","40","30","120","24","19","[""Asian""]","No","Female","1683435","null","null","","","","fixation","","","","","","","","","","","","","","","","","","","","","","","","","",""
"","","","","","canvas-keyboard-response","178","195338","0.0-12.0-1.33","2d_cat_multi_stim_exp1","2022-4-11","10:54:56","25","75","3","9","10","40","30","120","24","19","[""Asian""]","No","Female","1683435","null","null","","","","clear_screen","","","","","","","","","","","","","","","","","","","","","","","","","",""
"","","","","","canvas-keyboard-response","179","195991","0.0-12.0-2.33","2d_cat_multi_stim_exp1","2022-4-11","10:54:56","25","75","3","9","10","40","30","120","24","19","[""Asian""]","No","Female","1683435","646","i","learn","","","learn_trial","20","30","out","0","1","","","","","","","","","","","","","","","","","","","","",""
"","","","","","canvas-keyboard-response","180","196501","0.0-12.0-3.33","2d_cat_multi_stim_exp1","2022-4-11","10:54:56","25","75","3","9","10","40","30","120","24","19","[""Asian""]","No","Female","1683435","null","null","learn_feedback","","","learn_feedback","20","30","out","","","","","","","","","","","","","","","","","","","","","","",""
"","","","","","canvas-keyboard-response","181","196559","0.0-12.0-4.33","2d_cat_multi_stim_exp1","2022-4-11","10:54:56","25","75","3","9","10","40","30","120","24","19","[""Asian""]","No","Female","1683435","null","null","","","","clear_screen","","","","","","","","","","","","","","","","","","","","","","","","","",""
"","","","","","canvas-keyboard-response","182","197068","0.0-12.0-0.34","2d_cat_multi_stim_exp1","2022-4-11","10:54:56","25","75","3","9","10","40","30","120","24","19","[""Asian""]","No","Female","1683435","null","null","","","","fixation","","","","","","","","","","","","","","","","","","","","","","","","","",""
"","","","","","canvas-keyboard-response","183","197577","0.0-12.0-1.34","2d_cat_multi_stim_exp1","2022-4-11","10:54:56","25","75","3","9","10","40","30","120","24","19","[""Asian""]","No","Female","1683435","null","null","","","","clear_screen","","","","","","","","","","","","","","","","","","","","","","","","","",""
"","","","","","canvas-keyboard-response","184","198406","0.0-12.0-2.34","2d_cat_multi_stim_exp1","2022-4-11","10:54:56","25","75","3","9","10","40","30","120","24","19","[""Asian""]","No","Female","1683435","819","i","learn","","","learn_trial","16.6667","60","out","0","1","","","","","","","","","","","","","","","","","","","","",""
"","","","","","canvas-keyboard-response","185","198918","0.0-12.0-3.34","2d_cat_multi_stim_exp1","2022-4-11","10:54:56","25","75","3","9","10","40","30","120","24","19","[""Asian""]","No","Female","1683435","null","null","learn_feedback","","","learn_feedback","16.6667","60","out","","","","","","","","","","","","","","","","","","","","","","",""
"","","","","","canvas-keyboard-response","186","198978","0.0-12.0-4.34","2d_cat_multi_stim_exp1","2022-4-11","10:54:56","25","75","3","9","10","40","30","120","24","19","[""Asian""]","No","Female","1683435","null","null","","","","clear_screen","","","","","","","","","","","","","","","","","","","","","","","","","",""
"","","","","","canvas-keyboard-response","187","199489","0.0-12.0-0.35","2d_cat_multi_stim_exp1","2022-4-11","10:54:56","25","75","3","9","10","40","30","120","24","19","[""Asian""]","No","Female","1683435","null","null","","","","fixation","","","","","","","","","","","","","","","","","","","","","","","","","",""
"","","","","","canvas-keyboard-response","188","200003","0.0-12.0-1.35","2d_cat_multi_stim_exp1","2022-4-11","10:54:56","25","75","3","9","10","40","30","120","24","19","[""Asian""]","No","Female","1683435","null","null","","","","clear_screen","","","","","","","","","","","","","","","","","","","","","","","","","",""
"","","","","","canvas-keyboard-response","189","200711","0.0-12.0-2.35","2d_cat_multi_stim_exp1","2022-4-11","10:54:56","25","75","3","9","10","40","30","120","24","19","[""Asian""]","No","Female","1683435","700","i","learn","","","learn_trial","16.6667","120","out","0","1","","","","","","","","","","","","","","","","","","","","",""
"","","","","","canvas-keyboard-response","190","201222","0.0-12.0-3.35","2d_cat_multi_stim_exp1","2022-4-11","10:54:56","25","75","3","9","10","40","30","120","24","19","[""Asian""]","No","Female","1683435","null","null","learn_feedback","","","learn_feedback","16.6667","120","out","","","","","","","","","","","","","","","","","","","","","","",""
"","","","","","canvas-keyboard-response","191","201281","0.0-12.0-4.35","2d_cat_multi_stim_exp1","2022-4-11","10:54:56","25","75","3","9","10","40","30","120","24","19","[""Asian""]","No","Female","1683435","null","null","","","","clear_screen","","","","","","","","","","","","","","","","","","","","","","","","","",""
"","","","","","canvas-keyboard-response","192","201794","0.0-12.0-0.36","2d_cat_multi_stim_exp1","2022-4-11","10:54:56","25","75","3","9","10","40","30","120","24","19","[""Asian""]","No","Female","1683435","null","null","","","","fixation","","","","","","","","","","","","","","","","","","","","","","","","","",""
"","","","","","canvas-keyboard-response","193","202307","0.0-12.0-1.36","2d_cat_multi_stim_exp1","2022-4-11","10:54:56","25","75","3","9","10","40","30","120","24","19","[""Asian""]","No","Female","1683435","null","null","","","","clear_screen","","","","","","","","","","","","","","","","","","","","","","","","","",""
"","","","","","canvas-keyboard-response","194","203055","0.0-12.0-2.36","2d_cat_multi_stim_exp1","2022-4-11","10:54:56","25","75","3","9","10","40","30","120","24","19","[""Asian""]","No","Female","1683435","739","i","learn","","","learn_trial","20","100","out","0","1","","","","","","","","","","","","","","","","","","","","",""
"","","","","","canvas-keyboard-response","195","203568","0.0-12.0-3.36","2d_cat_multi_stim_exp1","2022-4-11","10:54:56","25","75","3","9","10","40","30","120","24","19","[""Asian""]","No","Female","1683435","null","null","learn_feedback","","","learn_feedback","20","100","out","","","","","","","","","","","","","","","","","","","","","","",""
"","","","","","canvas-keyboard-response","196","203626","0.0-12.0-4.36","2d_cat_multi_stim_exp1","2022-4-11","10:54:56","25","75","3","9","10","40","30","120","24","19","[""Asian""]","No","Female","1683435","null","null","","","","clear_screen","","","","","","","","","","","","","","","","","","","","","","","","","",""
"","","","","","canvas-keyboard-response","197","204135","0.0-12.0-0.37","2d_cat_multi_stim_exp1","2022-4-11","10:54:56","25","75","3","9","10","40","30","120","24","19","[""Asian""]","No","Female","1683435","null","null","","","","fixation","","","","","","","","","","","","","","","","","","","","","","","","","",""
"","","","","","canvas-keyboard-response","198","204645","0.0-12.0-1.37","2d_cat_multi_stim_exp1","2022-4-11","10:54:56","25","75","3","9","10","40","30","120","24","19","[""Asian""]","No","Female","1683435","null","null","","","","clear_screen","","","","","","","","","","","","","","","","","","","","","","","","","",""
"","","","","","canvas-keyboard-response","199","205271","0.0-12.0-2.37","2d_cat_multi_stim_exp1","2022-4-11","10:54:56","25","75","3","9","10","40","30","120","24","19","[""Asian""]","No","Female","1683435","616","i","learn","","","learn_trial","36.6667","70","out","0","1","","","","","","","","","","","","","","","","","","","","",""
"","","","","","canvas-keyboard-response","200","205780","0.0-12.0-3.37","2d_cat_multi_stim_exp1","2022-4-11","10:54:56","25","75","3","9","10","40","30","120","24","19","[""Asian""]","No","Female","1683435","null","null","learn_feedback","","","learn_feedback","36.6667","70","out","","","","","","","","","","","","","","","","","","","","","","",""
"","","","","","canvas-keyboard-response","201","205843","0.0-12.0-4.37","2d_cat_multi_stim_exp1","2022-4-11","10:54:56","25","75","3","9","10","40","30","120","24","19","[""Asian""]","No","Female","1683435","null","null","","","","clear_screen","","","","","","","","","","","","","","","","","","","","","","","","","",""
"","","","","","canvas-keyboard-response","202","206352","0.0-12.0-0.38","2d_cat_multi_stim_exp1","2022-4-11","10:54:56","25","75","3","9","10","40","30","120","24","19","[""Asian""]","No","Female","1683435","null","null","","","","fixation","","","","","","","","","","","","","","","","","","","","","","","","","",""
"","","","","","canvas-keyboard-response","203","206862","0.0-12.0-1.38","2d_cat_multi_stim_exp1","2022-4-11","10:54:56","25","75","3","9","10","40","30","120","24","19","[""Asian""]","No","Female","1683435","null","null","","","","clear_screen","","","","","","","","","","","","","","","","","","","","","","","","","",""
"","","","","","canvas-keyboard-response","204","207391","0.0-12.0-2.38","2d_cat_multi_stim_exp1","2022-4-11","10:54:56","25","75","3","9","10","40","30","120","24","19","[""Asian""]","No","Female","1683435","520","i","learn","","","learn_trial","20","80","out","0","1","","","","","","","","","","","","","","","","","","","","",""
"","","","","","canvas-keyboard-response","205","207903","0.0-12.0-3.38","2d_cat_multi_stim_exp1","2022-4-11","10:54:56","25","75","3","9","10","40","30","120","24","19","[""Asian""]","No","Female","1683435","null","null","learn_feedback","","","learn_feedback","20","80","out","","","","","","","","","","","","","","","","","","","","","","",""
"","","","","","canvas-keyboard-response","206","207965","0.0-12.0-4.38","2d_cat_multi_stim_exp1","2022-4-11","10:54:56","25","75","3","9","10","40","30","120","24","19","[""Asian""]","No","Female","1683435","null","null","","","","clear_screen","","","","","","","","","","","","","","","","","","","","","","","","","",""
"","","","","","canvas-keyboard-response","207","208475","0.0-12.0-0.39","2d_cat_multi_stim_exp1","2022-4-11","10:54:56","25","75","3","9","10","40","30","120","24","19","[""Asian""]","No","Female","1683435","null","null","","","","fixation","","","","","","","","","","","","","","","","","","","","","","","","","",""
"","","","","","canvas-keyboard-response","208","208988","0.0-12.0-1.39","2d_cat_multi_stim_exp1","2022-4-11","10:54:56","25","75","3","9","10","40","30","120","24","19","[""Asian""]","No","Female","1683435","null","null","","","","clear_screen","","","","","","","","","","","","","","","","","","","","","","","","","",""
"","","","","","canvas-keyboard-response","209","209624","0.0-12.0-2.39","2d_cat_multi_stim_exp1","2022-4-11","10:54:56","25","75","3","9","10","40","30","120","24","19","[""Asian""]","No","Female","1683435","626","i","learn","","","learn_trial","40","60","out","0","1","","","","","","","","","","","","","","","","","","","","",""
"","","","","","canvas-keyboard-response","210","210134","0.0-12.0-3.39","2d_cat_multi_stim_exp1","2022-4-11","10:54:56","25","75","3","9","10","40","30","120","24","19","[""Asian""]","No","Female","1683435","null","null","learn_feedback","","","learn_feedback","40","60","out","","","","","","","","","","","","","","","","","","","","","","",""
"","","","","","canvas-keyboard-response","211","210194","0.0-12.0-4.39","2d_cat_multi_stim_exp1","2022-4-11","10:54:56","25","75","3","9","10","40","30","120","24","19","[""Asian""]","No","Female","1683435","null","null","","","","clear_screen","","","","","","","","","","","","","","","","","","","","","","","","","",""
"","","","","","canvas-keyboard-response","212","210704","0.0-12.0-0.40","2d_cat_multi_stim_exp1","2022-4-11","10:54:56","25","75","3","9","10","40","30","120","24","19","[""Asian""]","No","Female","1683435","null","null","","","","fixation","","","","","","","","","","","","","","","","","","","","","","","","","",""
"","","","","","canvas-keyboard-response","213","211216","0.0-12.0-1.40","2d_cat_multi_stim_exp1","2022-4-11","10:54:56","25","75","3","9","10","40","30","120","24","19","[""Asian""]","No","Female","1683435","null","null","","","","clear_screen","","","","","","","","","","","","","","","","","","","","","","","","","",""
"","","","","","canvas-keyboard-response","214","211919","0.0-12.0-2.40","2d_cat_multi_stim_exp1","2022-4-11","10:54:56","25","75","3","9","10","40","30","120","24","19","[""Asian""]","No","Female","1683435","693","i","learn","","","learn_trial","13.3333","40","out","0","1","","","","","","","","","","","","","","","","","","","","",""
"","","","","","canvas-keyboard-response","215","212430","0.0-12.0-3.40","2d_cat_multi_stim_exp1","2022-4-11","10:54:56","25","75","3","9","10","40","30","120","24","19","[""Asian""]","No","Female","1683435","null","null","learn_feedback","","","learn_feedback","13.3333","40","out","","","","","","","","","","","","","","","","","","","","","","",""
"","","","","","canvas-keyboard-response","216","212489","0.0-12.0-4.40","2d_cat_multi_stim_exp1","2022-4-11","10:54:56","25","75","3","9","10","40","30","120","24","19","[""Asian""]","No","Female","1683435","null","null","","","","clear_screen","","","","","","","","","","","","","","","","","","","","","","","","","",""
"","","","","","canvas-keyboard-response","217","213000","0.0-12.0-0.41","2d_cat_multi_stim_exp1","2022-4-11","10:54:56","25","75","3","9","10","40","30","120","24","19","[""Asian""]","No","Female","1683435","null","null","","","","fixation","","","","","","","","","","","","","","","","","","","","","","","","","",""
"","","","","","canvas-keyboard-response","218","213515","0.0-12.0-1.41","2d_cat_multi_stim_exp1","2022-4-11","10:54:56","25","75","3","9","10","40","30","120","24","19","[""Asian""]","No","Female","1683435","null","null","","","","clear_screen","","","","","","","","","","","","","","","","","","","","","","","","","",""
"","","","","","canvas-keyboard-response","219","214134","0.0-12.0-2.41","2d_cat_multi_stim_exp1","2022-4-11","10:54:56","25","75","3","9","10","40","30","120","24","19","[""Asian""]","No","Female","1683435","609","i","learn","","","learn_trial","26.6667","30","out","0","1","","","","","","","","","","","","","","","","","","","","",""
"","","","","","canvas-keyboard-response","220","214644","0.0-12.0-3.41","2d_cat_multi_stim_exp1","2022-4-11","10:54:56","25","75","3","9","10","40","30","120","24","19","[""Asian""]","No","Female","1683435","null","null","learn_feedback","","","learn_feedback","26.6667","30","out","","","","","","","","","","","","","","","","","","","","","","",""
"","","","","","canvas-keyboard-response","221","214703","0.0-12.0-4.41","2d_cat_multi_stim_exp1","2022-4-11","10:54:56","25","75","3","9","10","40","30","120","24","19","[""Asian""]","No","Female","1683435","null","null","","","","clear_screen","","","","","","","","","","","","","","","","","","","","","","","","","",""
"","","","","","canvas-keyboard-response","222","215213","0.0-12.0-0.42","2d_cat_multi_stim_exp1","2022-4-11","10:54:56","25","75","3","9","10","40","30","120","24","19","[""Asian""]","No","Female","1683435","null","null","","","","fixation","","","","","","","","","","","","","","","","","","","","","","","","","",""
"","","","","","canvas-keyboard-response","223","215725","0.0-12.0-1.42","2d_cat_multi_stim_exp1","2022-4-11","10:54:56","25","75","3","9","10","40","30","120","24","19","[""Asian""]","No","Female","1683435","null","null","","","","clear_screen","","","","","","","","","","","","","","","","","","","","","","","","","",""
"","","","","","canvas-keyboard-response","224","216231","0.0-12.0-2.42","2d_cat_multi_stim_exp1","2022-4-11","10:54:56","25","75","3","9","10","40","30","120","24","19","[""Asian""]","No","Female","1683435","495","u","learn","","","learn_trial","25","75","in","1","1","","","","","","","","","","","","","","","","","","","","",""
"","","","","","canvas-keyboard-response","225","216740","0.0-12.0-3.42","2d_cat_multi_stim_exp1","2022-4-11","10:54:56","25","75","3","9","10","40","30","120","24","19","[""Asian""]","No","Female","1683435","null","null","learn_feedback","","","learn_feedback","25","75","in","","","","","","","","","","","","","","","","","","","","","","",""
"","","","","","canvas-keyboard-response","226","216800","0.0-12.0-4.42","2d_cat_multi_stim_exp1","2022-4-11","10:54:56","25","75","3","9","10","40","30","120","24","19","[""Asian""]","No","Female","1683435","null","null","","","","clear_screen","","","","","","","","","","","","","","","","","","","","","","","","","",""
"","","","","","canvas-keyboard-response","227","217309","0.0-12.0-0.43","2d_cat_multi_stim_exp1","2022-4-11","10:54:56","25","75","3","9","10","40","30","120","24","19","[""Asian""]","No","Female","1683435","null","null","","","","fixation","","","","","","","","","","","","","","","","","","","","","","","","","",""
"","","","","","canvas-keyboard-response","228","217819","0.0-12.0-1.43","2d_cat_multi_stim_exp1","2022-4-11","10:54:56","25","75","3","9","10","40","30","120","24","19","[""Asian""]","No","Female","1683435","null","null","","","","clear_screen","","","","","","","","","","","","","","","","","","","","","","","","","",""
"","","","","","canvas-keyboard-response","229","218414","0.0-12.0-2.43","2d_cat_multi_stim_exp1","2022-4-11","10:54:56","25","75","3","9","10","40","30","120","24","19","[""Asian""]","No","Female","1683435","586","i","learn","","","learn_trial","26.6667","50","out","0","1","","","","","","","","","","","","","","","","","","","","",""
"","","","","","canvas-keyboard-response","230","218925","0.0-12.0-3.43","2d_cat_multi_stim_exp1","2022-4-11","10:54:56","25","75","3","9","10","40","30","120","24","19","[""Asian""]","No","Female","1683435","null","null","learn_feedback","","","learn_feedback","26.6667","50","out","","","","","","","","","","","","","","","","","","","","","","",""
"","","","","","canvas-keyboard-response","231","218985","0.0-12.0-4.43","2d_cat_multi_stim_exp1","2022-4-11","10:54:56","25","75","3","9","10","40","30","120","24","19","[""Asian""]","No","Female","1683435","null","null","","","","clear_screen","","","","","","","","","","","","","","","","","","","","","","","","","",""
"","","","","","canvas-keyboard-response","232","219495","0.0-12.0-0.44","2d_cat_multi_stim_exp1","2022-4-11","10:54:56","25","75","3","9","10","40","30","120","24","19","[""Asian""]","No","Female","1683435","null","null","","","","fixation","","","","","","","","","","","","","","","","","","","","","","","","","",""
"","","","","","canvas-keyboard-response","233","220005","0.0-12.0-1.44","2d_cat_multi_stim_exp1","2022-4-11","10:54:56","25","75","3","9","10","40","30","120","24","19","[""Asian""]","No","Female","1683435","null","null","","","","clear_screen","","","","","","","","","","","","","","","","","","","","","","","","","",""
"","","","","","canvas-keyboard-response","234","220503","0.0-12.0-2.44","2d_cat_multi_stim_exp1","2022-4-11","10:54:56","25","75","3","9","10","40","30","120","24","19","[""Asian""]","No","Female","1683435","486","u","learn","","","learn_trial","24.8654","66.0091","in","1","1","","","","","","","","","","","","","","","","","","","","",""
"","","","","","canvas-keyboard-response","235","221014","0.0-12.0-3.44","2d_cat_multi_stim_exp1","2022-4-11","10:54:56","25","75","3","9","10","40","30","120","24","19","[""Asian""]","No","Female","1683435","null","null","learn_feedback","","","learn_feedback","24.8654","66.0091","in","","","","","","","","","","","","","","","","","","","","","","",""
"","","","","","canvas-keyboard-response","236","221073","0.0-12.0-4.44","2d_cat_multi_stim_exp1","2022-4-11","10:54:56","25","75","3","9","10","40","30","120","24","19","[""Asian""]","No","Female","1683435","null","null","","","","clear_screen","","","","","","","","","","","","","","","","","","","","","","","","","",""
"","","","","","canvas-keyboard-response","237","221583","0.0-12.0-0.45","2d_cat_multi_stim_exp1","2022-4-11","10:54:56","25","75","3","9","10","40","30","120","24","19","[""Asian""]","No","Female","1683435","null","null","","","","fixation","","","","","","","","","","","","","","","","","","","","","","","","","",""
"","","","","","canvas-keyboard-response","238","222094","0.0-12.0-1.45","2d_cat_multi_stim_exp1","2022-4-11","10:54:56","25","75","3","9","10","40","30","120","24","19","[""Asian""]","No","Female","1683435","null","null","","","","clear_screen","","","","","","","","","","","","","","","","","","","","","","","","","",""
"","","","","","canvas-keyboard-response","239","222671","0.0-12.0-2.45","2d_cat_multi_stim_exp1","2022-4-11","10:54:56","25","75","3","9","10","40","30","120","24","19","[""Asian""]","No","Female","1683435","568","i","learn","","","learn_trial","13.3333","110","out","0","1","","","","","","","","","","","","","","","","","","","","",""
"","","","","","canvas-keyboard-response","240","223182","0.0-12.0-3.45","2d_cat_multi_stim_exp1","2022-4-11","10:54:56","25","75","3","9","10","40","30","120","24","19","[""Asian""]","No","Female","1683435","null","null","learn_feedback","","","learn_feedback","13.3333","110","out","","","","","","","","","","","","","","","","","","","","","","",""
"","","","","","canvas-keyboard-response","241","223242","0.0-12.0-4.45","2d_cat_multi_stim_exp1","2022-4-11","10:54:56","25","75","3","9","10","40","30","120","24","19","[""Asian""]","No","Female","1683435","null","null","","","","clear_screen","","","","","","","","","","","","","","","","","","","","","","","","","",""
"","","","","","canvas-keyboard-response","242","223750","0.0-12.0-0.46","2d_cat_multi_stim_exp1","2022-4-11","10:54:56","25","75","3","9","10","40","30","120","24","19","[""Asian""]","No","Female","1683435","null","null","","","","fixation","","","","","","","","","","","","","","","","","","","","","","","","","",""
"","","","","","canvas-keyboard-response","243","224260","0.0-12.0-1.46","2d_cat_multi_stim_exp1","2022-4-11","10:54:56","25","75","3","9","10","40","30","120","24","19","[""Asian""]","No","Female","1683435","null","null","","","","clear_screen","","","","","","","","","","","","","","","","","","","","","","","","","",""
"","","","","","canvas-keyboard-response","244","224952","0.0-12.0-2.46","2d_cat_multi_stim_exp1","2022-4-11","10:54:56","25","75","3","9","10","40","30","120","24","19","[""Asian""]","No","Female","1683435","683","u","learn","","","learn_trial","25","75","in","1","1","","","","","","","","","","","","","","","","","","","","",""
"","","","","","canvas-keyboard-response","245","225462","0.0-12.0-3.46","2d_cat_multi_stim_exp1","2022-4-11","10:54:56","25","75","3","9","10","40","30","120","24","19","[""Asian""]","No","Female","1683435","null","null","learn_feedback","","","learn_feedback","25","75","in","","","","","","","","","","","","","","","","","","","","","","",""
"","","","","","canvas-keyboard-response","246","225521","0.0-12.0-4.46","2d_cat_multi_stim_exp1","2022-4-11","10:54:56","25","75","3","9","10","40","30","120","24","19","[""Asian""]","No","Female","1683435","null","null","","","","clear_screen","","","","","","","","","","","","","","","","","","","","","","","","","",""
"","","","","","canvas-keyboard-response","247","226029","0.0-12.0-0.47","2d_cat_multi_stim_exp1","2022-4-11","10:54:56","25","75","3","9","10","40","30","120","24","19","[""Asian""]","No","Female","1683435","null","null","","","","fixation","","","","","","","","","","","","","","","","","","","","","","","","","",""
"","","","","","canvas-keyboard-response","248","226543","0.0-12.0-1.47","2d_cat_multi_stim_exp1","2022-4-11","10:54:56","25","75","3","9","10","40","30","120","24","19","[""Asian""]","No","Female","1683435","null","null","","","","clear_screen","","","","","","","","","","","","","","","","","","","","","","","","","",""
"","","","","","canvas-keyboard-response","249","227071","0.0-12.0-2.47","2d_cat_multi_stim_exp1","2022-4-11","10:54:56","25","75","3","9","10","40","30","120","24","19","[""Asian""]","No","Female","1683435","516","i","learn","","","learn_trial","23.3333","110","out","0","1","","","","","","","","","","","","","","","","","","","","",""
"","","","","","canvas-keyboard-response","250","227581","0.0-12.0-3.47","2d_cat_multi_stim_exp1","2022-4-11","10:54:56","25","75","3","9","10","40","30","120","24","19","[""Asian""]","No","Female","1683435","null","null","learn_feedback","","","learn_feedback","23.3333","110","out","","","","","","","","","","","","","","","","","","","","","","",""
"","","","","","canvas-keyboard-response","251","227644","0.0-12.0-4.47","2d_cat_multi_stim_exp1","2022-4-11","10:54:56","25","75","3","9","10","40","30","120","24","19","[""Asian""]","No","Female","1683435","null","null","","","","clear_screen","","","","","","","","","","","","","","","","","","","","","","","","","",""
"","","","","","canvas-keyboard-response","252","228151","0.0-12.0-0.48","2d_cat_multi_stim_exp1","2022-4-11","10:54:56","25","75","3","9","10","40","30","120","24","19","[""Asian""]","No","Female","1683435","null","null","","","","fixation","","","","","","","","","","","","","","","","","","","","","","","","","",""
"","","","","","canvas-keyboard-response","253","228661","0.0-12.0-1.48","2d_cat_multi_stim_exp1","2022-4-11","10:54:56","25","75","3","9","10","40","30","120","24","19","[""Asian""]","No","Female","1683435","null","null","","","","clear_screen","","","","","","","","","","","","","","","","","","","","","","","","","",""
"","","","","","canvas-keyboard-response","254","229287","0.0-12.0-2.48","2d_cat_multi_stim_exp1","2022-4-11","10:54:56","25","75","3","9","10","40","30","120","24","19","[""Asian""]","No","Female","1683435","616","i","learn","","","learn_trial","25","75","in","0","0","","","","","","","","","","","","","","","","","","","","",""
"","","","","","canvas-keyboard-response","255","230296","0.0-12.0-3.48","2d_cat_multi_stim_exp1","2022-4-11","10:54:56","25","75","3","9","10","40","30","120","24","19","[""Asian""]","No","Female","1683435","null","null","learn_feedback","","","learn_feedback","25","75","in","","","","","","","","","","","","","","","","","","","","","","",""
"","","","","","canvas-keyboard-response","256","230360","0.0-12.0-4.48","2d_cat_multi_stim_exp1","2022-4-11","10:54:56","25","75","3","9","10","40","30","120","24","19","[""Asian""]","No","Female","1683435","null","null","","","","clear_screen","","","","","","","","","","","","","","","","","","","","","","","","","",""
"","","","","","canvas-keyboard-response","257","230869","0.0-12.0-0.49","2d_cat_multi_stim_exp1","2022-4-11","10:54:56","25","75","3","9","10","40","30","120","24","19","[""Asian""]","No","Female","1683435","null","null","","","","fixation","","","","","","","","","","","","","","","","","","","","","","","","","",""
"","","","","","canvas-keyboard-response","258","231381","0.0-12.0-1.49","2d_cat_multi_stim_exp1","2022-4-11","10:54:56","25","75","3","9","10","40","30","120","24","19","[""Asian""]","No","Female","1683435","null","null","","","","clear_screen","","","","","","","","","","","","","","","","","","","","","","","","","",""
"","","","","","canvas-keyboard-response","259","231950","0.0-12.0-2.49","2d_cat_multi_stim_exp1","2022-4-11","10:54:56","25","75","3","9","10","40","30","120","24","19","[""Asian""]","No","Female","1683435","561","i","learn","","","learn_trial","16.6667","90","out","0","1","","","","","","","","","","","","","","","","","","","","",""
"","","","","","canvas-keyboard-response","260","232461","0.0-12.0-3.49","2d_cat_multi_stim_exp1","2022-4-11","10:54:56","25","75","3","9","10","40","30","120","24","19","[""Asian""]","No","Female","1683435","null","null","learn_feedback","","","learn_feedback","16.6667","90","out","","","","","","","","","","","","","","","","","","","","","","",""
"","","","","","canvas-keyboard-response","261","232524","0.0-12.0-4.49","2d_cat_multi_stim_exp1","2022-4-11","10:54:56","25","75","3","9","10","40","30","120","24","19","[""Asian""]","No","Female","1683435","null","null","","","","clear_screen","","","","","","","","","","","","","","","","","","","","","","","","","",""
"","","","","","canvas-keyboard-response","262","233035","0.0-12.0-0.50","2d_cat_multi_stim_exp1","2022-4-11","10:54:56","25","75","3","9","10","40","30","120","24","19","[""Asian""]","No","Female","1683435","null","null","","","","fixation","","","","","","","","","","","","","","","","","","","","","","","","","",""
"","","","","","canvas-keyboard-response","263","233548","0.0-12.0-1.50","2d_cat_multi_stim_exp1","2022-4-11","10:54:56","25","75","3","9","10","40","30","120","24","19","[""Asian""]","No","Female","1683435","null","null","","","","clear_screen","","","","","","","","","","","","","","","","","","","","","","","","","",""
"","","","","","canvas-keyboard-response","264","234224","0.0-12.0-2.50","2d_cat_multi_stim_exp1","2022-4-11","10:54:56","25","75","3","9","10","40","30","120","24","19","[""Asian""]","No","Female","1683435","665","i","learn","","","learn_trial","26.6667","120","out","0","1","","","","","","","","","","","","","","","","","","","","",""
"","","","","","canvas-keyboard-response","265","234739","0.0-12.0-3.50","2d_cat_multi_stim_exp1","2022-4-11","10:54:56","25","75","3","9","10","40","30","120","24","19","[""Asian""]","No","Female","1683435","null","null","learn_feedback","","","learn_feedback","26.6667","120","out","","","","","","","","","","","","","","","","","","","","","","",""
"","","","","","canvas-keyboard-response","266","234802","0.0-12.0-4.50","2d_cat_multi_stim_exp1","2022-4-11","10:54:56","25","75","3","9","10","40","30","120","24","19","[""Asian""]","No","Female","1683435","null","null","","","","clear_screen","","","","","","","","","","","","","","","","","","","","","","","","","",""
"","","","","","canvas-keyboard-response","267","235312","0.0-12.0-0.51","2d_cat_multi_stim_exp1","2022-4-11","10:54:56","25","75","3","9","10","40","30","120","24","19","[""Asian""]","No","Female","1683435","null","null","","","","fixation","","","","","","","","","","","","","","","","","","","","","","","","","",""
"","","","","","canvas-keyboard-response","268","235825","0.0-12.0-1.51","2d_cat_multi_stim_exp1","2022-4-11","10:54:56","25","75","3","9","10","40","30","120","24","19","[""Asian""]","No","Female","1683435","null","null","","","","clear_screen","","","","","","","","","","","","","","","","","","","","","","","","","",""
"","","","","","canvas-keyboard-response","269","236447","0.0-12.0-2.51","2d_cat_multi_stim_exp1","2022-4-11","10:54:56","25","75","3","9","10","40","30","120","24","19","[""Asian""]","No","Female","1683435","612","i","learn","","","learn_trial","26.6667","40","out","0","1","","","","","","","","","","","","","","","","","","","","",""
"","","","","","canvas-keyboard-response","270","236959","0.0-12.0-3.51","2d_cat_multi_stim_exp1","2022-4-11","10:54:56","25","75","3","9","10","40","30","120","24","19","[""Asian""]","No","Female","1683435","null","null","learn_feedback","","","learn_feedback","26.6667","40","out","","","","","","","","","","","","","","","","","","","","","","",""
"","","","","","canvas-keyboard-response","271","237021","0.0-12.0-4.51","2d_cat_multi_stim_exp1","2022-4-11","10:54:56","25","75","3","9","10","40","30","120","24","19","[""Asian""]","No","Female","1683435","null","null","","","","clear_screen","","","","","","","","","","","","","","","","","","","","","","","","","",""
"","","","","","canvas-keyboard-response","272","237532","0.0-12.0-0.52","2d_cat_multi_stim_exp1","2022-4-11","10:54:56","25","75","3","9","10","40","30","120","24","19","[""Asian""]","No","Female","1683435","null","null","","","","fixation","","","","","","","","","","","","","","","","","","","","","","","","","",""
"","","","","","canvas-keyboard-response","273","238044","0.0-12.0-1.52","2d_cat_multi_stim_exp1","2022-4-11","10:54:56","25","75","3","9","10","40","30","120","24","19","[""Asian""]","No","Female","1683435","null","null","","","","clear_screen","","","","","","","","","","","","","","","","","","","","","","","","","",""
"","","","","","canvas-keyboard-response","274","238616","0.0-12.0-2.52","2d_cat_multi_stim_exp1","2022-4-11","10:54:56","25","75","3","9","10","40","30","120","24","19","[""Asian""]","No","Female","1683435","562","i","learn","","","learn_trial","16.6667","40","out","0","1","","","","","","","","","","","","","","","","","","","","",""
"","","","","","canvas-keyboard-response","275","239128","0.0-12.0-3.52","2d_cat_multi_stim_exp1","2022-4-11","10:54:56","25","75","3","9","10","40","30","120","24","19","[""Asian""]","No","Female","1683435","null","null","learn_feedback","","","learn_feedback","16.6667","40","out","","","","","","","","","","","","","","","","","","","","","","",""
"","","","","","canvas-keyboard-response","276","239192","0.0-12.0-4.52","2d_cat_multi_stim_exp1","2022-4-11","10:54:56","25","75","3","9","10","40","30","120","24","19","[""Asian""]","No","Female","1683435","null","null","","","","clear_screen","","","","","","","","","","","","","","","","","","","","","","","","","",""
"","","","","","canvas-keyboard-response","277","239700","0.0-12.0-0.53","2d_cat_multi_stim_exp1","2022-4-11","10:54:56","25","75","3","9","10","40","30","120","24","19","[""Asian""]","No","Female","1683435","null","null","","","","fixation","","","","","","","","","","","","","","","","","","","","","","","","","",""
"","","","","","canvas-keyboard-response","278","240212","0.0-12.0-1.53","2d_cat_multi_stim_exp1","2022-4-11","10:54:56","25","75","3","9","10","40","30","120","24","19","[""Asian""]","No","Female","1683435","null","null","","","","clear_screen","","","","","","","","","","","","","","","","","","","","","","","","","",""
"","","","","","canvas-keyboard-response","279","241111","0.0-12.0-2.53","2d_cat_multi_stim_exp1","2022-4-11","10:54:56","25","75","3","9","10","40","30","120","24","19","[""Asian""]","No","Female","1683435","889","u","learn","","","learn_trial","25.4027","83.9185","in","1","1","","","","","","","","","","","","","","","","","","","","",""
"","","","","","canvas-keyboard-response","280","241622","0.0-12.0-3.53","2d_cat_multi_stim_exp1","2022-4-11","10:54:56","25","75","3","9","10","40","30","120","24","19","[""Asian""]","No","Female","1683435","null","null","learn_feedback","","","learn_feedback","25.4027","83.9185","in","","","","","","","","","","","","","","","","","","","","","","",""
"","","","","","canvas-keyboard-response","281","241681","0.0-12.0-4.53","2d_cat_multi_stim_exp1","2022-4-11","10:54:56","25","75","3","9","10","40","30","120","24","19","[""Asian""]","No","Female","1683435","null","null","","","","clear_screen","","","","","","","","","","","","","","","","","","","","","","","","","",""
"","","","","","canvas-keyboard-response","282","242191","0.0-12.0-0.54","2d_cat_multi_stim_exp1","2022-4-11","10:54:56","25","75","3","9","10","40","30","120","24","19","[""Asian""]","No","Female","1683435","null","null","","","","fixation","","","","","","","","","","","","","","","","","","","","","","","","","",""
"","","","","","canvas-keyboard-response","283","242704","0.0-12.0-1.54","2d_cat_multi_stim_exp1","2022-4-11","10:54:56","25","75","3","9","10","40","30","120","24","19","[""Asian""]","No","Female","1683435","null","null","","","","clear_screen","","","","","","","","","","","","","","","","","","","","","","","","","",""
"","","","","","canvas-keyboard-response","284","243295","0.0-12.0-2.54","2d_cat_multi_stim_exp1","2022-4-11","10:54:56","25","75","3","9","10","40","30","120","24","19","[""Asian""]","No","Female","1683435","583","i","learn","","","learn_trial","33.3333","120","out","0","1","","","","","","","","","","","","","","","","","","","","",""
"","","","","","canvas-keyboard-response","285","243807","0.0-12.0-3.54","2d_cat_multi_stim_exp1","2022-4-11","10:54:56","25","75","3","9","10","40","30","120","24","19","[""Asian""]","No","Female","1683435","null","null","learn_feedback","","","learn_feedback","33.3333","120","out","","","","","","","","","","","","","","","","","","","","","","",""
"","","","","","canvas-keyboard-response","286","243867","0.0-12.0-4.54","2d_cat_multi_stim_exp1","2022-4-11","10:54:56","25","75","3","9","10","40","30","120","24","19","[""Asian""]","No","Female","1683435","null","null","","","","clear_screen","","","","","","","","","","","","","","","","","","","","","","","","","",""
"","","","","","canvas-keyboard-response","287","244374","0.0-12.0-0.55","2d_cat_multi_stim_exp1","2022-4-11","10:54:56","25","75","3","9","10","40","30","120","24","19","[""Asian""]","No","Female","1683435","null","null","","","","fixation","","","","","","","","","","","","","","","","","","","","","","","","","",""
"","","","","","canvas-keyboard-response","288","244886","0.0-12.0-1.55","2d_cat_multi_stim_exp1","2022-4-11","10:54:56","25","75","3","9","10","40","30","120","24","19","[""Asian""]","No","Female","1683435","null","null","","","","clear_screen","","","","","","","","","","","","","","","","","","","","","","","","","",""
"","","","","","canvas-keyboard-response","289","245359","0.0-12.0-2.55","2d_cat_multi_stim_exp1","2022-4-11","10:54:56","25","75","3","9","10","40","30","120","24","19","[""Asian""]","No","Female","1683435","469","i","learn","","","learn_trial","23.3333","60","out","0","1","","","","","","","","","","","","","","","","","","","","",""
"","","","","","canvas-keyboard-response","290","245868","0.0-12.0-3.55","2d_cat_multi_stim_exp1","2022-4-11","10:54:56","25","75","3","9","10","40","30","120","24","19","[""Asian""]","No","Female","1683435","null","null","learn_feedback","","","learn_feedback","23.3333","60","out","","","","","","","","","","","","","","","","","","","","","","",""
"","","","","","canvas-keyboard-response","291","245927","0.0-12.0-4.55","2d_cat_multi_stim_exp1","2022-4-11","10:54:56","25","75","3","9","10","40","30","120","24","19","[""Asian""]","No","Female","1683435","null","null","","","","clear_screen","","","","","","","","","","","","","","","","","","","","","","","","","",""
"","","","","","canvas-keyboard-response","292","246435","0.0-12.0-0.56","2d_cat_multi_stim_exp1","2022-4-11","10:54:56","25","75","3","9","10","40","30","120","24","19","[""Asian""]","No","Female","1683435","null","null","","","","fixation","","","","","","","","","","","","","","","","","","","","","","","","","",""
"","","","","","canvas-keyboard-response","293","246946","0.0-12.0-1.56","2d_cat_multi_stim_exp1","2022-4-11","10:54:56","25","75","3","9","10","40","30","120","24","19","[""Asian""]","No","Female","1683435","null","null","","","","clear_screen","","","","","","","","","","","","","","","","","","","","","","","","","",""
"","","","","","canvas-keyboard-response","294","247702","0.0-12.0-2.56","2d_cat_multi_stim_exp1","2022-4-11","10:54:56","25","75","3","9","10","40","30","120","24","19","[""Asian""]","No","Female","1683435","747","i","learn","","","learn_trial","10","80","out","0","1","","","","","","","","","","","","","","","","","","","","",""
"","","","","","canvas-keyboard-response","295","248215","0.0-12.0-3.56","2d_cat_multi_stim_exp1","2022-4-11","10:54:56","25","75","3","9","10","40","30","120","24","19","[""Asian""]","No","Female","1683435","null","null","learn_feedback","","","learn_feedback","10","80","out","","","","","","","","","","","","","","","","","","","","","","",""
"","","","","","canvas-keyboard-response","296","248273","0.0-12.0-4.56","2d_cat_multi_stim_exp1","2022-4-11","10:54:56","25","75","3","9","10","40","30","120","24","19","[""Asian""]","No","Female","1683435","null","null","","","","clear_screen","","","","","","","","","","","","","","","","","","","","","","","","","",""
