"success","timeout","failed_images","failed_audio","failed_video","trial_type","trial_index","time_elapsed","internal_node_id","exp_name","date","time","angle_mean_in","radius_mean_in","angle_sd_in","radius_sd_in","angle_min_out","angle_max_out","radius_min_out","radius_max_out","sub_n","age","race","ethnicity","gender","exp_duration","rt","response","exp_trial_type","stimulus","view_history","screen_id","angle","radius","distribution","choice","correct","order","angle_a","radius_a","angle_b","radius_b","jkl_correct","transfer_trial_type","choice_set","abc_correct","tc_correct","tc_angle","tdc_a","tdc_b","tdc_c","pair","category_a","category_b","category_c","angle_c","radius_c","question_order"
"true","false","[]","[]","[]","preload","0","30","0.0-0.0","2d_cat_multi_stim_exp1","2022-5-2","12:41:24","25","75","3","9","10","40","30","120","75","20","[""White""]","No","Female","2075107","","","","","","","","","","","","","","","","","","","","","","","","","","","","","","","",""
"","","","","","survey-html-form","1","10661","0.0-1.0","2d_cat_multi_stim_exp1","2022-5-2","12:41:24","25","75","3","9","10","40","30","120","75","20","[""White""]","No","Female","2075107","10620","{""response"":""75""}","enter-sub-number","","","","","","","","","","","","","","","","","","","","","","","","","","","","",""
"true","","","","","fullscreen","2","20561","0.0-2.0","2d_cat_multi_stim_exp1","2022-5-2","12:41:24","25","75","3","9","10","40","30","120","75","20","[""White""]","No","Female","2075107","","","","","","","","","","","","","","","","","","","","","","","","","","","","","","","",""
"","","","","","image-button-response","3","26689","0.0-3.0","2d_cat_multi_stim_exp1","2022-5-2","12:41:24","25","75","3","9","10","40","30","120","75","20","[""White""]","No","Female","2075107","6120","0","","consent.png","","","","","","","","","","","","","","","","","","","","","","","","","","","",""
"","","","","","html-button-response","4","29752","0.0-4.0","2d_cat_multi_stim_exp1","2022-5-2","12:41:24","25","75","3","9","10","40","30","120","75","20","[""White""]","No","Female","2075107","3060","0","","<div style= ""font-size:25px;"" <p> <strong> Welcome to the experiment! </strong><br> <p style=""color:#8B0000; font-size:25px;""><strong> Please do NOT exit full screen until you are done with the experiment. </strong> </p><p style=""font-size:25px;color:#8B0000;""> <strong> The experiment will be canceled and your data will be lost <br> if you try to go back or refresh the page at any point during the experiment.</strong> </p><br><p> <strong> Thanks in advance for your contribution to our research! </strong></p>","","","","","","","","","","","","","","","","","","","","","","","","","","","",""
"","","","","","instructions","5","76753","0.0-5.0","2d_cat_multi_stim_exp1","2022-5-2","12:41:24","25","75","3","9","10","40","30","120","75","20","[""White""]","No","Female","2075107","46996","","","","[{""page_index"":0,""viewing_time"":3963},{""page_index"":1,""viewing_time"":1632},{""page_index"":2,""viewing_time"":15976},{""page_index"":3,""viewing_time"":25425}]","instructions_1","","","","","","","","","","","","","","","","","","","","","","","","","",""
"","","","","","instructions","6","78945","0.0-6.0","2d_cat_multi_stim_exp1","2022-5-2","12:41:24","25","75","3","9","10","40","30","120","75","20","[""White""]","No","Female","2075107","2186","","","","[{""page_index"":0,""viewing_time"":2185}]","Click to see the kinds of turtles that will appear in the study.","","","","","","","","","","","","","","","","","","","","","","","","","",""
"","","","","","canvas-keyboard-response","7","93962","0.0-7.0","2d_cat_multi_stim_exp1","2022-5-2","12:41:24","25","75","3","9","10","40","30","120","75","20","[""White""]","No","Female","2075107","null","null","","","","demo_range","","","","","","","","","","","","","","","","","","","","","","","","","",""
"","","","","","instructions","8","97152","0.0-8.0","2d_cat_multi_stim_exp1","2022-5-2","12:41:24","25","75","3","9","10","40","30","120","75","20","[""White""]","No","Female","2075107","2687","","","","[{""page_index"":0,""viewing_time"":2686}]","Click to see some turtles in the subspecies.","","","","","","","","","","","","","","","","","","","","","","","","","",""
"","","","","","canvas-keyboard-response","9","112170","0.0-9.0","2d_cat_multi_stim_exp1","2022-5-2","12:41:24","25","75","3","9","10","40","30","120","75","20","[""White""]","No","Female","2075107","null","null","","","","demo_in","","","","","","","","","","","","","","","","","","","","","","","","","",""
"","","","","","instructions","10","148049","0.0-10.0","2d_cat_multi_stim_exp1","2022-5-2","12:41:24","25","75","3","9","10","40","30","120","75","20","[""White""]","No","Female","2075107","35376","","","","[{""page_index"":0,""viewing_time"":7144},{""page_index"":1,""viewing_time"":22704},{""page_index"":2,""viewing_time"":5527}]","instructions_2","","","","","","","","","","","","","","","","","","","","","","","","","",""
"","","","","","instructions","11","150248","0.0-11.0","2d_cat_multi_stim_exp1","2022-5-2","12:41:24","25","75","3","9","10","40","30","120","75","20","[""White""]","No","Female","2075107","2195","","","","[{""page_index"":0,""viewing_time"":2195}]","Click to begin the first phase of the experiment.","","","","","","","","","","","","","","","","","","","","","","","","","",""
"","","","","","canvas-keyboard-response","12","150759","0.0-12.0-0.0","2d_cat_multi_stim_exp1","2022-5-2","12:41:24","25","75","3","9","10","40","30","120","75","20","[""White""]","No","Female","2075107","null","null","","","","fixation","","","","","","","","","","","","","","","","","","","","","","","","","",""
"","","","","","canvas-keyboard-response","13","151269","0.0-12.0-1.0","2d_cat_multi_stim_exp1","2022-5-2","12:41:24","25","75","3","9","10","40","30","120","75","20","[""White""]","No","Female","2075107","null","null","","","","clear_screen","","","","","","","","","","","","","","","","","","","","","","","","","",""
"","","","","","canvas-keyboard-response","14","153919","0.0-12.0-2.0","2d_cat_multi_stim_exp1","2022-5-2","12:41:24","25","75","3","9","10","40","30","120","75","20","[""White""]","No","Female","2075107","2640","i","learn","","","learn_trial","20","40","out","0","1","","","","","","","","","","","","","","","","","","","","",""
"","","","","","canvas-keyboard-response","15","154431","0.0-12.0-3.0","2d_cat_multi_stim_exp1","2022-5-2","12:41:24","25","75","3","9","10","40","30","120","75","20","[""White""]","No","Female","2075107","null","null","learn_feedback","","","learn_feedback","20","40","out","","","","","","","","","","","","","","","","","","","","","","",""
"","","","","","canvas-keyboard-response","16","154492","0.0-12.0-4.0","2d_cat_multi_stim_exp1","2022-5-2","12:41:24","25","75","3","9","10","40","30","120","75","20","[""White""]","No","Female","2075107","null","null","","","","clear_screen","","","","","","","","","","","","","","","","","","","","","","","","","",""
"","","","","","canvas-keyboard-response","17","155002","0.0-12.0-0.1","2d_cat_multi_stim_exp1","2022-5-2","12:41:24","25","75","3","9","10","40","30","120","75","20","[""White""]","No","Female","2075107","null","null","","","","fixation","","","","","","","","","","","","","","","","","","","","","","","","","",""
"","","","","","canvas-keyboard-response","18","155512","0.0-12.0-1.1","2d_cat_multi_stim_exp1","2022-5-2","12:41:24","25","75","3","9","10","40","30","120","75","20","[""White""]","No","Female","2075107","null","null","","","","clear_screen","","","","","","","","","","","","","","","","","","","","","","","","","",""
"","","","","","canvas-keyboard-response","19","157432","0.0-12.0-2.1","2d_cat_multi_stim_exp1","2022-5-2","12:41:24","25","75","3","9","10","40","30","120","75","20","[""White""]","No","Female","2075107","1908","u","learn","","","learn_trial","30","90","out","1","0","","","","","","","","","","","","","","","","","","","","",""
"","","","","","canvas-keyboard-response","20","158443","0.0-12.0-3.1","2d_cat_multi_stim_exp1","2022-5-2","12:41:24","25","75","3","9","10","40","30","120","75","20","[""White""]","No","Female","2075107","null","null","learn_feedback","","","learn_feedback","30","90","out","","","","","","","","","","","","","","","","","","","","","","",""
"","","","","","canvas-keyboard-response","21","158503","0.0-12.0-4.1","2d_cat_multi_stim_exp1","2022-5-2","12:41:24","25","75","3","9","10","40","30","120","75","20","[""White""]","No","Female","2075107","null","null","","","","clear_screen","","","","","","","","","","","","","","","","","","","","","","","","","",""
"","","","","","canvas-keyboard-response","22","159014","0.0-12.0-0.2","2d_cat_multi_stim_exp1","2022-5-2","12:41:24","25","75","3","9","10","40","30","120","75","20","[""White""]","No","Female","2075107","null","null","","","","fixation","","","","","","","","","","","","","","","","","","","","","","","","","",""
"","","","","","canvas-keyboard-response","23","159525","0.0-12.0-1.2","2d_cat_multi_stim_exp1","2022-5-2","12:41:24","25","75","3","9","10","40","30","120","75","20","[""White""]","No","Female","2075107","null","null","","","","clear_screen","","","","","","","","","","","","","","","","","","","","","","","","","",""
"","","","","","canvas-keyboard-response","24","161327","0.0-12.0-2.2","2d_cat_multi_stim_exp1","2022-5-2","12:41:24","25","75","3","9","10","40","30","120","75","20","[""White""]","No","Female","2075107","1791","u","learn","","","learn_trial","26.4216","67.0746","in","1","1","","","","","","","","","","","","","","","","","","","","",""
"","","","","","canvas-keyboard-response","25","161838","0.0-12.0-3.2","2d_cat_multi_stim_exp1","2022-5-2","12:41:24","25","75","3","9","10","40","30","120","75","20","[""White""]","No","Female","2075107","null","null","learn_feedback","","","learn_feedback","26.4216","67.0746","in","","","","","","","","","","","","","","","","","","","","","","",""
"","","","","","canvas-keyboard-response","26","161899","0.0-12.0-4.2","2d_cat_multi_stim_exp1","2022-5-2","12:41:24","25","75","3","9","10","40","30","120","75","20","[""White""]","No","Female","2075107","null","null","","","","clear_screen","","","","","","","","","","","","","","","","","","","","","","","","","",""
"","","","","","canvas-keyboard-response","27","162409","0.0-12.0-0.3","2d_cat_multi_stim_exp1","2022-5-2","12:41:24","25","75","3","9","10","40","30","120","75","20","[""White""]","No","Female","2075107","null","null","","","","fixation","","","","","","","","","","","","","","","","","","","","","","","","","",""
"","","","","","canvas-keyboard-response","28","162919","0.0-12.0-1.3","2d_cat_multi_stim_exp1","2022-5-2","12:41:24","25","75","3","9","10","40","30","120","75","20","[""White""]","No","Female","2075107","null","null","","","","clear_screen","","","","","","","","","","","","","","","","","","","","","","","","","",""
"","","","","","canvas-keyboard-response","29","164808","0.0-12.0-2.3","2d_cat_multi_stim_exp1","2022-5-2","12:41:24","25","75","3","9","10","40","30","120","75","20","[""White""]","No","Female","2075107","1879","u","learn","","","learn_trial","25.9271","83.5595","in","1","1","","","","","","","","","","","","","","","","","","","","",""
"","","","","","canvas-keyboard-response","30","165320","0.0-12.0-3.3","2d_cat_multi_stim_exp1","2022-5-2","12:41:24","25","75","3","9","10","40","30","120","75","20","[""White""]","No","Female","2075107","null","null","learn_feedback","","","learn_feedback","25.9271","83.5595","in","","","","","","","","","","","","","","","","","","","","","","",""
"","","","","","canvas-keyboard-response","31","165380","0.0-12.0-4.3","2d_cat_multi_stim_exp1","2022-5-2","12:41:24","25","75","3","9","10","40","30","120","75","20","[""White""]","No","Female","2075107","null","null","","","","clear_screen","","","","","","","","","","","","","","","","","","","","","","","","","",""
"","","","","","canvas-keyboard-response","32","165888","0.0-12.0-0.4","2d_cat_multi_stim_exp1","2022-5-2","12:41:24","25","75","3","9","10","40","30","120","75","20","[""White""]","No","Female","2075107","null","null","","","","fixation","","","","","","","","","","","","","","","","","","","","","","","","","",""
"","","","","","canvas-keyboard-response","33","166397","0.0-12.0-1.4","2d_cat_multi_stim_exp1","2022-5-2","12:41:24","25","75","3","9","10","40","30","120","75","20","[""White""]","No","Female","2075107","null","null","","","","clear_screen","","","","","","","","","","","","","","","","","","","","","","","","","",""
"","","","","","canvas-keyboard-response","34","167537","0.0-12.0-2.4","2d_cat_multi_stim_exp1","2022-5-2","12:41:24","25","75","3","9","10","40","30","120","75","20","[""White""]","No","Female","2075107","1131","i","learn","","","learn_trial","13.3333","70","out","0","1","","","","","","","","","","","","","","","","","","","","",""
"","","","","","canvas-keyboard-response","35","168047","0.0-12.0-3.4","2d_cat_multi_stim_exp1","2022-5-2","12:41:24","25","75","3","9","10","40","30","120","75","20","[""White""]","No","Female","2075107","null","null","learn_feedback","","","learn_feedback","13.3333","70","out","","","","","","","","","","","","","","","","","","","","","","",""
"","","","","","canvas-keyboard-response","36","168111","0.0-12.0-4.4","2d_cat_multi_stim_exp1","2022-5-2","12:41:24","25","75","3","9","10","40","30","120","75","20","[""White""]","No","Female","2075107","null","null","","","","clear_screen","","","","","","","","","","","","","","","","","","","","","","","","","",""
"","","","","","canvas-keyboard-response","37","168621","0.0-12.0-0.5","2d_cat_multi_stim_exp1","2022-5-2","12:41:24","25","75","3","9","10","40","30","120","75","20","[""White""]","No","Female","2075107","null","null","","","","fixation","","","","","","","","","","","","","","","","","","","","","","","","","",""
"","","","","","canvas-keyboard-response","38","169135","0.0-12.0-1.5","2d_cat_multi_stim_exp1","2022-5-2","12:41:24","25","75","3","9","10","40","30","120","75","20","[""White""]","No","Female","2075107","null","null","","","","clear_screen","","","","","","","","","","","","","","","","","","","","","","","","","",""
"","","","","","canvas-keyboard-response","39","170120","0.0-12.0-2.5","2d_cat_multi_stim_exp1","2022-5-2","12:41:24","25","75","3","9","10","40","30","120","75","20","[""White""]","No","Female","2075107","974","u","learn","","","learn_trial","25","75","in","1","1","","","","","","","","","","","","","","","","","","","","",""
"","","","","","canvas-keyboard-response","40","170631","0.0-12.0-3.5","2d_cat_multi_stim_exp1","2022-5-2","12:41:24","25","75","3","9","10","40","30","120","75","20","[""White""]","No","Female","2075107","null","null","learn_feedback","","","learn_feedback","25","75","in","","","","","","","","","","","","","","","","","","","","","","",""
"","","","","","canvas-keyboard-response","41","170692","0.0-12.0-4.5","2d_cat_multi_stim_exp1","2022-5-2","12:41:24","25","75","3","9","10","40","30","120","75","20","[""White""]","No","Female","2075107","null","null","","","","clear_screen","","","","","","","","","","","","","","","","","","","","","","","","","",""
"","","","","","canvas-keyboard-response","42","171202","0.0-12.0-0.6","2d_cat_multi_stim_exp1","2022-5-2","12:41:24","25","75","3","9","10","40","30","120","75","20","[""White""]","No","Female","2075107","null","null","","","","fixation","","","","","","","","","","","","","","","","","","","","","","","","","",""
"","","","","","canvas-keyboard-response","43","171713","0.0-12.0-1.6","2d_cat_multi_stim_exp1","2022-5-2","12:41:24","25","75","3","9","10","40","30","120","75","20","[""White""]","No","Female","2075107","null","null","","","","clear_screen","","","","","","","","","","","","","","","","","","","","","","","","","",""
"","","","","","canvas-keyboard-response","44","173296","0.0-12.0-2.6","2d_cat_multi_stim_exp1","2022-5-2","12:41:24","25","75","3","9","10","40","30","120","75","20","[""White""]","No","Female","2075107","1573","u","learn","","","learn_trial","25","75","in","1","1","","","","","","","","","","","","","","","","","","","","",""
"","","","","","canvas-keyboard-response","45","173806","0.0-12.0-3.6","2d_cat_multi_stim_exp1","2022-5-2","12:41:24","25","75","3","9","10","40","30","120","75","20","[""White""]","No","Female","2075107","null","null","learn_feedback","","","learn_feedback","25","75","in","","","","","","","","","","","","","","","","","","","","","","",""
"","","","","","canvas-keyboard-response","46","173868","0.0-12.0-4.6","2d_cat_multi_stim_exp1","2022-5-2","12:41:24","25","75","3","9","10","40","30","120","75","20","[""White""]","No","Female","2075107","null","null","","","","clear_screen","","","","","","","","","","","","","","","","","","","","","","","","","",""
"","","","","","canvas-keyboard-response","47","174377","0.0-12.0-0.7","2d_cat_multi_stim_exp1","2022-5-2","12:41:24","25","75","3","9","10","40","30","120","75","20","[""White""]","No","Female","2075107","null","null","","","","fixation","","","","","","","","","","","","","","","","","","","","","","","","","",""
"","","","","","canvas-keyboard-response","48","174888","0.0-12.0-1.7","2d_cat_multi_stim_exp1","2022-5-2","12:41:24","25","75","3","9","10","40","30","120","75","20","[""White""]","No","Female","2075107","null","null","","","","clear_screen","","","","","","","","","","","","","","","","","","","","","","","","","",""
"","","","","","canvas-keyboard-response","49","176567","0.0-12.0-2.7","2d_cat_multi_stim_exp1","2022-5-2","12:41:24","25","75","3","9","10","40","30","120","75","20","[""White""]","No","Female","2075107","1670","u","learn","","","learn_trial","25","75","in","1","1","","","","","","","","","","","","","","","","","","","","",""
"","","","","","canvas-keyboard-response","50","177079","0.0-12.0-3.7","2d_cat_multi_stim_exp1","2022-5-2","12:41:24","25","75","3","9","10","40","30","120","75","20","[""White""]","No","Female","2075107","null","null","learn_feedback","","","learn_feedback","25","75","in","","","","","","","","","","","","","","","","","","","","","","",""
"","","","","","canvas-keyboard-response","51","177142","0.0-12.0-4.7","2d_cat_multi_stim_exp1","2022-5-2","12:41:24","25","75","3","9","10","40","30","120","75","20","[""White""]","No","Female","2075107","null","null","","","","clear_screen","","","","","","","","","","","","","","","","","","","","","","","","","",""
"","","","","","canvas-keyboard-response","52","177652","0.0-12.0-0.8","2d_cat_multi_stim_exp1","2022-5-2","12:41:24","25","75","3","9","10","40","30","120","75","20","[""White""]","No","Female","2075107","null","null","","","","fixation","","","","","","","","","","","","","","","","","","","","","","","","","",""
"","","","","","canvas-keyboard-response","53","178164","0.0-12.0-1.8","2d_cat_multi_stim_exp1","2022-5-2","12:41:24","25","75","3","9","10","40","30","120","75","20","[""White""]","No","Female","2075107","null","null","","","","clear_screen","","","","","","","","","","","","","","","","","","","","","","","","","",""
"","","","","","canvas-keyboard-response","54","180952","0.0-12.0-2.8","2d_cat_multi_stim_exp1","2022-5-2","12:41:24","25","75","3","9","10","40","30","120","75","20","[""White""]","No","Female","2075107","2779","i","learn","","","learn_trial","25.4027","66.0815","in","0","0","","","","","","","","","","","","","","","","","","","","",""
"","","","","","canvas-keyboard-response","55","181961","0.0-12.0-3.8","2d_cat_multi_stim_exp1","2022-5-2","12:41:24","25","75","3","9","10","40","30","120","75","20","[""White""]","No","Female","2075107","null","null","learn_feedback","","","learn_feedback","25.4027","66.0815","in","","","","","","","","","","","","","","","","","","","","","","",""
"","","","","","canvas-keyboard-response","56","182021","0.0-12.0-4.8","2d_cat_multi_stim_exp1","2022-5-2","12:41:24","25","75","3","9","10","40","30","120","75","20","[""White""]","No","Female","2075107","null","null","","","","clear_screen","","","","","","","","","","","","","","","","","","","","","","","","","",""
"","","","","","canvas-keyboard-response","57","182530","0.0-12.0-0.9","2d_cat_multi_stim_exp1","2022-5-2","12:41:24","25","75","3","9","10","40","30","120","75","20","[""White""]","No","Female","2075107","null","null","","","","fixation","","","","","","","","","","","","","","","","","","","","","","","","","",""
"","","","","","canvas-keyboard-response","58","183043","0.0-12.0-1.9","2d_cat_multi_stim_exp1","2022-5-2","12:41:24","25","75","3","9","10","40","30","120","75","20","[""White""]","No","Female","2075107","null","null","","","","clear_screen","","","","","","","","","","","","","","","","","","","","","","","","","",""
"","","","","","canvas-keyboard-response","59","184327","0.0-12.0-2.9","2d_cat_multi_stim_exp1","2022-5-2","12:41:24","25","75","3","9","10","40","30","120","75","20","[""White""]","No","Female","2075107","1274","u","learn","","","learn_trial","23.8209","83.2757","in","1","1","","","","","","","","","","","","","","","","","","","","",""
"","","","","","canvas-keyboard-response","60","184838","0.0-12.0-3.9","2d_cat_multi_stim_exp1","2022-5-2","12:41:24","25","75","3","9","10","40","30","120","75","20","[""White""]","No","Female","2075107","null","null","learn_feedback","","","learn_feedback","23.8209","83.2757","in","","","","","","","","","","","","","","","","","","","","","","",""
"","","","","","canvas-keyboard-response","61","184899","0.0-12.0-4.9","2d_cat_multi_stim_exp1","2022-5-2","12:41:24","25","75","3","9","10","40","30","120","75","20","[""White""]","No","Female","2075107","null","null","","","","clear_screen","","","","","","","","","","","","","","","","","","","","","","","","","",""
"","","","","","canvas-keyboard-response","62","185410","0.0-12.0-0.10","2d_cat_multi_stim_exp1","2022-5-2","12:41:24","25","75","3","9","10","40","30","120","75","20","[""White""]","No","Female","2075107","null","null","","","","fixation","","","","","","","","","","","","","","","","","","","","","","","","","",""
"","","","","","canvas-keyboard-response","63","185923","0.0-12.0-1.10","2d_cat_multi_stim_exp1","2022-5-2","12:41:24","25","75","3","9","10","40","30","120","75","20","[""White""]","No","Female","2075107","null","null","","","","clear_screen","","","","","","","","","","","","","","","","","","","","","","","","","",""
"","","","","","canvas-keyboard-response","64","186760","0.0-12.0-2.10","2d_cat_multi_stim_exp1","2022-5-2","12:41:24","25","75","3","9","10","40","30","120","75","20","[""White""]","No","Female","2075107","828","u","learn","","","learn_trial","25","75","in","1","1","","","","","","","","","","","","","","","","","","","","",""
"","","","","","canvas-keyboard-response","65","187271","0.0-12.0-3.10","2d_cat_multi_stim_exp1","2022-5-2","12:41:24","25","75","3","9","10","40","30","120","75","20","[""White""]","No","Female","2075107","null","null","learn_feedback","","","learn_feedback","25","75","in","","","","","","","","","","","","","","","","","","","","","","",""
"","","","","","canvas-keyboard-response","66","187331","0.0-12.0-4.10","2d_cat_multi_stim_exp1","2022-5-2","12:41:24","25","75","3","9","10","40","30","120","75","20","[""White""]","No","Female","2075107","null","null","","","","clear_screen","","","","","","","","","","","","","","","","","","","","","","","","","",""
"","","","","","canvas-keyboard-response","67","187839","0.0-12.0-0.11","2d_cat_multi_stim_exp1","2022-5-2","12:41:24","25","75","3","9","10","40","30","120","75","20","[""White""]","No","Female","2075107","null","null","","","","fixation","","","","","","","","","","","","","","","","","","","","","","","","","",""
"","","","","","canvas-keyboard-response","68","188349","0.0-12.0-1.11","2d_cat_multi_stim_exp1","2022-5-2","12:41:24","25","75","3","9","10","40","30","120","75","20","[""White""]","No","Female","2075107","null","null","","","","clear_screen","","","","","","","","","","","","","","","","","","","","","","","","","",""
"","","","","","canvas-keyboard-response","69","188976","0.0-12.0-2.11","2d_cat_multi_stim_exp1","2022-5-2","12:41:24","25","75","3","9","10","40","30","120","75","20","[""White""]","No","Female","2075107","615","u","learn","","","learn_trial","22.0121","75.8068","in","1","1","","","","","","","","","","","","","","","","","","","","",""
"","","","","","canvas-keyboard-response","70","189487","0.0-12.0-3.11","2d_cat_multi_stim_exp1","2022-5-2","12:41:24","25","75","3","9","10","40","30","120","75","20","[""White""]","No","Female","2075107","null","null","learn_feedback","","","learn_feedback","22.0121","75.8068","in","","","","","","","","","","","","","","","","","","","","","","",""
"","","","","","canvas-keyboard-response","71","189547","0.0-12.0-4.11","2d_cat_multi_stim_exp1","2022-5-2","12:41:24","25","75","3","9","10","40","30","120","75","20","[""White""]","No","Female","2075107","null","null","","","","clear_screen","","","","","","","","","","","","","","","","","","","","","","","","","",""
"","","","","","canvas-keyboard-response","72","190056","0.0-12.0-0.12","2d_cat_multi_stim_exp1","2022-5-2","12:41:24","25","75","3","9","10","40","30","120","75","20","[""White""]","No","Female","2075107","null","null","","","","fixation","","","","","","","","","","","","","","","","","","","","","","","","","",""
"","","","","","canvas-keyboard-response","73","190568","0.0-12.0-1.12","2d_cat_multi_stim_exp1","2022-5-2","12:41:24","25","75","3","9","10","40","30","120","75","20","[""White""]","No","Female","2075107","null","null","","","","clear_screen","","","","","","","","","","","","","","","","","","","","","","","","","",""
"","","","","","canvas-keyboard-response","74","191854","0.0-12.0-2.12","2d_cat_multi_stim_exp1","2022-5-2","12:41:24","25","75","3","9","10","40","30","120","75","20","[""White""]","No","Female","2075107","1276","u","learn","","","learn_trial","27.8087","71.8376","in","1","1","","","","","","","","","","","","","","","","","","","","",""
"","","","","","canvas-keyboard-response","75","192366","0.0-12.0-3.12","2d_cat_multi_stim_exp1","2022-5-2","12:41:24","25","75","3","9","10","40","30","120","75","20","[""White""]","No","Female","2075107","null","null","learn_feedback","","","learn_feedback","27.8087","71.8376","in","","","","","","","","","","","","","","","","","","","","","","",""
"","","","","","canvas-keyboard-response","76","192429","0.0-12.0-4.12","2d_cat_multi_stim_exp1","2022-5-2","12:41:24","25","75","3","9","10","40","30","120","75","20","[""White""]","No","Female","2075107","null","null","","","","clear_screen","","","","","","","","","","","","","","","","","","","","","","","","","",""
"","","","","","canvas-keyboard-response","77","192939","0.0-12.0-0.13","2d_cat_multi_stim_exp1","2022-5-2","12:41:24","25","75","3","9","10","40","30","120","75","20","[""White""]","No","Female","2075107","null","null","","","","fixation","","","","","","","","","","","","","","","","","","","","","","","","","",""
"","","","","","canvas-keyboard-response","78","193450","0.0-12.0-1.13","2d_cat_multi_stim_exp1","2022-5-2","12:41:24","25","75","3","9","10","40","30","120","75","20","[""White""]","No","Female","2075107","null","null","","","","clear_screen","","","","","","","","","","","","","","","","","","","","","","","","","",""
"","","","","","canvas-keyboard-response","79","194303","0.0-12.0-2.13","2d_cat_multi_stim_exp1","2022-5-2","12:41:24","25","75","3","9","10","40","30","120","75","20","[""White""]","No","Female","2075107","844","u","learn","","","learn_trial","25","75","in","1","1","","","","","","","","","","","","","","","","","","","","",""
"","","","","","canvas-keyboard-response","80","194812","0.0-12.0-3.13","2d_cat_multi_stim_exp1","2022-5-2","12:41:24","25","75","3","9","10","40","30","120","75","20","[""White""]","No","Female","2075107","null","null","learn_feedback","","","learn_feedback","25","75","in","","","","","","","","","","","","","","","","","","","","","","",""
"","","","","","canvas-keyboard-response","81","194870","0.0-12.0-4.13","2d_cat_multi_stim_exp1","2022-5-2","12:41:24","25","75","3","9","10","40","30","120","75","20","[""White""]","No","Female","2075107","null","null","","","","clear_screen","","","","","","","","","","","","","","","","","","","","","","","","","",""
"","","","","","canvas-keyboard-response","82","195378","0.0-12.0-0.14","2d_cat_multi_stim_exp1","2022-5-2","12:41:24","25","75","3","9","10","40","30","120","75","20","[""White""]","No","Female","2075107","null","null","","","","fixation","","","","","","","","","","","","","","","","","","","","","","","","","",""
"","","","","","canvas-keyboard-response","83","195890","0.0-12.0-1.14","2d_cat_multi_stim_exp1","2022-5-2","12:41:24","25","75","3","9","10","40","30","120","75","20","[""White""]","No","Female","2075107","null","null","","","","clear_screen","","","","","","","","","","","","","","","","","","","","","","","","","",""
"","","","","","canvas-keyboard-response","84","196463","0.0-12.0-2.14","2d_cat_multi_stim_exp1","2022-5-2","12:41:24","25","75","3","9","10","40","30","120","75","20","[""White""]","No","Female","2075107","563","u","learn","","","learn_trial","25","75","in","1","1","","","","","","","","","","","","","","","","","","","","",""
"","","","","","canvas-keyboard-response","85","196972","0.0-12.0-3.14","2d_cat_multi_stim_exp1","2022-5-2","12:41:24","25","75","3","9","10","40","30","120","75","20","[""White""]","No","Female","2075107","null","null","learn_feedback","","","learn_feedback","25","75","in","","","","","","","","","","","","","","","","","","","","","","",""
"","","","","","canvas-keyboard-response","86","197033","0.0-12.0-4.14","2d_cat_multi_stim_exp1","2022-5-2","12:41:24","25","75","3","9","10","40","30","120","75","20","[""White""]","No","Female","2075107","null","null","","","","clear_screen","","","","","","","","","","","","","","","","","","","","","","","","","",""
"","","","","","canvas-keyboard-response","87","197544","0.0-12.0-0.15","2d_cat_multi_stim_exp1","2022-5-2","12:41:24","25","75","3","9","10","40","30","120","75","20","[""White""]","No","Female","2075107","null","null","","","","fixation","","","","","","","","","","","","","","","","","","","","","","","","","",""
"","","","","","canvas-keyboard-response","88","198058","0.0-12.0-1.15","2d_cat_multi_stim_exp1","2022-5-2","12:41:24","25","75","3","9","10","40","30","120","75","20","[""White""]","No","Female","2075107","null","null","","","","clear_screen","","","","","","","","","","","","","","","","","","","","","","","","","",""
"","","","","","canvas-keyboard-response","89","198911","0.0-12.0-2.15","2d_cat_multi_stim_exp1","2022-5-2","12:41:24","25","75","3","9","10","40","30","120","75","20","[""White""]","No","Female","2075107","843","i","learn","","","learn_trial","16.6667","110","out","0","1","","","","","","","","","","","","","","","","","","","","",""
"","","","","","canvas-keyboard-response","90","199422","0.0-12.0-3.15","2d_cat_multi_stim_exp1","2022-5-2","12:41:24","25","75","3","9","10","40","30","120","75","20","[""White""]","No","Female","2075107","null","null","learn_feedback","","","learn_feedback","16.6667","110","out","","","","","","","","","","","","","","","","","","","","","","",""
"","","","","","canvas-keyboard-response","91","199484","0.0-12.0-4.15","2d_cat_multi_stim_exp1","2022-5-2","12:41:24","25","75","3","9","10","40","30","120","75","20","[""White""]","No","Female","2075107","null","null","","","","clear_screen","","","","","","","","","","","","","","","","","","","","","","","","","",""
"","","","","","canvas-keyboard-response","92","199991","0.0-12.0-0.16","2d_cat_multi_stim_exp1","2022-5-2","12:41:24","25","75","3","9","10","40","30","120","75","20","[""White""]","No","Female","2075107","null","null","","","","fixation","","","","","","","","","","","","","","","","","","","","","","","","","",""
"","","","","","canvas-keyboard-response","93","200506","0.0-12.0-1.16","2d_cat_multi_stim_exp1","2022-5-2","12:41:24","25","75","3","9","10","40","30","120","75","20","[""White""]","No","Female","2075107","null","null","","","","clear_screen","","","","","","","","","","","","","","","","","","","","","","","","","",""
"","","","","","canvas-keyboard-response","94","201151","0.0-12.0-2.16","2d_cat_multi_stim_exp1","2022-5-2","12:41:24","25","75","3","9","10","40","30","120","75","20","[""White""]","No","Female","2075107","637","u","learn","","","learn_trial","24.8654","83.9909","in","1","1","","","","","","","","","","","","","","","","","","","","",""
"","","","","","canvas-keyboard-response","95","201659","0.0-12.0-3.16","2d_cat_multi_stim_exp1","2022-5-2","12:41:24","25","75","3","9","10","40","30","120","75","20","[""White""]","No","Female","2075107","null","null","learn_feedback","","","learn_feedback","24.8654","83.9909","in","","","","","","","","","","","","","","","","","","","","","","",""
"","","","","","canvas-keyboard-response","96","201720","0.0-12.0-4.16","2d_cat_multi_stim_exp1","2022-5-2","12:41:24","25","75","3","9","10","40","30","120","75","20","[""White""]","No","Female","2075107","null","null","","","","clear_screen","","","","","","","","","","","","","","","","","","","","","","","","","",""
"","","","","","canvas-keyboard-response","97","202229","0.0-12.0-0.17","2d_cat_multi_stim_exp1","2022-5-2","12:41:24","25","75","3","9","10","40","30","120","75","20","[""White""]","No","Female","2075107","null","null","","","","fixation","","","","","","","","","","","","","","","","","","","","","","","","","",""
"","","","","","canvas-keyboard-response","98","202740","0.0-12.0-1.17","2d_cat_multi_stim_exp1","2022-5-2","12:41:24","25","75","3","9","10","40","30","120","75","20","[""White""]","No","Female","2075107","null","null","","","","clear_screen","","","","","","","","","","","","","","","","","","","","","","","","","",""
"","","","","","canvas-keyboard-response","99","203375","0.0-12.0-2.17","2d_cat_multi_stim_exp1","2022-5-2","12:41:24","25","75","3","9","10","40","30","120","75","20","[""White""]","No","Female","2075107","623","u","learn","","","learn_trial","25","75","in","1","1","","","","","","","","","","","","","","","","","","","","",""
"","","","","","canvas-keyboard-response","100","203882","0.0-12.0-3.17","2d_cat_multi_stim_exp1","2022-5-2","12:41:24","25","75","3","9","10","40","30","120","75","20","[""White""]","No","Female","2075107","null","null","learn_feedback","","","learn_feedback","25","75","in","","","","","","","","","","","","","","","","","","","","","","",""
"","","","","","canvas-keyboard-response","101","203943","0.0-12.0-4.17","2d_cat_multi_stim_exp1","2022-5-2","12:41:24","25","75","3","9","10","40","30","120","75","20","[""White""]","No","Female","2075107","null","null","","","","clear_screen","","","","","","","","","","","","","","","","","","","","","","","","","",""
"","","","","","canvas-keyboard-response","102","204453","0.0-12.0-0.18","2d_cat_multi_stim_exp1","2022-5-2","12:41:24","25","75","3","9","10","40","30","120","75","20","[""White""]","No","Female","2075107","null","null","","","","fixation","","","","","","","","","","","","","","","","","","","","","","","","","",""
"","","","","","canvas-keyboard-response","103","204964","0.0-12.0-1.18","2d_cat_multi_stim_exp1","2022-5-2","12:41:24","25","75","3","9","10","40","30","120","75","20","[""White""]","No","Female","2075107","null","null","","","","clear_screen","","","","","","","","","","","","","","","","","","","","","","","","","",""
"","","","","","canvas-keyboard-response","104","205799","0.0-12.0-2.18","2d_cat_multi_stim_exp1","2022-5-2","12:41:24","25","75","3","9","10","40","30","120","75","20","[""White""]","No","Female","2075107","827","u","learn","","","learn_trial","27.9518","76.607","in","1","1","","","","","","","","","","","","","","","","","","","","",""
"","","","","","canvas-keyboard-response","105","206311","0.0-12.0-3.18","2d_cat_multi_stim_exp1","2022-5-2","12:41:24","25","75","3","9","10","40","30","120","75","20","[""White""]","No","Female","2075107","null","null","learn_feedback","","","learn_feedback","27.9518","76.607","in","","","","","","","","","","","","","","","","","","","","","","",""
"","","","","","canvas-keyboard-response","106","206371","0.0-12.0-4.18","2d_cat_multi_stim_exp1","2022-5-2","12:41:24","25","75","3","9","10","40","30","120","75","20","[""White""]","No","Female","2075107","null","null","","","","clear_screen","","","","","","","","","","","","","","","","","","","","","","","","","",""
"","","","","","canvas-keyboard-response","107","206879","0.0-12.0-0.19","2d_cat_multi_stim_exp1","2022-5-2","12:41:24","25","75","3","9","10","40","30","120","75","20","[""White""]","No","Female","2075107","null","null","","","","fixation","","","","","","","","","","","","","","","","","","","","","","","","","",""
"","","","","","canvas-keyboard-response","108","207391","0.0-12.0-1.19","2d_cat_multi_stim_exp1","2022-5-2","12:41:24","25","75","3","9","10","40","30","120","75","20","[""White""]","No","Female","2075107","null","null","","","","clear_screen","","","","","","","","","","","","","","","","","","","","","","","","","",""
"","","","","","canvas-keyboard-response","109","208447","0.0-12.0-2.19","2d_cat_multi_stim_exp1","2022-5-2","12:41:24","25","75","3","9","10","40","30","120","75","20","[""White""]","No","Female","2075107","1046","u","learn","","","learn_trial","27.2592","80.9214","in","1","1","","","","","","","","","","","","","","","","","","","","",""
"","","","","","canvas-keyboard-response","110","208959","0.0-12.0-3.19","2d_cat_multi_stim_exp1","2022-5-2","12:41:24","25","75","3","9","10","40","30","120","75","20","[""White""]","No","Female","2075107","null","null","learn_feedback","","","learn_feedback","27.2592","80.9214","in","","","","","","","","","","","","","","","","","","","","","","",""
"","","","","","canvas-keyboard-response","111","209020","0.0-12.0-4.19","2d_cat_multi_stim_exp1","2022-5-2","12:41:24","25","75","3","9","10","40","30","120","75","20","[""White""]","No","Female","2075107","null","null","","","","clear_screen","","","","","","","","","","","","","","","","","","","","","","","","","",""
"","","","","","canvas-keyboard-response","112","209528","0.0-12.0-0.20","2d_cat_multi_stim_exp1","2022-5-2","12:41:24","25","75","3","9","10","40","30","120","75","20","[""White""]","No","Female","2075107","null","null","","","","fixation","","","","","","","","","","","","","","","","","","","","","","","","","",""
"","","","","","canvas-keyboard-response","113","210037","0.0-12.0-1.20","2d_cat_multi_stim_exp1","2022-5-2","12:41:24","25","75","3","9","10","40","30","120","75","20","[""White""]","No","Female","2075107","null","null","","","","clear_screen","","","","","","","","","","","","","","","","","","","","","","","","","",""
"","","","","","canvas-keyboard-response","114","211456","0.0-12.0-2.20","2d_cat_multi_stim_exp1","2022-5-2","12:41:24","25","75","3","9","10","40","30","120","75","20","[""White""]","No","Female","2075107","1409","i","learn","","","learn_trial","22.1081","72.6057","in","0","0","","","","","","","","","","","","","","","","","","","","",""
"","","","","","canvas-keyboard-response","115","212468","0.0-12.0-3.20","2d_cat_multi_stim_exp1","2022-5-2","12:41:24","25","75","3","9","10","40","30","120","75","20","[""White""]","No","Female","2075107","null","null","learn_feedback","","","learn_feedback","22.1081","72.6057","in","","","","","","","","","","","","","","","","","","","","","","",""
"","","","","","canvas-keyboard-response","116","212530","0.0-12.0-4.20","2d_cat_multi_stim_exp1","2022-5-2","12:41:24","25","75","3","9","10","40","30","120","75","20","[""White""]","No","Female","2075107","null","null","","","","clear_screen","","","","","","","","","","","","","","","","","","","","","","","","","",""
"","","","","","canvas-keyboard-response","117","213039","0.0-12.0-0.21","2d_cat_multi_stim_exp1","2022-5-2","12:41:24","25","75","3","9","10","40","30","120","75","20","[""White""]","No","Female","2075107","null","null","","","","fixation","","","","","","","","","","","","","","","","","","","","","","","","","",""
"","","","","","canvas-keyboard-response","118","213551","0.0-12.0-1.21","2d_cat_multi_stim_exp1","2022-5-2","12:41:24","25","75","3","9","10","40","30","120","75","20","[""White""]","No","Female","2075107","null","null","","","","clear_screen","","","","","","","","","","","","","","","","","","","","","","","","","",""
"","","","","","canvas-keyboard-response","119","214575","0.0-12.0-2.21","2d_cat_multi_stim_exp1","2022-5-2","12:41:24","25","75","3","9","10","40","30","120","75","20","[""White""]","No","Female","2075107","1016","i","learn","","","learn_trial","31","75","in","0","0","","","","","","","","","","","","","","","","","","","","",""
"","","","","","canvas-keyboard-response","120","215583","0.0-12.0-3.21","2d_cat_multi_stim_exp1","2022-5-2","12:41:24","25","75","3","9","10","40","30","120","75","20","[""White""]","No","Female","2075107","null","null","learn_feedback","","","learn_feedback","31","75","in","","","","","","","","","","","","","","","","","","","","","","",""
"","","","","","canvas-keyboard-response","121","215639","0.0-12.0-4.21","2d_cat_multi_stim_exp1","2022-5-2","12:41:24","25","75","3","9","10","40","30","120","75","20","[""White""]","No","Female","2075107","null","null","","","","clear_screen","","","","","","","","","","","","","","","","","","","","","","","","","",""
"","","","","","canvas-keyboard-response","122","216147","0.0-12.0-0.22","2d_cat_multi_stim_exp1","2022-5-2","12:41:24","25","75","3","9","10","40","30","120","75","20","[""White""]","No","Female","2075107","null","null","","","","fixation","","","","","","","","","","","","","","","","","","","","","","","","","",""
"","","","","","canvas-keyboard-response","123","216659","0.0-12.0-1.22","2d_cat_multi_stim_exp1","2022-5-2","12:41:24","25","75","3","9","10","40","30","120","75","20","[""White""]","No","Female","2075107","null","null","","","","clear_screen","","","","","","","","","","","","","","","","","","","","","","","","","",""
"","","","","","canvas-keyboard-response","124","217328","0.0-12.0-2.22","2d_cat_multi_stim_exp1","2022-5-2","12:41:24","25","75","3","9","10","40","30","120","75","20","[""White""]","No","Female","2075107","658","u","learn","","","learn_trial","27.5753","70.3839","in","1","1","","","","","","","","","","","","","","","","","","","","",""
"","","","","","canvas-keyboard-response","125","217839","0.0-12.0-3.22","2d_cat_multi_stim_exp1","2022-5-2","12:41:24","25","75","3","9","10","40","30","120","75","20","[""White""]","No","Female","2075107","null","null","learn_feedback","","","learn_feedback","27.5753","70.3839","in","","","","","","","","","","","","","","","","","","","","","","",""
"","","","","","canvas-keyboard-response","126","217902","0.0-12.0-4.22","2d_cat_multi_stim_exp1","2022-5-2","12:41:24","25","75","3","9","10","40","30","120","75","20","[""White""]","No","Female","2075107","null","null","","","","clear_screen","","","","","","","","","","","","","","","","","","","","","","","","","",""
"","","","","","canvas-keyboard-response","127","218412","0.0-12.0-0.23","2d_cat_multi_stim_exp1","2022-5-2","12:41:24","25","75","3","9","10","40","30","120","75","20","[""White""]","No","Female","2075107","null","null","","","","fixation","","","","","","","","","","","","","","","","","","","","","","","","","",""
"","","","","","canvas-keyboard-response","128","218917","0.0-12.0-1.23","2d_cat_multi_stim_exp1","2022-5-2","12:41:24","25","75","3","9","10","40","30","120","75","20","[""White""]","No","Female","2075107","null","null","","","","clear_screen","","","","","","","","","","","","","","","","","","","","","","","","","",""
"","","","","","canvas-keyboard-response","129","220047","0.0-12.0-2.23","2d_cat_multi_stim_exp1","2022-5-2","12:41:24","25","75","3","9","10","40","30","120","75","20","[""White""]","No","Female","2075107","1120","u","learn","","","learn_trial","25","75","in","1","1","","","","","","","","","","","","","","","","","","","","",""
"","","","","","canvas-keyboard-response","130","220556","0.0-12.0-3.23","2d_cat_multi_stim_exp1","2022-5-2","12:41:24","25","75","3","9","10","40","30","120","75","20","[""White""]","No","Female","2075107","null","null","learn_feedback","","","learn_feedback","25","75","in","","","","","","","","","","","","","","","","","","","","","","",""
"","","","","","canvas-keyboard-response","131","220619","0.0-12.0-4.23","2d_cat_multi_stim_exp1","2022-5-2","12:41:24","25","75","3","9","10","40","30","120","75","20","[""White""]","No","Female","2075107","null","null","","","","clear_screen","","","","","","","","","","","","","","","","","","","","","","","","","",""
"","","","","","canvas-keyboard-response","132","221128","0.0-12.0-0.24","2d_cat_multi_stim_exp1","2022-5-2","12:41:24","25","75","3","9","10","40","30","120","75","20","[""White""]","No","Female","2075107","null","null","","","","fixation","","","","","","","","","","","","","","","","","","","","","","","","","",""
"","","","","","canvas-keyboard-response","133","221642","0.0-12.0-1.24","2d_cat_multi_stim_exp1","2022-5-2","12:41:24","25","75","3","9","10","40","30","120","75","20","[""White""]","No","Female","2075107","null","null","","","","clear_screen","","","","","","","","","","","","","","","","","","","","","","","","","",""
"","","","","","canvas-keyboard-response","134","222583","0.0-12.0-2.24","2d_cat_multi_stim_exp1","2022-5-2","12:41:24","25","75","3","9","10","40","30","120","75","20","[""White""]","No","Female","2075107","933","i","learn","","","learn_trial","30","50","out","0","1","","","","","","","","","","","","","","","","","","","","",""
"","","","","","canvas-keyboard-response","135","223093","0.0-12.0-3.24","2d_cat_multi_stim_exp1","2022-5-2","12:41:24","25","75","3","9","10","40","30","120","75","20","[""White""]","No","Female","2075107","null","null","learn_feedback","","","learn_feedback","30","50","out","","","","","","","","","","","","","","","","","","","","","","",""
"","","","","","canvas-keyboard-response","136","223155","0.0-12.0-4.24","2d_cat_multi_stim_exp1","2022-5-2","12:41:24","25","75","3","9","10","40","30","120","75","20","[""White""]","No","Female","2075107","null","null","","","","clear_screen","","","","","","","","","","","","","","","","","","","","","","","","","",""
"","","","","","canvas-keyboard-response","137","223665","0.0-12.0-0.25","2d_cat_multi_stim_exp1","2022-5-2","12:41:24","25","75","3","9","10","40","30","120","75","20","[""White""]","No","Female","2075107","null","null","","","","fixation","","","","","","","","","","","","","","","","","","","","","","","","","",""
"","","","","","canvas-keyboard-response","138","224178","0.0-12.0-1.25","2d_cat_multi_stim_exp1","2022-5-2","12:41:24","25","75","3","9","10","40","30","120","75","20","[""White""]","No","Female","2075107","null","null","","","","clear_screen","","","","","","","","","","","","","","","","","","","","","","","","","",""
"","","","","","canvas-keyboard-response","139","224831","0.0-12.0-2.25","2d_cat_multi_stim_exp1","2022-5-2","12:41:24","25","75","3","9","10","40","30","120","75","20","[""White""]","No","Female","2075107","643","u","learn","","","learn_trial","25","75","in","1","1","","","","","","","","","","","","","","","","","","","","",""
"","","","","","canvas-keyboard-response","140","225342","0.0-12.0-3.25","2d_cat_multi_stim_exp1","2022-5-2","12:41:24","25","75","3","9","10","40","30","120","75","20","[""White""]","No","Female","2075107","null","null","learn_feedback","","","learn_feedback","25","75","in","","","","","","","","","","","","","","","","","","","","","","",""
"","","","","","canvas-keyboard-response","141","225400","0.0-12.0-4.25","2d_cat_multi_stim_exp1","2022-5-2","12:41:24","25","75","3","9","10","40","30","120","75","20","[""White""]","No","Female","2075107","null","null","","","","clear_screen","","","","","","","","","","","","","","","","","","","","","","","","","",""
"","","","","","canvas-keyboard-response","142","225910","0.0-12.0-0.26","2d_cat_multi_stim_exp1","2022-5-2","12:41:24","25","75","3","9","10","40","30","120","75","20","[""White""]","No","Female","2075107","null","null","","","","fixation","","","","","","","","","","","","","","","","","","","","","","","","","",""
"","","","","","canvas-keyboard-response","143","226420","0.0-12.0-1.26","2d_cat_multi_stim_exp1","2022-5-2","12:41:24","25","75","3","9","10","40","30","120","75","20","[""White""]","No","Female","2075107","null","null","","","","clear_screen","","","","","","","","","","","","","","","","","","","","","","","","","",""
"","","","","","canvas-keyboard-response","144","227176","0.0-12.0-2.26","2d_cat_multi_stim_exp1","2022-5-2","12:41:24","25","75","3","9","10","40","30","120","75","20","[""White""]","No","Female","2075107","741","u","learn","","","learn_trial","25","75","in","1","1","","","","","","","","","","","","","","","","","","","","",""
"","","","","","canvas-keyboard-response","145","227685","0.0-12.0-3.26","2d_cat_multi_stim_exp1","2022-5-2","12:41:24","25","75","3","9","10","40","30","120","75","20","[""White""]","No","Female","2075107","null","null","learn_feedback","","","learn_feedback","25","75","in","","","","","","","","","","","","","","","","","","","","","","",""
"","","","","","canvas-keyboard-response","146","227745","0.0-12.0-4.26","2d_cat_multi_stim_exp1","2022-5-2","12:41:24","25","75","3","9","10","40","30","120","75","20","[""White""]","No","Female","2075107","null","null","","","","clear_screen","","","","","","","","","","","","","","","","","","","","","","","","","",""
"","","","","","canvas-keyboard-response","147","228253","0.0-12.0-0.27","2d_cat_multi_stim_exp1","2022-5-2","12:41:24","25","75","3","9","10","40","30","120","75","20","[""White""]","No","Female","2075107","null","null","","","","fixation","","","","","","","","","","","","","","","","","","","","","","","","","",""
"","","","","","canvas-keyboard-response","148","228766","0.0-12.0-1.27","2d_cat_multi_stim_exp1","2022-5-2","12:41:24","25","75","3","9","10","40","30","120","75","20","[""White""]","No","Female","2075107","null","null","","","","clear_screen","","","","","","","","","","","","","","","","","","","","","","","","","",""
"","","","","","canvas-keyboard-response","149","229615","0.0-12.0-2.27","2d_cat_multi_stim_exp1","2022-5-2","12:41:24","25","75","3","9","10","40","30","120","75","20","[""White""]","No","Female","2075107","839","i","learn","","","learn_trial","10","60","out","0","1","","","","","","","","","","","","","","","","","","","","",""
"","","","","","canvas-keyboard-response","150","230125","0.0-12.0-3.27","2d_cat_multi_stim_exp1","2022-5-2","12:41:24","25","75","3","9","10","40","30","120","75","20","[""White""]","No","Female","2075107","null","null","learn_feedback","","","learn_feedback","10","60","out","","","","","","","","","","","","","","","","","","","","","","",""
"","","","","","canvas-keyboard-response","151","230187","0.0-12.0-4.27","2d_cat_multi_stim_exp1","2022-5-2","12:41:24","25","75","3","9","10","40","30","120","75","20","[""White""]","No","Female","2075107","null","null","","","","clear_screen","","","","","","","","","","","","","","","","","","","","","","","","","",""
"","","","","","canvas-keyboard-response","152","230698","0.0-12.0-0.28","2d_cat_multi_stim_exp1","2022-5-2","12:41:24","25","75","3","9","10","40","30","120","75","20","[""White""]","No","Female","2075107","null","null","","","","fixation","","","","","","","","","","","","","","","","","","","","","","","","","",""
"","","","","","canvas-keyboard-response","153","231208","0.0-12.0-1.28","2d_cat_multi_stim_exp1","2022-5-2","12:41:24","25","75","3","9","10","40","30","120","75","20","[""White""]","No","Female","2075107","null","null","","","","clear_screen","","","","","","","","","","","","","","","","","","","","","","","","","",""
"","","","","","canvas-keyboard-response","154","232455","0.0-12.0-2.28","2d_cat_multi_stim_exp1","2022-5-2","12:41:24","25","75","3","9","10","40","30","120","75","20","[""White""]","No","Female","2075107","1238","i","learn","","","learn_trial","30","60","out","0","1","","","","","","","","","","","","","","","","","","","","",""
"","","","","","canvas-keyboard-response","155","232967","0.0-12.0-3.28","2d_cat_multi_stim_exp1","2022-5-2","12:41:24","25","75","3","9","10","40","30","120","75","20","[""White""]","No","Female","2075107","null","null","learn_feedback","","","learn_feedback","30","60","out","","","","","","","","","","","","","","","","","","","","","","",""
"","","","","","canvas-keyboard-response","156","233027","0.0-12.0-4.28","2d_cat_multi_stim_exp1","2022-5-2","12:41:24","25","75","3","9","10","40","30","120","75","20","[""White""]","No","Female","2075107","null","null","","","","clear_screen","","","","","","","","","","","","","","","","","","","","","","","","","",""
"","","","","","canvas-keyboard-response","157","233537","0.0-12.0-0.29","2d_cat_multi_stim_exp1","2022-5-2","12:41:24","25","75","3","9","10","40","30","120","75","20","[""White""]","No","Female","2075107","null","null","","","","fixation","","","","","","","","","","","","","","","","","","","","","","","","","",""
"","","","","","canvas-keyboard-response","158","234043","0.0-12.0-1.29","2d_cat_multi_stim_exp1","2022-5-2","12:41:24","25","75","3","9","10","40","30","120","75","20","[""White""]","No","Female","2075107","null","null","","","","clear_screen","","","","","","","","","","","","","","","","","","","","","","","","","",""
"","","","","","canvas-keyboard-response","159","236081","0.0-12.0-2.29","2d_cat_multi_stim_exp1","2022-5-2","12:41:24","25","75","3","9","10","40","30","120","75","20","[""White""]","No","Female","2075107","2026","i","learn","","","learn_trial","23.3473","82.5112","in","0","0","","","","","","","","","","","","","","","","","","","","",""
"","","","","","canvas-keyboard-response","160","237091","0.0-12.0-3.29","2d_cat_multi_stim_exp1","2022-5-2","12:41:24","25","75","3","9","10","40","30","120","75","20","[""White""]","No","Female","2075107","null","null","learn_feedback","","","learn_feedback","23.3473","82.5112","in","","","","","","","","","","","","","","","","","","","","","","",""
"","","","","","canvas-keyboard-response","161","237151","0.0-12.0-4.29","2d_cat_multi_stim_exp1","2022-5-2","12:41:24","25","75","3","9","10","40","30","120","75","20","[""White""]","No","Female","2075107","null","null","","","","clear_screen","","","","","","","","","","","","","","","","","","","","","","","","","",""
"","","","","","canvas-keyboard-response","162","237660","0.0-12.0-0.30","2d_cat_multi_stim_exp1","2022-5-2","12:41:24","25","75","3","9","10","40","30","120","75","20","[""White""]","No","Female","2075107","null","null","","","","fixation","","","","","","","","","","","","","","","","","","","","","","","","","",""
"","","","","","canvas-keyboard-response","163","238175","0.0-12.0-1.30","2d_cat_multi_stim_exp1","2022-5-2","12:41:24","25","75","3","9","10","40","30","120","75","20","[""White""]","No","Female","2075107","null","null","","","","clear_screen","","","","","","","","","","","","","","","","","","","","","","","","","",""
"","","","","","canvas-keyboard-response","164","238975","0.0-12.0-2.30","2d_cat_multi_stim_exp1","2022-5-2","12:41:24","25","75","3","9","10","40","30","120","75","20","[""White""]","No","Female","2075107","791","i","learn","","","learn_trial","26.6667","50","out","0","1","","","","","","","","","","","","","","","","","","","","",""
"","","","","","canvas-keyboard-response","165","239486","0.0-12.0-3.30","2d_cat_multi_stim_exp1","2022-5-2","12:41:24","25","75","3","9","10","40","30","120","75","20","[""White""]","No","Female","2075107","null","null","learn_feedback","","","learn_feedback","26.6667","50","out","","","","","","","","","","","","","","","","","","","","","","",""
"","","","","","canvas-keyboard-response","166","239549","0.0-12.0-4.30","2d_cat_multi_stim_exp1","2022-5-2","12:41:24","25","75","3","9","10","40","30","120","75","20","[""White""]","No","Female","2075107","null","null","","","","clear_screen","","","","","","","","","","","","","","","","","","","","","","","","","",""
"","","","","","canvas-keyboard-response","167","240057","0.0-12.0-0.31","2d_cat_multi_stim_exp1","2022-5-2","12:41:24","25","75","3","9","10","40","30","120","75","20","[""White""]","No","Female","2075107","null","null","","","","fixation","","","","","","","","","","","","","","","","","","","","","","","","","",""
"","","","","","canvas-keyboard-response","168","240563","0.0-12.0-1.31","2d_cat_multi_stim_exp1","2022-5-2","12:41:24","25","75","3","9","10","40","30","120","75","20","[""White""]","No","Female","2075107","null","null","","","","clear_screen","","","","","","","","","","","","","","","","","","","","","","","","","",""
"","","","","","canvas-keyboard-response","169","241264","0.0-12.0-2.31","2d_cat_multi_stim_exp1","2022-5-2","12:41:24","25","75","3","9","10","40","30","120","75","20","[""White""]","No","Female","2075107","691","u","learn","","","learn_trial","25","75","in","1","1","","","","","","","","","","","","","","","","","","","","",""
"","","","","","canvas-keyboard-response","170","241773","0.0-12.0-3.31","2d_cat_multi_stim_exp1","2022-5-2","12:41:24","25","75","3","9","10","40","30","120","75","20","[""White""]","No","Female","2075107","null","null","learn_feedback","","","learn_feedback","25","75","in","","","","","","","","","","","","","","","","","","","","","","",""
"","","","","","canvas-keyboard-response","171","241835","0.0-12.0-4.31","2d_cat_multi_stim_exp1","2022-5-2","12:41:24","25","75","3","9","10","40","30","120","75","20","[""White""]","No","Female","2075107","null","null","","","","clear_screen","","","","","","","","","","","","","","","","","","","","","","","","","",""
"","","","","","canvas-keyboard-response","172","242343","0.0-12.0-0.32","2d_cat_multi_stim_exp1","2022-5-2","12:41:24","25","75","3","9","10","40","30","120","75","20","[""White""]","No","Female","2075107","null","null","","","","fixation","","","","","","","","","","","","","","","","","","","","","","","","","",""
"","","","","","canvas-keyboard-response","173","242851","0.0-12.0-1.32","2d_cat_multi_stim_exp1","2022-5-2","12:41:24","25","75","3","9","10","40","30","120","75","20","[""White""]","No","Female","2075107","null","null","","","","clear_screen","","","","","","","","","","","","","","","","","","","","","","","","","",""
"","","","","","canvas-keyboard-response","174","243592","0.0-12.0-2.32","2d_cat_multi_stim_exp1","2022-5-2","12:41:24","25","75","3","9","10","40","30","120","75","20","[""White""]","No","Female","2075107","730","u","learn","","","learn_trial","22.9268","81.5052","in","1","1","","","","","","","","","","","","","","","","","","","","",""
"","","","","","canvas-keyboard-response","175","244102","0.0-12.0-3.32","2d_cat_multi_stim_exp1","2022-5-2","12:41:24","25","75","3","9","10","40","30","120","75","20","[""White""]","No","Female","2075107","null","null","learn_feedback","","","learn_feedback","22.9268","81.5052","in","","","","","","","","","","","","","","","","","","","","","","",""
"","","","","","canvas-keyboard-response","176","244163","0.0-12.0-4.32","2d_cat_multi_stim_exp1","2022-5-2","12:41:24","25","75","3","9","10","40","30","120","75","20","[""White""]","No","Female","2075107","null","null","","","","clear_screen","","","","","","","","","","","","","","","","","","","","","","","","","",""
"","","","","","canvas-keyboard-response","177","244672","0.0-12.0-0.33","2d_cat_multi_stim_exp1","2022-5-2","12:41:24","25","75","3","9","10","40","30","120","75","20","[""White""]","No","Female","2075107","null","null","","","","fixation","","","","","","","","","","","","","","","","","","","","","","","","","",""
"","","","","","canvas-keyboard-response","178","245182","0.0-12.0-1.33","2d_cat_multi_stim_exp1","2022-5-2","12:41:24","25","75","3","9","10","40","30","120","75","20","[""White""]","No","Female","2075107","null","null","","","","clear_screen","","","","","","","","","","","","","","","","","","","","","","","","","",""
"","","","","","canvas-keyboard-response","179","245976","0.0-12.0-2.33","2d_cat_multi_stim_exp1","2022-5-2","12:41:24","25","75","3","9","10","40","30","120","75","20","[""White""]","No","Female","2075107","785","u","learn","","","learn_trial","24.3324","83.7744","in","1","1","","","","","","","","","","","","","","","","","","","","",""
"","","","","","canvas-keyboard-response","180","246484","0.0-12.0-3.33","2d_cat_multi_stim_exp1","2022-5-2","12:41:24","25","75","3","9","10","40","30","120","75","20","[""White""]","No","Female","2075107","null","null","learn_feedback","","","learn_feedback","24.3324","83.7744","in","","","","","","","","","","","","","","","","","","","","","","",""
"","","","","","canvas-keyboard-response","181","246544","0.0-12.0-4.33","2d_cat_multi_stim_exp1","2022-5-2","12:41:24","25","75","3","9","10","40","30","120","75","20","[""White""]","No","Female","2075107","null","null","","","","clear_screen","","","","","","","","","","","","","","","","","","","","","","","","","",""
"","","","","","canvas-keyboard-response","182","247053","0.0-12.0-0.34","2d_cat_multi_stim_exp1","2022-5-2","12:41:24","25","75","3","9","10","40","30","120","75","20","[""White""]","No","Female","2075107","null","null","","","","fixation","","","","","","","","","","","","","","","","","","","","","","","","","",""
"","","","","","canvas-keyboard-response","183","247562","0.0-12.0-1.34","2d_cat_multi_stim_exp1","2022-5-2","12:41:24","25","75","3","9","10","40","30","120","75","20","[""White""]","No","Female","2075107","null","null","","","","clear_screen","","","","","","","","","","","","","","","","","","","","","","","","","",""
"","","","","","canvas-keyboard-response","184","248232","0.0-12.0-2.34","2d_cat_multi_stim_exp1","2022-5-2","12:41:24","25","75","3","9","10","40","30","120","75","20","[""White""]","No","Female","2075107","658","u","learn","","","learn_trial","25","75","in","1","1","","","","","","","","","","","","","","","","","","","","",""
"","","","","","canvas-keyboard-response","185","248740","0.0-12.0-3.34","2d_cat_multi_stim_exp1","2022-5-2","12:41:24","25","75","3","9","10","40","30","120","75","20","[""White""]","No","Female","2075107","null","null","learn_feedback","","","learn_feedback","25","75","in","","","","","","","","","","","","","","","","","","","","","","",""
"","","","","","canvas-keyboard-response","186","248803","0.0-12.0-4.34","2d_cat_multi_stim_exp1","2022-5-2","12:41:24","25","75","3","9","10","40","30","120","75","20","[""White""]","No","Female","2075107","null","null","","","","clear_screen","","","","","","","","","","","","","","","","","","","","","","","","","",""
"","","","","","canvas-keyboard-response","187","249313","0.0-12.0-0.35","2d_cat_multi_stim_exp1","2022-5-2","12:41:24","25","75","3","9","10","40","30","120","75","20","[""White""]","No","Female","2075107","null","null","","","","fixation","","","","","","","","","","","","","","","","","","","","","","","","","",""
"","","","","","canvas-keyboard-response","188","249826","0.0-12.0-1.35","2d_cat_multi_stim_exp1","2022-5-2","12:41:24","25","75","3","9","10","40","30","120","75","20","[""White""]","No","Female","2075107","null","null","","","","clear_screen","","","","","","","","","","","","","","","","","","","","","","","","","",""
"","","","","","canvas-keyboard-response","189","251198","0.0-12.0-2.35","2d_cat_multi_stim_exp1","2022-5-2","12:41:24","25","75","3","9","10","40","30","120","75","20","[""White""]","No","Female","2075107","1363","i","learn","","","learn_trial","20.7574","62.2721","in","0","0","","","","","","","","","","","","","","","","","","","","",""
"","","","","","canvas-keyboard-response","190","252207","0.0-12.0-3.35","2d_cat_multi_stim_exp1","2022-5-2","12:41:24","25","75","3","9","10","40","30","120","75","20","[""White""]","No","Female","2075107","null","null","learn_feedback","","","learn_feedback","20.7574","62.2721","in","","","","","","","","","","","","","","","","","","","","","","",""
"","","","","","canvas-keyboard-response","191","252270","0.0-12.0-4.35","2d_cat_multi_stim_exp1","2022-5-2","12:41:24","25","75","3","9","10","40","30","120","75","20","[""White""]","No","Female","2075107","null","null","","","","clear_screen","","","","","","","","","","","","","","","","","","","","","","","","","",""
"","","","","","canvas-keyboard-response","192","252778","0.0-12.0-0.36","2d_cat_multi_stim_exp1","2022-5-2","12:41:24","25","75","3","9","10","40","30","120","75","20","[""White""]","No","Female","2075107","null","null","","","","fixation","","","","","","","","","","","","","","","","","","","","","","","","","",""
"","","","","","canvas-keyboard-response","193","253288","0.0-12.0-1.36","2d_cat_multi_stim_exp1","2022-5-2","12:41:24","25","75","3","9","10","40","30","120","75","20","[""White""]","No","Female","2075107","null","null","","","","clear_screen","","","","","","","","","","","","","","","","","","","","","","","","","",""
"","","","","","canvas-keyboard-response","194","254479","0.0-12.0-2.36","2d_cat_multi_stim_exp1","2022-5-2","12:41:24","25","75","3","9","10","40","30","120","75","20","[""White""]","No","Female","2075107","1178","i","learn","","","learn_trial","36.6667","90","out","0","1","","","","","","","","","","","","","","","","","","","","",""
"","","","","","canvas-keyboard-response","195","254988","0.0-12.0-3.36","2d_cat_multi_stim_exp1","2022-5-2","12:41:24","25","75","3","9","10","40","30","120","75","20","[""White""]","No","Female","2075107","null","null","learn_feedback","","","learn_feedback","36.6667","90","out","","","","","","","","","","","","","","","","","","","","","","",""
"","","","","","canvas-keyboard-response","196","255051","0.0-12.0-4.36","2d_cat_multi_stim_exp1","2022-5-2","12:41:24","25","75","3","9","10","40","30","120","75","20","[""White""]","No","Female","2075107","null","null","","","","clear_screen","","","","","","","","","","","","","","","","","","","","","","","","","",""
"","","","","","canvas-keyboard-response","197","255560","0.0-12.0-0.37","2d_cat_multi_stim_exp1","2022-5-2","12:41:24","25","75","3","9","10","40","30","120","75","20","[""White""]","No","Female","2075107","null","null","","","","fixation","","","","","","","","","","","","","","","","","","","","","","","","","",""
"","","","","","canvas-keyboard-response","198","256071","0.0-12.0-1.37","2d_cat_multi_stim_exp1","2022-5-2","12:41:24","25","75","3","9","10","40","30","120","75","20","[""White""]","No","Female","2075107","null","null","","","","clear_screen","","","","","","","","","","","","","","","","","","","","","","","","","",""
"","","","","","canvas-keyboard-response","199","257159","0.0-12.0-2.37","2d_cat_multi_stim_exp1","2022-5-2","12:41:24","25","75","3","9","10","40","30","120","75","20","[""White""]","No","Female","2075107","1080","i","learn","","","learn_trial","13.3333","60","out","0","1","","","","","","","","","","","","","","","","","","","","",""
"","","","","","canvas-keyboard-response","200","257669","0.0-12.0-3.37","2d_cat_multi_stim_exp1","2022-5-2","12:41:24","25","75","3","9","10","40","30","120","75","20","[""White""]","No","Female","2075107","null","null","learn_feedback","","","learn_feedback","13.3333","60","out","","","","","","","","","","","","","","","","","","","","","","",""
"","","","","","canvas-keyboard-response","201","257728","0.0-12.0-4.37","2d_cat_multi_stim_exp1","2022-5-2","12:41:24","25","75","3","9","10","40","30","120","75","20","[""White""]","No","Female","2075107","null","null","","","","clear_screen","","","","","","","","","","","","","","","","","","","","","","","","","",""
"","","","","","canvas-keyboard-response","202","258240","0.0-12.0-0.38","2d_cat_multi_stim_exp1","2022-5-2","12:41:24","25","75","3","9","10","40","30","120","75","20","[""White""]","No","Female","2075107","null","null","","","","fixation","","","","","","","","","","","","","","","","","","","","","","","","","",""
"","","","","","canvas-keyboard-response","203","258750","0.0-12.0-1.38","2d_cat_multi_stim_exp1","2022-5-2","12:41:24","25","75","3","9","10","40","30","120","75","20","[""White""]","No","Female","2075107","null","null","","","","clear_screen","","","","","","","","","","","","","","","","","","","","","","","","","",""
"","","","","","canvas-keyboard-response","204","261191","0.0-12.0-2.38","2d_cat_multi_stim_exp1","2022-5-2","12:41:24","25","75","3","9","10","40","30","120","75","20","[""White""]","No","Female","2075107","2431","u","learn","","","learn_trial","23.3333","100","out","1","0","","","","","","","","","","","","","","","","","","","","",""
"","","","","","canvas-keyboard-response","205","262202","0.0-12.0-3.38","2d_cat_multi_stim_exp1","2022-5-2","12:41:24","25","75","3","9","10","40","30","120","75","20","[""White""]","No","Female","2075107","null","null","learn_feedback","","","learn_feedback","23.3333","100","out","","","","","","","","","","","","","","","","","","","","","","",""
"","","","","","canvas-keyboard-response","206","262263","0.0-12.0-4.38","2d_cat_multi_stim_exp1","2022-5-2","12:41:24","25","75","3","9","10","40","30","120","75","20","[""White""]","No","Female","2075107","null","null","","","","clear_screen","","","","","","","","","","","","","","","","","","","","","","","","","",""
"","","","","","canvas-keyboard-response","207","262773","0.0-12.0-0.39","2d_cat_multi_stim_exp1","2022-5-2","12:41:24","25","75","3","9","10","40","30","120","75","20","[""White""]","No","Female","2075107","null","null","","","","fixation","","","","","","","","","","","","","","","","","","","","","","","","","",""
"","","","","","canvas-keyboard-response","208","263283","0.0-12.0-1.39","2d_cat_multi_stim_exp1","2022-5-2","12:41:24","25","75","3","9","10","40","30","120","75","20","[""White""]","No","Female","2075107","null","null","","","","clear_screen","","","","","","","","","","","","","","","","","","","","","","","","","",""
"","","","","","canvas-keyboard-response","209","265216","0.0-12.0-2.39","2d_cat_multi_stim_exp1","2022-5-2","12:41:24","25","75","3","9","10","40","30","120","75","20","[""White""]","No","Female","2075107","1923","i","learn","","","learn_trial","20","90","out","0","1","","","","","","","","","","","","","","","","","","","","",""
"","","","","","canvas-keyboard-response","210","265723","0.0-12.0-3.39","2d_cat_multi_stim_exp1","2022-5-2","12:41:24","25","75","3","9","10","40","30","120","75","20","[""White""]","No","Female","2075107","null","null","learn_feedback","","","learn_feedback","20","90","out","","","","","","","","","","","","","","","","","","","","","","",""
"","","","","","canvas-keyboard-response","211","265786","0.0-12.0-4.39","2d_cat_multi_stim_exp1","2022-5-2","12:41:24","25","75","3","9","10","40","30","120","75","20","[""White""]","No","Female","2075107","null","null","","","","clear_screen","","","","","","","","","","","","","","","","","","","","","","","","","",""
"","","","","","canvas-keyboard-response","212","266294","0.0-12.0-0.40","2d_cat_multi_stim_exp1","2022-5-2","12:41:24","25","75","3","9","10","40","30","120","75","20","[""White""]","No","Female","2075107","null","null","","","","fixation","","","","","","","","","","","","","","","","","","","","","","","","","",""
"","","","","","canvas-keyboard-response","213","266805","0.0-12.0-1.40","2d_cat_multi_stim_exp1","2022-5-2","12:41:24","25","75","3","9","10","40","30","120","75","20","[""White""]","No","Female","2075107","null","null","","","","clear_screen","","","","","","","","","","","","","","","","","","","","","","","","","",""
"","","","","","canvas-keyboard-response","214","268398","0.0-12.0-2.40","2d_cat_multi_stim_exp1","2022-5-2","12:41:24","25","75","3","9","10","40","30","120","75","20","[""White""]","No","Female","2075107","1582","u","learn","","","learn_trial","23.3333","110","out","1","0","","","","","","","","","","","","","","","","","","","","",""
"","","","","","canvas-keyboard-response","215","269407","0.0-12.0-3.40","2d_cat_multi_stim_exp1","2022-5-2","12:41:24","25","75","3","9","10","40","30","120","75","20","[""White""]","No","Female","2075107","null","null","learn_feedback","","","learn_feedback","23.3333","110","out","","","","","","","","","","","","","","","","","","","","","","",""
"","","","","","canvas-keyboard-response","216","269466","0.0-12.0-4.40","2d_cat_multi_stim_exp1","2022-5-2","12:41:24","25","75","3","9","10","40","30","120","75","20","[""White""]","No","Female","2075107","null","null","","","","clear_screen","","","","","","","","","","","","","","","","","","","","","","","","","",""
"","","","","","canvas-keyboard-response","217","269975","0.0-12.0-0.41","2d_cat_multi_stim_exp1","2022-5-2","12:41:24","25","75","3","9","10","40","30","120","75","20","[""White""]","No","Female","2075107","null","null","","","","fixation","","","","","","","","","","","","","","","","","","","","","","","","","",""
"","","","","","canvas-keyboard-response","218","270488","0.0-12.0-1.41","2d_cat_multi_stim_exp1","2022-5-2","12:41:24","25","75","3","9","10","40","30","120","75","20","[""White""]","No","Female","2075107","null","null","","","","clear_screen","","","","","","","","","","","","","","","","","","","","","","","","","",""
"","","","","","canvas-keyboard-response","219","271807","0.0-12.0-2.41","2d_cat_multi_stim_exp1","2022-5-2","12:41:24","25","75","3","9","10","40","30","120","75","20","[""White""]","No","Female","2075107","1309","i","learn","","","learn_trial","22.2971","78.905","in","0","0","","","","","","","","","","","","","","","","","","","","",""
"","","","","","canvas-keyboard-response","220","272818","0.0-12.0-3.41","2d_cat_multi_stim_exp1","2022-5-2","12:41:24","25","75","3","9","10","40","30","120","75","20","[""White""]","No","Female","2075107","null","null","learn_feedback","","","learn_feedback","22.2971","78.905","in","","","","","","","","","","","","","","","","","","","","","","",""
"","","","","","canvas-keyboard-response","221","272879","0.0-12.0-4.41","2d_cat_multi_stim_exp1","2022-5-2","12:41:24","25","75","3","9","10","40","30","120","75","20","[""White""]","No","Female","2075107","null","null","","","","clear_screen","","","","","","","","","","","","","","","","","","","","","","","","","",""
"","","","","","canvas-keyboard-response","222","273389","0.0-12.0-0.42","2d_cat_multi_stim_exp1","2022-5-2","12:41:24","25","75","3","9","10","40","30","120","75","20","[""White""]","No","Female","2075107","null","null","","","","fixation","","","","","","","","","","","","","","","","","","","","","","","","","",""
"","","","","","canvas-keyboard-response","223","273903","0.0-12.0-1.42","2d_cat_multi_stim_exp1","2022-5-2","12:41:24","25","75","3","9","10","40","30","120","75","20","[""White""]","No","Female","2075107","null","null","","","","clear_screen","","","","","","","","","","","","","","","","","","","","","","","","","",""
"","","","","","canvas-keyboard-response","224","274662","0.0-12.0-2.42","2d_cat_multi_stim_exp1","2022-5-2","12:41:24","25","75","3","9","10","40","30","120","75","20","[""White""]","No","Female","2075107","746","i","learn","","","learn_trial","16.6667","30","out","0","1","","","","","","","","","","","","","","","","","","","","",""
"","","","","","canvas-keyboard-response","225","275172","0.0-12.0-3.42","2d_cat_multi_stim_exp1","2022-5-2","12:41:24","25","75","3","9","10","40","30","120","75","20","[""White""]","No","Female","2075107","null","null","learn_feedback","","","learn_feedback","16.6667","30","out","","","","","","","","","","","","","","","","","","","","","","",""
"","","","","","canvas-keyboard-response","226","275233","0.0-12.0-4.42","2d_cat_multi_stim_exp1","2022-5-2","12:41:24","25","75","3","9","10","40","30","120","75","20","[""White""]","No","Female","2075107","null","null","","","","clear_screen","","","","","","","","","","","","","","","","","","","","","","","","","",""
"","","","","","canvas-keyboard-response","227","275736","0.0-12.0-0.43","2d_cat_multi_stim_exp1","2022-5-2","12:41:24","25","75","3","9","10","40","30","120","75","20","[""White""]","No","Female","2075107","null","null","","","","fixation","","","","","","","","","","","","","","","","","","","","","","","","","",""
"","","","","","canvas-keyboard-response","228","276248","0.0-12.0-1.43","2d_cat_multi_stim_exp1","2022-5-2","12:41:24","25","75","3","9","10","40","30","120","75","20","[""White""]","No","Female","2075107","null","null","","","","clear_screen","","","","","","","","","","","","","","","","","","","","","","","","","",""
"","","","","","canvas-keyboard-response","229","276910","0.0-12.0-2.43","2d_cat_multi_stim_exp1","2022-5-2","12:41:24","25","75","3","9","10","40","30","120","75","20","[""White""]","No","Female","2075107","651","u","learn","","","learn_trial","23.3333","90","out","1","0","","","","","","","","","","","","","","","","","","","","",""
"","","","","","canvas-keyboard-response","230","277923","0.0-12.0-3.43","2d_cat_multi_stim_exp1","2022-5-2","12:41:24","25","75","3","9","10","40","30","120","75","20","[""White""]","No","Female","2075107","null","null","learn_feedback","","","learn_feedback","23.3333","90","out","","","","","","","","","","","","","","","","","","","","","","",""
"","","","","","canvas-keyboard-response","231","277984","0.0-12.0-4.43","2d_cat_multi_stim_exp1","2022-5-2","12:41:24","25","75","3","9","10","40","30","120","75","20","[""White""]","No","Female","2075107","null","null","","","","clear_screen","","","","","","","","","","","","","","","","","","","","","","","","","",""
"","","","","","canvas-keyboard-response","232","278495","0.0-12.0-0.44","2d_cat_multi_stim_exp1","2022-5-2","12:41:24","25","75","3","9","10","40","30","120","75","20","[""White""]","No","Female","2075107","null","null","","","","fixation","","","","","","","","","","","","","","","","","","","","","","","","","",""
"","","","","","canvas-keyboard-response","233","279009","0.0-12.0-1.44","2d_cat_multi_stim_exp1","2022-5-2","12:41:24","25","75","3","9","10","40","30","120","75","20","[""White""]","No","Female","2075107","null","null","","","","clear_screen","","","","","","","","","","","","","","","","","","","","","","","","","",""
"","","","","","canvas-keyboard-response","234","281152","0.0-12.0-2.44","2d_cat_multi_stim_exp1","2022-5-2","12:41:24","25","75","3","9","10","40","30","120","75","20","[""White""]","No","Female","2075107","2129","u","learn","","","learn_trial","24.8654","66.0091","in","1","1","","","","","","","","","","","","","","","","","","","","",""
"","","","","","canvas-keyboard-response","235","281660","0.0-12.0-3.44","2d_cat_multi_stim_exp1","2022-5-2","12:41:24","25","75","3","9","10","40","30","120","75","20","[""White""]","No","Female","2075107","null","null","learn_feedback","","","learn_feedback","24.8654","66.0091","in","","","","","","","","","","","","","","","","","","","","","","",""
"","","","","","canvas-keyboard-response","236","281720","0.0-12.0-4.44","2d_cat_multi_stim_exp1","2022-5-2","12:41:24","25","75","3","9","10","40","30","120","75","20","[""White""]","No","Female","2075107","null","null","","","","clear_screen","","","","","","","","","","","","","","","","","","","","","","","","","",""
"","","","","","canvas-keyboard-response","237","282230","0.0-12.0-0.45","2d_cat_multi_stim_exp1","2022-5-2","12:41:24","25","75","3","9","10","40","30","120","75","20","[""White""]","No","Female","2075107","null","null","","","","fixation","","","","","","","","","","","","","","","","","","","","","","","","","",""
"","","","","","canvas-keyboard-response","238","282743","0.0-12.0-1.45","2d_cat_multi_stim_exp1","2022-5-2","12:41:24","25","75","3","9","10","40","30","120","75","20","[""White""]","No","Female","2075107","null","null","","","","clear_screen","","","","","","","","","","","","","","","","","","","","","","","","","",""
"","","","","","canvas-keyboard-response","239","283791","0.0-12.0-2.45","2d_cat_multi_stim_exp1","2022-5-2","12:41:24","25","75","3","9","10","40","30","120","75","20","[""White""]","No","Female","2075107","1039","u","learn","","","learn_trial","25","75","in","1","1","","","","","","","","","","","","","","","","","","","","",""
"","","","","","canvas-keyboard-response","240","284302","0.0-12.0-3.45","2d_cat_multi_stim_exp1","2022-5-2","12:41:24","25","75","3","9","10","40","30","120","75","20","[""White""]","No","Female","2075107","null","null","learn_feedback","","","learn_feedback","25","75","in","","","","","","","","","","","","","","","","","","","","","","",""
"","","","","","canvas-keyboard-response","241","284367","0.0-12.0-4.45","2d_cat_multi_stim_exp1","2022-5-2","12:41:24","25","75","3","9","10","40","30","120","75","20","[""White""]","No","Female","2075107","null","null","","","","clear_screen","","","","","","","","","","","","","","","","","","","","","","","","","",""
"","","","","","canvas-keyboard-response","242","284876","0.0-12.0-0.46","2d_cat_multi_stim_exp1","2022-5-2","12:41:24","25","75","3","9","10","40","30","120","75","20","[""White""]","No","Female","2075107","null","null","","","","fixation","","","","","","","","","","","","","","","","","","","","","","","","","",""
"","","","","","canvas-keyboard-response","243","285387","0.0-12.0-1.46","2d_cat_multi_stim_exp1","2022-5-2","12:41:24","25","75","3","9","10","40","30","120","75","20","[""White""]","No","Female","2075107","null","null","","","","clear_screen","","","","","","","","","","","","","","","","","","","","","","","","","",""
"","","","","","canvas-keyboard-response","244","286496","0.0-12.0-2.46","2d_cat_multi_stim_exp1","2022-5-2","12:41:24","25","75","3","9","10","40","30","120","75","20","[""White""]","No","Female","2075107","1098","u","learn","","","learn_trial","22.1081","77.3943","in","1","1","","","","","","","","","","","","","","","","","","","","",""
"","","","","","canvas-keyboard-response","245","287004","0.0-12.0-3.46","2d_cat_multi_stim_exp1","2022-5-2","12:41:24","25","75","3","9","10","40","30","120","75","20","[""White""]","No","Female","2075107","null","null","learn_feedback","","","learn_feedback","22.1081","77.3943","in","","","","","","","","","","","","","","","","","","","","","","",""
"","","","","","canvas-keyboard-response","246","287062","0.0-12.0-4.46","2d_cat_multi_stim_exp1","2022-5-2","12:41:24","25","75","3","9","10","40","30","120","75","20","[""White""]","No","Female","2075107","null","null","","","","clear_screen","","","","","","","","","","","","","","","","","","","","","","","","","",""
"","","","","","canvas-keyboard-response","247","287574","0.0-12.0-0.47","2d_cat_multi_stim_exp1","2022-5-2","12:41:24","25","75","3","9","10","40","30","120","75","20","[""White""]","No","Female","2075107","null","null","","","","fixation","","","","","","","","","","","","","","","","","","","","","","","","","",""
"","","","","","canvas-keyboard-response","248","288085","0.0-12.0-1.47","2d_cat_multi_stim_exp1","2022-5-2","12:41:24","25","75","3","9","10","40","30","120","75","20","[""White""]","No","Female","2075107","null","null","","","","clear_screen","","","","","","","","","","","","","","","","","","","","","","","","","",""
"","","","","","canvas-keyboard-response","249","288631","0.0-12.0-2.47","2d_cat_multi_stim_exp1","2022-5-2","12:41:24","25","75","3","9","10","40","30","120","75","20","[""White""]","No","Female","2075107","539","u","learn","","","learn_trial","25","75","in","1","1","","","","","","","","","","","","","","","","","","","","",""
"","","","","","canvas-keyboard-response","250","289141","0.0-12.0-3.47","2d_cat_multi_stim_exp1","2022-5-2","12:41:24","25","75","3","9","10","40","30","120","75","20","[""White""]","No","Female","2075107","null","null","learn_feedback","","","learn_feedback","25","75","in","","","","","","","","","","","","","","","","","","","","","","",""
"","","","","","canvas-keyboard-response","251","289200","0.0-12.0-4.47","2d_cat_multi_stim_exp1","2022-5-2","12:41:24","25","75","3","9","10","40","30","120","75","20","[""White""]","No","Female","2075107","null","null","","","","clear_screen","","","","","","","","","","","","","","","","","","","","","","","","","",""
"","","","","","canvas-keyboard-response","252","289711","0.0-12.0-0.48","2d_cat_multi_stim_exp1","2022-5-2","12:41:24","25","75","3","9","10","40","30","120","75","20","[""White""]","No","Female","2075107","null","null","","","","fixation","","","","","","","","","","","","","","","","","","","","","","","","","",""
"","","","","","canvas-keyboard-response","253","290224","0.0-12.0-1.48","2d_cat_multi_stim_exp1","2022-5-2","12:41:24","25","75","3","9","10","40","30","120","75","20","[""White""]","No","Female","2075107","null","null","","","","clear_screen","","","","","","","","","","","","","","","","","","","","","","","","","",""
"","","","","","canvas-keyboard-response","254","291704","0.0-12.0-2.48","2d_cat_multi_stim_exp1","2022-5-2","12:41:24","25","75","3","9","10","40","30","120","75","20","[""White""]","No","Female","2075107","1471","i","learn","","","learn_trial","40","30","out","0","1","","","","","","","","","","","","","","","","","","","","",""
"","","","","","canvas-keyboard-response","255","292213","0.0-12.0-3.48","2d_cat_multi_stim_exp1","2022-5-2","12:41:24","25","75","3","9","10","40","30","120","75","20","[""White""]","No","Female","2075107","null","null","learn_feedback","","","learn_feedback","40","30","out","","","","","","","","","","","","","","","","","","","","","","",""
"","","","","","canvas-keyboard-response","256","292269","0.0-12.0-4.48","2d_cat_multi_stim_exp1","2022-5-2","12:41:24","25","75","3","9","10","40","30","120","75","20","[""White""]","No","Female","2075107","null","null","","","","clear_screen","","","","","","","","","","","","","","","","","","","","","","","","","",""
"","","","","","canvas-keyboard-response","257","292780","0.0-12.0-0.49","2d_cat_multi_stim_exp1","2022-5-2","12:41:24","25","75","3","9","10","40","30","120","75","20","[""White""]","No","Female","2075107","null","null","","","","fixation","","","","","","","","","","","","","","","","","","","","","","","","","",""
"","","","","","canvas-keyboard-response","258","293291","0.0-12.0-1.49","2d_cat_multi_stim_exp1","2022-5-2","12:41:24","25","75","3","9","10","40","30","120","75","20","[""White""]","No","Female","2075107","null","null","","","","clear_screen","","","","","","","","","","","","","","","","","","","","","","","","","",""
"","","","","","canvas-keyboard-response","259","294671","0.0-12.0-2.49","2d_cat_multi_stim_exp1","2022-5-2","12:41:24","25","75","3","9","10","40","30","120","75","20","[""White""]","No","Female","2075107","1371","i","learn","","","learn_trial","20","110","out","0","1","","","","","","","","","","","","","","","","","","","","",""
"","","","","","canvas-keyboard-response","260","295180","0.0-12.0-3.49","2d_cat_multi_stim_exp1","2022-5-2","12:41:24","25","75","3","9","10","40","30","120","75","20","[""White""]","No","Female","2075107","null","null","learn_feedback","","","learn_feedback","20","110","out","","","","","","","","","","","","","","","","","","","","","","",""
"","","","","","canvas-keyboard-response","261","295239","0.0-12.0-4.49","2d_cat_multi_stim_exp1","2022-5-2","12:41:24","25","75","3","9","10","40","30","120","75","20","[""White""]","No","Female","2075107","null","null","","","","clear_screen","","","","","","","","","","","","","","","","","","","","","","","","","",""
"","","","","","canvas-keyboard-response","262","295748","0.0-12.0-0.50","2d_cat_multi_stim_exp1","2022-5-2","12:41:24","25","75","3","9","10","40","30","120","75","20","[""White""]","No","Female","2075107","null","null","","","","fixation","","","","","","","","","","","","","","","","","","","","","","","","","",""
"","","","","","canvas-keyboard-response","263","296263","0.0-12.0-1.50","2d_cat_multi_stim_exp1","2022-5-2","12:41:24","25","75","3","9","10","40","30","120","75","20","[""White""]","No","Female","2075107","null","null","","","","clear_screen","","","","","","","","","","","","","","","","","","","","","","","","","",""
"","","","","","canvas-keyboard-response","264","296984","0.0-12.0-2.50","2d_cat_multi_stim_exp1","2022-5-2","12:41:24","25","75","3","9","10","40","30","120","75","20","[""White""]","No","Female","2075107","711","u","learn","","","learn_trial","25","75","in","1","1","","","","","","","","","","","","","","","","","","","","",""
"","","","","","canvas-keyboard-response","265","297493","0.0-12.0-3.50","2d_cat_multi_stim_exp1","2022-5-2","12:41:24","25","75","3","9","10","40","30","120","75","20","[""White""]","No","Female","2075107","null","null","learn_feedback","","","learn_feedback","25","75","in","","","","","","","","","","","","","","","","","","","","","","",""
"","","","","","canvas-keyboard-response","266","297556","0.0-12.0-4.50","2d_cat_multi_stim_exp1","2022-5-2","12:41:24","25","75","3","9","10","40","30","120","75","20","[""White""]","No","Female","2075107","null","null","","","","clear_screen","","","","","","","","","","","","","","","","","","","","","","","","","",""
"","","","","","canvas-keyboard-response","267","298065","0.0-12.0-0.51","2d_cat_multi_stim_exp1","2022-5-2","12:41:24","25","75","3","9","10","40","30","120","75","20","[""White""]","No","Female","2075107","null","null","","","","fixation","","","","","","","","","","","","","","","","","","","","","","","","","",""
"","","","","","canvas-keyboard-response","268","298579","0.0-12.0-1.51","2d_cat_multi_stim_exp1","2022-5-2","12:41:24","25","75","3","9","10","40","30","120","75","20","[""White""]","No","Female","2075107","null","null","","","","clear_screen","","","","","","","","","","","","","","","","","","","","","","","","","",""
"","","","","","canvas-keyboard-response","269","299574","0.0-12.0-2.51","2d_cat_multi_stim_exp1","2022-5-2","12:41:24","25","75","3","9","10","40","30","120","75","20","[""White""]","No","Female","2075107","984","i","learn","","","learn_trial","33.3333","50","out","0","1","","","","","","","","","","","","","","","","","","","","",""
"","","","","","canvas-keyboard-response","270","300086","0.0-12.0-3.51","2d_cat_multi_stim_exp1","2022-5-2","12:41:24","25","75","3","9","10","40","30","120","75","20","[""White""]","No","Female","2075107","null","null","learn_feedback","","","learn_feedback","33.3333","50","out","","","","","","","","","","","","","","","","","","","","","","",""
"","","","","","canvas-keyboard-response","271","300143","0.0-12.0-4.51","2d_cat_multi_stim_exp1","2022-5-2","12:41:24","25","75","3","9","10","40","30","120","75","20","[""White""]","No","Female","2075107","null","null","","","","clear_screen","","","","","","","","","","","","","","","","","","","","","","","","","",""
"","","","","","canvas-keyboard-response","272","300651","0.0-12.0-0.52","2d_cat_multi_stim_exp1","2022-5-2","12:41:24","25","75","3","9","10","40","30","120","75","20","[""White""]","No","Female","2075107","null","null","","","","fixation","","","","","","","","","","","","","","","","","","","","","","","","","",""
"","","","","","canvas-keyboard-response","273","301165","0.0-12.0-1.52","2d_cat_multi_stim_exp1","2022-5-2","12:41:24","25","75","3","9","10","40","30","120","75","20","[""White""]","No","Female","2075107","null","null","","","","clear_screen","","","","","","","","","","","","","","","","","","","","","","","","","",""
"","","","","","canvas-keyboard-response","274","302495","0.0-12.0-2.52","2d_cat_multi_stim_exp1","2022-5-2","12:41:24","25","75","3","9","10","40","30","120","75","20","[""White""]","No","Female","2075107","1319","u","learn","","","learn_trial","25","75","in","1","1","","","","","","","","","","","","","","","","","","","","",""
"","","","","","canvas-keyboard-response","275","303006","0.0-12.0-3.52","2d_cat_multi_stim_exp1","2022-5-2","12:41:24","25","75","3","9","10","40","30","120","75","20","[""White""]","No","Female","2075107","null","null","learn_feedback","","","learn_feedback","25","75","in","","","","","","","","","","","","","","","","","","","","","","",""
"","","","","","canvas-keyboard-response","276","303064","0.0-12.0-4.52","2d_cat_multi_stim_exp1","2022-5-2","12:41:24","25","75","3","9","10","40","30","120","75","20","[""White""]","No","Female","2075107","null","null","","","","clear_screen","","","","","","","","","","","","","","","","","","","","","","","","","",""
"","","","","","canvas-keyboard-response","277","303573","0.0-12.0-0.53","2d_cat_multi_stim_exp1","2022-5-2","12:41:24","25","75","3","9","10","40","30","120","75","20","[""White""]","No","Female","2075107","null","null","","","","fixation","","","","","","","","","","","","","","","","","","","","","","","","","",""
"","","","","","canvas-keyboard-response","278","304085","0.0-12.0-1.53","2d_cat_multi_stim_exp1","2022-5-2","12:41:24","25","75","3","9","10","40","30","120","75","20","[""White""]","No","Female","2075107","null","null","","","","clear_screen","","","","","","","","","","","","","","","","","","","","","","","","","",""
"","","","","","canvas-keyboard-response","279","304822","0.0-12.0-2.53","2d_cat_multi_stim_exp1","2022-5-2","12:41:24","25","75","3","9","10","40","30","120","75","20","[""White""]","No","Female","2075107","729","i","learn","","","learn_trial","13.3333","50","out","0","1","","","","","","","","","","","","","","","","","","","","",""
"","","","","","canvas-keyboard-response","280","305334","0.0-12.0-3.53","2d_cat_multi_stim_exp1","2022-5-2","12:41:24","25","75","3","9","10","40","30","120","75","20","[""White""]","No","Female","2075107","null","null","learn_feedback","","","learn_feedback","13.3333","50","out","","","","","","","","","","","","","","","","","","","","","","",""
"","","","","","canvas-keyboard-response","281","305396","0.0-12.0-4.53","2d_cat_multi_stim_exp1","2022-5-2","12:41:24","25","75","3","9","10","40","30","120","75","20","[""White""]","No","Female","2075107","null","null","","","","clear_screen","","","","","","","","","","","","","","","","","","","","","","","","","",""
"","","","","","canvas-keyboard-response","282","305904","0.0-12.0-0.54","2d_cat_multi_stim_exp1","2022-5-2","12:41:24","25","75","3","9","10","40","30","120","75","20","[""White""]","No","Female","2075107","null","null","","","","fixation","","","","","","","","","","","","","","","","","","","","","","","","","",""
"","","","","","canvas-keyboard-response","283","306413","0.0-12.0-1.54","2d_cat_multi_stim_exp1","2022-5-2","12:41:24","25","75","3","9","10","40","30","120","75","20","[""White""]","No","Female","2075107","null","null","","","","clear_screen","","","","","","","","","","","","","","","","","","","","","","","","","",""
"","","","","","canvas-keyboard-response","284","307119","0.0-12.0-2.54","2d_cat_multi_stim_exp1","2022-5-2","12:41:24","25","75","3","9","10","40","30","120","75","20","[""White""]","No","Female","2075107","697","u","learn","","","learn_trial","26.8705","67.9635","in","1","1","","","","","","","","","","","","","","","","","","","","",""
"","","","","","canvas-keyboard-response","285","307630","0.0-12.0-3.54","2d_cat_multi_stim_exp1","2022-5-2","12:41:24","25","75","3","9","10","40","30","120","75","20","[""White""]","No","Female","2075107","null","null","learn_feedback","","","learn_feedback","26.8705","67.9635","in","","","","","","","","","","","","","","","","","","","","","","",""
"","","","","","canvas-keyboard-response","286","307690","0.0-12.0-4.54","2d_cat_multi_stim_exp1","2022-5-2","12:41:24","25","75","3","9","10","40","30","120","75","20","[""White""]","No","Female","2075107","null","null","","","","clear_screen","","","","","","","","","","","","","","","","","","","","","","","","","",""
"","","","","","canvas-keyboard-response","287","308201","0.0-12.0-0.55","2d_cat_multi_stim_exp1","2022-5-2","12:41:24","25","75","3","9","10","40","30","120","75","20","[""White""]","No","Female","2075107","null","null","","","","fixation","","","","","","","","","","","","","","","","","","","","","","","","","",""
"","","","","","canvas-keyboard-response","288","308715","0.0-12.0-1.55","2d_cat_multi_stim_exp1","2022-5-2","12:41:24","25","75","3","9","10","40","30","120","75","20","[""White""]","No","Female","2075107","null","null","","","","clear_screen","","","","","","","","","","","","","","","","","","","","","","","","","",""
"","","","","","canvas-keyboard-response","289","309871","0.0-12.0-2.55","2d_cat_multi_stim_exp1","2022-5-2","12:41:24","25","75","3","9","10","40","30","120","75","20","[""White""]","No","Female","2075107","1147","i","learn","","","learn_trial","30","110","out","0","1","","","","","","","","","","","","","","","","","","","","",""
"","","","","","canvas-keyboard-response","290","310380","0.0-12.0-3.55","2d_cat_multi_stim_exp1","2022-5-2","12:41:24","25","75","3","9","10","40","30","120","75","20","[""White""]","No","Female","2075107","null","null","learn_feedback","","","learn_feedback","30","110","out","","","","","","","","","","","","","","","","","","","","","","",""
"","","","","","canvas-keyboard-response","291","310442","0.0-12.0-4.55","2d_cat_multi_stim_exp1","2022-5-2","12:41:24","25","75","3","9","10","40","30","120","75","20","[""White""]","No","Female","2075107","null","null","","","","clear_screen","","","","","","","","","","","","","","","","","","","","","","","","","",""
"","","","","","canvas-keyboard-response","292","310952","0.0-12.0-0.56","2d_cat_multi_stim_exp1","2022-5-2","12:41:24","25","75","3","9","10","40","30","120","75","20","[""White""]","No","Female","2075107","null","null","","","","fixation","","","","","","","","","","","","","","","","","","","","","","","","","",""
"","","","","","canvas-keyboard-response","293","311458","0.0-12.0-1.56","2d_cat_multi_stim_exp1","2022-5-2","12:41:24","25","75","3","9","10","40","30","120","75","20","[""White""]","No","Female","2075107","null","null","","","","clear_screen","","","","","","","","","","","","","","","","","","","","","","","","","",""
"","","","","","canvas-keyboard-response","294","312655","0.0-12.0-2.56","2d_cat_multi_stim_exp1","2022-5-2","12:41:24","25","75","3","9","10","40","30","120","75","20","[""White""]","No","Female","2075107","1183","u","learn","","","learn_trial","25","75","in","1","1","","","","","","","","","","","","","","","","","","","","",""
"","","","","","canvas-keyboard-response","295","313167","0.0-12.0-3.56","2d_cat_multi_stim_exp1","2022-5-2","12:41:24","25","75","3","9","10","40","30","120","75","20","[""White""]","No","Female","2075107","null","null","learn_feedback","","","learn_feedback","25","75","in","","","","","","","","","","","","","","","","","","","","","","",""
"","","","","","canvas-keyboard-response","296","313229","0.0-12.0-4.56","2d_cat_multi_stim_exp1","2022-5-2","12:41:24","25","75","3","9","10","40","30","120","75","20","[""White""]","No","Female","2075107","null","null","","","","clear_screen","","","","","","","","","","","","","","","","","","","","","","","","","",""
"","","","","","canvas-keyboard-response","297","313738","0.0-12.0-0.57","2d_cat_multi_stim_exp1","2022-5-2","12:41:24","25","75","3","9","10","40","30","120","75","20","[""White""]","No","Female","2075107","null","null","","","","fixation","","","","","","","","","","","","","","","","","","","","","","","","","",""
