"success","timeout","failed_images","failed_audio","failed_video","trial_type","trial_index","time_elapsed","internal_node_id","exp_name","date","time","angle_mean_in","radius_mean_in","angle_sd_in","radius_sd_in","angle_min_out","angle_max_out","radius_min_out","radius_max_out","sub_n","age","race","ethnicity","gender","exp_duration","rt","response","exp_trial_type","stimulus","view_history","screen_id","angle","radius","distribution","choice","correct","order","angle_a","radius_a","angle_b","radius_b","jkl_correct","transfer_trial_type","choice_set","abc_correct","tc_correct","tc_angle","tdc_a","tdc_b","tdc_c","pair","category_a","category_b","category_c","angle_c","radius_c","question_order"
"true","false","[]","[]","[]","preload","0","23","0.0-0.0","2d_cat_multi_stim_exp1","2022-4-21","15:2:31","25","75","3","9","10","40","30","120","50","20","[""White""]","No","Female","1890001","","","","","","","","","","","","","","","","","","","","","","","","","","","","","","","",""
"","","","","","survey-html-form","1","6592","0.0-1.0","2d_cat_multi_stim_exp1","2022-4-21","15:2:31","25","75","3","9","10","40","30","120","50","20","[""White""]","No","Female","1890001","6553","{""response"":""50""}","enter-sub-number","","","","","","","","","","","","","","","","","","","","","","","","","","","","",""
"true","","","","","fullscreen","2","8719","0.0-2.0","2d_cat_multi_stim_exp1","2022-4-21","15:2:31","25","75","3","9","10","40","30","120","50","20","[""White""]","No","Female","1890001","","","","","","","","","","","","","","","","","","","","","","","","","","","","","","","",""
"","","","","","image-button-response","3","18336","0.0-3.0","2d_cat_multi_stim_exp1","2022-4-21","15:2:31","25","75","3","9","10","40","30","120","50","20","[""White""]","No","Female","1890001","9604","0","","consent.png","","","","","","","","","","","","","","","","","","","","","","","","","","","",""
"","","","","","html-button-response","4","30895","0.0-4.0","2d_cat_multi_stim_exp1","2022-4-21","15:2:31","25","75","3","9","10","40","30","120","50","20","[""White""]","No","Female","1890001","12554","0","","<div style= ""font-size:25px;"" <p> <strong> Welcome to the experiment! </strong><br> <p style=""color:#8B0000; font-size:25px;""><strong> Please do NOT exit full screen until you are done with the experiment. </strong> </p><p style=""font-size:25px;color:#8B0000;""> <strong> The experiment will be canceled and your data will be lost <br> if you try to go back or refresh the page at any point during the experiment.</strong> </p><br><p> <strong> Thanks in advance for your contribution to our research! </strong></p>","","","","","","","","","","","","","","","","","","","","","","","","","","","",""
"","","","","","instructions","5","94166","0.0-5.0","2d_cat_multi_stim_exp1","2022-4-21","15:2:31","25","75","3","9","10","40","30","120","50","20","[""White""]","No","Female","1890001","63266","","","","[{""page_index"":0,""viewing_time"":15275},{""page_index"":1,""viewing_time"":3385},{""page_index"":0,""viewing_time"":2752},{""page_index"":1,""viewing_time"":1200},{""page_index"":2,""viewing_time"":19087},{""page_index"":3,""viewing_time"":2744},{""page_index"":2,""viewing_time"":1112},{""page_index"":3,""viewing_time"":17711}]","instructions_1","","","","","","","","","","","","","","","","","","","","","","","","","",""
"","","","","","instructions","6","96319","0.0-6.0","2d_cat_multi_stim_exp1","2022-4-21","15:2:31","25","75","3","9","10","40","30","120","50","20","[""White""]","No","Female","1890001","2149","","","","[{""page_index"":0,""viewing_time"":2148}]","Click to see the kinds of turtles that will appear in the study.","","","","","","","","","","","","","","","","","","","","","","","","","",""
"","","","","","canvas-keyboard-response","7","111336","0.0-7.0","2d_cat_multi_stim_exp1","2022-4-21","15:2:31","25","75","3","9","10","40","30","120","50","20","[""White""]","No","Female","1890001","null","null","","","","demo_range","","","","","","","","","","","","","","","","","","","","","","","","","",""
"","","","","","instructions","8","116287","0.0-8.0","2d_cat_multi_stim_exp1","2022-4-21","15:2:31","25","75","3","9","10","40","30","120","50","20","[""White""]","No","Female","1890001","4448","","","","[{""page_index"":0,""viewing_time"":4448}]","Click to see some turtles in the subspecies.","","","","","","","","","","","","","","","","","","","","","","","","","",""
"","","","","","canvas-keyboard-response","9","131304","0.0-9.0","2d_cat_multi_stim_exp1","2022-4-21","15:2:31","25","75","3","9","10","40","30","120","50","20","[""White""]","No","Female","1890001","null","null","","","","demo_in","","","","","","","","","","","","","","","","","","","","","","","","","",""
"","","","","","instructions","10","172246","0.0-10.0","2d_cat_multi_stim_exp1","2022-4-21","15:2:31","25","75","3","9","10","40","30","120","50","20","[""White""]","No","Female","1890001","40440","","","","[{""page_index"":0,""viewing_time"":12233},{""page_index"":1,""viewing_time"":22168},{""page_index"":2,""viewing_time"":6039}]","instructions_2","","","","","","","","","","","","","","","","","","","","","","","","","",""
"","","","","","instructions","11","173397","0.0-11.0","2d_cat_multi_stim_exp1","2022-4-21","15:2:31","25","75","3","9","10","40","30","120","50","20","[""White""]","No","Female","1890001","1149","","","","[{""page_index"":0,""viewing_time"":1148}]","Click to begin the first phase of the experiment.","","","","","","","","","","","","","","","","","","","","","","","","","",""
"","","","","","canvas-keyboard-response","12","173907","0.0-12.0-0.0","2d_cat_multi_stim_exp1","2022-4-21","15:2:31","25","75","3","9","10","40","30","120","50","20","[""White""]","No","Female","1890001","null","null","","","","fixation","","","","","","","","","","","","","","","","","","","","","","","","","",""
"","","","","","canvas-keyboard-response","13","174422","0.0-12.0-1.0","2d_cat_multi_stim_exp1","2022-4-21","15:2:31","25","75","3","9","10","40","30","120","50","20","[""White""]","No","Female","1890001","null","null","","","","clear_screen","","","","","","","","","","","","","","","","","","","","","","","","","",""
"","","","","","canvas-keyboard-response","14","178807","0.0-12.0-2.0","2d_cat_multi_stim_exp1","2022-4-21","15:2:31","25","75","3","9","10","40","30","120","50","20","[""White""]","No","Female","1890001","4375","i","learn","","","learn_trial","36.6667","50","out","0","1","","","","","","","","","","","","","","","","","","","","",""
"","","","","","canvas-keyboard-response","15","179319","0.0-12.0-3.0","2d_cat_multi_stim_exp1","2022-4-21","15:2:31","25","75","3","9","10","40","30","120","50","20","[""White""]","No","Female","1890001","null","null","learn_feedback","","","learn_feedback","36.6667","50","out","","","","","","","","","","","","","","","","","","","","","","",""
"","","","","","canvas-keyboard-response","16","179379","0.0-12.0-4.0","2d_cat_multi_stim_exp1","2022-4-21","15:2:31","25","75","3","9","10","40","30","120","50","20","[""White""]","No","Female","1890001","null","null","","","","clear_screen","","","","","","","","","","","","","","","","","","","","","","","","","",""
"","","","","","canvas-keyboard-response","17","179888","0.0-12.0-0.1","2d_cat_multi_stim_exp1","2022-4-21","15:2:31","25","75","3","9","10","40","30","120","50","20","[""White""]","No","Female","1890001","null","null","","","","fixation","","","","","","","","","","","","","","","","","","","","","","","","","",""
"","","","","","canvas-keyboard-response","18","180400","0.0-12.0-1.1","2d_cat_multi_stim_exp1","2022-4-21","15:2:31","25","75","3","9","10","40","30","120","50","20","[""White""]","No","Female","1890001","null","null","","","","clear_screen","","","","","","","","","","","","","","","","","","","","","","","","","",""
"","","","","","canvas-keyboard-response","19","183839","0.0-12.0-2.1","2d_cat_multi_stim_exp1","2022-4-21","15:2:31","25","75","3","9","10","40","30","120","50","20","[""White""]","No","Female","1890001","3429","i","learn","","","learn_trial","30","50","out","0","1","","","","","","","","","","","","","","","","","","","","",""
"","","","","","canvas-keyboard-response","20","184349","0.0-12.0-3.1","2d_cat_multi_stim_exp1","2022-4-21","15:2:31","25","75","3","9","10","40","30","120","50","20","[""White""]","No","Female","1890001","null","null","learn_feedback","","","learn_feedback","30","50","out","","","","","","","","","","","","","","","","","","","","","","",""
"","","","","","canvas-keyboard-response","21","184407","0.0-12.0-4.1","2d_cat_multi_stim_exp1","2022-4-21","15:2:31","25","75","3","9","10","40","30","120","50","20","[""White""]","No","Female","1890001","null","null","","","","clear_screen","","","","","","","","","","","","","","","","","","","","","","","","","",""
"","","","","","canvas-keyboard-response","22","184919","0.0-12.0-0.2","2d_cat_multi_stim_exp1","2022-4-21","15:2:31","25","75","3","9","10","40","30","120","50","20","[""White""]","No","Female","1890001","null","null","","","","fixation","","","","","","","","","","","","","","","","","","","","","","","","","",""
"","","","","","canvas-keyboard-response","23","185430","0.0-12.0-1.2","2d_cat_multi_stim_exp1","2022-4-21","15:2:31","25","75","3","9","10","40","30","120","50","20","[""White""]","No","Female","1890001","null","null","","","","clear_screen","","","","","","","","","","","","","","","","","","","","","","","","","",""
"","","","","","canvas-keyboard-response","24","186870","0.0-12.0-2.2","2d_cat_multi_stim_exp1","2022-4-21","15:2:31","25","75","3","9","10","40","30","120","50","20","[""White""]","No","Female","1890001","1429","i","learn","","","learn_trial","40","30","out","0","1","","","","","","","","","","","","","","","","","","","","",""
"","","","","","canvas-keyboard-response","25","187382","0.0-12.0-3.2","2d_cat_multi_stim_exp1","2022-4-21","15:2:31","25","75","3","9","10","40","30","120","50","20","[""White""]","No","Female","1890001","null","null","learn_feedback","","","learn_feedback","40","30","out","","","","","","","","","","","","","","","","","","","","","","",""
"","","","","","canvas-keyboard-response","26","187446","0.0-12.0-4.2","2d_cat_multi_stim_exp1","2022-4-21","15:2:31","25","75","3","9","10","40","30","120","50","20","[""White""]","No","Female","1890001","null","null","","","","clear_screen","","","","","","","","","","","","","","","","","","","","","","","","","",""
"","","","","","canvas-keyboard-response","27","187956","0.0-12.0-0.3","2d_cat_multi_stim_exp1","2022-4-21","15:2:31","25","75","3","9","10","40","30","120","50","20","[""White""]","No","Female","1890001","null","null","","","","fixation","","","","","","","","","","","","","","","","","","","","","","","","","",""
"","","","","","canvas-keyboard-response","28","188469","0.0-12.0-1.3","2d_cat_multi_stim_exp1","2022-4-21","15:2:31","25","75","3","9","10","40","30","120","50","20","[""White""]","No","Female","1890001","null","null","","","","clear_screen","","","","","","","","","","","","","","","","","","","","","","","","","",""
"","","","","","canvas-keyboard-response","29","190454","0.0-12.0-2.3","2d_cat_multi_stim_exp1","2022-4-21","15:2:31","25","75","3","9","10","40","30","120","50","20","[""White""]","No","Female","1890001","1976","u","learn","","","learn_trial","33.3333","50","out","1","0","","","","","","","","","","","","","","","","","","","","",""
"","","","","","canvas-keyboard-response","30","191462","0.0-12.0-3.3","2d_cat_multi_stim_exp1","2022-4-21","15:2:31","25","75","3","9","10","40","30","120","50","20","[""White""]","No","Female","1890001","null","null","learn_feedback","","","learn_feedback","33.3333","50","out","","","","","","","","","","","","","","","","","","","","","","",""
"","","","","","canvas-keyboard-response","31","191523","0.0-12.0-4.3","2d_cat_multi_stim_exp1","2022-4-21","15:2:31","25","75","3","9","10","40","30","120","50","20","[""White""]","No","Female","1890001","null","null","","","","clear_screen","","","","","","","","","","","","","","","","","","","","","","","","","",""
"","","","","","canvas-keyboard-response","32","192032","0.0-12.0-0.4","2d_cat_multi_stim_exp1","2022-4-21","15:2:31","25","75","3","9","10","40","30","120","50","20","[""White""]","No","Female","1890001","null","null","","","","fixation","","","","","","","","","","","","","","","","","","","","","","","","","",""
"","","","","","canvas-keyboard-response","33","192546","0.0-12.0-1.4","2d_cat_multi_stim_exp1","2022-4-21","15:2:31","25","75","3","9","10","40","30","120","50","20","[""White""]","No","Female","1890001","null","null","","","","clear_screen","","","","","","","","","","","","","","","","","","","","","","","","","",""
"","","","","","canvas-keyboard-response","34","194543","0.0-12.0-2.4","2d_cat_multi_stim_exp1","2022-4-21","15:2:31","25","75","3","9","10","40","30","120","50","20","[""White""]","No","Female","1890001","1989","u","learn","","","learn_trial","16.6667","40","out","1","0","","","","","","","","","","","","","","","","","","","","",""
"","","","","","canvas-keyboard-response","35","195554","0.0-12.0-3.4","2d_cat_multi_stim_exp1","2022-4-21","15:2:31","25","75","3","9","10","40","30","120","50","20","[""White""]","No","Female","1890001","null","null","learn_feedback","","","learn_feedback","16.6667","40","out","","","","","","","","","","","","","","","","","","","","","","",""
"","","","","","canvas-keyboard-response","36","195612","0.0-12.0-4.4","2d_cat_multi_stim_exp1","2022-4-21","15:2:31","25","75","3","9","10","40","30","120","50","20","[""White""]","No","Female","1890001","null","null","","","","clear_screen","","","","","","","","","","","","","","","","","","","","","","","","","",""
"","","","","","canvas-keyboard-response","37","196121","0.0-12.0-0.5","2d_cat_multi_stim_exp1","2022-4-21","15:2:31","25","75","3","9","10","40","30","120","50","20","[""White""]","No","Female","1890001","null","null","","","","fixation","","","","","","","","","","","","","","","","","","","","","","","","","",""
"","","","","","canvas-keyboard-response","38","196629","0.0-12.0-1.5","2d_cat_multi_stim_exp1","2022-4-21","15:2:31","25","75","3","9","10","40","30","120","50","20","[""White""]","No","Female","1890001","null","null","","","","clear_screen","","","","","","","","","","","","","","","","","","","","","","","","","",""
"","","","","","canvas-keyboard-response","39","197103","0.0-12.0-2.5","2d_cat_multi_stim_exp1","2022-4-21","15:2:31","25","75","3","9","10","40","30","120","50","20","[""White""]","No","Female","1890001","465","i","learn","","","learn_trial","23.8209","66.7243","in","0","0","","","","","","","","","","","","","","","","","","","","",""
"","","","","","canvas-keyboard-response","40","198111","0.0-12.0-3.5","2d_cat_multi_stim_exp1","2022-4-21","15:2:31","25","75","3","9","10","40","30","120","50","20","[""White""]","No","Female","1890001","null","null","learn_feedback","","","learn_feedback","23.8209","66.7243","in","","","","","","","","","","","","","","","","","","","","","","",""
"","","","","","canvas-keyboard-response","41","198170","0.0-12.0-4.5","2d_cat_multi_stim_exp1","2022-4-21","15:2:31","25","75","3","9","10","40","30","120","50","20","[""White""]","No","Female","1890001","null","null","","","","clear_screen","","","","","","","","","","","","","","","","","","","","","","","","","",""
"","","","","","canvas-keyboard-response","42","198678","0.0-12.0-0.6","2d_cat_multi_stim_exp1","2022-4-21","15:2:31","25","75","3","9","10","40","30","120","50","20","[""White""]","No","Female","1890001","null","null","","","","fixation","","","","","","","","","","","","","","","","","","","","","","","","","",""
"","","","","","canvas-keyboard-response","43","199188","0.0-12.0-1.6","2d_cat_multi_stim_exp1","2022-4-21","15:2:31","25","75","3","9","10","40","30","120","50","20","[""White""]","No","Female","1890001","null","null","","","","clear_screen","","","","","","","","","","","","","","","","","","","","","","","","","",""
"","","","","","canvas-keyboard-response","44","201718","0.0-12.0-2.6","2d_cat_multi_stim_exp1","2022-4-21","15:2:31","25","75","3","9","10","40","30","120","50","20","[""White""]","No","Female","1890001","2519","i","learn","","","learn_trial","20","80","out","0","1","","","","","","","","","","","","","","","","","","","","",""
"","","","","","canvas-keyboard-response","45","202226","0.0-12.0-3.6","2d_cat_multi_stim_exp1","2022-4-21","15:2:31","25","75","3","9","10","40","30","120","50","20","[""White""]","No","Female","1890001","null","null","learn_feedback","","","learn_feedback","20","80","out","","","","","","","","","","","","","","","","","","","","","","",""
"","","","","","canvas-keyboard-response","46","202286","0.0-12.0-4.6","2d_cat_multi_stim_exp1","2022-4-21","15:2:31","25","75","3","9","10","40","30","120","50","20","[""White""]","No","Female","1890001","null","null","","","","clear_screen","","","","","","","","","","","","","","","","","","","","","","","","","",""
"","","","","","canvas-keyboard-response","47","202796","0.0-12.0-0.7","2d_cat_multi_stim_exp1","2022-4-21","15:2:31","25","75","3","9","10","40","30","120","50","20","[""White""]","No","Female","1890001","null","null","","","","fixation","","","","","","","","","","","","","","","","","","","","","","","","","",""
"","","","","","canvas-keyboard-response","48","203306","0.0-12.0-1.7","2d_cat_multi_stim_exp1","2022-4-21","15:2:31","25","75","3","9","10","40","30","120","50","20","[""White""]","No","Female","1890001","null","null","","","","clear_screen","","","","","","","","","","","","","","","","","","","","","","","","","",""
"","","","","","canvas-keyboard-response","49","205982","0.0-12.0-2.7","2d_cat_multi_stim_exp1","2022-4-21","15:2:31","25","75","3","9","10","40","30","120","50","20","[""White""]","No","Female","1890001","2664","i","learn","","","learn_trial","25","75","in","0","0","","","","","","","","","","","","","","","","","","","","",""
"","","","","","canvas-keyboard-response","50","206992","0.0-12.0-3.7","2d_cat_multi_stim_exp1","2022-4-21","15:2:31","25","75","3","9","10","40","30","120","50","20","[""White""]","No","Female","1890001","null","null","learn_feedback","","","learn_feedback","25","75","in","","","","","","","","","","","","","","","","","","","","","","",""
"","","","","","canvas-keyboard-response","51","207051","0.0-12.0-4.7","2d_cat_multi_stim_exp1","2022-4-21","15:2:31","25","75","3","9","10","40","30","120","50","20","[""White""]","No","Female","1890001","null","null","","","","clear_screen","","","","","","","","","","","","","","","","","","","","","","","","","",""
"","","","","","canvas-keyboard-response","52","207561","0.0-12.0-0.8","2d_cat_multi_stim_exp1","2022-4-21","15:2:31","25","75","3","9","10","40","30","120","50","20","[""White""]","No","Female","1890001","null","null","","","","fixation","","","","","","","","","","","","","","","","","","","","","","","","","",""
"","","","","","canvas-keyboard-response","53","208072","0.0-12.0-1.8","2d_cat_multi_stim_exp1","2022-4-21","15:2:31","25","75","3","9","10","40","30","120","50","20","[""White""]","No","Female","1890001","null","null","","","","clear_screen","","","","","","","","","","","","","","","","","","","","","","","","","",""
"","","","","","canvas-keyboard-response","54","210302","0.0-12.0-2.8","2d_cat_multi_stim_exp1","2022-4-21","15:2:31","25","75","3","9","10","40","30","120","50","20","[""White""]","No","Female","1890001","2221","u","learn","","","learn_trial","22.2971","78.905","in","1","1","","","","","","","","","","","","","","","","","","","","",""
"","","","","","canvas-keyboard-response","55","210811","0.0-12.0-3.8","2d_cat_multi_stim_exp1","2022-4-21","15:2:31","25","75","3","9","10","40","30","120","50","20","[""White""]","No","Female","1890001","null","null","learn_feedback","","","learn_feedback","22.2971","78.905","in","","","","","","","","","","","","","","","","","","","","","","",""
"","","","","","canvas-keyboard-response","56","210874","0.0-12.0-4.8","2d_cat_multi_stim_exp1","2022-4-21","15:2:31","25","75","3","9","10","40","30","120","50","20","[""White""]","No","Female","1890001","null","null","","","","clear_screen","","","","","","","","","","","","","","","","","","","","","","","","","",""
"","","","","","canvas-keyboard-response","57","211383","0.0-12.0-0.9","2d_cat_multi_stim_exp1","2022-4-21","15:2:31","25","75","3","9","10","40","30","120","50","20","[""White""]","No","Female","1890001","null","null","","","","fixation","","","","","","","","","","","","","","","","","","","","","","","","","",""
"","","","","","canvas-keyboard-response","58","211893","0.0-12.0-1.9","2d_cat_multi_stim_exp1","2022-4-21","15:2:31","25","75","3","9","10","40","30","120","50","20","[""White""]","No","Female","1890001","null","null","","","","clear_screen","","","","","","","","","","","","","","","","","","","","","","","","","",""
"","","","","","canvas-keyboard-response","59","213254","0.0-12.0-2.9","2d_cat_multi_stim_exp1","2022-4-21","15:2:31","25","75","3","9","10","40","30","120","50","20","[""White""]","No","Female","1890001","1353","i","learn","","","learn_trial","16.6667","120","out","0","1","","","","","","","","","","","","","","","","","","","","",""
"","","","","","canvas-keyboard-response","60","213766","0.0-12.0-3.9","2d_cat_multi_stim_exp1","2022-4-21","15:2:31","25","75","3","9","10","40","30","120","50","20","[""White""]","No","Female","1890001","null","null","learn_feedback","","","learn_feedback","16.6667","120","out","","","","","","","","","","","","","","","","","","","","","","",""
"","","","","","canvas-keyboard-response","61","213826","0.0-12.0-4.9","2d_cat_multi_stim_exp1","2022-4-21","15:2:31","25","75","3","9","10","40","30","120","50","20","[""White""]","No","Female","1890001","null","null","","","","clear_screen","","","","","","","","","","","","","","","","","","","","","","","","","",""
"","","","","","canvas-keyboard-response","62","214335","0.0-12.0-0.10","2d_cat_multi_stim_exp1","2022-4-21","15:2:31","25","75","3","9","10","40","30","120","50","20","[""White""]","No","Female","1890001","null","null","","","","fixation","","","","","","","","","","","","","","","","","","","","","","","","","",""
"","","","","","canvas-keyboard-response","63","214847","0.0-12.0-1.10","2d_cat_multi_stim_exp1","2022-4-21","15:2:31","25","75","3","9","10","40","30","120","50","20","[""White""]","No","Female","1890001","null","null","","","","clear_screen","","","","","","","","","","","","","","","","","","","","","","","","","",""
"","","","","","canvas-keyboard-response","64","215727","0.0-12.0-2.10","2d_cat_multi_stim_exp1","2022-4-21","15:2:31","25","75","3","9","10","40","30","120","50","20","[""White""]","No","Female","1890001","867","i","learn","","","learn_trial","20","100","out","0","1","","","","","","","","","","","","","","","","","","","","",""
"","","","","","canvas-keyboard-response","65","216239","0.0-12.0-3.10","2d_cat_multi_stim_exp1","2022-4-21","15:2:31","25","75","3","9","10","40","30","120","50","20","[""White""]","No","Female","1890001","null","null","learn_feedback","","","learn_feedback","20","100","out","","","","","","","","","","","","","","","","","","","","","","",""
"","","","","","canvas-keyboard-response","66","216303","0.0-12.0-4.10","2d_cat_multi_stim_exp1","2022-4-21","15:2:31","25","75","3","9","10","40","30","120","50","20","[""White""]","No","Female","1890001","null","null","","","","clear_screen","","","","","","","","","","","","","","","","","","","","","","","","","",""
"","","","","","canvas-keyboard-response","67","216812","0.0-12.0-0.11","2d_cat_multi_stim_exp1","2022-4-21","15:2:31","25","75","3","9","10","40","30","120","50","20","[""White""]","No","Female","1890001","null","null","","","","fixation","","","","","","","","","","","","","","","","","","","","","","","","","",""
"","","","","","canvas-keyboard-response","68","217327","0.0-12.0-1.11","2d_cat_multi_stim_exp1","2022-4-21","15:2:31","25","75","3","9","10","40","30","120","50","20","[""White""]","No","Female","1890001","null","null","","","","clear_screen","","","","","","","","","","","","","","","","","","","","","","","","","",""
"","","","","","canvas-keyboard-response","69","218238","0.0-12.0-2.11","2d_cat_multi_stim_exp1","2022-4-21","15:2:31","25","75","3","9","10","40","30","120","50","20","[""White""]","No","Female","1890001","901","i","learn","","","learn_trial","13.3333","80","out","0","1","","","","","","","","","","","","","","","","","","","","",""
"","","","","","canvas-keyboard-response","70","218747","0.0-12.0-3.11","2d_cat_multi_stim_exp1","2022-4-21","15:2:31","25","75","3","9","10","40","30","120","50","20","[""White""]","No","Female","1890001","null","null","learn_feedback","","","learn_feedback","13.3333","80","out","","","","","","","","","","","","","","","","","","","","","","",""
"","","","","","canvas-keyboard-response","71","218812","0.0-12.0-4.11","2d_cat_multi_stim_exp1","2022-4-21","15:2:31","25","75","3","9","10","40","30","120","50","20","[""White""]","No","Female","1890001","null","null","","","","clear_screen","","","","","","","","","","","","","","","","","","","","","","","","","",""
"","","","","","canvas-keyboard-response","72","219322","0.0-12.0-0.12","2d_cat_multi_stim_exp1","2022-4-21","15:2:31","25","75","3","9","10","40","30","120","50","20","[""White""]","No","Female","1890001","null","null","","","","fixation","","","","","","","","","","","","","","","","","","","","","","","","","",""
"","","","","","canvas-keyboard-response","73","219833","0.0-12.0-1.12","2d_cat_multi_stim_exp1","2022-4-21","15:2:31","25","75","3","9","10","40","30","120","50","20","[""White""]","No","Female","1890001","null","null","","","","clear_screen","","","","","","","","","","","","","","","","","","","","","","","","","",""
"","","","","","canvas-keyboard-response","74","220822","0.0-12.0-2.12","2d_cat_multi_stim_exp1","2022-4-21","15:2:31","25","75","3","9","10","40","30","120","50","20","[""White""]","No","Female","1890001","979","u","learn","","","learn_trial","25","75","in","1","1","","","","","","","","","","","","","","","","","","","","",""
"","","","","","canvas-keyboard-response","75","221335","0.0-12.0-3.12","2d_cat_multi_stim_exp1","2022-4-21","15:2:31","25","75","3","9","10","40","30","120","50","20","[""White""]","No","Female","1890001","null","null","learn_feedback","","","learn_feedback","25","75","in","","","","","","","","","","","","","","","","","","","","","","",""
"","","","","","canvas-keyboard-response","76","221398","0.0-12.0-4.12","2d_cat_multi_stim_exp1","2022-4-21","15:2:31","25","75","3","9","10","40","30","120","50","20","[""White""]","No","Female","1890001","null","null","","","","clear_screen","","","","","","","","","","","","","","","","","","","","","","","","","",""
"","","","","","canvas-keyboard-response","77","221907","0.0-12.0-0.13","2d_cat_multi_stim_exp1","2022-4-21","15:2:31","25","75","3","9","10","40","30","120","50","20","[""White""]","No","Female","1890001","null","null","","","","fixation","","","","","","","","","","","","","","","","","","","","","","","","","",""
"","","","","","canvas-keyboard-response","78","222416","0.0-12.0-1.13","2d_cat_multi_stim_exp1","2022-4-21","15:2:31","25","75","3","9","10","40","30","120","50","20","[""White""]","No","Female","1890001","null","null","","","","clear_screen","","","","","","","","","","","","","","","","","","","","","","","","","",""
"","","","","","canvas-keyboard-response","79","223414","0.0-12.0-2.13","2d_cat_multi_stim_exp1","2022-4-21","15:2:31","25","75","3","9","10","40","30","120","50","20","[""White""]","No","Female","1890001","986","i","learn","","","learn_trial","33.3333","60","out","0","1","","","","","","","","","","","","","","","","","","","","",""
"","","","","","canvas-keyboard-response","80","223925","0.0-12.0-3.13","2d_cat_multi_stim_exp1","2022-4-21","15:2:31","25","75","3","9","10","40","30","120","50","20","[""White""]","No","Female","1890001","null","null","learn_feedback","","","learn_feedback","33.3333","60","out","","","","","","","","","","","","","","","","","","","","","","",""
"","","","","","canvas-keyboard-response","81","223987","0.0-12.0-4.13","2d_cat_multi_stim_exp1","2022-4-21","15:2:31","25","75","3","9","10","40","30","120","50","20","[""White""]","No","Female","1890001","null","null","","","","clear_screen","","","","","","","","","","","","","","","","","","","","","","","","","",""
"","","","","","canvas-keyboard-response","82","224497","0.0-12.0-0.14","2d_cat_multi_stim_exp1","2022-4-21","15:2:31","25","75","3","9","10","40","30","120","50","20","[""White""]","No","Female","1890001","null","null","","","","fixation","","","","","","","","","","","","","","","","","","","","","","","","","",""
"","","","","","canvas-keyboard-response","83","225010","0.0-12.0-1.14","2d_cat_multi_stim_exp1","2022-4-21","15:2:31","25","75","3","9","10","40","30","120","50","20","[""White""]","No","Female","1890001","null","null","","","","clear_screen","","","","","","","","","","","","","","","","","","","","","","","","","",""
"","","","","","canvas-keyboard-response","84","226111","0.0-12.0-2.14","2d_cat_multi_stim_exp1","2022-4-21","15:2:31","25","75","3","9","10","40","30","120","50","20","[""White""]","No","Female","1890001","1092","i","learn","","","learn_trial","30","100","out","0","1","","","","","","","","","","","","","","","","","","","","",""
"","","","","","canvas-keyboard-response","85","226617","0.0-12.0-3.14","2d_cat_multi_stim_exp1","2022-4-21","15:2:31","25","75","3","9","10","40","30","120","50","20","[""White""]","No","Female","1890001","null","null","learn_feedback","","","learn_feedback","30","100","out","","","","","","","","","","","","","","","","","","","","","","",""
"","","","","","canvas-keyboard-response","86","226678","0.0-12.0-4.14","2d_cat_multi_stim_exp1","2022-4-21","15:2:31","25","75","3","9","10","40","30","120","50","20","[""White""]","No","Female","1890001","null","null","","","","clear_screen","","","","","","","","","","","","","","","","","","","","","","","","","",""
"","","","","","canvas-keyboard-response","87","227187","0.0-12.0-0.15","2d_cat_multi_stim_exp1","2022-4-21","15:2:31","25","75","3","9","10","40","30","120","50","20","[""White""]","No","Female","1890001","null","null","","","","fixation","","","","","","","","","","","","","","","","","","","","","","","","","",""
"","","","","","canvas-keyboard-response","88","227699","0.0-12.0-1.15","2d_cat_multi_stim_exp1","2022-4-21","15:2:31","25","75","3","9","10","40","30","120","50","20","[""White""]","No","Female","1890001","null","null","","","","clear_screen","","","","","","","","","","","","","","","","","","","","","","","","","",""
"","","","","","canvas-keyboard-response","89","228838","0.0-12.0-2.15","2d_cat_multi_stim_exp1","2022-4-21","15:2:31","25","75","3","9","10","40","30","120","50","20","[""White""]","No","Female","1890001","1130","i","learn","","","learn_trial","40","50","out","0","1","","","","","","","","","","","","","","","","","","","","",""
"","","","","","canvas-keyboard-response","90","229349","0.0-12.0-3.15","2d_cat_multi_stim_exp1","2022-4-21","15:2:31","25","75","3","9","10","40","30","120","50","20","[""White""]","No","Female","1890001","null","null","learn_feedback","","","learn_feedback","40","50","out","","","","","","","","","","","","","","","","","","","","","","",""
"","","","","","canvas-keyboard-response","91","229409","0.0-12.0-4.15","2d_cat_multi_stim_exp1","2022-4-21","15:2:31","25","75","3","9","10","40","30","120","50","20","[""White""]","No","Female","1890001","null","null","","","","clear_screen","","","","","","","","","","","","","","","","","","","","","","","","","",""
"","","","","","canvas-keyboard-response","92","229917","0.0-12.0-0.16","2d_cat_multi_stim_exp1","2022-4-21","15:2:31","25","75","3","9","10","40","30","120","50","20","[""White""]","No","Female","1890001","null","null","","","","fixation","","","","","","","","","","","","","","","","","","","","","","","","","",""
"","","","","","canvas-keyboard-response","93","230431","0.0-12.0-1.16","2d_cat_multi_stim_exp1","2022-4-21","15:2:31","25","75","3","9","10","40","30","120","50","20","[""White""]","No","Female","1890001","null","null","","","","clear_screen","","","","","","","","","","","","","","","","","","","","","","","","","",""
"","","","","","canvas-keyboard-response","94","231486","0.0-12.0-2.16","2d_cat_multi_stim_exp1","2022-4-21","15:2:31","25","75","3","9","10","40","30","120","50","20","[""White""]","No","Female","1890001","1045","u","learn","","","learn_trial","13.3333","60","out","1","0","","","","","","","","","","","","","","","","","","","","",""
"","","","","","canvas-keyboard-response","95","232497","0.0-12.0-3.16","2d_cat_multi_stim_exp1","2022-4-21","15:2:31","25","75","3","9","10","40","30","120","50","20","[""White""]","No","Female","1890001","null","null","learn_feedback","","","learn_feedback","13.3333","60","out","","","","","","","","","","","","","","","","","","","","","","",""
"","","","","","canvas-keyboard-response","96","232561","0.0-12.0-4.16","2d_cat_multi_stim_exp1","2022-4-21","15:2:31","25","75","3","9","10","40","30","120","50","20","[""White""]","No","Female","1890001","null","null","","","","clear_screen","","","","","","","","","","","","","","","","","","","","","","","","","",""
"","","","","","canvas-keyboard-response","97","233071","0.0-12.0-0.17","2d_cat_multi_stim_exp1","2022-4-21","15:2:31","25","75","3","9","10","40","30","120","50","20","[""White""]","No","Female","1890001","null","null","","","","fixation","","","","","","","","","","","","","","","","","","","","","","","","","",""
"","","","","","canvas-keyboard-response","98","233585","0.0-12.0-1.17","2d_cat_multi_stim_exp1","2022-4-21","15:2:31","25","75","3","9","10","40","30","120","50","20","[""White""]","No","Female","1890001","null","null","","","","clear_screen","","","","","","","","","","","","","","","","","","","","","","","","","",""
"","","","","","canvas-keyboard-response","99","234725","0.0-12.0-2.17","2d_cat_multi_stim_exp1","2022-4-21","15:2:31","25","75","3","9","10","40","30","120","50","20","[""White""]","No","Female","1890001","1130","i","learn","","","learn_trial","22.5729","80.2901","in","0","0","","","","","","","","","","","","","","","","","","","","",""
"","","","","","canvas-keyboard-response","100","235735","0.0-12.0-3.17","2d_cat_multi_stim_exp1","2022-4-21","15:2:31","25","75","3","9","10","40","30","120","50","20","[""White""]","No","Female","1890001","null","null","learn_feedback","","","learn_feedback","22.5729","80.2901","in","","","","","","","","","","","","","","","","","","","","","","",""
"","","","","","canvas-keyboard-response","101","235795","0.0-12.0-4.17","2d_cat_multi_stim_exp1","2022-4-21","15:2:31","25","75","3","9","10","40","30","120","50","20","[""White""]","No","Female","1890001","null","null","","","","clear_screen","","","","","","","","","","","","","","","","","","","","","","","","","",""
"","","","","","canvas-keyboard-response","102","236305","0.0-12.0-0.18","2d_cat_multi_stim_exp1","2022-4-21","15:2:31","25","75","3","9","10","40","30","120","50","20","[""White""]","No","Female","1890001","null","null","","","","fixation","","","","","","","","","","","","","","","","","","","","","","","","","",""
"","","","","","canvas-keyboard-response","103","236816","0.0-12.0-1.18","2d_cat_multi_stim_exp1","2022-4-21","15:2:31","25","75","3","9","10","40","30","120","50","20","[""White""]","No","Female","1890001","null","null","","","","clear_screen","","","","","","","","","","","","","","","","","","","","","","","","","",""
"","","","","","canvas-keyboard-response","104","237814","0.0-12.0-2.18","2d_cat_multi_stim_exp1","2022-4-21","15:2:31","25","75","3","9","10","40","30","120","50","20","[""White""]","No","Female","1890001","988","i","learn","","","learn_trial","33.3333","40","out","0","1","","","","","","","","","","","","","","","","","","","","",""
"","","","","","canvas-keyboard-response","105","238325","0.0-12.0-3.18","2d_cat_multi_stim_exp1","2022-4-21","15:2:31","25","75","3","9","10","40","30","120","50","20","[""White""]","No","Female","1890001","null","null","learn_feedback","","","learn_feedback","33.3333","40","out","","","","","","","","","","","","","","","","","","","","","","",""
"","","","","","canvas-keyboard-response","106","238386","0.0-12.0-4.18","2d_cat_multi_stim_exp1","2022-4-21","15:2:31","25","75","3","9","10","40","30","120","50","20","[""White""]","No","Female","1890001","null","null","","","","clear_screen","","","","","","","","","","","","","","","","","","","","","","","","","",""
"","","","","","canvas-keyboard-response","107","238895","0.0-12.0-0.19","2d_cat_multi_stim_exp1","2022-4-21","15:2:31","25","75","3","9","10","40","30","120","50","20","[""White""]","No","Female","1890001","null","null","","","","fixation","","","","","","","","","","","","","","","","","","","","","","","","","",""
"","","","","","canvas-keyboard-response","108","239404","0.0-12.0-1.19","2d_cat_multi_stim_exp1","2022-4-21","15:2:31","25","75","3","9","10","40","30","120","50","20","[""White""]","No","Female","1890001","null","null","","","","clear_screen","","","","","","","","","","","","","","","","","","","","","","","","","",""
"","","","","","canvas-keyboard-response","109","240159","0.0-12.0-2.19","2d_cat_multi_stim_exp1","2022-4-21","15:2:31","25","75","3","9","10","40","30","120","50","20","[""White""]","No","Female","1890001","742","i","learn","","","learn_trial","26.6667","40","out","0","1","","","","","","","","","","","","","","","","","","","","",""
"","","","","","canvas-keyboard-response","110","240666","0.0-12.0-3.19","2d_cat_multi_stim_exp1","2022-4-21","15:2:31","25","75","3","9","10","40","30","120","50","20","[""White""]","No","Female","1890001","null","null","learn_feedback","","","learn_feedback","26.6667","40","out","","","","","","","","","","","","","","","","","","","","","","",""
"","","","","","canvas-keyboard-response","111","240729","0.0-12.0-4.19","2d_cat_multi_stim_exp1","2022-4-21","15:2:31","25","75","3","9","10","40","30","120","50","20","[""White""]","No","Female","1890001","null","null","","","","clear_screen","","","","","","","","","","","","","","","","","","","","","","","","","",""
"","","","","","canvas-keyboard-response","112","241236","0.0-12.0-0.20","2d_cat_multi_stim_exp1","2022-4-21","15:2:31","25","75","3","9","10","40","30","120","50","20","[""White""]","No","Female","1890001","null","null","","","","fixation","","","","","","","","","","","","","","","","","","","","","","","","","",""
"","","","","","canvas-keyboard-response","113","241746","0.0-12.0-1.20","2d_cat_multi_stim_exp1","2022-4-21","15:2:31","25","75","3","9","10","40","30","120","50","20","[""White""]","No","Female","1890001","null","null","","","","clear_screen","","","","","","","","","","","","","","","","","","","","","","","","","",""
"","","","","","canvas-keyboard-response","114","242670","0.0-12.0-2.20","2d_cat_multi_stim_exp1","2022-4-21","15:2:31","25","75","3","9","10","40","30","120","50","20","[""White""]","No","Female","1890001","913","i","learn","","","learn_trial","36.6667","90","out","0","1","","","","","","","","","","","","","","","","","","","","",""
"","","","","","canvas-keyboard-response","115","243182","0.0-12.0-3.20","2d_cat_multi_stim_exp1","2022-4-21","15:2:31","25","75","3","9","10","40","30","120","50","20","[""White""]","No","Female","1890001","null","null","learn_feedback","","","learn_feedback","36.6667","90","out","","","","","","","","","","","","","","","","","","","","","","",""
"","","","","","canvas-keyboard-response","116","243241","0.0-12.0-4.20","2d_cat_multi_stim_exp1","2022-4-21","15:2:31","25","75","3","9","10","40","30","120","50","20","[""White""]","No","Female","1890001","null","null","","","","clear_screen","","","","","","","","","","","","","","","","","","","","","","","","","",""
"","","","","","canvas-keyboard-response","117","243750","0.0-12.0-0.21","2d_cat_multi_stim_exp1","2022-4-21","15:2:31","25","75","3","9","10","40","30","120","50","20","[""White""]","No","Female","1890001","null","null","","","","fixation","","","","","","","","","","","","","","","","","","","","","","","","","",""
"","","","","","canvas-keyboard-response","118","244265","0.0-12.0-1.21","2d_cat_multi_stim_exp1","2022-4-21","15:2:31","25","75","3","9","10","40","30","120","50","20","[""White""]","No","Female","1890001","null","null","","","","clear_screen","","","","","","","","","","","","","","","","","","","","","","","","","",""
"","","","","","canvas-keyboard-response","119","245022","0.0-12.0-2.21","2d_cat_multi_stim_exp1","2022-4-21","15:2:31","25","75","3","9","10","40","30","120","50","20","[""White""]","No","Female","1890001","747","i","learn","","","learn_trial","30","30","out","0","1","","","","","","","","","","","","","","","","","","","","",""
"","","","","","canvas-keyboard-response","120","245534","0.0-12.0-3.21","2d_cat_multi_stim_exp1","2022-4-21","15:2:31","25","75","3","9","10","40","30","120","50","20","[""White""]","No","Female","1890001","null","null","learn_feedback","","","learn_feedback","30","30","out","","","","","","","","","","","","","","","","","","","","","","",""
"","","","","","canvas-keyboard-response","121","245597","0.0-12.0-4.21","2d_cat_multi_stim_exp1","2022-4-21","15:2:31","25","75","3","9","10","40","30","120","50","20","[""White""]","No","Female","1890001","null","null","","","","clear_screen","","","","","","","","","","","","","","","","","","","","","","","","","",""
"","","","","","canvas-keyboard-response","122","246107","0.0-12.0-0.22","2d_cat_multi_stim_exp1","2022-4-21","15:2:31","25","75","3","9","10","40","30","120","50","20","[""White""]","No","Female","1890001","null","null","","","","fixation","","","","","","","","","","","","","","","","","","","","","","","","","",""
"","","","","","canvas-keyboard-response","123","246618","0.0-12.0-1.22","2d_cat_multi_stim_exp1","2022-4-21","15:2:31","25","75","3","9","10","40","30","120","50","20","[""White""]","No","Female","1890001","null","null","","","","clear_screen","","","","","","","","","","","","","","","","","","","","","","","","","",""
"","","","","","canvas-keyboard-response","124","248142","0.0-12.0-2.22","2d_cat_multi_stim_exp1","2022-4-21","15:2:31","25","75","3","9","10","40","30","120","50","20","[""White""]","No","Female","1890001","1514","u","learn","","","learn_trial","20","50","out","1","0","","","","","","","","","","","","","","","","","","","","",""
"","","","","","canvas-keyboard-response","125","249156","0.0-12.0-3.22","2d_cat_multi_stim_exp1","2022-4-21","15:2:31","25","75","3","9","10","40","30","120","50","20","[""White""]","No","Female","1890001","null","null","learn_feedback","","","learn_feedback","20","50","out","","","","","","","","","","","","","","","","","","","","","","",""
"","","","","","canvas-keyboard-response","126","249215","0.0-12.0-4.22","2d_cat_multi_stim_exp1","2022-4-21","15:2:31","25","75","3","9","10","40","30","120","50","20","[""White""]","No","Female","1890001","null","null","","","","clear_screen","","","","","","","","","","","","","","","","","","","","","","","","","",""
"","","","","","canvas-keyboard-response","127","249726","0.0-12.0-0.23","2d_cat_multi_stim_exp1","2022-4-21","15:2:31","25","75","3","9","10","40","30","120","50","20","[""White""]","No","Female","1890001","null","null","","","","fixation","","","","","","","","","","","","","","","","","","","","","","","","","",""
"","","","","","canvas-keyboard-response","128","250237","0.0-12.0-1.23","2d_cat_multi_stim_exp1","2022-4-21","15:2:31","25","75","3","9","10","40","30","120","50","20","[""White""]","No","Female","1890001","null","null","","","","clear_screen","","","","","","","","","","","","","","","","","","","","","","","","","",""
"","","","","","canvas-keyboard-response","129","251350","0.0-12.0-2.23","2d_cat_multi_stim_exp1","2022-4-21","15:2:31","25","75","3","9","10","40","30","120","50","20","[""White""]","No","Female","1890001","1102","i","learn","","","learn_trial","33.3333","110","out","0","1","","","","","","","","","","","","","","","","","","","","",""
"","","","","","canvas-keyboard-response","130","251861","0.0-12.0-3.23","2d_cat_multi_stim_exp1","2022-4-21","15:2:31","25","75","3","9","10","40","30","120","50","20","[""White""]","No","Female","1890001","null","null","learn_feedback","","","learn_feedback","33.3333","110","out","","","","","","","","","","","","","","","","","","","","","","",""
"","","","","","canvas-keyboard-response","131","251920","0.0-12.0-4.23","2d_cat_multi_stim_exp1","2022-4-21","15:2:31","25","75","3","9","10","40","30","120","50","20","[""White""]","No","Female","1890001","null","null","","","","clear_screen","","","","","","","","","","","","","","","","","","","","","","","","","",""
"","","","","","canvas-keyboard-response","132","252430","0.0-12.0-0.24","2d_cat_multi_stim_exp1","2022-4-21","15:2:31","25","75","3","9","10","40","30","120","50","20","[""White""]","No","Female","1890001","null","null","","","","fixation","","","","","","","","","","","","","","","","","","","","","","","","","",""
"","","","","","canvas-keyboard-response","133","252946","0.0-12.0-1.24","2d_cat_multi_stim_exp1","2022-4-21","15:2:31","25","75","3","9","10","40","30","120","50","20","[""White""]","No","Female","1890001","null","null","","","","clear_screen","","","","","","","","","","","","","","","","","","","","","","","","","",""
"","","","","","canvas-keyboard-response","134","255103","0.0-12.0-2.24","2d_cat_multi_stim_exp1","2022-4-21","15:2:31","25","75","3","9","10","40","30","120","50","20","[""White""]","No","Female","1890001","2143","i","learn","","","learn_trial","10","40","out","0","1","","","","","","","","","","","","","","","","","","","","",""
"","","","","","canvas-keyboard-response","135","255611","0.0-12.0-3.24","2d_cat_multi_stim_exp1","2022-4-21","15:2:31","25","75","3","9","10","40","30","120","50","20","[""White""]","No","Female","1890001","null","null","learn_feedback","","","learn_feedback","10","40","out","","","","","","","","","","","","","","","","","","","","","","",""
"","","","","","canvas-keyboard-response","136","255671","0.0-12.0-4.24","2d_cat_multi_stim_exp1","2022-4-21","15:2:31","25","75","3","9","10","40","30","120","50","20","[""White""]","No","Female","1890001","null","null","","","","clear_screen","","","","","","","","","","","","","","","","","","","","","","","","","",""
"","","","","","canvas-keyboard-response","137","256179","0.0-12.0-0.25","2d_cat_multi_stim_exp1","2022-4-21","15:2:31","25","75","3","9","10","40","30","120","50","20","[""White""]","No","Female","1890001","null","null","","","","fixation","","","","","","","","","","","","","","","","","","","","","","","","","",""
"","","","","","canvas-keyboard-response","138","256694","0.0-12.0-1.25","2d_cat_multi_stim_exp1","2022-4-21","15:2:31","25","75","3","9","10","40","30","120","50","20","[""White""]","No","Female","1890001","null","null","","","","clear_screen","","","","","","","","","","","","","","","","","","","","","","","","","",""
"","","","","","canvas-keyboard-response","139","258142","0.0-12.0-2.25","2d_cat_multi_stim_exp1","2022-4-21","15:2:31","25","75","3","9","10","40","30","120","50","20","[""White""]","No","Female","1890001","1437","u","learn","","","learn_trial","23.3333","70","out","1","0","","","","","","","","","","","","","","","","","","","","",""
"","","","","","canvas-keyboard-response","140","259154","0.0-12.0-3.25","2d_cat_multi_stim_exp1","2022-4-21","15:2:31","25","75","3","9","10","40","30","120","50","20","[""White""]","No","Female","1890001","null","null","learn_feedback","","","learn_feedback","23.3333","70","out","","","","","","","","","","","","","","","","","","","","","","",""
"","","","","","canvas-keyboard-response","141","259216","0.0-12.0-4.25","2d_cat_multi_stim_exp1","2022-4-21","15:2:31","25","75","3","9","10","40","30","120","50","20","[""White""]","No","Female","1890001","null","null","","","","clear_screen","","","","","","","","","","","","","","","","","","","","","","","","","",""
"","","","","","canvas-keyboard-response","142","259727","0.0-12.0-0.26","2d_cat_multi_stim_exp1","2022-4-21","15:2:31","25","75","3","9","10","40","30","120","50","20","[""White""]","No","Female","1890001","null","null","","","","fixation","","","","","","","","","","","","","","","","","","","","","","","","","",""
"","","","","","canvas-keyboard-response","143","260237","0.0-12.0-1.26","2d_cat_multi_stim_exp1","2022-4-21","15:2:31","25","75","3","9","10","40","30","120","50","20","[""White""]","No","Female","1890001","null","null","","","","clear_screen","","","","","","","","","","","","","","","","","","","","","","","","","",""
"","","","","","canvas-keyboard-response","144","261150","0.0-12.0-2.26","2d_cat_multi_stim_exp1","2022-4-21","15:2:31","25","75","3","9","10","40","30","120","50","20","[""White""]","No","Female","1890001","904","i","learn","","","learn_trial","33.3333","120","out","0","1","","","","","","","","","","","","","","","","","","","","",""
"","","","","","canvas-keyboard-response","145","261659","0.0-12.0-3.26","2d_cat_multi_stim_exp1","2022-4-21","15:2:31","25","75","3","9","10","40","30","120","50","20","[""White""]","No","Female","1890001","null","null","learn_feedback","","","learn_feedback","33.3333","120","out","","","","","","","","","","","","","","","","","","","","","","",""
"","","","","","canvas-keyboard-response","146","261718","0.0-12.0-4.26","2d_cat_multi_stim_exp1","2022-4-21","15:2:31","25","75","3","9","10","40","30","120","50","20","[""White""]","No","Female","1890001","null","null","","","","clear_screen","","","","","","","","","","","","","","","","","","","","","","","","","",""
"","","","","","canvas-keyboard-response","147","262227","0.0-12.0-0.27","2d_cat_multi_stim_exp1","2022-4-21","15:2:31","25","75","3","9","10","40","30","120","50","20","[""White""]","No","Female","1890001","null","null","","","","fixation","","","","","","","","","","","","","","","","","","","","","","","","","",""
"","","","","","canvas-keyboard-response","148","262741","0.0-12.0-1.27","2d_cat_multi_stim_exp1","2022-4-21","15:2:31","25","75","3","9","10","40","30","120","50","20","[""White""]","No","Female","1890001","null","null","","","","clear_screen","","","","","","","","","","","","","","","","","","","","","","","","","",""
"","","","","","canvas-keyboard-response","149","264079","0.0-12.0-2.27","2d_cat_multi_stim_exp1","2022-4-21","15:2:31","25","75","3","9","10","40","30","120","50","20","[""White""]","No","Female","1890001","1327","u","learn","","","learn_trial","24.3324","83.7744","in","1","1","","","","","","","","","","","","","","","","","","","","",""
"","","","","","canvas-keyboard-response","150","264590","0.0-12.0-3.27","2d_cat_multi_stim_exp1","2022-4-21","15:2:31","25","75","3","9","10","40","30","120","50","20","[""White""]","No","Female","1890001","null","null","learn_feedback","","","learn_feedback","24.3324","83.7744","in","","","","","","","","","","","","","","","","","","","","","","",""
"","","","","","canvas-keyboard-response","151","264649","0.0-12.0-4.27","2d_cat_multi_stim_exp1","2022-4-21","15:2:31","25","75","3","9","10","40","30","120","50","20","[""White""]","No","Female","1890001","null","null","","","","clear_screen","","","","","","","","","","","","","","","","","","","","","","","","","",""
"","","","","","canvas-keyboard-response","152","265158","0.0-12.0-0.28","2d_cat_multi_stim_exp1","2022-4-21","15:2:31","25","75","3","9","10","40","30","120","50","20","[""White""]","No","Female","1890001","null","null","","","","fixation","","","","","","","","","","","","","","","","","","","","","","","","","",""
"","","","","","canvas-keyboard-response","153","265668","0.0-12.0-1.28","2d_cat_multi_stim_exp1","2022-4-21","15:2:31","25","75","3","9","10","40","30","120","50","20","[""White""]","No","Female","1890001","null","null","","","","clear_screen","","","","","","","","","","","","","","","","","","","","","","","","","",""
"","","","","","canvas-keyboard-response","154","267215","0.0-12.0-2.28","2d_cat_multi_stim_exp1","2022-4-21","15:2:31","25","75","3","9","10","40","30","120","50","20","[""White""]","No","Female","1890001","1535","u","learn","","","learn_trial","22.0121","75.8068","in","1","1","","","","","","","","","","","","","","","","","","","","",""
"","","","","","canvas-keyboard-response","155","267724","0.0-12.0-3.28","2d_cat_multi_stim_exp1","2022-4-21","15:2:31","25","75","3","9","10","40","30","120","50","20","[""White""]","No","Female","1890001","null","null","learn_feedback","","","learn_feedback","22.0121","75.8068","in","","","","","","","","","","","","","","","","","","","","","","",""
"","","","","","canvas-keyboard-response","156","267782","0.0-12.0-4.28","2d_cat_multi_stim_exp1","2022-4-21","15:2:31","25","75","3","9","10","40","30","120","50","20","[""White""]","No","Female","1890001","null","null","","","","clear_screen","","","","","","","","","","","","","","","","","","","","","","","","","",""
"","","","","","canvas-keyboard-response","157","268291","0.0-12.0-0.29","2d_cat_multi_stim_exp1","2022-4-21","15:2:31","25","75","3","9","10","40","30","120","50","20","[""White""]","No","Female","1890001","null","null","","","","fixation","","","","","","","","","","","","","","","","","","","","","","","","","",""
"","","","","","canvas-keyboard-response","158","268802","0.0-12.0-1.29","2d_cat_multi_stim_exp1","2022-4-21","15:2:31","25","75","3","9","10","40","30","120","50","20","[""White""]","No","Female","1890001","null","null","","","","clear_screen","","","","","","","","","","","","","","","","","","","","","","","","","",""
"","","","","","canvas-keyboard-response","159","270646","0.0-12.0-2.29","2d_cat_multi_stim_exp1","2022-4-21","15:2:31","25","75","3","9","10","40","30","120","50","20","[""White""]","No","Female","1890001","1832","u","learn","","","learn_trial","25","75","in","1","1","","","","","","","","","","","","","","","","","","","","",""
"","","","","","canvas-keyboard-response","160","271155","0.0-12.0-3.29","2d_cat_multi_stim_exp1","2022-4-21","15:2:31","25","75","3","9","10","40","30","120","50","20","[""White""]","No","Female","1890001","null","null","learn_feedback","","","learn_feedback","25","75","in","","","","","","","","","","","","","","","","","","","","","","",""
"","","","","","canvas-keyboard-response","161","271215","0.0-12.0-4.29","2d_cat_multi_stim_exp1","2022-4-21","15:2:31","25","75","3","9","10","40","30","120","50","20","[""White""]","No","Female","1890001","null","null","","","","clear_screen","","","","","","","","","","","","","","","","","","","","","","","","","",""
"","","","","","canvas-keyboard-response","162","271724","0.0-12.0-0.30","2d_cat_multi_stim_exp1","2022-4-21","15:2:31","25","75","3","9","10","40","30","120","50","20","[""White""]","No","Female","1890001","null","null","","","","fixation","","","","","","","","","","","","","","","","","","","","","","","","","",""
"","","","","","canvas-keyboard-response","163","272234","0.0-12.0-1.30","2d_cat_multi_stim_exp1","2022-4-21","15:2:31","25","75","3","9","10","40","30","120","50","20","[""White""]","No","Female","1890001","null","null","","","","clear_screen","","","","","","","","","","","","","","","","","","","","","","","","","",""
"","","","","","canvas-keyboard-response","164","272926","0.0-12.0-2.30","2d_cat_multi_stim_exp1","2022-4-21","15:2:31","25","75","3","9","10","40","30","120","50","20","[""White""]","No","Female","1890001","682","i","learn","","","learn_trial","30","120","out","0","1","","","","","","","","","","","","","","","","","","","","",""
"","","","","","canvas-keyboard-response","165","273436","0.0-12.0-3.30","2d_cat_multi_stim_exp1","2022-4-21","15:2:31","25","75","3","9","10","40","30","120","50","20","[""White""]","No","Female","1890001","null","null","learn_feedback","","","learn_feedback","30","120","out","","","","","","","","","","","","","","","","","","","","","","",""
"","","","","","canvas-keyboard-response","166","273497","0.0-12.0-4.30","2d_cat_multi_stim_exp1","2022-4-21","15:2:31","25","75","3","9","10","40","30","120","50","20","[""White""]","No","Female","1890001","null","null","","","","clear_screen","","","","","","","","","","","","","","","","","","","","","","","","","",""
"","","","","","canvas-keyboard-response","167","274007","0.0-12.0-0.31","2d_cat_multi_stim_exp1","2022-4-21","15:2:31","25","75","3","9","10","40","30","120","50","20","[""White""]","No","Female","1890001","null","null","","","","fixation","","","","","","","","","","","","","","","","","","","","","","","","","",""
"","","","","","canvas-keyboard-response","168","274521","0.0-12.0-1.31","2d_cat_multi_stim_exp1","2022-4-21","15:2:31","25","75","3","9","10","40","30","120","50","20","[""White""]","No","Female","1890001","null","null","","","","clear_screen","","","","","","","","","","","","","","","","","","","","","","","","","",""
"","","","","","canvas-keyboard-response","169","275581","0.0-12.0-2.31","2d_cat_multi_stim_exp1","2022-4-21","15:2:31","25","75","3","9","10","40","30","120","50","20","[""White""]","No","Female","1890001","1052","u","learn","","","learn_trial","31","75","in","1","1","","","","","","","","","","","","","","","","","","","","",""
"","","","","","canvas-keyboard-response","170","276092","0.0-12.0-3.31","2d_cat_multi_stim_exp1","2022-4-21","15:2:31","25","75","3","9","10","40","30","120","50","20","[""White""]","No","Female","1890001","null","null","learn_feedback","","","learn_feedback","31","75","in","","","","","","","","","","","","","","","","","","","","","","",""
"","","","","","canvas-keyboard-response","171","276151","0.0-12.0-4.31","2d_cat_multi_stim_exp1","2022-4-21","15:2:31","25","75","3","9","10","40","30","120","50","20","[""White""]","No","Female","1890001","null","null","","","","clear_screen","","","","","","","","","","","","","","","","","","","","","","","","","",""
"","","","","","canvas-keyboard-response","172","276661","0.0-12.0-0.32","2d_cat_multi_stim_exp1","2022-4-21","15:2:31","25","75","3","9","10","40","30","120","50","20","[""White""]","No","Female","1890001","null","null","","","","fixation","","","","","","","","","","","","","","","","","","","","","","","","","",""
"","","","","","canvas-keyboard-response","173","277172","0.0-12.0-1.32","2d_cat_multi_stim_exp1","2022-4-21","15:2:31","25","75","3","9","10","40","30","120","50","20","[""White""]","No","Female","1890001","null","null","","","","clear_screen","","","","","","","","","","","","","","","","","","","","","","","","","",""
"","","","","","canvas-keyboard-response","174","277798","0.0-12.0-2.32","2d_cat_multi_stim_exp1","2022-4-21","15:2:31","25","75","3","9","10","40","30","120","50","20","[""White""]","No","Female","1890001","616","i","learn","","","learn_trial","23.3333","30","out","0","1","","","","","","","","","","","","","","","","","","","","",""
"","","","","","canvas-keyboard-response","175","278305","0.0-12.0-3.32","2d_cat_multi_stim_exp1","2022-4-21","15:2:31","25","75","3","9","10","40","30","120","50","20","[""White""]","No","Female","1890001","null","null","learn_feedback","","","learn_feedback","23.3333","30","out","","","","","","","","","","","","","","","","","","","","","","",""
"","","","","","canvas-keyboard-response","176","278365","0.0-12.0-4.32","2d_cat_multi_stim_exp1","2022-4-21","15:2:31","25","75","3","9","10","40","30","120","50","20","[""White""]","No","Female","1890001","null","null","","","","clear_screen","","","","","","","","","","","","","","","","","","","","","","","","","",""
"","","","","","canvas-keyboard-response","177","278875","0.0-12.0-0.33","2d_cat_multi_stim_exp1","2022-4-21","15:2:31","25","75","3","9","10","40","30","120","50","20","[""White""]","No","Female","1890001","null","null","","","","fixation","","","","","","","","","","","","","","","","","","","","","","","","","",""
"","","","","","canvas-keyboard-response","178","279387","0.0-12.0-1.33","2d_cat_multi_stim_exp1","2022-4-21","15:2:31","25","75","3","9","10","40","30","120","50","20","[""White""]","No","Female","1890001","null","null","","","","clear_screen","","","","","","","","","","","","","","","","","","","","","","","","","",""
"","","","","","canvas-keyboard-response","179","280223","0.0-12.0-2.33","2d_cat_multi_stim_exp1","2022-4-21","15:2:31","25","75","3","9","10","40","30","120","50","20","[""White""]","No","Female","1890001","825","u","learn","","","learn_trial","26.8705","67.9635","in","1","1","","","","","","","","","","","","","","","","","","","","",""
"","","","","","canvas-keyboard-response","180","280733","0.0-12.0-3.33","2d_cat_multi_stim_exp1","2022-4-21","15:2:31","25","75","3","9","10","40","30","120","50","20","[""White""]","No","Female","1890001","null","null","learn_feedback","","","learn_feedback","26.8705","67.9635","in","","","","","","","","","","","","","","","","","","","","","","",""
"","","","","","canvas-keyboard-response","181","280791","0.0-12.0-4.33","2d_cat_multi_stim_exp1","2022-4-21","15:2:31","25","75","3","9","10","40","30","120","50","20","[""White""]","No","Female","1890001","null","null","","","","clear_screen","","","","","","","","","","","","","","","","","","","","","","","","","",""
"","","","","","canvas-keyboard-response","182","281299","0.0-12.0-0.34","2d_cat_multi_stim_exp1","2022-4-21","15:2:31","25","75","3","9","10","40","30","120","50","20","[""White""]","No","Female","1890001","null","null","","","","fixation","","","","","","","","","","","","","","","","","","","","","","","","","",""
"","","","","","canvas-keyboard-response","183","281808","0.0-12.0-1.34","2d_cat_multi_stim_exp1","2022-4-21","15:2:31","25","75","3","9","10","40","30","120","50","20","[""White""]","No","Female","1890001","null","null","","","","clear_screen","","","","","","","","","","","","","","","","","","","","","","","","","",""
"","","","","","canvas-keyboard-response","184","283031","0.0-12.0-2.34","2d_cat_multi_stim_exp1","2022-4-21","15:2:31","25","75","3","9","10","40","30","120","50","20","[""White""]","No","Female","1890001","1210","u","learn","","","learn_trial","22.1081","72.6057","in","1","1","","","","","","","","","","","","","","","","","","","","",""
"","","","","","canvas-keyboard-response","185","283540","0.0-12.0-3.34","2d_cat_multi_stim_exp1","2022-4-21","15:2:31","25","75","3","9","10","40","30","120","50","20","[""White""]","No","Female","1890001","null","null","learn_feedback","","","learn_feedback","22.1081","72.6057","in","","","","","","","","","","","","","","","","","","","","","","",""
"","","","","","canvas-keyboard-response","186","283602","0.0-12.0-4.34","2d_cat_multi_stim_exp1","2022-4-21","15:2:31","25","75","3","9","10","40","30","120","50","20","[""White""]","No","Female","1890001","null","null","","","","clear_screen","","","","","","","","","","","","","","","","","","","","","","","","","",""
"","","","","","canvas-keyboard-response","187","284110","0.0-12.0-0.35","2d_cat_multi_stim_exp1","2022-4-21","15:2:31","25","75","3","9","10","40","30","120","50","20","[""White""]","No","Female","1890001","null","null","","","","fixation","","","","","","","","","","","","","","","","","","","","","","","","","",""
"","","","","","canvas-keyboard-response","188","284621","0.0-12.0-1.35","2d_cat_multi_stim_exp1","2022-4-21","15:2:31","25","75","3","9","10","40","30","120","50","20","[""White""]","No","Female","1890001","null","null","","","","clear_screen","","","","","","","","","","","","","","","","","","","","","","","","","",""
"","","","","","canvas-keyboard-response","189","285774","0.0-12.0-2.35","2d_cat_multi_stim_exp1","2022-4-21","15:2:31","25","75","3","9","10","40","30","120","50","20","[""White""]","No","Female","1890001","1144","u","learn","","","learn_trial","22.0121","74.1932","in","1","1","","","","","","","","","","","","","","","","","","","","",""
"","","","","","canvas-keyboard-response","190","286285","0.0-12.0-3.35","2d_cat_multi_stim_exp1","2022-4-21","15:2:31","25","75","3","9","10","40","30","120","50","20","[""White""]","No","Female","1890001","null","null","learn_feedback","","","learn_feedback","22.0121","74.1932","in","","","","","","","","","","","","","","","","","","","","","","",""
"","","","","","canvas-keyboard-response","191","286348","0.0-12.0-4.35","2d_cat_multi_stim_exp1","2022-4-21","15:2:31","25","75","3","9","10","40","30","120","50","20","[""White""]","No","Female","1890001","null","null","","","","clear_screen","","","","","","","","","","","","","","","","","","","","","","","","","",""
"","","","","","canvas-keyboard-response","192","286860","0.0-12.0-0.36","2d_cat_multi_stim_exp1","2022-4-21","15:2:31","25","75","3","9","10","40","30","120","50","20","[""White""]","No","Female","1890001","null","null","","","","fixation","","","","","","","","","","","","","","","","","","","","","","","","","",""
"","","","","","canvas-keyboard-response","193","287375","0.0-12.0-1.36","2d_cat_multi_stim_exp1","2022-4-21","15:2:31","25","75","3","9","10","40","30","120","50","20","[""White""]","No","Female","1890001","null","null","","","","clear_screen","","","","","","","","","","","","","","","","","","","","","","","","","",""
"","","","","","canvas-keyboard-response","194","288399","0.0-12.0-2.36","2d_cat_multi_stim_exp1","2022-4-21","15:2:31","25","75","3","9","10","40","30","120","50","20","[""White""]","No","Female","1890001","1014","u","learn","","","learn_trial","13.3333","70","out","1","0","","","","","","","","","","","","","","","","","","","","",""
"","","","","","canvas-keyboard-response","195","289409","0.0-12.0-3.36","2d_cat_multi_stim_exp1","2022-4-21","15:2:31","25","75","3","9","10","40","30","120","50","20","[""White""]","No","Female","1890001","null","null","learn_feedback","","","learn_feedback","13.3333","70","out","","","","","","","","","","","","","","","","","","","","","","",""
"","","","","","canvas-keyboard-response","196","289468","0.0-12.0-4.36","2d_cat_multi_stim_exp1","2022-4-21","15:2:31","25","75","3","9","10","40","30","120","50","20","[""White""]","No","Female","1890001","null","null","","","","clear_screen","","","","","","","","","","","","","","","","","","","","","","","","","",""
"","","","","","canvas-keyboard-response","197","289978","0.0-12.0-0.37","2d_cat_multi_stim_exp1","2022-4-21","15:2:31","25","75","3","9","10","40","30","120","50","20","[""White""]","No","Female","1890001","null","null","","","","fixation","","","","","","","","","","","","","","","","","","","","","","","","","",""
"","","","","","canvas-keyboard-response","198","290489","0.0-12.0-1.37","2d_cat_multi_stim_exp1","2022-4-21","15:2:31","25","75","3","9","10","40","30","120","50","20","[""White""]","No","Female","1890001","null","null","","","","clear_screen","","","","","","","","","","","","","","","","","","","","","","","","","",""
"","","","","","canvas-keyboard-response","199","291150","0.0-12.0-2.37","2d_cat_multi_stim_exp1","2022-4-21","15:2:31","25","75","3","9","10","40","30","120","50","20","[""White""]","No","Female","1890001","650","i","learn","","","learn_trial","30","40","out","0","1","","","","","","","","","","","","","","","","","","","","",""
"","","","","","canvas-keyboard-response","200","291660","0.0-12.0-3.37","2d_cat_multi_stim_exp1","2022-4-21","15:2:31","25","75","3","9","10","40","30","120","50","20","[""White""]","No","Female","1890001","null","null","learn_feedback","","","learn_feedback","30","40","out","","","","","","","","","","","","","","","","","","","","","","",""
"","","","","","canvas-keyboard-response","201","291723","0.0-12.0-4.37","2d_cat_multi_stim_exp1","2022-4-21","15:2:31","25","75","3","9","10","40","30","120","50","20","[""White""]","No","Female","1890001","null","null","","","","clear_screen","","","","","","","","","","","","","","","","","","","","","","","","","",""
"","","","","","canvas-keyboard-response","202","292232","0.0-12.0-0.38","2d_cat_multi_stim_exp1","2022-4-21","15:2:31","25","75","3","9","10","40","30","120","50","20","[""White""]","No","Female","1890001","null","null","","","","fixation","","","","","","","","","","","","","","","","","","","","","","","","","",""
"","","","","","canvas-keyboard-response","203","292744","0.0-12.0-1.38","2d_cat_multi_stim_exp1","2022-4-21","15:2:31","25","75","3","9","10","40","30","120","50","20","[""White""]","No","Female","1890001","null","null","","","","clear_screen","","","","","","","","","","","","","","","","","","","","","","","","","",""
"","","","","","canvas-keyboard-response","204","293933","0.0-12.0-2.38","2d_cat_multi_stim_exp1","2022-4-21","15:2:31","25","75","3","9","10","40","30","120","50","20","[""White""]","No","Female","1890001","1176","i","learn","","","learn_trial","25.9271","83.5595","in","0","0","","","","","","","","","","","","","","","","","","","","",""
"","","","","","canvas-keyboard-response","205","294944","0.0-12.0-3.38","2d_cat_multi_stim_exp1","2022-4-21","15:2:31","25","75","3","9","10","40","30","120","50","20","[""White""]","No","Female","1890001","null","null","learn_feedback","","","learn_feedback","25.9271","83.5595","in","","","","","","","","","","","","","","","","","","","","","","",""
"","","","","","canvas-keyboard-response","206","295007","0.0-12.0-4.38","2d_cat_multi_stim_exp1","2022-4-21","15:2:31","25","75","3","9","10","40","30","120","50","20","[""White""]","No","Female","1890001","null","null","","","","clear_screen","","","","","","","","","","","","","","","","","","","","","","","","","",""
"","","","","","canvas-keyboard-response","207","295517","0.0-12.0-0.39","2d_cat_multi_stim_exp1","2022-4-21","15:2:31","25","75","3","9","10","40","30","120","50","20","[""White""]","No","Female","1890001","null","null","","","","fixation","","","","","","","","","","","","","","","","","","","","","","","","","",""
"","","","","","canvas-keyboard-response","208","296027","0.0-12.0-1.39","2d_cat_multi_stim_exp1","2022-4-21","15:2:31","25","75","3","9","10","40","30","120","50","20","[""White""]","No","Female","1890001","null","null","","","","clear_screen","","","","","","","","","","","","","","","","","","","","","","","","","",""
"","","","","","canvas-keyboard-response","209","297837","0.0-12.0-2.39","2d_cat_multi_stim_exp1","2022-4-21","15:2:31","25","75","3","9","10","40","30","120","50","20","[""White""]","No","Female","1890001","1799","i","learn","","","learn_trial","23.8209","83.2757","in","0","0","","","","","","","","","","","","","","","","","","","","",""
"","","","","","canvas-keyboard-response","210","298844","0.0-12.0-3.39","2d_cat_multi_stim_exp1","2022-4-21","15:2:31","25","75","3","9","10","40","30","120","50","20","[""White""]","No","Female","1890001","null","null","learn_feedback","","","learn_feedback","23.8209","83.2757","in","","","","","","","","","","","","","","","","","","","","","","",""
"","","","","","canvas-keyboard-response","211","298902","0.0-12.0-4.39","2d_cat_multi_stim_exp1","2022-4-21","15:2:31","25","75","3","9","10","40","30","120","50","20","[""White""]","No","Female","1890001","null","null","","","","clear_screen","","","","","","","","","","","","","","","","","","","","","","","","","",""
"","","","","","canvas-keyboard-response","212","299413","0.0-12.0-0.40","2d_cat_multi_stim_exp1","2022-4-21","15:2:31","25","75","3","9","10","40","30","120","50","20","[""White""]","No","Female","1890001","null","null","","","","fixation","","","","","","","","","","","","","","","","","","","","","","","","","",""
"","","","","","canvas-keyboard-response","213","299918","0.0-12.0-1.40","2d_cat_multi_stim_exp1","2022-4-21","15:2:31","25","75","3","9","10","40","30","120","50","20","[""White""]","No","Female","1890001","null","null","","","","clear_screen","","","","","","","","","","","","","","","","","","","","","","","","","",""
"","","","","","canvas-keyboard-response","214","300775","0.0-12.0-2.40","2d_cat_multi_stim_exp1","2022-4-21","15:2:31","25","75","3","9","10","40","30","120","50","20","[""White""]","No","Female","1890001","851","i","learn","","","learn_trial","40","40","out","0","1","","","","","","","","","","","","","","","","","","","","",""
"","","","","","canvas-keyboard-response","215","301284","0.0-12.0-3.40","2d_cat_multi_stim_exp1","2022-4-21","15:2:31","25","75","3","9","10","40","30","120","50","20","[""White""]","No","Female","1890001","null","null","learn_feedback","","","learn_feedback","40","40","out","","","","","","","","","","","","","","","","","","","","","","",""
"","","","","","canvas-keyboard-response","216","301342","0.0-12.0-4.40","2d_cat_multi_stim_exp1","2022-4-21","15:2:31","25","75","3","9","10","40","30","120","50","20","[""White""]","No","Female","1890001","null","null","","","","clear_screen","","","","","","","","","","","","","","","","","","","","","","","","","",""
"","","","","","canvas-keyboard-response","217","301853","0.0-12.0-0.41","2d_cat_multi_stim_exp1","2022-4-21","15:2:31","25","75","3","9","10","40","30","120","50","20","[""White""]","No","Female","1890001","null","null","","","","fixation","","","","","","","","","","","","","","","","","","","","","","","","","",""
"","","","","","canvas-keyboard-response","218","302367","0.0-12.0-1.41","2d_cat_multi_stim_exp1","2022-4-21","15:2:31","25","75","3","9","10","40","30","120","50","20","[""White""]","No","Female","1890001","null","null","","","","clear_screen","","","","","","","","","","","","","","","","","","","","","","","","","",""
"","","","","","canvas-keyboard-response","219","303534","0.0-12.0-2.41","2d_cat_multi_stim_exp1","2022-4-21","15:2:31","25","75","3","9","10","40","30","120","50","20","[""White""]","No","Female","1890001","1155","i","learn","","","learn_trial","25","75","in","0","0","","","","","","","","","","","","","","","","","","","","",""
"","","","","","canvas-keyboard-response","220","304546","0.0-12.0-3.41","2d_cat_multi_stim_exp1","2022-4-21","15:2:31","25","75","3","9","10","40","30","120","50","20","[""White""]","No","Female","1890001","null","null","learn_feedback","","","learn_feedback","25","75","in","","","","","","","","","","","","","","","","","","","","","","",""
"","","","","","canvas-keyboard-response","221","304604","0.0-12.0-4.41","2d_cat_multi_stim_exp1","2022-4-21","15:2:31","25","75","3","9","10","40","30","120","50","20","[""White""]","No","Female","1890001","null","null","","","","clear_screen","","","","","","","","","","","","","","","","","","","","","","","","","",""
"","","","","","canvas-keyboard-response","222","305115","0.0-12.0-0.42","2d_cat_multi_stim_exp1","2022-4-21","15:2:31","25","75","3","9","10","40","30","120","50","20","[""White""]","No","Female","1890001","null","null","","","","fixation","","","","","","","","","","","","","","","","","","","","","","","","","",""
"","","","","","canvas-keyboard-response","223","305627","0.0-12.0-1.42","2d_cat_multi_stim_exp1","2022-4-21","15:2:31","25","75","3","9","10","40","30","120","50","20","[""White""]","No","Female","1890001","null","null","","","","clear_screen","","","","","","","","","","","","","","","","","","","","","","","","","",""
"","","","","","canvas-keyboard-response","224","306430","0.0-12.0-2.42","2d_cat_multi_stim_exp1","2022-4-21","15:2:31","25","75","3","9","10","40","30","120","50","20","[""White""]","No","Female","1890001","795","i","learn","","","learn_trial","23.3333","40","out","0","1","","","","","","","","","","","","","","","","","","","","",""
"","","","","","canvas-keyboard-response","225","306941","0.0-12.0-3.42","2d_cat_multi_stim_exp1","2022-4-21","15:2:31","25","75","3","9","10","40","30","120","50","20","[""White""]","No","Female","1890001","null","null","learn_feedback","","","learn_feedback","23.3333","40","out","","","","","","","","","","","","","","","","","","","","","","",""
"","","","","","canvas-keyboard-response","226","307002","0.0-12.0-4.42","2d_cat_multi_stim_exp1","2022-4-21","15:2:31","25","75","3","9","10","40","30","120","50","20","[""White""]","No","Female","1890001","null","null","","","","clear_screen","","","","","","","","","","","","","","","","","","","","","","","","","",""
"","","","","","canvas-keyboard-response","227","307512","0.0-12.0-0.43","2d_cat_multi_stim_exp1","2022-4-21","15:2:31","25","75","3","9","10","40","30","120","50","20","[""White""]","No","Female","1890001","null","null","","","","fixation","","","","","","","","","","","","","","","","","","","","","","","","","",""
"","","","","","canvas-keyboard-response","228","308019","0.0-12.0-1.43","2d_cat_multi_stim_exp1","2022-4-21","15:2:31","25","75","3","9","10","40","30","120","50","20","[""White""]","No","Female","1890001","null","null","","","","clear_screen","","","","","","","","","","","","","","","","","","","","","","","","","",""
"","","","","","canvas-keyboard-response","229","309974","0.0-12.0-2.43","2d_cat_multi_stim_exp1","2022-4-21","15:2:31","25","75","3","9","10","40","30","120","50","20","[""White""]","No","Female","1890001","1946","i","learn","","","learn_trial","13.3333","100","out","0","1","","","","","","","","","","","","","","","","","","","","",""
"","","","","","canvas-keyboard-response","230","310483","0.0-12.0-3.43","2d_cat_multi_stim_exp1","2022-4-21","15:2:31","25","75","3","9","10","40","30","120","50","20","[""White""]","No","Female","1890001","null","null","learn_feedback","","","learn_feedback","13.3333","100","out","","","","","","","","","","","","","","","","","","","","","","",""
"","","","","","canvas-keyboard-response","231","310543","0.0-12.0-4.43","2d_cat_multi_stim_exp1","2022-4-21","15:2:31","25","75","3","9","10","40","30","120","50","20","[""White""]","No","Female","1890001","null","null","","","","clear_screen","","","","","","","","","","","","","","","","","","","","","","","","","",""
"","","","","","canvas-keyboard-response","232","311053","0.0-12.0-0.44","2d_cat_multi_stim_exp1","2022-4-21","15:2:31","25","75","3","9","10","40","30","120","50","20","[""White""]","No","Female","1890001","null","null","","","","fixation","","","","","","","","","","","","","","","","","","","","","","","","","",""
"","","","","","canvas-keyboard-response","233","311564","0.0-12.0-1.44","2d_cat_multi_stim_exp1","2022-4-21","15:2:31","25","75","3","9","10","40","30","120","50","20","[""White""]","No","Female","1890001","null","null","","","","clear_screen","","","","","","","","","","","","","","","","","","","","","","","","","",""
"","","","","","canvas-keyboard-response","234","312326","0.0-12.0-2.44","2d_cat_multi_stim_exp1","2022-4-21","15:2:31","25","75","3","9","10","40","30","120","50","20","[""White""]","No","Female","1890001","752","i","learn","","","learn_trial","40","60","out","0","1","","","","","","","","","","","","","","","","","","","","",""
"","","","","","canvas-keyboard-response","235","312836","0.0-12.0-3.44","2d_cat_multi_stim_exp1","2022-4-21","15:2:31","25","75","3","9","10","40","30","120","50","20","[""White""]","No","Female","1890001","null","null","learn_feedback","","","learn_feedback","40","60","out","","","","","","","","","","","","","","","","","","","","","","",""
"","","","","","canvas-keyboard-response","236","312894","0.0-12.0-4.44","2d_cat_multi_stim_exp1","2022-4-21","15:2:31","25","75","3","9","10","40","30","120","50","20","[""White""]","No","Female","1890001","null","null","","","","clear_screen","","","","","","","","","","","","","","","","","","","","","","","","","",""
"","","","","","canvas-keyboard-response","237","313404","0.0-12.0-0.45","2d_cat_multi_stim_exp1","2022-4-21","15:2:31","25","75","3","9","10","40","30","120","50","20","[""White""]","No","Female","1890001","null","null","","","","fixation","","","","","","","","","","","","","","","","","","","","","","","","","",""
"","","","","","canvas-keyboard-response","238","313915","0.0-12.0-1.45","2d_cat_multi_stim_exp1","2022-4-21","15:2:31","25","75","3","9","10","40","30","120","50","20","[""White""]","No","Female","1890001","null","null","","","","clear_screen","","","","","","","","","","","","","","","","","","","","","","","","","",""
"","","","","","canvas-keyboard-response","239","314743","0.0-12.0-2.45","2d_cat_multi_stim_exp1","2022-4-21","15:2:31","25","75","3","9","10","40","30","120","50","20","[""White""]","No","Female","1890001","816","i","learn","","","learn_trial","23.3333","100","out","0","1","","","","","","","","","","","","","","","","","","","","",""
"","","","","","canvas-keyboard-response","240","315253","0.0-12.0-3.45","2d_cat_multi_stim_exp1","2022-4-21","15:2:31","25","75","3","9","10","40","30","120","50","20","[""White""]","No","Female","1890001","null","null","learn_feedback","","","learn_feedback","23.3333","100","out","","","","","","","","","","","","","","","","","","","","","","",""
"","","","","","canvas-keyboard-response","241","315313","0.0-12.0-4.45","2d_cat_multi_stim_exp1","2022-4-21","15:2:31","25","75","3","9","10","40","30","120","50","20","[""White""]","No","Female","1890001","null","null","","","","clear_screen","","","","","","","","","","","","","","","","","","","","","","","","","",""
"","","","","","canvas-keyboard-response","242","315822","0.0-12.0-0.46","2d_cat_multi_stim_exp1","2022-4-21","15:2:31","25","75","3","9","10","40","30","120","50","20","[""White""]","No","Female","1890001","null","null","","","","fixation","","","","","","","","","","","","","","","","","","","","","","","","","",""
"","","","","","canvas-keyboard-response","243","316332","0.0-12.0-1.46","2d_cat_multi_stim_exp1","2022-4-21","15:2:31","25","75","3","9","10","40","30","120","50","20","[""White""]","No","Female","1890001","null","null","","","","clear_screen","","","","","","","","","","","","","","","","","","","","","","","","","",""
"","","","","","canvas-keyboard-response","244","317271","0.0-12.0-2.46","2d_cat_multi_stim_exp1","2022-4-21","15:2:31","25","75","3","9","10","40","30","120","50","20","[""White""]","No","Female","1890001","928","u","learn","","","learn_trial","23.3333","80","out","1","0","","","","","","","","","","","","","","","","","","","","",""
"","","","","","canvas-keyboard-response","245","318282","0.0-12.0-3.46","2d_cat_multi_stim_exp1","2022-4-21","15:2:31","25","75","3","9","10","40","30","120","50","20","[""White""]","No","Female","1890001","null","null","learn_feedback","","","learn_feedback","23.3333","80","out","","","","","","","","","","","","","","","","","","","","","","",""
"","","","","","canvas-keyboard-response","246","318343","0.0-12.0-4.46","2d_cat_multi_stim_exp1","2022-4-21","15:2:31","25","75","3","9","10","40","30","120","50","20","[""White""]","No","Female","1890001","null","null","","","","clear_screen","","","","","","","","","","","","","","","","","","","","","","","","","",""
"","","","","","canvas-keyboard-response","247","318853","0.0-12.0-0.47","2d_cat_multi_stim_exp1","2022-4-21","15:2:31","25","75","3","9","10","40","30","120","50","20","[""White""]","No","Female","1890001","null","null","","","","fixation","","","","","","","","","","","","","","","","","","","","","","","","","",""
"","","","","","canvas-keyboard-response","248","319368","0.0-12.0-1.47","2d_cat_multi_stim_exp1","2022-4-21","15:2:31","25","75","3","9","10","40","30","120","50","20","[""White""]","No","Female","1890001","null","null","","","","clear_screen","","","","","","","","","","","","","","","","","","","","","","","","","",""
"","","","","","canvas-keyboard-response","249","320166","0.0-12.0-2.47","2d_cat_multi_stim_exp1","2022-4-21","15:2:31","25","75","3","9","10","40","30","120","50","20","[""White""]","No","Female","1890001","784","i","learn","","","learn_trial","26.6667","100","out","0","1","","","","","","","","","","","","","","","","","","","","",""
"","","","","","canvas-keyboard-response","250","320676","0.0-12.0-3.47","2d_cat_multi_stim_exp1","2022-4-21","15:2:31","25","75","3","9","10","40","30","120","50","20","[""White""]","No","Female","1890001","null","null","learn_feedback","","","learn_feedback","26.6667","100","out","","","","","","","","","","","","","","","","","","","","","","",""
"","","","","","canvas-keyboard-response","251","320737","0.0-12.0-4.47","2d_cat_multi_stim_exp1","2022-4-21","15:2:31","25","75","3","9","10","40","30","120","50","20","[""White""]","No","Female","1890001","null","null","","","","clear_screen","","","","","","","","","","","","","","","","","","","","","","","","","",""
"","","","","","canvas-keyboard-response","252","321248","0.0-12.0-0.48","2d_cat_multi_stim_exp1","2022-4-21","15:2:31","25","75","3","9","10","40","30","120","50","20","[""White""]","No","Female","1890001","null","null","","","","fixation","","","","","","","","","","","","","","","","","","","","","","","","","",""
"","","","","","canvas-keyboard-response","253","321758","0.0-12.0-1.48","2d_cat_multi_stim_exp1","2022-4-21","15:2:31","25","75","3","9","10","40","30","120","50","20","[""White""]","No","Female","1890001","null","null","","","","clear_screen","","","","","","","","","","","","","","","","","","","","","","","","","",""
"","","","","","canvas-keyboard-response","254","322494","0.0-12.0-2.48","2d_cat_multi_stim_exp1","2022-4-21","15:2:31","25","75","3","9","10","40","30","120","50","20","[""White""]","No","Female","1890001","725","i","learn","","","learn_trial","26.6667","90","out","0","1","","","","","","","","","","","","","","","","","","","","",""
"","","","","","canvas-keyboard-response","255","323006","0.0-12.0-3.48","2d_cat_multi_stim_exp1","2022-4-21","15:2:31","25","75","3","9","10","40","30","120","50","20","[""White""]","No","Female","1890001","null","null","learn_feedback","","","learn_feedback","26.6667","90","out","","","","","","","","","","","","","","","","","","","","","","",""
"","","","","","canvas-keyboard-response","256","323070","0.0-12.0-4.48","2d_cat_multi_stim_exp1","2022-4-21","15:2:31","25","75","3","9","10","40","30","120","50","20","[""White""]","No","Female","1890001","null","null","","","","clear_screen","","","","","","","","","","","","","","","","","","","","","","","","","",""
"","","","","","canvas-keyboard-response","257","323580","0.0-12.0-0.49","2d_cat_multi_stim_exp1","2022-4-21","15:2:31","25","75","3","9","10","40","30","120","50","20","[""White""]","No","Female","1890001","null","null","","","","fixation","","","","","","","","","","","","","","","","","","","","","","","","","",""
"","","","","","canvas-keyboard-response","258","324092","0.0-12.0-1.49","2d_cat_multi_stim_exp1","2022-4-21","15:2:31","25","75","3","9","10","40","30","120","50","20","[""White""]","No","Female","1890001","null","null","","","","clear_screen","","","","","","","","","","","","","","","","","","","","","","","","","",""
"","","","","","canvas-keyboard-response","259","325134","0.0-12.0-2.49","2d_cat_multi_stim_exp1","2022-4-21","15:2:31","25","75","3","9","10","40","30","120","50","20","[""White""]","No","Female","1890001","1033","u","learn","","","learn_trial","25","75","in","1","1","","","","","","","","","","","","","","","","","","","","",""
"","","","","","canvas-keyboard-response","260","325646","0.0-12.0-3.49","2d_cat_multi_stim_exp1","2022-4-21","15:2:31","25","75","3","9","10","40","30","120","50","20","[""White""]","No","Female","1890001","null","null","learn_feedback","","","learn_feedback","25","75","in","","","","","","","","","","","","","","","","","","","","","","",""
"","","","","","canvas-keyboard-response","261","325707","0.0-12.0-4.49","2d_cat_multi_stim_exp1","2022-4-21","15:2:31","25","75","3","9","10","40","30","120","50","20","[""White""]","No","Female","1890001","null","null","","","","clear_screen","","","","","","","","","","","","","","","","","","","","","","","","","",""
"","","","","","canvas-keyboard-response","262","326217","0.0-12.0-0.50","2d_cat_multi_stim_exp1","2022-4-21","15:2:31","25","75","3","9","10","40","30","120","50","20","[""White""]","No","Female","1890001","null","null","","","","fixation","","","","","","","","","","","","","","","","","","","","","","","","","",""
"","","","","","canvas-keyboard-response","263","326729","0.0-12.0-1.50","2d_cat_multi_stim_exp1","2022-4-21","15:2:31","25","75","3","9","10","40","30","120","50","20","[""White""]","No","Female","1890001","null","null","","","","clear_screen","","","","","","","","","","","","","","","","","","","","","","","","","",""
"","","","","","canvas-keyboard-response","264","327566","0.0-12.0-2.50","2d_cat_multi_stim_exp1","2022-4-21","15:2:31","25","75","3","9","10","40","30","120","50","20","[""White""]","No","Female","1890001","826","u","learn","","","learn_trial","25","75","in","1","1","","","","","","","","","","","","","","","","","","","","",""
"","","","","","canvas-keyboard-response","265","328078","0.0-12.0-3.50","2d_cat_multi_stim_exp1","2022-4-21","15:2:31","25","75","3","9","10","40","30","120","50","20","[""White""]","No","Female","1890001","null","null","learn_feedback","","","learn_feedback","25","75","in","","","","","","","","","","","","","","","","","","","","","","",""
"","","","","","canvas-keyboard-response","266","328139","0.0-12.0-4.50","2d_cat_multi_stim_exp1","2022-4-21","15:2:31","25","75","3","9","10","40","30","120","50","20","[""White""]","No","Female","1890001","null","null","","","","clear_screen","","","","","","","","","","","","","","","","","","","","","","","","","",""
"","","","","","canvas-keyboard-response","267","328647","0.0-12.0-0.51","2d_cat_multi_stim_exp1","2022-4-21","15:2:31","25","75","3","9","10","40","30","120","50","20","[""White""]","No","Female","1890001","null","null","","","","fixation","","","","","","","","","","","","","","","","","","","","","","","","","",""
"","","","","","canvas-keyboard-response","268","329162","0.0-12.0-1.51","2d_cat_multi_stim_exp1","2022-4-21","15:2:31","25","75","3","9","10","40","30","120","50","20","[""White""]","No","Female","1890001","null","null","","","","clear_screen","","","","","","","","","","","","","","","","","","","","","","","","","",""
"","","","","","canvas-keyboard-response","269","330094","0.0-12.0-2.51","2d_cat_multi_stim_exp1","2022-4-21","15:2:31","25","75","3","9","10","40","30","120","50","20","[""White""]","No","Female","1890001","922","u","learn","","","learn_trial","27.8087","78.1624","in","1","1","","","","","","","","","","","","","","","","","","","","",""
"","","","","","canvas-keyboard-response","270","330604","0.0-12.0-3.51","2d_cat_multi_stim_exp1","2022-4-21","15:2:31","25","75","3","9","10","40","30","120","50","20","[""White""]","No","Female","1890001","null","null","learn_feedback","","","learn_feedback","27.8087","78.1624","in","","","","","","","","","","","","","","","","","","","","","","",""
"","","","","","canvas-keyboard-response","271","330664","0.0-12.0-4.51","2d_cat_multi_stim_exp1","2022-4-21","15:2:31","25","75","3","9","10","40","30","120","50","20","[""White""]","No","Female","1890001","null","null","","","","clear_screen","","","","","","","","","","","","","","","","","","","","","","","","","",""
"","","","","","canvas-keyboard-response","272","331175","0.0-12.0-0.52","2d_cat_multi_stim_exp1","2022-4-21","15:2:31","25","75","3","9","10","40","30","120","50","20","[""White""]","No","Female","1890001","null","null","","","","fixation","","","","","","","","","","","","","","","","","","","","","","","","","",""
"","","","","","canvas-keyboard-response","273","331689","0.0-12.0-1.52","2d_cat_multi_stim_exp1","2022-4-21","15:2:31","25","75","3","9","10","40","30","120","50","20","[""White""]","No","Female","1890001","null","null","","","","clear_screen","","","","","","","","","","","","","","","","","","","","","","","","","",""
"","","","","","canvas-keyboard-response","274","332806","0.0-12.0-2.52","2d_cat_multi_stim_exp1","2022-4-21","15:2:31","25","75","3","9","10","40","30","120","50","20","[""White""]","No","Female","1890001","1107","u","learn","","","learn_trial","24.8654","83.9909","in","1","1","","","","","","","","","","","","","","","","","","","","",""
"","","","","","canvas-keyboard-response","275","333315","0.0-12.0-3.52","2d_cat_multi_stim_exp1","2022-4-21","15:2:31","25","75","3","9","10","40","30","120","50","20","[""White""]","No","Female","1890001","null","null","learn_feedback","","","learn_feedback","24.8654","83.9909","in","","","","","","","","","","","","","","","","","","","","","","",""
"","","","","","canvas-keyboard-response","276","333373","0.0-12.0-4.52","2d_cat_multi_stim_exp1","2022-4-21","15:2:31","25","75","3","9","10","40","30","120","50","20","[""White""]","No","Female","1890001","null","null","","","","clear_screen","","","","","","","","","","","","","","","","","","","","","","","","","",""
"","","","","","canvas-keyboard-response","277","333881","0.0-12.0-0.53","2d_cat_multi_stim_exp1","2022-4-21","15:2:31","25","75","3","9","10","40","30","120","50","20","[""White""]","No","Female","1890001","null","null","","","","fixation","","","","","","","","","","","","","","","","","","","","","","","","","",""
"","","","","","canvas-keyboard-response","278","334388","0.0-12.0-1.53","2d_cat_multi_stim_exp1","2022-4-21","15:2:31","25","75","3","9","10","40","30","120","50","20","[""White""]","No","Female","1890001","null","null","","","","clear_screen","","","","","","","","","","","","","","","","","","","","","","","","","",""
"","","","","","canvas-keyboard-response","279","335094","0.0-12.0-2.53","2d_cat_multi_stim_exp1","2022-4-21","15:2:31","25","75","3","9","10","40","30","120","50","20","[""White""]","No","Female","1890001","698","u","learn","","","learn_trial","25","75","in","1","1","","","","","","","","","","","","","","","","","","","","",""
"","","","","","canvas-keyboard-response","280","335603","0.0-12.0-3.53","2d_cat_multi_stim_exp1","2022-4-21","15:2:31","25","75","3","9","10","40","30","120","50","20","[""White""]","No","Female","1890001","null","null","learn_feedback","","","learn_feedback","25","75","in","","","","","","","","","","","","","","","","","","","","","","",""
"","","","","","canvas-keyboard-response","281","335666","0.0-12.0-4.53","2d_cat_multi_stim_exp1","2022-4-21","15:2:31","25","75","3","9","10","40","30","120","50","20","[""White""]","No","Female","1890001","null","null","","","","clear_screen","","","","","","","","","","","","","","","","","","","","","","","","","",""
"","","","","","canvas-keyboard-response","282","336176","0.0-12.0-0.54","2d_cat_multi_stim_exp1","2022-4-21","15:2:31","25","75","3","9","10","40","30","120","50","20","[""White""]","No","Female","1890001","null","null","","","","fixation","","","","","","","","","","","","","","","","","","","","","","","","","",""
"","","","","","canvas-keyboard-response","283","336685","0.0-12.0-1.54","2d_cat_multi_stim_exp1","2022-4-21","15:2:31","25","75","3","9","10","40","30","120","50","20","[""White""]","No","Female","1890001","null","null","","","","clear_screen","","","","","","","","","","","","","","","","","","","","","","","","","",""
"","","","","","canvas-keyboard-response","284","337622","0.0-12.0-2.54","2d_cat_multi_stim_exp1","2022-4-21","15:2:31","25","75","3","9","10","40","30","120","50","20","[""White""]","No","Female","1890001","926","u","learn","","","learn_trial","26.4216","82.9254","in","1","1","","","","","","","","","","","","","","","","","","","","",""
"","","","","","canvas-keyboard-response","285","338133","0.0-12.0-3.54","2d_cat_multi_stim_exp1","2022-4-21","15:2:31","25","75","3","9","10","40","30","120","50","20","[""White""]","No","Female","1890001","null","null","learn_feedback","","","learn_feedback","26.4216","82.9254","in","","","","","","","","","","","","","","","","","","","","","","",""
"","","","","","canvas-keyboard-response","286","338195","0.0-12.0-4.54","2d_cat_multi_stim_exp1","2022-4-21","15:2:31","25","75","3","9","10","40","30","120","50","20","[""White""]","No","Female","1890001","null","null","","","","clear_screen","","","","","","","","","","","","","","","","","","","","","","","","","",""
"","","","","","canvas-keyboard-response","287","338704","0.0-12.0-0.55","2d_cat_multi_stim_exp1","2022-4-21","15:2:31","25","75","3","9","10","40","30","120","50","20","[""White""]","No","Female","1890001","null","null","","","","fixation","","","","","","","","","","","","","","","","","","","","","","","","","",""
"","","","","","canvas-keyboard-response","288","339210","0.0-12.0-1.55","2d_cat_multi_stim_exp1","2022-4-21","15:2:31","25","75","3","9","10","40","30","120","50","20","[""White""]","No","Female","1890001","null","null","","","","clear_screen","","","","","","","","","","","","","","","","","","","","","","","","","",""
"","","","","","canvas-keyboard-response","289","339710","0.0-12.0-2.55","2d_cat_multi_stim_exp1","2022-4-21","15:2:31","25","75","3","9","10","40","30","120","50","20","[""White""]","No","Female","1890001","490","u","learn","","","learn_trial","25","75","in","1","1","","","","","","","","","","","","","","","","","","","","",""
"","","","","","canvas-keyboard-response","290","340221","0.0-12.0-3.55","2d_cat_multi_stim_exp1","2022-4-21","15:2:31","25","75","3","9","10","40","30","120","50","20","[""White""]","No","Female","1890001","null","null","learn_feedback","","","learn_feedback","25","75","in","","","","","","","","","","","","","","","","","","","","","","",""
"","","","","","canvas-keyboard-response","291","340284","0.0-12.0-4.55","2d_cat_multi_stim_exp1","2022-4-21","15:2:31","25","75","3","9","10","40","30","120","50","20","[""White""]","No","Female","1890001","null","null","","","","clear_screen","","","","","","","","","","","","","","","","","","","","","","","","","",""
"","","","","","canvas-keyboard-response","292","340794","0.0-12.0-0.56","2d_cat_multi_stim_exp1","2022-4-21","15:2:31","25","75","3","9","10","40","30","120","50","20","[""White""]","No","Female","1890001","null","null","","","","fixation","","","","","","","","","","","","","","","","","","","","","","","","","",""
"","","","","","canvas-keyboard-response","293","341303","0.0-12.0-1.56","2d_cat_multi_stim_exp1","2022-4-21","15:2:31","25","75","3","9","10","40","30","120","50","20","[""White""]","No","Female","1890001","null","null","","","","clear_screen","","","","","","","","","","","","","","","","","","","","","","","","","",""
"","","","","","canvas-keyboard-response","294","341822","0.0-12.0-2.56","2d_cat_multi_stim_exp1","2022-4-21","15:2:31","25","75","3","9","10","40","30","120","50","20","[""White""]","No","Female","1890001","510","u","learn","","","learn_trial","25","75","in","1","1","","","","","","","","","","","","","","","","","","","","",""
"","","","","","canvas-keyboard-response","295","342333","0.0-12.0-3.56","2d_cat_multi_stim_exp1","2022-4-21","15:2:31","25","75","3","9","10","40","30","120","50","20","[""White""]","No","Female","1890001","null","null","learn_feedback","","","learn_feedback","25","75","in","","","","","","","","","","","","","","","","","","","","","","",""
"","","","","","canvas-keyboard-response","296","342393","0.0-12.0-4.56","2d_cat_multi_stim_exp1","2022-4-21","15:2:31","25","75","3","9","10","40","30","120","50","20","[""White""]","No","Female","1890001","null","null","","","","clear_screen","","","","","","","","","","","","","","","","","","","","","","","","","",""
