"success","timeout","failed_images","failed_audio","failed_video","trial_type","trial_index","time_elapsed","internal_node_id","exp_name","date","time","angle_mean_in","radius_mean_in","angle_sd_in","radius_sd_in","angle_min_out","angle_max_out","radius_min_out","radius_max_out","sub_n","age","race","ethnicity","gender","exp_duration","rt","response","exp_trial_type","stimulus","view_history","screen_id","angle","radius","distribution","correct","choice","order","angle_a","radius_a","angle_b","radius_b","angle_c","radius_c","jkl_correct","transfer_trial_type","choice_set","abc_correct","tc_correct","tc_angle","tdc_a","tdc_b","tdc_c","pair","category_a","category_b","category_c","question_order"
"true","false","[]","[]","[]","preload","0","27","0.0-0.0","2d_cat_multi_stim_exp1","2022-4-29","14:25:34","25","75","3","9","10","40","30","120","71","19","[""Asian""]","No","Female","1869635","","","","","","","","","","","","","","","","","","","","","","","","","","","","","","","",""
"","","","","","survey-html-form","1","2073","0.0-1.0","2d_cat_multi_stim_exp1","2022-4-29","14:25:34","25","75","3","9","10","40","30","120","71","19","[""Asian""]","No","Female","1869635","2030","{""response"":""71""}","enter-sub-number","","","","","","","","","","","","","","","","","","","","","","","","","","","","",""
"true","","","","","fullscreen","2","5621","0.0-2.0","2d_cat_multi_stim_exp1","2022-4-29","14:25:34","25","75","3","9","10","40","30","120","71","19","[""Asian""]","No","Female","1869635","","","","","","","","","","","","","","","","","","","","","","","","","","","","","","","",""
"","","","","","image-button-response","3","20342","0.0-3.0","2d_cat_multi_stim_exp1","2022-4-29","14:25:34","25","75","3","9","10","40","30","120","71","19","[""Asian""]","No","Female","1869635","14712","0","","consent.png","","","","","","","","","","","","","","","","","","","","","","","","","","","",""
"","","","","","html-button-response","4","32133","0.0-4.0","2d_cat_multi_stim_exp1","2022-4-29","14:25:34","25","75","3","9","10","40","30","120","71","19","[""Asian""]","No","Female","1869635","11786","0","","<div style= ""font-size:25px;"" <p> <strong> Welcome to the experiment! </strong><br> <p style=""color:#8B0000; font-size:25px;""><strong> Please do NOT exit full screen until you are done with the experiment. </strong> </p><p style=""font-size:25px;color:#8B0000;""> <strong> The experiment will be canceled and your data will be lost <br> if you try to go back or refresh the page at any point during the experiment.</strong> </p><br><p> <strong> Thanks in advance for your contribution to our research! </strong></p>","","","","","","","","","","","","","","","","","","","","","","","","","","","",""
"","","","","","instructions","5","75538","0.0-5.0","2d_cat_multi_stim_exp1","2022-4-29","14:25:34","25","75","3","9","10","40","30","120","71","19","[""Asian""]","No","Female","1869635","43399","","","","[{""page_index"":0,""viewing_time"":6875},{""page_index"":1,""viewing_time"":4096},{""page_index"":2,""viewing_time"":11439},{""page_index"":3,""viewing_time"":20989}]","instructions_1","","","","","","","","","","","","","","","","","","","","","","","","","",""
"","","","","","instructions","6","77069","0.0-6.0","2d_cat_multi_stim_exp1","2022-4-29","14:25:34","25","75","3","9","10","40","30","120","71","19","[""Asian""]","No","Female","1869635","1530","","","","[{""page_index"":0,""viewing_time"":1529}]","Click to see the kinds of turtles that will appear in the study.","","","","","","","","","","","","","","","","","","","","","","","","","",""
"","","","","","canvas-keyboard-response","7","92086","0.0-7.0","2d_cat_multi_stim_exp1","2022-4-29","14:25:34","25","75","3","9","10","40","30","120","71","19","[""Asian""]","No","Female","1869635","null","null","","","","demo_range","","","","","","","","","","","","","","","","","","","","","","","","","",""
"","","","","","instructions","8","94237","0.0-8.0","2d_cat_multi_stim_exp1","2022-4-29","14:25:34","25","75","3","9","10","40","30","120","71","19","[""Asian""]","No","Female","1869635","1648","","","","[{""page_index"":0,""viewing_time"":1647}]","Click to see some turtles in the subspecies.","","","","","","","","","","","","","","","","","","","","","","","","","",""
"","","","","","canvas-keyboard-response","9","109254","0.0-9.0","2d_cat_multi_stim_exp1","2022-4-29","14:25:34","25","75","3","9","10","40","30","120","71","19","[""Asian""]","No","Female","1869635","null","null","","","","demo_in","","","","","","","","","","","","","","","","","","","","","","","","","",""
"","","","","","instructions","10","161125","0.0-10.0","2d_cat_multi_stim_exp1","2022-4-29","14:25:34","25","75","3","9","10","40","30","120","71","19","[""Asian""]","No","Female","1869635","51369","","","","[{""page_index"":0,""viewing_time"":11808},{""page_index"":1,""viewing_time"":33255},{""page_index"":2,""viewing_time"":6305}]","instructions_2","","","","","","","","","","","","","","","","","","","","","","","","","",""
"","","","","","instructions","11","162405","0.0-11.0","2d_cat_multi_stim_exp1","2022-4-29","14:25:34","25","75","3","9","10","40","30","120","71","19","[""Asian""]","No","Female","1869635","1277","","","","[{""page_index"":0,""viewing_time"":1277}]","Click to begin the first phase of the experiment.","","","","","","","","","","","","","","","","","","","","","","","","","",""
"","","","","","canvas-keyboard-response","12","162913","0.0-12.0-0.0","2d_cat_multi_stim_exp1","2022-4-29","14:25:34","25","75","3","9","10","40","30","120","71","19","[""Asian""]","No","Female","1869635","null","null","","","","fixation","","","","","","","","","","","","","","","","","","","","","","","","","",""
"","","","","","canvas-keyboard-response","13","163423","0.0-12.0-1.0","2d_cat_multi_stim_exp1","2022-4-29","14:25:34","25","75","3","9","10","40","30","120","71","19","[""Asian""]","No","Female","1869635","null","null","","","","clear_screen","","","","","","","","","","","","","","","","","","","","","","","","","",""
"","","","","","canvas-keyboard-response","14","171517","0.0-12.0-2.0","2d_cat_multi_stim_exp1","2022-4-29","14:25:34","25","75","3","9","10","40","30","120","71","19","[""Asian""]","No","Female","1869635","8081","i","learn","","","learn_trial","24.3324","66.2256","in","0","0","","","","","","","","","","","","","","","","","","","","",""
"","","","","","canvas-keyboard-response","15","172530","0.0-12.0-3.0","2d_cat_multi_stim_exp1","2022-4-29","14:25:34","25","75","3","9","10","40","30","120","71","19","[""Asian""]","No","Female","1869635","null","null","learn_feedback","","","learn_feedback","24.3324","66.2256","in","","","","","","","","","","","","","","","","","","","","","","",""
"","","","","","canvas-keyboard-response","16","172595","0.0-12.0-4.0","2d_cat_multi_stim_exp1","2022-4-29","14:25:34","25","75","3","9","10","40","30","120","71","19","[""Asian""]","No","Female","1869635","null","null","","","","clear_screen","","","","","","","","","","","","","","","","","","","","","","","","","",""
"","","","","","canvas-keyboard-response","17","173108","0.0-12.0-0.1","2d_cat_multi_stim_exp1","2022-4-29","14:25:34","25","75","3","9","10","40","30","120","71","19","[""Asian""]","No","Female","1869635","null","null","","","","fixation","","","","","","","","","","","","","","","","","","","","","","","","","",""
"","","","","","canvas-keyboard-response","18","173622","0.0-12.0-1.1","2d_cat_multi_stim_exp1","2022-4-29","14:25:34","25","75","3","9","10","40","30","120","71","19","[""Asian""]","No","Female","1869635","null","null","","","","clear_screen","","","","","","","","","","","","","","","","","","","","","","","","","",""
"","","","","","canvas-keyboard-response","19","175596","0.0-12.0-2.1","2d_cat_multi_stim_exp1","2022-4-29","14:25:34","25","75","3","9","10","40","30","120","71","19","[""Asian""]","No","Female","1869635","1962","i","learn","","","learn_trial","25","75","in","0","0","","","","","","","","","","","","","","","","","","","","",""
"","","","","","canvas-keyboard-response","20","176606","0.0-12.0-3.1","2d_cat_multi_stim_exp1","2022-4-29","14:25:34","25","75","3","9","10","40","30","120","71","19","[""Asian""]","No","Female","1869635","null","null","learn_feedback","","","learn_feedback","25","75","in","","","","","","","","","","","","","","","","","","","","","","",""
"","","","","","canvas-keyboard-response","21","176668","0.0-12.0-4.1","2d_cat_multi_stim_exp1","2022-4-29","14:25:34","25","75","3","9","10","40","30","120","71","19","[""Asian""]","No","Female","1869635","null","null","","","","clear_screen","","","","","","","","","","","","","","","","","","","","","","","","","",""
"","","","","","canvas-keyboard-response","22","177178","0.0-12.0-0.2","2d_cat_multi_stim_exp1","2022-4-29","14:25:34","25","75","3","9","10","40","30","120","71","19","[""Asian""]","No","Female","1869635","null","null","","","","fixation","","","","","","","","","","","","","","","","","","","","","","","","","",""
"","","","","","canvas-keyboard-response","23","177693","0.0-12.0-1.2","2d_cat_multi_stim_exp1","2022-4-29","14:25:34","25","75","3","9","10","40","30","120","71","19","[""Asian""]","No","Female","1869635","null","null","","","","clear_screen","","","","","","","","","","","","","","","","","","","","","","","","","",""
"","","","","","canvas-keyboard-response","24","178964","0.0-12.0-2.2","2d_cat_multi_stim_exp1","2022-4-29","14:25:34","25","75","3","9","10","40","30","120","71","19","[""Asian""]","No","Female","1869635","1259","u","learn","","","learn_trial","20","100","out","0","1","","","","","","","","","","","","","","","","","","","","",""
"","","","","","canvas-keyboard-response","25","179975","0.0-12.0-3.2","2d_cat_multi_stim_exp1","2022-4-29","14:25:34","25","75","3","9","10","40","30","120","71","19","[""Asian""]","No","Female","1869635","null","null","learn_feedback","","","learn_feedback","20","100","out","","","","","","","","","","","","","","","","","","","","","","",""
"","","","","","canvas-keyboard-response","26","180036","0.0-12.0-4.2","2d_cat_multi_stim_exp1","2022-4-29","14:25:34","25","75","3","9","10","40","30","120","71","19","[""Asian""]","No","Female","1869635","null","null","","","","clear_screen","","","","","","","","","","","","","","","","","","","","","","","","","",""
"","","","","","canvas-keyboard-response","27","180544","0.0-12.0-0.3","2d_cat_multi_stim_exp1","2022-4-29","14:25:34","25","75","3","9","10","40","30","120","71","19","[""Asian""]","No","Female","1869635","null","null","","","","fixation","","","","","","","","","","","","","","","","","","","","","","","","","",""
"","","","","","canvas-keyboard-response","28","181055","0.0-12.0-1.3","2d_cat_multi_stim_exp1","2022-4-29","14:25:34","25","75","3","9","10","40","30","120","71","19","[""Asian""]","No","Female","1869635","null","null","","","","clear_screen","","","","","","","","","","","","","","","","","","","","","","","","","",""
"","","","","","canvas-keyboard-response","29","182205","0.0-12.0-2.3","2d_cat_multi_stim_exp1","2022-4-29","14:25:34","25","75","3","9","10","40","30","120","71","19","[""Asian""]","No","Female","1869635","1141","i","learn","","","learn_trial","36.6667","40","out","1","0","","","","","","","","","","","","","","","","","","","","",""
"","","","","","canvas-keyboard-response","30","182716","0.0-12.0-3.3","2d_cat_multi_stim_exp1","2022-4-29","14:25:34","25","75","3","9","10","40","30","120","71","19","[""Asian""]","No","Female","1869635","null","null","learn_feedback","","","learn_feedback","36.6667","40","out","","","","","","","","","","","","","","","","","","","","","","",""
"","","","","","canvas-keyboard-response","31","182779","0.0-12.0-4.3","2d_cat_multi_stim_exp1","2022-4-29","14:25:34","25","75","3","9","10","40","30","120","71","19","[""Asian""]","No","Female","1869635","null","null","","","","clear_screen","","","","","","","","","","","","","","","","","","","","","","","","","",""
"","","","","","canvas-keyboard-response","32","183288","0.0-12.0-0.4","2d_cat_multi_stim_exp1","2022-4-29","14:25:34","25","75","3","9","10","40","30","120","71","19","[""Asian""]","No","Female","1869635","null","null","","","","fixation","","","","","","","","","","","","","","","","","","","","","","","","","",""
"","","","","","canvas-keyboard-response","33","183796","0.0-12.0-1.4","2d_cat_multi_stim_exp1","2022-4-29","14:25:34","25","75","3","9","10","40","30","120","71","19","[""Asian""]","No","Female","1869635","null","null","","","","clear_screen","","","","","","","","","","","","","","","","","","","","","","","","","",""
"","","","","","canvas-keyboard-response","34","184813","0.0-12.0-2.4","2d_cat_multi_stim_exp1","2022-4-29","14:25:34","25","75","3","9","10","40","30","120","71","19","[""Asian""]","No","Female","1869635","1005","i","learn","","","learn_trial","10","40","out","1","0","","","","","","","","","","","","","","","","","","","","",""
"","","","","","canvas-keyboard-response","35","185324","0.0-12.0-3.4","2d_cat_multi_stim_exp1","2022-4-29","14:25:34","25","75","3","9","10","40","30","120","71","19","[""Asian""]","No","Female","1869635","null","null","learn_feedback","","","learn_feedback","10","40","out","","","","","","","","","","","","","","","","","","","","","","",""
"","","","","","canvas-keyboard-response","36","185382","0.0-12.0-4.4","2d_cat_multi_stim_exp1","2022-4-29","14:25:34","25","75","3","9","10","40","30","120","71","19","[""Asian""]","No","Female","1869635","null","null","","","","clear_screen","","","","","","","","","","","","","","","","","","","","","","","","","",""
"","","","","","canvas-keyboard-response","37","185891","0.0-12.0-0.5","2d_cat_multi_stim_exp1","2022-4-29","14:25:34","25","75","3","9","10","40","30","120","71","19","[""Asian""]","No","Female","1869635","null","null","","","","fixation","","","","","","","","","","","","","","","","","","","","","","","","","",""
"","","","","","canvas-keyboard-response","38","186403","0.0-12.0-1.5","2d_cat_multi_stim_exp1","2022-4-29","14:25:34","25","75","3","9","10","40","30","120","71","19","[""Asian""]","No","Female","1869635","null","null","","","","clear_screen","","","","","","","","","","","","","","","","","","","","","","","","","",""
"","","","","","canvas-keyboard-response","39","187499","0.0-12.0-2.5","2d_cat_multi_stim_exp1","2022-4-29","14:25:34","25","75","3","9","10","40","30","120","71","19","[""Asian""]","No","Female","1869635","1087","u","learn","","","learn_trial","23.3333","70","out","0","1","","","","","","","","","","","","","","","","","","","","",""
"","","","","","canvas-keyboard-response","40","188508","0.0-12.0-3.5","2d_cat_multi_stim_exp1","2022-4-29","14:25:34","25","75","3","9","10","40","30","120","71","19","[""Asian""]","No","Female","1869635","null","null","learn_feedback","","","learn_feedback","23.3333","70","out","","","","","","","","","","","","","","","","","","","","","","",""
"","","","","","canvas-keyboard-response","41","188567","0.0-12.0-4.5","2d_cat_multi_stim_exp1","2022-4-29","14:25:34","25","75","3","9","10","40","30","120","71","19","[""Asian""]","No","Female","1869635","null","null","","","","clear_screen","","","","","","","","","","","","","","","","","","","","","","","","","",""
"","","","","","canvas-keyboard-response","42","189075","0.0-12.0-0.6","2d_cat_multi_stim_exp1","2022-4-29","14:25:34","25","75","3","9","10","40","30","120","71","19","[""Asian""]","No","Female","1869635","null","null","","","","fixation","","","","","","","","","","","","","","","","","","","","","","","","","",""
"","","","","","canvas-keyboard-response","43","189584","0.0-12.0-1.6","2d_cat_multi_stim_exp1","2022-4-29","14:25:34","25","75","3","9","10","40","30","120","71","19","[""Asian""]","No","Female","1869635","null","null","","","","clear_screen","","","","","","","","","","","","","","","","","","","","","","","","","",""
"","","","","","canvas-keyboard-response","44","191125","0.0-12.0-2.6","2d_cat_multi_stim_exp1","2022-4-29","14:25:34","25","75","3","9","10","40","30","120","71","19","[""Asian""]","No","Female","1869635","1531","i","learn","","","learn_trial","23.3333","40","out","1","0","","","","","","","","","","","","","","","","","","","","",""
"","","","","","canvas-keyboard-response","45","191634","0.0-12.0-3.6","2d_cat_multi_stim_exp1","2022-4-29","14:25:34","25","75","3","9","10","40","30","120","71","19","[""Asian""]","No","Female","1869635","null","null","learn_feedback","","","learn_feedback","23.3333","40","out","","","","","","","","","","","","","","","","","","","","","","",""
"","","","","","canvas-keyboard-response","46","191696","0.0-12.0-4.6","2d_cat_multi_stim_exp1","2022-4-29","14:25:34","25","75","3","9","10","40","30","120","71","19","[""Asian""]","No","Female","1869635","null","null","","","","clear_screen","","","","","","","","","","","","","","","","","","","","","","","","","",""
"","","","","","canvas-keyboard-response","47","192205","0.0-12.0-0.7","2d_cat_multi_stim_exp1","2022-4-29","14:25:34","25","75","3","9","10","40","30","120","71","19","[""Asian""]","No","Female","1869635","null","null","","","","fixation","","","","","","","","","","","","","","","","","","","","","","","","","",""
"","","","","","canvas-keyboard-response","48","192718","0.0-12.0-1.7","2d_cat_multi_stim_exp1","2022-4-29","14:25:34","25","75","3","9","10","40","30","120","71","19","[""Asian""]","No","Female","1869635","null","null","","","","clear_screen","","","","","","","","","","","","","","","","","","","","","","","","","",""
"","","","","","canvas-keyboard-response","49","195363","0.0-12.0-2.7","2d_cat_multi_stim_exp1","2022-4-29","14:25:34","25","75","3","9","10","40","30","120","71","19","[""Asian""]","No","Female","1869635","2640","u","learn","","","learn_trial","25","75","in","1","1","","","","","","","","","","","","","","","","","","","","",""
"","","","","","canvas-keyboard-response","50","195873","0.0-12.0-3.7","2d_cat_multi_stim_exp1","2022-4-29","14:25:34","25","75","3","9","10","40","30","120","71","19","[""Asian""]","No","Female","1869635","null","null","learn_feedback","","","learn_feedback","25","75","in","","","","","","","","","","","","","","","","","","","","","","",""
"","","","","","canvas-keyboard-response","51","195932","0.0-12.0-4.7","2d_cat_multi_stim_exp1","2022-4-29","14:25:34","25","75","3","9","10","40","30","120","71","19","[""Asian""]","No","Female","1869635","null","null","","","","clear_screen","","","","","","","","","","","","","","","","","","","","","","","","","",""
"","","","","","canvas-keyboard-response","52","196442","0.0-12.0-0.8","2d_cat_multi_stim_exp1","2022-4-29","14:25:34","25","75","3","9","10","40","30","120","71","19","[""Asian""]","No","Female","1869635","null","null","","","","fixation","","","","","","","","","","","","","","","","","","","","","","","","","",""
"","","","","","canvas-keyboard-response","53","196952","0.0-12.0-1.8","2d_cat_multi_stim_exp1","2022-4-29","14:25:34","25","75","3","9","10","40","30","120","71","19","[""Asian""]","No","Female","1869635","null","null","","","","clear_screen","","","","","","","","","","","","","","","","","","","","","","","","","",""
"","","","","","canvas-keyboard-response","54","198132","0.0-12.0-2.8","2d_cat_multi_stim_exp1","2022-4-29","14:25:34","25","75","3","9","10","40","30","120","71","19","[""Asian""]","No","Female","1869635","1173","u","learn","","","learn_trial","30","80","out","0","1","","","","","","","","","","","","","","","","","","","","",""
"","","","","","canvas-keyboard-response","55","199140","0.0-12.0-3.8","2d_cat_multi_stim_exp1","2022-4-29","14:25:34","25","75","3","9","10","40","30","120","71","19","[""Asian""]","No","Female","1869635","null","null","learn_feedback","","","learn_feedback","30","80","out","","","","","","","","","","","","","","","","","","","","","","",""
"","","","","","canvas-keyboard-response","56","199200","0.0-12.0-4.8","2d_cat_multi_stim_exp1","2022-4-29","14:25:34","25","75","3","9","10","40","30","120","71","19","[""Asian""]","No","Female","1869635","null","null","","","","clear_screen","","","","","","","","","","","","","","","","","","","","","","","","","",""
"","","","","","canvas-keyboard-response","57","199707","0.0-12.0-0.9","2d_cat_multi_stim_exp1","2022-4-29","14:25:34","25","75","3","9","10","40","30","120","71","19","[""Asian""]","No","Female","1869635","null","null","","","","fixation","","","","","","","","","","","","","","","","","","","","","","","","","",""
"","","","","","canvas-keyboard-response","58","200221","0.0-12.0-1.9","2d_cat_multi_stim_exp1","2022-4-29","14:25:34","25","75","3","9","10","40","30","120","71","19","[""Asian""]","No","Female","1869635","null","null","","","","clear_screen","","","","","","","","","","","","","","","","","","","","","","","","","",""
"","","","","","canvas-keyboard-response","59","201412","0.0-12.0-2.9","2d_cat_multi_stim_exp1","2022-4-29","14:25:34","25","75","3","9","10","40","30","120","71","19","[""Asian""]","No","Female","1869635","1181","i","learn","","","learn_trial","26.6667","90","out","1","0","","","","","","","","","","","","","","","","","","","","",""
"","","","","","canvas-keyboard-response","60","201920","0.0-12.0-3.9","2d_cat_multi_stim_exp1","2022-4-29","14:25:34","25","75","3","9","10","40","30","120","71","19","[""Asian""]","No","Female","1869635","null","null","learn_feedback","","","learn_feedback","26.6667","90","out","","","","","","","","","","","","","","","","","","","","","","",""
"","","","","","canvas-keyboard-response","61","201982","0.0-12.0-4.9","2d_cat_multi_stim_exp1","2022-4-29","14:25:34","25","75","3","9","10","40","30","120","71","19","[""Asian""]","No","Female","1869635","null","null","","","","clear_screen","","","","","","","","","","","","","","","","","","","","","","","","","",""
"","","","","","canvas-keyboard-response","62","202493","0.0-12.0-0.10","2d_cat_multi_stim_exp1","2022-4-29","14:25:34","25","75","3","9","10","40","30","120","71","19","[""Asian""]","No","Female","1869635","null","null","","","","fixation","","","","","","","","","","","","","","","","","","","","","","","","","",""
"","","","","","canvas-keyboard-response","63","203007","0.0-12.0-1.10","2d_cat_multi_stim_exp1","2022-4-29","14:25:34","25","75","3","9","10","40","30","120","71","19","[""Asian""]","No","Female","1869635","null","null","","","","clear_screen","","","","","","","","","","","","","","","","","","","","","","","","","",""
"","","","","","canvas-keyboard-response","64","204323","0.0-12.0-2.10","2d_cat_multi_stim_exp1","2022-4-29","14:25:34","25","75","3","9","10","40","30","120","71","19","[""Asian""]","No","Female","1869635","1306","i","learn","","","learn_trial","30","110","out","1","0","","","","","","","","","","","","","","","","","","","","",""
"","","","","","canvas-keyboard-response","65","204834","0.0-12.0-3.10","2d_cat_multi_stim_exp1","2022-4-29","14:25:34","25","75","3","9","10","40","30","120","71","19","[""Asian""]","No","Female","1869635","null","null","learn_feedback","","","learn_feedback","30","110","out","","","","","","","","","","","","","","","","","","","","","","",""
"","","","","","canvas-keyboard-response","66","204899","0.0-12.0-4.10","2d_cat_multi_stim_exp1","2022-4-29","14:25:34","25","75","3","9","10","40","30","120","71","19","[""Asian""]","No","Female","1869635","null","null","","","","clear_screen","","","","","","","","","","","","","","","","","","","","","","","","","",""
"","","","","","canvas-keyboard-response","67","205408","0.0-12.0-0.11","2d_cat_multi_stim_exp1","2022-4-29","14:25:34","25","75","3","9","10","40","30","120","71","19","[""Asian""]","No","Female","1869635","null","null","","","","fixation","","","","","","","","","","","","","","","","","","","","","","","","","",""
"","","","","","canvas-keyboard-response","68","205920","0.0-12.0-1.11","2d_cat_multi_stim_exp1","2022-4-29","14:25:34","25","75","3","9","10","40","30","120","71","19","[""Asian""]","No","Female","1869635","null","null","","","","clear_screen","","","","","","","","","","","","","","","","","","","","","","","","","",""
"","","","","","canvas-keyboard-response","69","208117","0.0-12.0-2.11","2d_cat_multi_stim_exp1","2022-4-29","14:25:34","25","75","3","9","10","40","30","120","71","19","[""Asian""]","No","Female","1869635","2187","i","learn","","","learn_trial","25","75","in","0","0","","","","","","","","","","","","","","","","","","","","",""
"","","","","","canvas-keyboard-response","70","209125","0.0-12.0-3.11","2d_cat_multi_stim_exp1","2022-4-29","14:25:34","25","75","3","9","10","40","30","120","71","19","[""Asian""]","No","Female","1869635","null","null","learn_feedback","","","learn_feedback","25","75","in","","","","","","","","","","","","","","","","","","","","","","",""
"","","","","","canvas-keyboard-response","71","209187","0.0-12.0-4.11","2d_cat_multi_stim_exp1","2022-4-29","14:25:34","25","75","3","9","10","40","30","120","71","19","[""Asian""]","No","Female","1869635","null","null","","","","clear_screen","","","","","","","","","","","","","","","","","","","","","","","","","",""
"","","","","","canvas-keyboard-response","72","209697","0.0-12.0-0.12","2d_cat_multi_stim_exp1","2022-4-29","14:25:34","25","75","3","9","10","40","30","120","71","19","[""Asian""]","No","Female","1869635","null","null","","","","fixation","","","","","","","","","","","","","","","","","","","","","","","","","",""
"","","","","","canvas-keyboard-response","73","210211","0.0-12.0-1.12","2d_cat_multi_stim_exp1","2022-4-29","14:25:34","25","75","3","9","10","40","30","120","71","19","[""Asian""]","No","Female","1869635","null","null","","","","clear_screen","","","","","","","","","","","","","","","","","","","","","","","","","",""
"","","","","","canvas-keyboard-response","74","213492","0.0-12.0-2.12","2d_cat_multi_stim_exp1","2022-4-29","14:25:34","25","75","3","9","10","40","30","120","71","19","[""Asian""]","No","Female","1869635","3272","i","learn","","","learn_trial","25","75","in","0","0","","","","","","","","","","","","","","","","","","","","",""
"","","","","","canvas-keyboard-response","75","214503","0.0-12.0-3.12","2d_cat_multi_stim_exp1","2022-4-29","14:25:34","25","75","3","9","10","40","30","120","71","19","[""Asian""]","No","Female","1869635","null","null","learn_feedback","","","learn_feedback","25","75","in","","","","","","","","","","","","","","","","","","","","","","",""
"","","","","","canvas-keyboard-response","76","214565","0.0-12.0-4.12","2d_cat_multi_stim_exp1","2022-4-29","14:25:34","25","75","3","9","10","40","30","120","71","19","[""Asian""]","No","Female","1869635","null","null","","","","clear_screen","","","","","","","","","","","","","","","","","","","","","","","","","",""
"","","","","","canvas-keyboard-response","77","215074","0.0-12.0-0.13","2d_cat_multi_stim_exp1","2022-4-29","14:25:34","25","75","3","9","10","40","30","120","71","19","[""Asian""]","No","Female","1869635","null","null","","","","fixation","","","","","","","","","","","","","","","","","","","","","","","","","",""
"","","","","","canvas-keyboard-response","78","215585","0.0-12.0-1.13","2d_cat_multi_stim_exp1","2022-4-29","14:25:34","25","75","3","9","10","40","30","120","71","19","[""Asian""]","No","Female","1869635","null","null","","","","clear_screen","","","","","","","","","","","","","","","","","","","","","","","","","",""
"","","","","","canvas-keyboard-response","79","216492","0.0-12.0-2.13","2d_cat_multi_stim_exp1","2022-4-29","14:25:34","25","75","3","9","10","40","30","120","71","19","[""Asian""]","No","Female","1869635","896","i","learn","","","learn_trial","25","57","in","0","0","","","","","","","","","","","","","","","","","","","","",""
"","","","","","canvas-keyboard-response","80","217504","0.0-12.0-3.13","2d_cat_multi_stim_exp1","2022-4-29","14:25:34","25","75","3","9","10","40","30","120","71","19","[""Asian""]","No","Female","1869635","null","null","learn_feedback","","","learn_feedback","25","57","in","","","","","","","","","","","","","","","","","","","","","","",""
"","","","","","canvas-keyboard-response","81","217563","0.0-12.0-4.13","2d_cat_multi_stim_exp1","2022-4-29","14:25:34","25","75","3","9","10","40","30","120","71","19","[""Asian""]","No","Female","1869635","null","null","","","","clear_screen","","","","","","","","","","","","","","","","","","","","","","","","","",""
"","","","","","canvas-keyboard-response","82","218074","0.0-12.0-0.14","2d_cat_multi_stim_exp1","2022-4-29","14:25:34","25","75","3","9","10","40","30","120","71","19","[""Asian""]","No","Female","1869635","null","null","","","","fixation","","","","","","","","","","","","","","","","","","","","","","","","","",""
"","","","","","canvas-keyboard-response","83","218584","0.0-12.0-1.14","2d_cat_multi_stim_exp1","2022-4-29","14:25:34","25","75","3","9","10","40","30","120","71","19","[""Asian""]","No","Female","1869635","null","null","","","","clear_screen","","","","","","","","","","","","","","","","","","","","","","","","","",""
"","","","","","canvas-keyboard-response","84","219501","0.0-12.0-2.14","2d_cat_multi_stim_exp1","2022-4-29","14:25:34","25","75","3","9","10","40","30","120","71","19","[""Asian""]","No","Female","1869635","906","u","learn","","","learn_trial","10","90","out","0","1","","","","","","","","","","","","","","","","","","","","",""
"","","","","","canvas-keyboard-response","85","220509","0.0-12.0-3.14","2d_cat_multi_stim_exp1","2022-4-29","14:25:34","25","75","3","9","10","40","30","120","71","19","[""Asian""]","No","Female","1869635","null","null","learn_feedback","","","learn_feedback","10","90","out","","","","","","","","","","","","","","","","","","","","","","",""
"","","","","","canvas-keyboard-response","86","220571","0.0-12.0-4.14","2d_cat_multi_stim_exp1","2022-4-29","14:25:34","25","75","3","9","10","40","30","120","71","19","[""Asian""]","No","Female","1869635","null","null","","","","clear_screen","","","","","","","","","","","","","","","","","","","","","","","","","",""
"","","","","","canvas-keyboard-response","87","221083","0.0-12.0-0.15","2d_cat_multi_stim_exp1","2022-4-29","14:25:34","25","75","3","9","10","40","30","120","71","19","[""Asian""]","No","Female","1869635","null","null","","","","fixation","","","","","","","","","","","","","","","","","","","","","","","","","",""
"","","","","","canvas-keyboard-response","88","221596","0.0-12.0-1.15","2d_cat_multi_stim_exp1","2022-4-29","14:25:34","25","75","3","9","10","40","30","120","71","19","[""Asian""]","No","Female","1869635","null","null","","","","clear_screen","","","","","","","","","","","","","","","","","","","","","","","","","",""
"","","","","","canvas-keyboard-response","89","223228","0.0-12.0-2.15","2d_cat_multi_stim_exp1","2022-4-29","14:25:34","25","75","3","9","10","40","30","120","71","19","[""Asian""]","No","Female","1869635","1626","i","learn","","","learn_trial","27.2592","69.0786","in","0","0","","","","","","","","","","","","","","","","","","","","",""
"","","","","","canvas-keyboard-response","90","224241","0.0-12.0-3.15","2d_cat_multi_stim_exp1","2022-4-29","14:25:34","25","75","3","9","10","40","30","120","71","19","[""Asian""]","No","Female","1869635","null","null","learn_feedback","","","learn_feedback","27.2592","69.0786","in","","","","","","","","","","","","","","","","","","","","","","",""
"","","","","","canvas-keyboard-response","91","224300","0.0-12.0-4.15","2d_cat_multi_stim_exp1","2022-4-29","14:25:34","25","75","3","9","10","40","30","120","71","19","[""Asian""]","No","Female","1869635","null","null","","","","clear_screen","","","","","","","","","","","","","","","","","","","","","","","","","",""
"","","","","","canvas-keyboard-response","92","224808","0.0-12.0-0.16","2d_cat_multi_stim_exp1","2022-4-29","14:25:34","25","75","3","9","10","40","30","120","71","19","[""Asian""]","No","Female","1869635","null","null","","","","fixation","","","","","","","","","","","","","","","","","","","","","","","","","",""
"","","","","","canvas-keyboard-response","93","225318","0.0-12.0-1.16","2d_cat_multi_stim_exp1","2022-4-29","14:25:34","25","75","3","9","10","40","30","120","71","19","[""Asian""]","No","Female","1869635","null","null","","","","clear_screen","","","","","","","","","","","","","","","","","","","","","","","","","",""
"","","","","","canvas-keyboard-response","94","226387","0.0-12.0-2.16","2d_cat_multi_stim_exp1","2022-4-29","14:25:34","25","75","3","9","10","40","30","120","71","19","[""Asian""]","No","Female","1869635","1058","i","learn","","","learn_trial","33.3333","40","out","1","0","","","","","","","","","","","","","","","","","","","","",""
"","","","","","canvas-keyboard-response","95","226897","0.0-12.0-3.16","2d_cat_multi_stim_exp1","2022-4-29","14:25:34","25","75","3","9","10","40","30","120","71","19","[""Asian""]","No","Female","1869635","null","null","learn_feedback","","","learn_feedback","33.3333","40","out","","","","","","","","","","","","","","","","","","","","","","",""
"","","","","","canvas-keyboard-response","96","226959","0.0-12.0-4.16","2d_cat_multi_stim_exp1","2022-4-29","14:25:34","25","75","3","9","10","40","30","120","71","19","[""Asian""]","No","Female","1869635","null","null","","","","clear_screen","","","","","","","","","","","","","","","","","","","","","","","","","",""
"","","","","","canvas-keyboard-response","97","227468","0.0-12.0-0.17","2d_cat_multi_stim_exp1","2022-4-29","14:25:34","25","75","3","9","10","40","30","120","71","19","[""Asian""]","No","Female","1869635","null","null","","","","fixation","","","","","","","","","","","","","","","","","","","","","","","","","",""
"","","","","","canvas-keyboard-response","98","227978","0.0-12.0-1.17","2d_cat_multi_stim_exp1","2022-4-29","14:25:34","25","75","3","9","10","40","30","120","71","19","[""Asian""]","No","Female","1869635","null","null","","","","clear_screen","","","","","","","","","","","","","","","","","","","","","","","","","",""
"","","","","","canvas-keyboard-response","99","230428","0.0-12.0-2.17","2d_cat_multi_stim_exp1","2022-4-29","14:25:34","25","75","3","9","10","40","30","120","71","19","[""Asian""]","No","Female","1869635","2439","i","learn","","","learn_trial","26.6667","60","out","1","0","","","","","","","","","","","","","","","","","","","","",""
"","","","","","canvas-keyboard-response","100","230940","0.0-12.0-3.17","2d_cat_multi_stim_exp1","2022-4-29","14:25:34","25","75","3","9","10","40","30","120","71","19","[""Asian""]","No","Female","1869635","null","null","learn_feedback","","","learn_feedback","26.6667","60","out","","","","","","","","","","","","","","","","","","","","","","",""
"","","","","","canvas-keyboard-response","101","231002","0.0-12.0-4.17","2d_cat_multi_stim_exp1","2022-4-29","14:25:34","25","75","3","9","10","40","30","120","71","19","[""Asian""]","No","Female","1869635","null","null","","","","clear_screen","","","","","","","","","","","","","","","","","","","","","","","","","",""
"","","","","","canvas-keyboard-response","102","231512","0.0-12.0-0.18","2d_cat_multi_stim_exp1","2022-4-29","14:25:34","25","75","3","9","10","40","30","120","71","19","[""Asian""]","No","Female","1869635","null","null","","","","fixation","","","","","","","","","","","","","","","","","","","","","","","","","",""
"","","","","","canvas-keyboard-response","103","232023","0.0-12.0-1.18","2d_cat_multi_stim_exp1","2022-4-29","14:25:34","25","75","3","9","10","40","30","120","71","19","[""Asian""]","No","Female","1869635","null","null","","","","clear_screen","","","","","","","","","","","","","","","","","","","","","","","","","",""
"","","","","","canvas-keyboard-response","104","234163","0.0-12.0-2.18","2d_cat_multi_stim_exp1","2022-4-29","14:25:34","25","75","3","9","10","40","30","120","71","19","[""Asian""]","No","Female","1869635","2132","u","learn","","","learn_trial","13.3333","80","out","0","1","","","","","","","","","","","","","","","","","","","","",""
"","","","","","canvas-keyboard-response","105","235174","0.0-12.0-3.18","2d_cat_multi_stim_exp1","2022-4-29","14:25:34","25","75","3","9","10","40","30","120","71","19","[""Asian""]","No","Female","1869635","null","null","learn_feedback","","","learn_feedback","13.3333","80","out","","","","","","","","","","","","","","","","","","","","","","",""
"","","","","","canvas-keyboard-response","106","235235","0.0-12.0-4.18","2d_cat_multi_stim_exp1","2022-4-29","14:25:34","25","75","3","9","10","40","30","120","71","19","[""Asian""]","No","Female","1869635","null","null","","","","clear_screen","","","","","","","","","","","","","","","","","","","","","","","","","",""
"","","","","","canvas-keyboard-response","107","235744","0.0-12.0-0.19","2d_cat_multi_stim_exp1","2022-4-29","14:25:34","25","75","3","9","10","40","30","120","71","19","[""Asian""]","No","Female","1869635","null","null","","","","fixation","","","","","","","","","","","","","","","","","","","","","","","","","",""
"","","","","","canvas-keyboard-response","108","236253","0.0-12.0-1.19","2d_cat_multi_stim_exp1","2022-4-29","14:25:34","25","75","3","9","10","40","30","120","71","19","[""Asian""]","No","Female","1869635","null","null","","","","clear_screen","","","","","","","","","","","","","","","","","","","","","","","","","",""
"","","","","","canvas-keyboard-response","109","237174","0.0-12.0-2.19","2d_cat_multi_stim_exp1","2022-4-29","14:25:34","25","75","3","9","10","40","30","120","71","19","[""Asian""]","No","Female","1869635","909","i","learn","","","learn_trial","25","75","in","0","0","","","","","","","","","","","","","","","","","","","","",""
"","","","","","canvas-keyboard-response","110","238185","0.0-12.0-3.19","2d_cat_multi_stim_exp1","2022-4-29","14:25:34","25","75","3","9","10","40","30","120","71","19","[""Asian""]","No","Female","1869635","null","null","learn_feedback","","","learn_feedback","25","75","in","","","","","","","","","","","","","","","","","","","","","","",""
"","","","","","canvas-keyboard-response","111","238247","0.0-12.0-4.19","2d_cat_multi_stim_exp1","2022-4-29","14:25:34","25","75","3","9","10","40","30","120","71","19","[""Asian""]","No","Female","1869635","null","null","","","","clear_screen","","","","","","","","","","","","","","","","","","","","","","","","","",""
"","","","","","canvas-keyboard-response","112","238761","0.0-12.0-0.20","2d_cat_multi_stim_exp1","2022-4-29","14:25:34","25","75","3","9","10","40","30","120","71","19","[""Asian""]","No","Female","1869635","null","null","","","","fixation","","","","","","","","","","","","","","","","","","","","","","","","","",""
"","","","","","canvas-keyboard-response","113","239272","0.0-12.0-1.20","2d_cat_multi_stim_exp1","2022-4-29","14:25:34","25","75","3","9","10","40","30","120","71","19","[""Asian""]","No","Female","1869635","null","null","","","","clear_screen","","","","","","","","","","","","","","","","","","","","","","","","","",""
"","","","","","canvas-keyboard-response","114","239731","0.0-12.0-2.20","2d_cat_multi_stim_exp1","2022-4-29","14:25:34","25","75","3","9","10","40","30","120","71","19","[""Asian""]","No","Female","1869635","447","u","learn","","","learn_trial","40","70","out","0","1","","","","","","","","","","","","","","","","","","","","",""
"","","","","","canvas-keyboard-response","115","240737","0.0-12.0-3.20","2d_cat_multi_stim_exp1","2022-4-29","14:25:34","25","75","3","9","10","40","30","120","71","19","[""Asian""]","No","Female","1869635","null","null","learn_feedback","","","learn_feedback","40","70","out","","","","","","","","","","","","","","","","","","","","","","",""
"","","","","","canvas-keyboard-response","116","240794","0.0-12.0-4.20","2d_cat_multi_stim_exp1","2022-4-29","14:25:34","25","75","3","9","10","40","30","120","71","19","[""Asian""]","No","Female","1869635","null","null","","","","clear_screen","","","","","","","","","","","","","","","","","","","","","","","","","",""
"","","","","","canvas-keyboard-response","117","241303","0.0-12.0-0.21","2d_cat_multi_stim_exp1","2022-4-29","14:25:34","25","75","3","9","10","40","30","120","71","19","[""Asian""]","No","Female","1869635","null","null","","","","fixation","","","","","","","","","","","","","","","","","","","","","","","","","",""
"","","","","","canvas-keyboard-response","118","241813","0.0-12.0-1.21","2d_cat_multi_stim_exp1","2022-4-29","14:25:34","25","75","3","9","10","40","30","120","71","19","[""Asian""]","No","Female","1869635","null","null","","","","clear_screen","","","","","","","","","","","","","","","","","","","","","","","","","",""
"","","","","","canvas-keyboard-response","119","242165","0.0-12.0-2.21","2d_cat_multi_stim_exp1","2022-4-29","14:25:34","25","75","3","9","10","40","30","120","71","19","[""Asian""]","No","Female","1869635","340","i","learn","","","learn_trial","30","100","out","1","0","","","","","","","","","","","","","","","","","","","","",""
"","","","","","canvas-keyboard-response","120","242675","0.0-12.0-3.21","2d_cat_multi_stim_exp1","2022-4-29","14:25:34","25","75","3","9","10","40","30","120","71","19","[""Asian""]","No","Female","1869635","null","null","learn_feedback","","","learn_feedback","30","100","out","","","","","","","","","","","","","","","","","","","","","","",""
"","","","","","canvas-keyboard-response","121","242739","0.0-12.0-4.21","2d_cat_multi_stim_exp1","2022-4-29","14:25:34","25","75","3","9","10","40","30","120","71","19","[""Asian""]","No","Female","1869635","null","null","","","","clear_screen","","","","","","","","","","","","","","","","","","","","","","","","","",""
"","","","","","canvas-keyboard-response","122","243247","0.0-12.0-0.22","2d_cat_multi_stim_exp1","2022-4-29","14:25:34","25","75","3","9","10","40","30","120","71","19","[""Asian""]","No","Female","1869635","null","null","","","","fixation","","","","","","","","","","","","","","","","","","","","","","","","","",""
"","","","","","canvas-keyboard-response","123","243759","0.0-12.0-1.22","2d_cat_multi_stim_exp1","2022-4-29","14:25:34","25","75","3","9","10","40","30","120","71","19","[""Asian""]","No","Female","1869635","null","null","","","","clear_screen","","","","","","","","","","","","","","","","","","","","","","","","","",""
"","","","","","canvas-keyboard-response","124","244459","0.0-12.0-2.22","2d_cat_multi_stim_exp1","2022-4-29","14:25:34","25","75","3","9","10","40","30","120","71","19","[""Asian""]","No","Female","1869635","691","i","learn","","","learn_trial","26.6667","50","out","1","0","","","","","","","","","","","","","","","","","","","","",""
"","","","","","canvas-keyboard-response","125","244968","0.0-12.0-3.22","2d_cat_multi_stim_exp1","2022-4-29","14:25:34","25","75","3","9","10","40","30","120","71","19","[""Asian""]","No","Female","1869635","null","null","learn_feedback","","","learn_feedback","26.6667","50","out","","","","","","","","","","","","","","","","","","","","","","",""
"","","","","","canvas-keyboard-response","126","245028","0.0-12.0-4.22","2d_cat_multi_stim_exp1","2022-4-29","14:25:34","25","75","3","9","10","40","30","120","71","19","[""Asian""]","No","Female","1869635","null","null","","","","clear_screen","","","","","","","","","","","","","","","","","","","","","","","","","",""
"","","","","","canvas-keyboard-response","127","245536","0.0-12.0-0.23","2d_cat_multi_stim_exp1","2022-4-29","14:25:34","25","75","3","9","10","40","30","120","71","19","[""Asian""]","No","Female","1869635","null","null","","","","fixation","","","","","","","","","","","","","","","","","","","","","","","","","",""
"","","","","","canvas-keyboard-response","128","246050","0.0-12.0-1.23","2d_cat_multi_stim_exp1","2022-4-29","14:25:34","25","75","3","9","10","40","30","120","71","19","[""Asian""]","No","Female","1869635","null","null","","","","clear_screen","","","","","","","","","","","","","","","","","","","","","","","","","",""
"","","","","","canvas-keyboard-response","129","249092","0.0-12.0-2.23","2d_cat_multi_stim_exp1","2022-4-29","14:25:34","25","75","3","9","10","40","30","120","71","19","[""Asian""]","No","Female","1869635","3032","i","learn","","","learn_trial","25","75","in","0","0","","","","","","","","","","","","","","","","","","","","",""
"","","","","","canvas-keyboard-response","130","250101","0.0-12.0-3.23","2d_cat_multi_stim_exp1","2022-4-29","14:25:34","25","75","3","9","10","40","30","120","71","19","[""Asian""]","No","Female","1869635","null","null","learn_feedback","","","learn_feedback","25","75","in","","","","","","","","","","","","","","","","","","","","","","",""
"","","","","","canvas-keyboard-response","131","250161","0.0-12.0-4.23","2d_cat_multi_stim_exp1","2022-4-29","14:25:34","25","75","3","9","10","40","30","120","71","19","[""Asian""]","No","Female","1869635","null","null","","","","clear_screen","","","","","","","","","","","","","","","","","","","","","","","","","",""
"","","","","","canvas-keyboard-response","132","250670","0.0-12.0-0.24","2d_cat_multi_stim_exp1","2022-4-29","14:25:34","25","75","3","9","10","40","30","120","71","19","[""Asian""]","No","Female","1869635","null","null","","","","fixation","","","","","","","","","","","","","","","","","","","","","","","","","",""
"","","","","","canvas-keyboard-response","133","251180","0.0-12.0-1.24","2d_cat_multi_stim_exp1","2022-4-29","14:25:34","25","75","3","9","10","40","30","120","71","19","[""Asian""]","No","Female","1869635","null","null","","","","clear_screen","","","","","","","","","","","","","","","","","","","","","","","","","",""
"","","","","","canvas-keyboard-response","134","252077","0.0-12.0-2.24","2d_cat_multi_stim_exp1","2022-4-29","14:25:34","25","75","3","9","10","40","30","120","71","19","[""Asian""]","No","Female","1869635","887","i","learn","","","learn_trial","33.3333","70","out","1","0","","","","","","","","","","","","","","","","","","","","",""
"","","","","","canvas-keyboard-response","135","252589","0.0-12.0-3.24","2d_cat_multi_stim_exp1","2022-4-29","14:25:34","25","75","3","9","10","40","30","120","71","19","[""Asian""]","No","Female","1869635","null","null","learn_feedback","","","learn_feedback","33.3333","70","out","","","","","","","","","","","","","","","","","","","","","","",""
"","","","","","canvas-keyboard-response","136","252652","0.0-12.0-4.24","2d_cat_multi_stim_exp1","2022-4-29","14:25:34","25","75","3","9","10","40","30","120","71","19","[""Asian""]","No","Female","1869635","null","null","","","","clear_screen","","","","","","","","","","","","","","","","","","","","","","","","","",""
"","","","","","canvas-keyboard-response","137","253161","0.0-12.0-0.25","2d_cat_multi_stim_exp1","2022-4-29","14:25:34","25","75","3","9","10","40","30","120","71","19","[""Asian""]","No","Female","1869635","null","null","","","","fixation","","","","","","","","","","","","","","","","","","","","","","","","","",""
"","","","","","canvas-keyboard-response","138","253672","0.0-12.0-1.25","2d_cat_multi_stim_exp1","2022-4-29","14:25:34","25","75","3","9","10","40","30","120","71","19","[""Asian""]","No","Female","1869635","null","null","","","","clear_screen","","","","","","","","","","","","","","","","","","","","","","","","","",""
"","","","","","canvas-keyboard-response","139","255035","0.0-12.0-2.25","2d_cat_multi_stim_exp1","2022-4-29","14:25:34","25","75","3","9","10","40","30","120","71","19","[""Asian""]","No","Female","1869635","1354","u","learn","","","learn_trial","25","75","in","1","1","","","","","","","","","","","","","","","","","","","","",""
"","","","","","canvas-keyboard-response","140","255549","0.0-12.0-3.25","2d_cat_multi_stim_exp1","2022-4-29","14:25:34","25","75","3","9","10","40","30","120","71","19","[""Asian""]","No","Female","1869635","null","null","learn_feedback","","","learn_feedback","25","75","in","","","","","","","","","","","","","","","","","","","","","","",""
"","","","","","canvas-keyboard-response","141","255610","0.0-12.0-4.25","2d_cat_multi_stim_exp1","2022-4-29","14:25:34","25","75","3","9","10","40","30","120","71","19","[""Asian""]","No","Female","1869635","null","null","","","","clear_screen","","","","","","","","","","","","","","","","","","","","","","","","","",""
"","","","","","canvas-keyboard-response","142","256116","0.0-12.0-0.26","2d_cat_multi_stim_exp1","2022-4-29","14:25:34","25","75","3","9","10","40","30","120","71","19","[""Asian""]","No","Female","1869635","null","null","","","","fixation","","","","","","","","","","","","","","","","","","","","","","","","","",""
"","","","","","canvas-keyboard-response","143","256627","0.0-12.0-1.26","2d_cat_multi_stim_exp1","2022-4-29","14:25:34","25","75","3","9","10","40","30","120","71","19","[""Asian""]","No","Female","1869635","null","null","","","","clear_screen","","","","","","","","","","","","","","","","","","","","","","","","","",""
"","","","","","canvas-keyboard-response","144","258028","0.0-12.0-2.26","2d_cat_multi_stim_exp1","2022-4-29","14:25:34","25","75","3","9","10","40","30","120","71","19","[""Asian""]","No","Female","1869635","1388","u","learn","","","learn_trial","25","75","in","1","1","","","","","","","","","","","","","","","","","","","","",""
"","","","","","canvas-keyboard-response","145","258539","0.0-12.0-3.26","2d_cat_multi_stim_exp1","2022-4-29","14:25:34","25","75","3","9","10","40","30","120","71","19","[""Asian""]","No","Female","1869635","null","null","learn_feedback","","","learn_feedback","25","75","in","","","","","","","","","","","","","","","","","","","","","","",""
"","","","","","canvas-keyboard-response","146","258599","0.0-12.0-4.26","2d_cat_multi_stim_exp1","2022-4-29","14:25:34","25","75","3","9","10","40","30","120","71","19","[""Asian""]","No","Female","1869635","null","null","","","","clear_screen","","","","","","","","","","","","","","","","","","","","","","","","","",""
"","","","","","canvas-keyboard-response","147","259106","0.0-12.0-0.27","2d_cat_multi_stim_exp1","2022-4-29","14:25:34","25","75","3","9","10","40","30","120","71","19","[""Asian""]","No","Female","1869635","null","null","","","","fixation","","","","","","","","","","","","","","","","","","","","","","","","","",""
"","","","","","canvas-keyboard-response","148","259616","0.0-12.0-1.27","2d_cat_multi_stim_exp1","2022-4-29","14:25:34","25","75","3","9","10","40","30","120","71","19","[""Asian""]","No","Female","1869635","null","null","","","","clear_screen","","","","","","","","","","","","","","","","","","","","","","","","","",""
"","","","","","canvas-keyboard-response","149","260540","0.0-12.0-2.27","2d_cat_multi_stim_exp1","2022-4-29","14:25:34","25","75","3","9","10","40","30","120","71","19","[""Asian""]","No","Female","1869635","914","i","learn","","","learn_trial","23.3473","82.5112","in","0","0","","","","","","","","","","","","","","","","","","","","",""
"","","","","","canvas-keyboard-response","150","261548","0.0-12.0-3.27","2d_cat_multi_stim_exp1","2022-4-29","14:25:34","25","75","3","9","10","40","30","120","71","19","[""Asian""]","No","Female","1869635","null","null","learn_feedback","","","learn_feedback","23.3473","82.5112","in","","","","","","","","","","","","","","","","","","","","","","",""
"","","","","","canvas-keyboard-response","151","261606","0.0-12.0-4.27","2d_cat_multi_stim_exp1","2022-4-29","14:25:34","25","75","3","9","10","40","30","120","71","19","[""Asian""]","No","Female","1869635","null","null","","","","clear_screen","","","","","","","","","","","","","","","","","","","","","","","","","",""
"","","","","","canvas-keyboard-response","152","262114","0.0-12.0-0.28","2d_cat_multi_stim_exp1","2022-4-29","14:25:34","25","75","3","9","10","40","30","120","71","19","[""Asian""]","No","Female","1869635","null","null","","","","fixation","","","","","","","","","","","","","","","","","","","","","","","","","",""
"","","","","","canvas-keyboard-response","153","262626","0.0-12.0-1.28","2d_cat_multi_stim_exp1","2022-4-29","14:25:34","25","75","3","9","10","40","30","120","71","19","[""Asian""]","No","Female","1869635","null","null","","","","clear_screen","","","","","","","","","","","","","","","","","","","","","","","","","",""
"","","","","","canvas-keyboard-response","154","263180","0.0-12.0-2.28","2d_cat_multi_stim_exp1","2022-4-29","14:25:34","25","75","3","9","10","40","30","120","71","19","[""Asian""]","No","Female","1869635","547","u","learn","","","learn_trial","25","75","in","1","1","","","","","","","","","","","","","","","","","","","","",""
"","","","","","canvas-keyboard-response","155","263690","0.0-12.0-3.28","2d_cat_multi_stim_exp1","2022-4-29","14:25:34","25","75","3","9","10","40","30","120","71","19","[""Asian""]","No","Female","1869635","null","null","learn_feedback","","","learn_feedback","25","75","in","","","","","","","","","","","","","","","","","","","","","","",""
"","","","","","canvas-keyboard-response","156","263745","0.0-12.0-4.28","2d_cat_multi_stim_exp1","2022-4-29","14:25:34","25","75","3","9","10","40","30","120","71","19","[""Asian""]","No","Female","1869635","null","null","","","","clear_screen","","","","","","","","","","","","","","","","","","","","","","","","","",""
"","","","","","canvas-keyboard-response","157","264255","0.0-12.0-0.29","2d_cat_multi_stim_exp1","2022-4-29","14:25:34","25","75","3","9","10","40","30","120","71","19","[""Asian""]","No","Female","1869635","null","null","","","","fixation","","","","","","","","","","","","","","","","","","","","","","","","","",""
"","","","","","canvas-keyboard-response","158","264765","0.0-12.0-1.29","2d_cat_multi_stim_exp1","2022-4-29","14:25:34","25","75","3","9","10","40","30","120","71","19","[""Asian""]","No","Female","1869635","null","null","","","","clear_screen","","","","","","","","","","","","","","","","","","","","","","","","","",""
"","","","","","canvas-keyboard-response","159","265148","0.0-12.0-2.29","2d_cat_multi_stim_exp1","2022-4-29","14:25:34","25","75","3","9","10","40","30","120","71","19","[""Asian""]","No","Female","1869635","372","i","learn","","","learn_trial","25","75","in","0","0","","","","","","","","","","","","","","","","","","","","",""
"","","","","","canvas-keyboard-response","160","266158","0.0-12.0-3.29","2d_cat_multi_stim_exp1","2022-4-29","14:25:34","25","75","3","9","10","40","30","120","71","19","[""Asian""]","No","Female","1869635","null","null","learn_feedback","","","learn_feedback","25","75","in","","","","","","","","","","","","","","","","","","","","","","",""
"","","","","","canvas-keyboard-response","161","266220","0.0-12.0-4.29","2d_cat_multi_stim_exp1","2022-4-29","14:25:34","25","75","3","9","10","40","30","120","71","19","[""Asian""]","No","Female","1869635","null","null","","","","clear_screen","","","","","","","","","","","","","","","","","","","","","","","","","",""
"","","","","","canvas-keyboard-response","162","266731","0.0-12.0-0.30","2d_cat_multi_stim_exp1","2022-4-29","14:25:34","25","75","3","9","10","40","30","120","71","19","[""Asian""]","No","Female","1869635","null","null","","","","fixation","","","","","","","","","","","","","","","","","","","","","","","","","",""
"","","","","","canvas-keyboard-response","163","267242","0.0-12.0-1.30","2d_cat_multi_stim_exp1","2022-4-29","14:25:34","25","75","3","9","10","40","30","120","71","19","[""Asian""]","No","Female","1869635","null","null","","","","clear_screen","","","","","","","","","","","","","","","","","","","","","","","","","",""
"","","","","","canvas-keyboard-response","164","267579","0.0-12.0-2.30","2d_cat_multi_stim_exp1","2022-4-29","14:25:34","25","75","3","9","10","40","30","120","71","19","[""Asian""]","No","Female","1869635","329","i","learn","","","learn_trial","36.6667","60","out","1","0","","","","","","","","","","","","","","","","","","","","",""
"","","","","","canvas-keyboard-response","165","268089","0.0-12.0-3.30","2d_cat_multi_stim_exp1","2022-4-29","14:25:34","25","75","3","9","10","40","30","120","71","19","[""Asian""]","No","Female","1869635","null","null","learn_feedback","","","learn_feedback","36.6667","60","out","","","","","","","","","","","","","","","","","","","","","","",""
"","","","","","canvas-keyboard-response","166","268147","0.0-12.0-4.30","2d_cat_multi_stim_exp1","2022-4-29","14:25:34","25","75","3","9","10","40","30","120","71","19","[""Asian""]","No","Female","1869635","null","null","","","","clear_screen","","","","","","","","","","","","","","","","","","","","","","","","","",""
"","","","","","canvas-keyboard-response","167","268659","0.0-12.0-0.31","2d_cat_multi_stim_exp1","2022-4-29","14:25:34","25","75","3","9","10","40","30","120","71","19","[""Asian""]","No","Female","1869635","null","null","","","","fixation","","","","","","","","","","","","","","","","","","","","","","","","","",""
"","","","","","canvas-keyboard-response","168","269165","0.0-12.0-1.31","2d_cat_multi_stim_exp1","2022-4-29","14:25:34","25","75","3","9","10","40","30","120","71","19","[""Asian""]","No","Female","1869635","null","null","","","","clear_screen","","","","","","","","","","","","","","","","","","","","","","","","","",""
"","","","","","canvas-keyboard-response","169","270052","0.0-12.0-2.31","2d_cat_multi_stim_exp1","2022-4-29","14:25:34","25","75","3","9","10","40","30","120","71","19","[""Asian""]","No","Female","1869635","884","u","learn","","","learn_trial","25","75","in","1","1","","","","","","","","","","","","","","","","","","","","",""
"","","","","","canvas-keyboard-response","170","270560","0.0-12.0-3.31","2d_cat_multi_stim_exp1","2022-4-29","14:25:34","25","75","3","9","10","40","30","120","71","19","[""Asian""]","No","Female","1869635","null","null","learn_feedback","","","learn_feedback","25","75","in","","","","","","","","","","","","","","","","","","","","","","",""
"","","","","","canvas-keyboard-response","171","270619","0.0-12.0-4.31","2d_cat_multi_stim_exp1","2022-4-29","14:25:34","25","75","3","9","10","40","30","120","71","19","[""Asian""]","No","Female","1869635","null","null","","","","clear_screen","","","","","","","","","","","","","","","","","","","","","","","","","",""
"","","","","","canvas-keyboard-response","172","271127","0.0-12.0-0.32","2d_cat_multi_stim_exp1","2022-4-29","14:25:34","25","75","3","9","10","40","30","120","71","19","[""Asian""]","No","Female","1869635","null","null","","","","fixation","","","","","","","","","","","","","","","","","","","","","","","","","",""
"","","","","","canvas-keyboard-response","173","271636","0.0-12.0-1.32","2d_cat_multi_stim_exp1","2022-4-29","14:25:34","25","75","3","9","10","40","30","120","71","19","[""Asian""]","No","Female","1869635","null","null","","","","clear_screen","","","","","","","","","","","","","","","","","","","","","","","","","",""
"","","","","","canvas-keyboard-response","174","272437","0.0-12.0-2.32","2d_cat_multi_stim_exp1","2022-4-29","14:25:34","25","75","3","9","10","40","30","120","71","19","[""Asian""]","No","Female","1869635","790","i","learn","","","learn_trial","22.2971","71.095","in","0","0","","","","","","","","","","","","","","","","","","","","",""
"","","","","","canvas-keyboard-response","175","273451","0.0-12.0-3.32","2d_cat_multi_stim_exp1","2022-4-29","14:25:34","25","75","3","9","10","40","30","120","71","19","[""Asian""]","No","Female","1869635","null","null","learn_feedback","","","learn_feedback","22.2971","71.095","in","","","","","","","","","","","","","","","","","","","","","","",""
"","","","","","canvas-keyboard-response","176","273512","0.0-12.0-4.32","2d_cat_multi_stim_exp1","2022-4-29","14:25:34","25","75","3","9","10","40","30","120","71","19","[""Asian""]","No","Female","1869635","null","null","","","","clear_screen","","","","","","","","","","","","","","","","","","","","","","","","","",""
"","","","","","canvas-keyboard-response","177","274024","0.0-12.0-0.33","2d_cat_multi_stim_exp1","2022-4-29","14:25:34","25","75","3","9","10","40","30","120","71","19","[""Asian""]","No","Female","1869635","null","null","","","","fixation","","","","","","","","","","","","","","","","","","","","","","","","","",""
"","","","","","canvas-keyboard-response","178","274536","0.0-12.0-1.33","2d_cat_multi_stim_exp1","2022-4-29","14:25:34","25","75","3","9","10","40","30","120","71","19","[""Asian""]","No","Female","1869635","null","null","","","","clear_screen","","","","","","","","","","","","","","","","","","","","","","","","","",""
"","","","","","canvas-keyboard-response","179","274866","0.0-12.0-2.33","2d_cat_multi_stim_exp1","2022-4-29","14:25:34","25","75","3","9","10","40","30","120","71","19","[""Asian""]","No","Female","1869635","321","u","learn","","","learn_trial","26.6667","70","out","0","1","","","","","","","","","","","","","","","","","","","","",""
"","","","","","canvas-keyboard-response","180","275872","0.0-12.0-3.33","2d_cat_multi_stim_exp1","2022-4-29","14:25:34","25","75","3","9","10","40","30","120","71","19","[""Asian""]","No","Female","1869635","null","null","learn_feedback","","","learn_feedback","26.6667","70","out","","","","","","","","","","","","","","","","","","","","","","",""
"","","","","","canvas-keyboard-response","181","275928","0.0-12.0-4.33","2d_cat_multi_stim_exp1","2022-4-29","14:25:34","25","75","3","9","10","40","30","120","71","19","[""Asian""]","No","Female","1869635","null","null","","","","clear_screen","","","","","","","","","","","","","","","","","","","","","","","","","",""
"","","","","","canvas-keyboard-response","182","276438","0.0-12.0-0.34","2d_cat_multi_stim_exp1","2022-4-29","14:25:34","25","75","3","9","10","40","30","120","71","19","[""Asian""]","No","Female","1869635","null","null","","","","fixation","","","","","","","","","","","","","","","","","","","","","","","","","",""
"","","","","","canvas-keyboard-response","183","276947","0.0-12.0-1.34","2d_cat_multi_stim_exp1","2022-4-29","14:25:34","25","75","3","9","10","40","30","120","71","19","[""Asian""]","No","Female","1869635","null","null","","","","clear_screen","","","","","","","","","","","","","","","","","","","","","","","","","",""
"","","","","","canvas-keyboard-response","184","277485","0.0-12.0-2.34","2d_cat_multi_stim_exp1","2022-4-29","14:25:34","25","75","3","9","10","40","30","120","71","19","[""Asian""]","No","Female","1869635","524","u","learn","","","learn_trial","10","120","out","0","1","","","","","","","","","","","","","","","","","","","","",""
"","","","","","canvas-keyboard-response","185","278494","0.0-12.0-3.34","2d_cat_multi_stim_exp1","2022-4-29","14:25:34","25","75","3","9","10","40","30","120","71","19","[""Asian""]","No","Female","1869635","null","null","learn_feedback","","","learn_feedback","10","120","out","","","","","","","","","","","","","","","","","","","","","","",""
"","","","","","canvas-keyboard-response","186","278554","0.0-12.0-4.34","2d_cat_multi_stim_exp1","2022-4-29","14:25:34","25","75","3","9","10","40","30","120","71","19","[""Asian""]","No","Female","1869635","null","null","","","","clear_screen","","","","","","","","","","","","","","","","","","","","","","","","","",""
"","","","","","canvas-keyboard-response","187","279065","0.0-12.0-0.35","2d_cat_multi_stim_exp1","2022-4-29","14:25:34","25","75","3","9","10","40","30","120","71","19","[""Asian""]","No","Female","1869635","null","null","","","","fixation","","","","","","","","","","","","","","","","","","","","","","","","","",""
"","","","","","canvas-keyboard-response","188","279575","0.0-12.0-1.35","2d_cat_multi_stim_exp1","2022-4-29","14:25:34","25","75","3","9","10","40","30","120","71","19","[""Asian""]","No","Female","1869635","null","null","","","","clear_screen","","","","","","","","","","","","","","","","","","","","","","","","","",""
"","","","","","canvas-keyboard-response","189","280220","0.0-12.0-2.35","2d_cat_multi_stim_exp1","2022-4-29","14:25:34","25","75","3","9","10","40","30","120","71","19","[""Asian""]","No","Female","1869635","635","i","learn","","","learn_trial","33.3333","50","out","1","0","","","","","","","","","","","","","","","","","","","","",""
"","","","","","canvas-keyboard-response","190","280732","0.0-12.0-3.35","2d_cat_multi_stim_exp1","2022-4-29","14:25:34","25","75","3","9","10","40","30","120","71","19","[""Asian""]","No","Female","1869635","null","null","learn_feedback","","","learn_feedback","33.3333","50","out","","","","","","","","","","","","","","","","","","","","","","",""
"","","","","","canvas-keyboard-response","191","280791","0.0-12.0-4.35","2d_cat_multi_stim_exp1","2022-4-29","14:25:34","25","75","3","9","10","40","30","120","71","19","[""Asian""]","No","Female","1869635","null","null","","","","clear_screen","","","","","","","","","","","","","","","","","","","","","","","","","",""
"","","","","","canvas-keyboard-response","192","281301","0.0-12.0-0.36","2d_cat_multi_stim_exp1","2022-4-29","14:25:34","25","75","3","9","10","40","30","120","71","19","[""Asian""]","No","Female","1869635","null","null","","","","fixation","","","","","","","","","","","","","","","","","","","","","","","","","",""
"","","","","","canvas-keyboard-response","193","281811","0.0-12.0-1.36","2d_cat_multi_stim_exp1","2022-4-29","14:25:34","25","75","3","9","10","40","30","120","71","19","[""Asian""]","No","Female","1869635","null","null","","","","clear_screen","","","","","","","","","","","","","","","","","","","","","","","","","",""
"","","","","","canvas-keyboard-response","194","282635","0.0-12.0-2.36","2d_cat_multi_stim_exp1","2022-4-29","14:25:34","25","75","3","9","10","40","30","120","71","19","[""Asian""]","No","Female","1869635","815","u","learn","","","learn_trial","23.8209","83.2757","in","1","1","","","","","","","","","","","","","","","","","","","","",""
"","","","","","canvas-keyboard-response","195","283146","0.0-12.0-3.36","2d_cat_multi_stim_exp1","2022-4-29","14:25:34","25","75","3","9","10","40","30","120","71","19","[""Asian""]","No","Female","1869635","null","null","learn_feedback","","","learn_feedback","23.8209","83.2757","in","","","","","","","","","","","","","","","","","","","","","","",""
"","","","","","canvas-keyboard-response","196","283208","0.0-12.0-4.36","2d_cat_multi_stim_exp1","2022-4-29","14:25:34","25","75","3","9","10","40","30","120","71","19","[""Asian""]","No","Female","1869635","null","null","","","","clear_screen","","","","","","","","","","","","","","","","","","","","","","","","","",""
"","","","","","canvas-keyboard-response","197","283715","0.0-12.0-0.37","2d_cat_multi_stim_exp1","2022-4-29","14:25:34","25","75","3","9","10","40","30","120","71","19","[""Asian""]","No","Female","1869635","null","null","","","","fixation","","","","","","","","","","","","","","","","","","","","","","","","","",""
"","","","","","canvas-keyboard-response","198","284229","0.0-12.0-1.37","2d_cat_multi_stim_exp1","2022-4-29","14:25:34","25","75","3","9","10","40","30","120","71","19","[""Asian""]","No","Female","1869635","null","null","","","","clear_screen","","","","","","","","","","","","","","","","","","","","","","","","","",""
"","","","","","canvas-keyboard-response","199","285605","0.0-12.0-2.37","2d_cat_multi_stim_exp1","2022-4-29","14:25:34","25","75","3","9","10","40","30","120","71","19","[""Asian""]","No","Female","1869635","1365","u","learn","","","learn_trial","30","70","out","0","1","","","","","","","","","","","","","","","","","","","","",""
"","","","","","canvas-keyboard-response","200","286614","0.0-12.0-3.37","2d_cat_multi_stim_exp1","2022-4-29","14:25:34","25","75","3","9","10","40","30","120","71","19","[""Asian""]","No","Female","1869635","null","null","learn_feedback","","","learn_feedback","30","70","out","","","","","","","","","","","","","","","","","","","","","","",""
"","","","","","canvas-keyboard-response","201","286673","0.0-12.0-4.37","2d_cat_multi_stim_exp1","2022-4-29","14:25:34","25","75","3","9","10","40","30","120","71","19","[""Asian""]","No","Female","1869635","null","null","","","","clear_screen","","","","","","","","","","","","","","","","","","","","","","","","","",""
"","","","","","canvas-keyboard-response","202","287181","0.0-12.0-0.38","2d_cat_multi_stim_exp1","2022-4-29","14:25:34","25","75","3","9","10","40","30","120","71","19","[""Asian""]","No","Female","1869635","null","null","","","","fixation","","","","","","","","","","","","","","","","","","","","","","","","","",""
"","","","","","canvas-keyboard-response","203","287688","0.0-12.0-1.38","2d_cat_multi_stim_exp1","2022-4-29","14:25:34","25","75","3","9","10","40","30","120","71","19","[""Asian""]","No","Female","1869635","null","null","","","","clear_screen","","","","","","","","","","","","","","","","","","","","","","","","","",""
"","","","","","canvas-keyboard-response","204","288300","0.0-12.0-2.38","2d_cat_multi_stim_exp1","2022-4-29","14:25:34","25","75","3","9","10","40","30","120","71","19","[""Asian""]","No","Female","1869635","601","i","learn","","","learn_trial","25.9271","83.5595","in","0","0","","","","","","","","","","","","","","","","","","","","",""
"","","","","","canvas-keyboard-response","205","289310","0.0-12.0-3.38","2d_cat_multi_stim_exp1","2022-4-29","14:25:34","25","75","3","9","10","40","30","120","71","19","[""Asian""]","No","Female","1869635","null","null","learn_feedback","","","learn_feedback","25.9271","83.5595","in","","","","","","","","","","","","","","","","","","","","","","",""
"","","","","","canvas-keyboard-response","206","289371","0.0-12.0-4.38","2d_cat_multi_stim_exp1","2022-4-29","14:25:34","25","75","3","9","10","40","30","120","71","19","[""Asian""]","No","Female","1869635","null","null","","","","clear_screen","","","","","","","","","","","","","","","","","","","","","","","","","",""
"","","","","","canvas-keyboard-response","207","289880","0.0-12.0-0.39","2d_cat_multi_stim_exp1","2022-4-29","14:25:34","25","75","3","9","10","40","30","120","71","19","[""Asian""]","No","Female","1869635","null","null","","","","fixation","","","","","","","","","","","","","","","","","","","","","","","","","",""
"","","","","","canvas-keyboard-response","208","290394","0.0-12.0-1.39","2d_cat_multi_stim_exp1","2022-4-29","14:25:34","25","75","3","9","10","40","30","120","71","19","[""Asian""]","No","Female","1869635","null","null","","","","clear_screen","","","","","","","","","","","","","","","","","","","","","","","","","",""
"","","","","","canvas-keyboard-response","209","291100","0.0-12.0-2.39","2d_cat_multi_stim_exp1","2022-4-29","14:25:34","25","75","3","9","10","40","30","120","71","19","[""Asian""]","No","Female","1869635","695","i","learn","","","learn_trial","26.8705","67.9635","in","0","0","","","","","","","","","","","","","","","","","","","","",""
"","","","","","canvas-keyboard-response","210","292108","0.0-12.0-3.39","2d_cat_multi_stim_exp1","2022-4-29","14:25:34","25","75","3","9","10","40","30","120","71","19","[""Asian""]","No","Female","1869635","null","null","learn_feedback","","","learn_feedback","26.8705","67.9635","in","","","","","","","","","","","","","","","","","","","","","","",""
"","","","","","canvas-keyboard-response","211","292168","0.0-12.0-4.39","2d_cat_multi_stim_exp1","2022-4-29","14:25:34","25","75","3","9","10","40","30","120","71","19","[""Asian""]","No","Female","1869635","null","null","","","","clear_screen","","","","","","","","","","","","","","","","","","","","","","","","","",""
"","","","","","canvas-keyboard-response","212","292679","0.0-12.0-0.40","2d_cat_multi_stim_exp1","2022-4-29","14:25:34","25","75","3","9","10","40","30","120","71","19","[""Asian""]","No","Female","1869635","null","null","","","","fixation","","","","","","","","","","","","","","","","","","","","","","","","","",""
"","","","","","canvas-keyboard-response","213","293190","0.0-12.0-1.40","2d_cat_multi_stim_exp1","2022-4-29","14:25:34","25","75","3","9","10","40","30","120","71","19","[""Asian""]","No","Female","1869635","null","null","","","","clear_screen","","","","","","","","","","","","","","","","","","","","","","","","","",""
"","","","","","canvas-keyboard-response","214","295156","0.0-12.0-2.40","2d_cat_multi_stim_exp1","2022-4-29","14:25:34","25","75","3","9","10","40","30","120","71","19","[""Asian""]","No","Female","1869635","1955","i","learn","","","learn_trial","23.3333","110","out","1","0","","","","","","","","","","","","","","","","","","","","",""
"","","","","","canvas-keyboard-response","215","295666","0.0-12.0-3.40","2d_cat_multi_stim_exp1","2022-4-29","14:25:34","25","75","3","9","10","40","30","120","71","19","[""Asian""]","No","Female","1869635","null","null","learn_feedback","","","learn_feedback","23.3333","110","out","","","","","","","","","","","","","","","","","","","","","","",""
"","","","","","canvas-keyboard-response","216","295722","0.0-12.0-4.40","2d_cat_multi_stim_exp1","2022-4-29","14:25:34","25","75","3","9","10","40","30","120","71","19","[""Asian""]","No","Female","1869635","null","null","","","","clear_screen","","","","","","","","","","","","","","","","","","","","","","","","","",""
"","","","","","canvas-keyboard-response","217","296233","0.0-12.0-0.41","2d_cat_multi_stim_exp1","2022-4-29","14:25:34","25","75","3","9","10","40","30","120","71","19","[""Asian""]","No","Female","1869635","null","null","","","","fixation","","","","","","","","","","","","","","","","","","","","","","","","","",""
"","","","","","canvas-keyboard-response","218","296744","0.0-12.0-1.41","2d_cat_multi_stim_exp1","2022-4-29","14:25:34","25","75","3","9","10","40","30","120","71","19","[""Asian""]","No","Female","1869635","null","null","","","","clear_screen","","","","","","","","","","","","","","","","","","","","","","","","","",""
"","","","","","canvas-keyboard-response","219","299116","0.0-12.0-2.41","2d_cat_multi_stim_exp1","2022-4-29","14:25:34","25","75","3","9","10","40","30","120","71","19","[""Asian""]","No","Female","1869635","2361","i","learn","","","learn_trial","13.3333","100","out","1","0","","","","","","","","","","","","","","","","","","","","",""
"","","","","","canvas-keyboard-response","220","299626","0.0-12.0-3.41","2d_cat_multi_stim_exp1","2022-4-29","14:25:34","25","75","3","9","10","40","30","120","71","19","[""Asian""]","No","Female","1869635","null","null","learn_feedback","","","learn_feedback","13.3333","100","out","","","","","","","","","","","","","","","","","","","","","","",""
"","","","","","canvas-keyboard-response","221","299689","0.0-12.0-4.41","2d_cat_multi_stim_exp1","2022-4-29","14:25:34","25","75","3","9","10","40","30","120","71","19","[""Asian""]","No","Female","1869635","null","null","","","","clear_screen","","","","","","","","","","","","","","","","","","","","","","","","","",""
"","","","","","canvas-keyboard-response","222","300197","0.0-12.0-0.42","2d_cat_multi_stim_exp1","2022-4-29","14:25:34","25","75","3","9","10","40","30","120","71","19","[""Asian""]","No","Female","1869635","null","null","","","","fixation","","","","","","","","","","","","","","","","","","","","","","","","","",""
"","","","","","canvas-keyboard-response","223","300707","0.0-12.0-1.42","2d_cat_multi_stim_exp1","2022-4-29","14:25:34","25","75","3","9","10","40","30","120","71","19","[""Asian""]","No","Female","1869635","null","null","","","","clear_screen","","","","","","","","","","","","","","","","","","","","","","","","","",""
"","","","","","canvas-keyboard-response","224","301822","0.0-12.0-2.42","2d_cat_multi_stim_exp1","2022-4-29","14:25:34","25","75","3","9","10","40","30","120","71","19","[""Asian""]","No","Female","1869635","1103","i","learn","","","learn_trial","25","75","in","0","0","","","","","","","","","","","","","","","","","","","","",""
"","","","","","canvas-keyboard-response","225","302830","0.0-12.0-3.42","2d_cat_multi_stim_exp1","2022-4-29","14:25:34","25","75","3","9","10","40","30","120","71","19","[""Asian""]","No","Female","1869635","null","null","learn_feedback","","","learn_feedback","25","75","in","","","","","","","","","","","","","","","","","","","","","","",""
"","","","","","canvas-keyboard-response","226","302888","0.0-12.0-4.42","2d_cat_multi_stim_exp1","2022-4-29","14:25:34","25","75","3","9","10","40","30","120","71","19","[""Asian""]","No","Female","1869635","null","null","","","","clear_screen","","","","","","","","","","","","","","","","","","","","","","","","","",""
"","","","","","canvas-keyboard-response","227","303398","0.0-12.0-0.43","2d_cat_multi_stim_exp1","2022-4-29","14:25:34","25","75","3","9","10","40","30","120","71","19","[""Asian""]","No","Female","1869635","null","null","","","","fixation","","","","","","","","","","","","","","","","","","","","","","","","","",""
"","","","","","canvas-keyboard-response","228","303908","0.0-12.0-1.43","2d_cat_multi_stim_exp1","2022-4-29","14:25:34","25","75","3","9","10","40","30","120","71","19","[""Asian""]","No","Female","1869635","null","null","","","","clear_screen","","","","","","","","","","","","","","","","","","","","","","","","","",""
"","","","","","canvas-keyboard-response","229","304668","0.0-12.0-2.43","2d_cat_multi_stim_exp1","2022-4-29","14:25:34","25","75","3","9","10","40","30","120","71","19","[""Asian""]","No","Female","1869635","751","u","learn","","","learn_trial","23.8209","66.7243","in","1","1","","","","","","","","","","","","","","","","","","","","",""
"","","","","","canvas-keyboard-response","230","305179","0.0-12.0-3.43","2d_cat_multi_stim_exp1","2022-4-29","14:25:34","25","75","3","9","10","40","30","120","71","19","[""Asian""]","No","Female","1869635","null","null","learn_feedback","","","learn_feedback","23.8209","66.7243","in","","","","","","","","","","","","","","","","","","","","","","",""
"","","","","","canvas-keyboard-response","231","305242","0.0-12.0-4.43","2d_cat_multi_stim_exp1","2022-4-29","14:25:34","25","75","3","9","10","40","30","120","71","19","[""Asian""]","No","Female","1869635","null","null","","","","clear_screen","","","","","","","","","","","","","","","","","","","","","","","","","",""
"","","","","","canvas-keyboard-response","232","305748","0.0-12.0-0.44","2d_cat_multi_stim_exp1","2022-4-29","14:25:34","25","75","3","9","10","40","30","120","71","19","[""Asian""]","No","Female","1869635","null","null","","","","fixation","","","","","","","","","","","","","","","","","","","","","","","","","",""
"","","","","","canvas-keyboard-response","233","306261","0.0-12.0-1.44","2d_cat_multi_stim_exp1","2022-4-29","14:25:34","25","75","3","9","10","40","30","120","71","19","[""Asian""]","No","Female","1869635","null","null","","","","clear_screen","","","","","","","","","","","","","","","","","","","","","","","","","",""
"","","","","","canvas-keyboard-response","234","307068","0.0-12.0-2.44","2d_cat_multi_stim_exp1","2022-4-29","14:25:34","25","75","3","9","10","40","30","120","71","19","[""Asian""]","No","Female","1869635","798","i","learn","","","learn_trial","30","30","out","1","0","","","","","","","","","","","","","","","","","","","","",""
"","","","","","canvas-keyboard-response","235","307576","0.0-12.0-3.44","2d_cat_multi_stim_exp1","2022-4-29","14:25:34","25","75","3","9","10","40","30","120","71","19","[""Asian""]","No","Female","1869635","null","null","learn_feedback","","","learn_feedback","30","30","out","","","","","","","","","","","","","","","","","","","","","","",""
"","","","","","canvas-keyboard-response","236","307635","0.0-12.0-4.44","2d_cat_multi_stim_exp1","2022-4-29","14:25:34","25","75","3","9","10","40","30","120","71","19","[""Asian""]","No","Female","1869635","null","null","","","","clear_screen","","","","","","","","","","","","","","","","","","","","","","","","","",""
"","","","","","canvas-keyboard-response","237","308145","0.0-12.0-0.45","2d_cat_multi_stim_exp1","2022-4-29","14:25:34","25","75","3","9","10","40","30","120","71","19","[""Asian""]","No","Female","1869635","null","null","","","","fixation","","","","","","","","","","","","","","","","","","","","","","","","","",""
"","","","","","canvas-keyboard-response","238","308659","0.0-12.0-1.45","2d_cat_multi_stim_exp1","2022-4-29","14:25:34","25","75","3","9","10","40","30","120","71","19","[""Asian""]","No","Female","1869635","null","null","","","","clear_screen","","","","","","","","","","","","","","","","","","","","","","","","","",""
"","","","","","canvas-keyboard-response","239","309684","0.0-12.0-2.45","2d_cat_multi_stim_exp1","2022-4-29","14:25:34","25","75","3","9","10","40","30","120","71","19","[""Asian""]","No","Female","1869635","1015","u","learn","","","learn_trial","25","75","in","1","1","","","","","","","","","","","","","","","","","","","","",""
"","","","","","canvas-keyboard-response","240","310194","0.0-12.0-3.45","2d_cat_multi_stim_exp1","2022-4-29","14:25:34","25","75","3","9","10","40","30","120","71","19","[""Asian""]","No","Female","1869635","null","null","learn_feedback","","","learn_feedback","25","75","in","","","","","","","","","","","","","","","","","","","","","","",""
"","","","","","canvas-keyboard-response","241","310259","0.0-12.0-4.45","2d_cat_multi_stim_exp1","2022-4-29","14:25:34","25","75","3","9","10","40","30","120","71","19","[""Asian""]","No","Female","1869635","null","null","","","","clear_screen","","","","","","","","","","","","","","","","","","","","","","","","","",""
"","","","","","canvas-keyboard-response","242","310767","0.0-12.0-0.46","2d_cat_multi_stim_exp1","2022-4-29","14:25:34","25","75","3","9","10","40","30","120","71","19","[""Asian""]","No","Female","1869635","null","null","","","","fixation","","","","","","","","","","","","","","","","","","","","","","","","","",""
"","","","","","canvas-keyboard-response","243","311283","0.0-12.0-1.46","2d_cat_multi_stim_exp1","2022-4-29","14:25:34","25","75","3","9","10","40","30","120","71","19","[""Asian""]","No","Female","1869635","null","null","","","","clear_screen","","","","","","","","","","","","","","","","","","","","","","","","","",""
"","","","","","canvas-keyboard-response","244","311964","0.0-12.0-2.46","2d_cat_multi_stim_exp1","2022-4-29","14:25:34","25","75","3","9","10","40","30","120","71","19","[""Asian""]","No","Female","1869635","669","u","learn","","","learn_trial","25.9271","66.4405","in","1","1","","","","","","","","","","","","","","","","","","","","",""
"","","","","","canvas-keyboard-response","245","312473","0.0-12.0-3.46","2d_cat_multi_stim_exp1","2022-4-29","14:25:34","25","75","3","9","10","40","30","120","71","19","[""Asian""]","No","Female","1869635","null","null","learn_feedback","","","learn_feedback","25.9271","66.4405","in","","","","","","","","","","","","","","","","","","","","","","",""
"","","","","","canvas-keyboard-response","246","312532","0.0-12.0-4.46","2d_cat_multi_stim_exp1","2022-4-29","14:25:34","25","75","3","9","10","40","30","120","71","19","[""Asian""]","No","Female","1869635","null","null","","","","clear_screen","","","","","","","","","","","","","","","","","","","","","","","","","",""
"","","","","","canvas-keyboard-response","247","313041","0.0-12.0-0.47","2d_cat_multi_stim_exp1","2022-4-29","14:25:34","25","75","3","9","10","40","30","120","71","19","[""Asian""]","No","Female","1869635","null","null","","","","fixation","","","","","","","","","","","","","","","","","","","","","","","","","",""
"","","","","","canvas-keyboard-response","248","313550","0.0-12.0-1.47","2d_cat_multi_stim_exp1","2022-4-29","14:25:34","25","75","3","9","10","40","30","120","71","19","[""Asian""]","No","Female","1869635","null","null","","","","clear_screen","","","","","","","","","","","","","","","","","","","","","","","","","",""
"","","","","","canvas-keyboard-response","249","314068","0.0-12.0-2.47","2d_cat_multi_stim_exp1","2022-4-29","14:25:34","25","75","3","9","10","40","30","120","71","19","[""Asian""]","No","Female","1869635","510","u","learn","","","learn_trial","25","75","in","1","1","","","","","","","","","","","","","","","","","","","","",""
"","","","","","canvas-keyboard-response","250","314576","0.0-12.0-3.47","2d_cat_multi_stim_exp1","2022-4-29","14:25:34","25","75","3","9","10","40","30","120","71","19","[""Asian""]","No","Female","1869635","null","null","learn_feedback","","","learn_feedback","25","75","in","","","","","","","","","","","","","","","","","","","","","","",""
"","","","","","canvas-keyboard-response","251","314634","0.0-12.0-4.47","2d_cat_multi_stim_exp1","2022-4-29","14:25:34","25","75","3","9","10","40","30","120","71","19","[""Asian""]","No","Female","1869635","null","null","","","","clear_screen","","","","","","","","","","","","","","","","","","","","","","","","","",""
"","","","","","canvas-keyboard-response","252","315145","0.0-12.0-0.48","2d_cat_multi_stim_exp1","2022-4-29","14:25:34","25","75","3","9","10","40","30","120","71","19","[""Asian""]","No","Female","1869635","null","null","","","","fixation","","","","","","","","","","","","","","","","","","","","","","","","","",""
"","","","","","canvas-keyboard-response","253","315659","0.0-12.0-1.48","2d_cat_multi_stim_exp1","2022-4-29","14:25:34","25","75","3","9","10","40","30","120","71","19","[""Asian""]","No","Female","1869635","null","null","","","","clear_screen","","","","","","","","","","","","","","","","","","","","","","","","","",""
"","","","","","canvas-keyboard-response","254","316419","0.0-12.0-2.48","2d_cat_multi_stim_exp1","2022-4-29","14:25:34","25","75","3","9","10","40","30","120","71","19","[""Asian""]","No","Female","1869635","752","u","learn","","","learn_trial","24.8654","83.9909","in","1","1","","","","","","","","","","","","","","","","","","","","",""
"","","","","","canvas-keyboard-response","255","316929","0.0-12.0-3.48","2d_cat_multi_stim_exp1","2022-4-29","14:25:34","25","75","3","9","10","40","30","120","71","19","[""Asian""]","No","Female","1869635","null","null","learn_feedback","","","learn_feedback","24.8654","83.9909","in","","","","","","","","","","","","","","","","","","","","","","",""
"","","","","","canvas-keyboard-response","256","316991","0.0-12.0-4.48","2d_cat_multi_stim_exp1","2022-4-29","14:25:34","25","75","3","9","10","40","30","120","71","19","[""Asian""]","No","Female","1869635","null","null","","","","clear_screen","","","","","","","","","","","","","","","","","","","","","","","","","",""
"","","","","","canvas-keyboard-response","257","317504","0.0-12.0-0.49","2d_cat_multi_stim_exp1","2022-4-29","14:25:34","25","75","3","9","10","40","30","120","71","19","[""Asian""]","No","Female","1869635","null","null","","","","fixation","","","","","","","","","","","","","","","","","","","","","","","","","",""
"","","","","","canvas-keyboard-response","258","318014","0.0-12.0-1.49","2d_cat_multi_stim_exp1","2022-4-29","14:25:34","25","75","3","9","10","40","30","120","71","19","[""Asian""]","No","Female","1869635","null","null","","","","clear_screen","","","","","","","","","","","","","","","","","","","","","","","","","",""
"","","","","","canvas-keyboard-response","259","318548","0.0-12.0-2.49","2d_cat_multi_stim_exp1","2022-4-29","14:25:34","25","75","3","9","10","40","30","120","71","19","[""Asian""]","No","Female","1869635","524","u","learn","","","learn_trial","26.8705","82.0365","in","1","1","","","","","","","","","","","","","","","","","","","","",""
"","","","","","canvas-keyboard-response","260","319061","0.0-12.0-3.49","2d_cat_multi_stim_exp1","2022-4-29","14:25:34","25","75","3","9","10","40","30","120","71","19","[""Asian""]","No","Female","1869635","null","null","learn_feedback","","","learn_feedback","26.8705","82.0365","in","","","","","","","","","","","","","","","","","","","","","","",""
"","","","","","canvas-keyboard-response","261","319121","0.0-12.0-4.49","2d_cat_multi_stim_exp1","2022-4-29","14:25:34","25","75","3","9","10","40","30","120","71","19","[""Asian""]","No","Female","1869635","null","null","","","","clear_screen","","","","","","","","","","","","","","","","","","","","","","","","","",""
"","","","","","canvas-keyboard-response","262","319629","0.0-12.0-0.50","2d_cat_multi_stim_exp1","2022-4-29","14:25:34","25","75","3","9","10","40","30","120","71","19","[""Asian""]","No","Female","1869635","null","null","","","","fixation","","","","","","","","","","","","","","","","","","","","","","","","","",""
"","","","","","canvas-keyboard-response","263","320140","0.0-12.0-1.50","2d_cat_multi_stim_exp1","2022-4-29","14:25:34","25","75","3","9","10","40","30","120","71","19","[""Asian""]","No","Female","1869635","null","null","","","","clear_screen","","","","","","","","","","","","","","","","","","","","","","","","","",""
"","","","","","canvas-keyboard-response","264","321012","0.0-12.0-2.50","2d_cat_multi_stim_exp1","2022-4-29","14:25:34","25","75","3","9","10","40","30","120","71","19","[""Asian""]","No","Female","1869635","861","i","learn","","","learn_trial","24.8654","66.0091","in","0","0","","","","","","","","","","","","","","","","","","","","",""
"","","","","","canvas-keyboard-response","265","322025","0.0-12.0-3.50","2d_cat_multi_stim_exp1","2022-4-29","14:25:34","25","75","3","9","10","40","30","120","71","19","[""Asian""]","No","Female","1869635","null","null","learn_feedback","","","learn_feedback","24.8654","66.0091","in","","","","","","","","","","","","","","","","","","","","","","",""
"","","","","","canvas-keyboard-response","266","322085","0.0-12.0-4.50","2d_cat_multi_stim_exp1","2022-4-29","14:25:34","25","75","3","9","10","40","30","120","71","19","[""Asian""]","No","Female","1869635","null","null","","","","clear_screen","","","","","","","","","","","","","","","","","","","","","","","","","",""
"","","","","","canvas-keyboard-response","267","322594","0.0-12.0-0.51","2d_cat_multi_stim_exp1","2022-4-29","14:25:34","25","75","3","9","10","40","30","120","71","19","[""Asian""]","No","Female","1869635","null","null","","","","fixation","","","","","","","","","","","","","","","","","","","","","","","","","",""
"","","","","","canvas-keyboard-response","268","323102","0.0-12.0-1.51","2d_cat_multi_stim_exp1","2022-4-29","14:25:34","25","75","3","9","10","40","30","120","71","19","[""Asian""]","No","Female","1869635","null","null","","","","clear_screen","","","","","","","","","","","","","","","","","","","","","","","","","",""
"","","","","","canvas-keyboard-response","269","323715","0.0-12.0-2.51","2d_cat_multi_stim_exp1","2022-4-29","14:25:34","25","75","3","9","10","40","30","120","71","19","[""Asian""]","No","Female","1869635","605","u","learn","","","learn_trial","25","75","in","1","1","","","","","","","","","","","","","","","","","","","","",""
"","","","","","canvas-keyboard-response","270","324229","0.0-12.0-3.51","2d_cat_multi_stim_exp1","2022-4-29","14:25:34","25","75","3","9","10","40","30","120","71","19","[""Asian""]","No","Female","1869635","null","null","learn_feedback","","","learn_feedback","25","75","in","","","","","","","","","","","","","","","","","","","","","","",""
"","","","","","canvas-keyboard-response","271","324289","0.0-12.0-4.51","2d_cat_multi_stim_exp1","2022-4-29","14:25:34","25","75","3","9","10","40","30","120","71","19","[""Asian""]","No","Female","1869635","null","null","","","","clear_screen","","","","","","","","","","","","","","","","","","","","","","","","","",""
"","","","","","canvas-keyboard-response","272","324797","0.0-12.0-0.52","2d_cat_multi_stim_exp1","2022-4-29","14:25:34","25","75","3","9","10","40","30","120","71","19","[""Asian""]","No","Female","1869635","null","null","","","","fixation","","","","","","","","","","","","","","","","","","","","","","","","","",""
"","","","","","canvas-keyboard-response","273","325307","0.0-12.0-1.52","2d_cat_multi_stim_exp1","2022-4-29","14:25:34","25","75","3","9","10","40","30","120","71","19","[""Asian""]","No","Female","1869635","null","null","","","","clear_screen","","","","","","","","","","","","","","","","","","","","","","","","","",""
"","","","","","canvas-keyboard-response","274","328012","0.0-12.0-2.52","2d_cat_multi_stim_exp1","2022-4-29","14:25:34","25","75","3","9","10","40","30","120","71","19","[""Asian""]","No","Female","1869635","2696","i","learn","","","learn_trial","23.3333","120","out","1","0","","","","","","","","","","","","","","","","","","","","",""
"","","","","","canvas-keyboard-response","275","328523","0.0-12.0-3.52","2d_cat_multi_stim_exp1","2022-4-29","14:25:34","25","75","3","9","10","40","30","120","71","19","[""Asian""]","No","Female","1869635","null","null","learn_feedback","","","learn_feedback","23.3333","120","out","","","","","","","","","","","","","","","","","","","","","","",""
"","","","","","canvas-keyboard-response","276","328581","0.0-12.0-4.52","2d_cat_multi_stim_exp1","2022-4-29","14:25:34","25","75","3","9","10","40","30","120","71","19","[""Asian""]","No","Female","1869635","null","null","","","","clear_screen","","","","","","","","","","","","","","","","","","","","","","","","","",""
"","","","","","canvas-keyboard-response","277","329091","0.0-12.0-0.53","2d_cat_multi_stim_exp1","2022-4-29","14:25:34","25","75","3","9","10","40","30","120","71","19","[""Asian""]","No","Female","1869635","null","null","","","","fixation","","","","","","","","","","","","","","","","","","","","","","","","","",""
"","","","","","canvas-keyboard-response","278","329603","0.0-12.0-1.53","2d_cat_multi_stim_exp1","2022-4-29","14:25:34","25","75","3","9","10","40","30","120","71","19","[""Asian""]","No","Female","1869635","null","null","","","","clear_screen","","","","","","","","","","","","","","","","","","","","","","","","","",""
"","","","","","canvas-keyboard-response","279","330236","0.0-12.0-2.53","2d_cat_multi_stim_exp1","2022-4-29","14:25:34","25","75","3","9","10","40","30","120","71","19","[""Asian""]","No","Female","1869635","622","i","learn","","","learn_trial","10","60","out","1","0","","","","","","","","","","","","","","","","","","","","",""
"","","","","","canvas-keyboard-response","280","330749","0.0-12.0-3.53","2d_cat_multi_stim_exp1","2022-4-29","14:25:34","25","75","3","9","10","40","30","120","71","19","[""Asian""]","No","Female","1869635","null","null","learn_feedback","","","learn_feedback","10","60","out","","","","","","","","","","","","","","","","","","","","","","",""
"","","","","","canvas-keyboard-response","281","330808","0.0-12.0-4.53","2d_cat_multi_stim_exp1","2022-4-29","14:25:34","25","75","3","9","10","40","30","120","71","19","[""Asian""]","No","Female","1869635","null","null","","","","clear_screen","","","","","","","","","","","","","","","","","","","","","","","","","",""
"","","","","","canvas-keyboard-response","282","331317","0.0-12.0-0.54","2d_cat_multi_stim_exp1","2022-4-29","14:25:34","25","75","3","9","10","40","30","120","71","19","[""Asian""]","No","Female","1869635","null","null","","","","fixation","","","","","","","","","","","","","","","","","","","","","","","","","",""
"","","","","","canvas-keyboard-response","283","331832","0.0-12.0-1.54","2d_cat_multi_stim_exp1","2022-4-29","14:25:34","25","75","3","9","10","40","30","120","71","19","[""Asian""]","No","Female","1869635","null","null","","","","clear_screen","","","","","","","","","","","","","","","","","","","","","","","","","",""
"","","","","","canvas-keyboard-response","284","333251","0.0-12.0-2.54","2d_cat_multi_stim_exp1","2022-4-29","14:25:34","25","75","3","9","10","40","30","120","71","19","[""Asian""]","No","Female","1869635","1409","u","learn","","","learn_trial","25","75","in","1","1","","","","","","","","","","","","","","","","","","","","",""
"","","","","","canvas-keyboard-response","285","333762","0.0-12.0-3.54","2d_cat_multi_stim_exp1","2022-4-29","14:25:34","25","75","3","9","10","40","30","120","71","19","[""Asian""]","No","Female","1869635","null","null","learn_feedback","","","learn_feedback","25","75","in","","","","","","","","","","","","","","","","","","","","","","",""
"","","","","","canvas-keyboard-response","286","333826","0.0-12.0-4.54","2d_cat_multi_stim_exp1","2022-4-29","14:25:34","25","75","3","9","10","40","30","120","71","19","[""Asian""]","No","Female","1869635","null","null","","","","clear_screen","","","","","","","","","","","","","","","","","","","","","","","","","",""
"","","","","","canvas-keyboard-response","287","334334","0.0-12.0-0.55","2d_cat_multi_stim_exp1","2022-4-29","14:25:34","25","75","3","9","10","40","30","120","71","19","[""Asian""]","No","Female","1869635","null","null","","","","fixation","","","","","","","","","","","","","","","","","","","","","","","","","",""
"","","","","","canvas-keyboard-response","288","334847","0.0-12.0-1.55","2d_cat_multi_stim_exp1","2022-4-29","14:25:34","25","75","3","9","10","40","30","120","71","19","[""Asian""]","No","Female","1869635","null","null","","","","clear_screen","","","","","","","","","","","","","","","","","","","","","","","","","",""
"","","","","","canvas-keyboard-response","289","335516","0.0-12.0-2.55","2d_cat_multi_stim_exp1","2022-4-29","14:25:34","25","75","3","9","10","40","30","120","71","19","[""Asian""]","No","Female","1869635","661","i","learn","","","learn_trial","16.6667","110","out","1","0","","","","","","","","","","","","","","","","","","","","",""
"","","","","","canvas-keyboard-response","290","336026","0.0-12.0-3.55","2d_cat_multi_stim_exp1","2022-4-29","14:25:34","25","75","3","9","10","40","30","120","71","19","[""Asian""]","No","Female","1869635","null","null","learn_feedback","","","learn_feedback","16.6667","110","out","","","","","","","","","","","","","","","","","","","","","","",""
"","","","","","canvas-keyboard-response","291","336087","0.0-12.0-4.55","2d_cat_multi_stim_exp1","2022-4-29","14:25:34","25","75","3","9","10","40","30","120","71","19","[""Asian""]","No","Female","1869635","null","null","","","","clear_screen","","","","","","","","","","","","","","","","","","","","","","","","","",""
"","","","","","canvas-keyboard-response","292","336598","0.0-12.0-0.56","2d_cat_multi_stim_exp1","2022-4-29","14:25:34","25","75","3","9","10","40","30","120","71","19","[""Asian""]","No","Female","1869635","null","null","","","","fixation","","","","","","","","","","","","","","","","","","","","","","","","","",""
"","","","","","canvas-keyboard-response","293","337110","0.0-12.0-1.56","2d_cat_multi_stim_exp1","2022-4-29","14:25:34","25","75","3","9","10","40","30","120","71","19","[""Asian""]","No","Female","1869635","null","null","","","","clear_screen","","","","","","","","","","","","","","","","","","","","","","","","","",""
"","","","","","canvas-keyboard-response","294","337811","0.0-12.0-2.56","2d_cat_multi_stim_exp1","2022-4-29","14:25:34","25","75","3","9","10","40","30","120","71","19","[""Asian""]","No","Female","1869635","692","i","learn","","","learn_trial","36.6667","120","out","1","0","","","","","","","","","","","","","","","","","","","","",""
"","","","","","canvas-keyboard-response","295","338318","0.0-12.0-3.56","2d_cat_multi_stim_exp1","2022-4-29","14:25:34","25","75","3","9","10","40","30","120","71","19","[""Asian""]","No","Female","1869635","null","null","learn_feedback","","","learn_feedback","36.6667","120","out","","","","","","","","","","","","","","","","","","","","","","",""
"","","","","","canvas-keyboard-response","296","338377","0.0-12.0-4.56","2d_cat_multi_stim_exp1","2022-4-29","14:25:34","25","75","3","9","10","40","30","120","71","19","[""Asian""]","No","Female","1869635","null","null","","","","clear_screen","","","","","","","","","","","","","","","","","","","","","","","","","",""
