"success","timeout","failed_images","failed_audio","failed_video","trial_type","trial_index","time_elapsed","internal_node_id","exp_name","date","time","angle_mean_in","radius_mean_in","angle_sd_in","radius_sd_in","angle_min_out","angle_max_out","radius_min_out","radius_max_out","sub_n","age","race","ethnicity","gender","exp_duration","rt","response","exp_trial_type","stimulus","view_history","screen_id","angle","radius","distribution","choice","correct","order","angle_a","radius_a","angle_b","radius_b","jkl_correct","transfer_trial_type","choice_set","abc_correct","tc_correct","tc_angle","tdc_a","tdc_b","tdc_c","pair","category_a","category_b","category_c","angle_c","radius_c","question_order"
"true","false","[]","[]","[]","preload","0","26","0.0-0.0","2d_cat_multi_stim_exp1","2022-4-26","15:2:4","25","75","3","9","10","40","30","120","61","20","[""White""]","No","Female","2923927","","","","","","","","","","","","","","","","","","","","","","","","","","","","","","","",""
"","","","","","survey-html-form","1","1289","0.0-1.0","2d_cat_multi_stim_exp1","2022-4-26","15:2:4","25","75","3","9","10","40","30","120","61","20","[""White""]","No","Female","2923927","1245","{""response"":""61""}","enter-sub-number","","","","","","","","","","","","","","","","","","","","","","","","","","","","",""
"true","","","","","fullscreen","2","2939","0.0-2.0","2d_cat_multi_stim_exp1","2022-4-26","15:2:4","25","75","3","9","10","40","30","120","61","20","[""White""]","No","Female","2923927","","","","","","","","","","","","","","","","","","","","","","","","","","","","","","","",""
"","","","","","image-button-response","3","847326","0.0-3.0","2d_cat_multi_stim_exp1","2022-4-26","15:2:4","25","75","3","9","10","40","30","120","61","20","[""White""]","No","Female","2923927","844381","0","","consent.png","","","","","","","","","","","","","","","","","","","","","","","","","","","",""
"","","","","","html-button-response","4","855797","0.0-4.0","2d_cat_multi_stim_exp1","2022-4-26","15:2:4","25","75","3","9","10","40","30","120","61","20","[""White""]","No","Female","2923927","8466","0","","<div style= ""font-size:25px;"" <p> <strong> Welcome to the experiment! </strong><br> <p style=""color:#8B0000; font-size:25px;""><strong> Please do NOT exit full screen until you are done with the experiment. </strong> </p><p style=""font-size:25px;color:#8B0000;""> <strong> The experiment will be canceled and your data will be lost <br> if you try to go back or refresh the page at any point during the experiment.</strong> </p><br><p> <strong> Thanks in advance for your contribution to our research! </strong></p>","","","","","","","","","","","","","","","","","","","","","","","","","","","",""
"","","","","","instructions","5","897141","0.0-5.0","2d_cat_multi_stim_exp1","2022-4-26","15:2:4","25","75","3","9","10","40","30","120","61","20","[""White""]","No","Female","2923927","41339","","","","[{""page_index"":0,""viewing_time"":6612},{""page_index"":1,""viewing_time"":3720},{""page_index"":2,""viewing_time"":9511},{""page_index"":3,""viewing_time"":21495}]","instructions_1","","","","","","","","","","","","","","","","","","","","","","","","","",""
"","","","","","instructions","6","899565","0.0-6.0","2d_cat_multi_stim_exp1","2022-4-26","15:2:4","25","75","3","9","10","40","30","120","61","20","[""White""]","No","Female","2923927","2422","","","","[{""page_index"":0,""viewing_time"":2421}]","Click to see the kinds of turtles that will appear in the study.","","","","","","","","","","","","","","","","","","","","","","","","","",""
"","","","","","canvas-keyboard-response","7","914586","0.0-7.0","2d_cat_multi_stim_exp1","2022-4-26","15:2:4","25","75","3","9","10","40","30","120","61","20","[""White""]","No","Female","2923927","null","null","","","","demo_range","","","","","","","","","","","","","","","","","","","","","","","","","",""
"","","","","","instructions","8","917061","0.0-8.0","2d_cat_multi_stim_exp1","2022-4-26","15:2:4","25","75","3","9","10","40","30","120","61","20","[""White""]","No","Female","2923927","1974","","","","[{""page_index"":0,""viewing_time"":1973}]","Click to see some turtles in the subspecies.","","","","","","","","","","","","","","","","","","","","","","","","","",""
"","","","","","canvas-keyboard-response","9","932078","0.0-9.0","2d_cat_multi_stim_exp1","2022-4-26","15:2:4","25","75","3","9","10","40","30","120","61","20","[""White""]","No","Female","2923927","null","null","","","","demo_in","","","","","","","","","","","","","","","","","","","","","","","","","",""
"","","","","","instructions","10","981949","0.0-10.0","2d_cat_multi_stim_exp1","2022-4-26","15:2:4","25","75","3","9","10","40","30","120","61","20","[""White""]","No","Female","2923927","49369","","","","[{""page_index"":0,""viewing_time"":5697},{""page_index"":1,""viewing_time"":32543},{""page_index"":2,""viewing_time"":11129}]","instructions_2","","","","","","","","","","","","","","","","","","","","","","","","","",""
"","","","","","instructions","11","983412","0.0-11.0","2d_cat_multi_stim_exp1","2022-4-26","15:2:4","25","75","3","9","10","40","30","120","61","20","[""White""]","No","Female","2923927","1461","","","","[{""page_index"":0,""viewing_time"":1461}]","Click to begin the first phase of the experiment.","","","","","","","","","","","","","","","","","","","","","","","","","",""
"","","","","","canvas-keyboard-response","12","983922","0.0-12.0-0.0","2d_cat_multi_stim_exp1","2022-4-26","15:2:4","25","75","3","9","10","40","30","120","61","20","[""White""]","No","Female","2923927","null","null","","","","fixation","","","","","","","","","","","","","","","","","","","","","","","","","",""
"","","","","","canvas-keyboard-response","13","984431","0.0-12.0-1.0","2d_cat_multi_stim_exp1","2022-4-26","15:2:4","25","75","3","9","10","40","30","120","61","20","[""White""]","No","Female","2923927","null","null","","","","clear_screen","","","","","","","","","","","","","","","","","","","","","","","","","",""
"","","","","","canvas-keyboard-response","14","986814","0.0-12.0-2.0","2d_cat_multi_stim_exp1","2022-4-26","15:2:4","25","75","3","9","10","40","30","120","61","20","[""White""]","No","Female","2923927","2371","u","learn","","","learn_trial","10","40","out","1","0","","","","","","","","","","","","","","","","","","","","",""
"","","","","","canvas-keyboard-response","15","987826","0.0-12.0-3.0","2d_cat_multi_stim_exp1","2022-4-26","15:2:4","25","75","3","9","10","40","30","120","61","20","[""White""]","No","Female","2923927","null","null","learn_feedback","","","learn_feedback","10","40","out","","","","","","","","","","","","","","","","","","","","","","",""
"","","","","","canvas-keyboard-response","16","987885","0.0-12.0-4.0","2d_cat_multi_stim_exp1","2022-4-26","15:2:4","25","75","3","9","10","40","30","120","61","20","[""White""]","No","Female","2923927","null","null","","","","clear_screen","","","","","","","","","","","","","","","","","","","","","","","","","",""
"","","","","","canvas-keyboard-response","17","988396","0.0-12.0-0.1","2d_cat_multi_stim_exp1","2022-4-26","15:2:4","25","75","3","9","10","40","30","120","61","20","[""White""]","No","Female","2923927","null","null","","","","fixation","","","","","","","","","","","","","","","","","","","","","","","","","",""
"","","","","","canvas-keyboard-response","18","988905","0.0-12.0-1.1","2d_cat_multi_stim_exp1","2022-4-26","15:2:4","25","75","3","9","10","40","30","120","61","20","[""White""]","No","Female","2923927","null","null","","","","clear_screen","","","","","","","","","","","","","","","","","","","","","","","","","",""
"","","","","","canvas-keyboard-response","19","990397","0.0-12.0-2.1","2d_cat_multi_stim_exp1","2022-4-26","15:2:4","25","75","3","9","10","40","30","120","61","20","[""White""]","No","Female","2923927","1482","u","learn","","","learn_trial","13.3333","90","out","1","0","","","","","","","","","","","","","","","","","","","","",""
"","","","","","canvas-keyboard-response","20","991406","0.0-12.0-3.1","2d_cat_multi_stim_exp1","2022-4-26","15:2:4","25","75","3","9","10","40","30","120","61","20","[""White""]","No","Female","2923927","null","null","learn_feedback","","","learn_feedback","13.3333","90","out","","","","","","","","","","","","","","","","","","","","","","",""
"","","","","","canvas-keyboard-response","21","991465","0.0-12.0-4.1","2d_cat_multi_stim_exp1","2022-4-26","15:2:4","25","75","3","9","10","40","30","120","61","20","[""White""]","No","Female","2923927","null","null","","","","clear_screen","","","","","","","","","","","","","","","","","","","","","","","","","",""
"","","","","","canvas-keyboard-response","22","991974","0.0-12.0-0.2","2d_cat_multi_stim_exp1","2022-4-26","15:2:4","25","75","3","9","10","40","30","120","61","20","[""White""]","No","Female","2923927","null","null","","","","fixation","","","","","","","","","","","","","","","","","","","","","","","","","",""
"","","","","","canvas-keyboard-response","23","992482","0.0-12.0-1.2","2d_cat_multi_stim_exp1","2022-4-26","15:2:4","25","75","3","9","10","40","30","120","61","20","[""White""]","No","Female","2923927","null","null","","","","clear_screen","","","","","","","","","","","","","","","","","","","","","","","","","",""
"","","","","","canvas-keyboard-response","24","994093","0.0-12.0-2.2","2d_cat_multi_stim_exp1","2022-4-26","15:2:4","25","75","3","9","10","40","30","120","61","20","[""White""]","No","Female","2923927","1602","i","learn","","","learn_trial","40","120","out","0","1","","","","","","","","","","","","","","","","","","","","",""
"","","","","","canvas-keyboard-response","25","994604","0.0-12.0-3.2","2d_cat_multi_stim_exp1","2022-4-26","15:2:4","25","75","3","9","10","40","30","120","61","20","[""White""]","No","Female","2923927","null","null","learn_feedback","","","learn_feedback","40","120","out","","","","","","","","","","","","","","","","","","","","","","",""
"","","","","","canvas-keyboard-response","26","994663","0.0-12.0-4.2","2d_cat_multi_stim_exp1","2022-4-26","15:2:4","25","75","3","9","10","40","30","120","61","20","[""White""]","No","Female","2923927","null","null","","","","clear_screen","","","","","","","","","","","","","","","","","","","","","","","","","",""
"","","","","","canvas-keyboard-response","27","995171","0.0-12.0-0.3","2d_cat_multi_stim_exp1","2022-4-26","15:2:4","25","75","3","9","10","40","30","120","61","20","[""White""]","No","Female","2923927","null","null","","","","fixation","","","","","","","","","","","","","","","","","","","","","","","","","",""
"","","","","","canvas-keyboard-response","28","995681","0.0-12.0-1.3","2d_cat_multi_stim_exp1","2022-4-26","15:2:4","25","75","3","9","10","40","30","120","61","20","[""White""]","No","Female","2923927","null","null","","","","clear_screen","","","","","","","","","","","","","","","","","","","","","","","","","",""
"","","","","","canvas-keyboard-response","29","997533","0.0-12.0-2.3","2d_cat_multi_stim_exp1","2022-4-26","15:2:4","25","75","3","9","10","40","30","120","61","20","[""White""]","No","Female","2923927","1844","i","learn","","","learn_trial","16.6667","30","out","0","1","","","","","","","","","","","","","","","","","","","","",""
"","","","","","canvas-keyboard-response","30","998043","0.0-12.0-3.3","2d_cat_multi_stim_exp1","2022-4-26","15:2:4","25","75","3","9","10","40","30","120","61","20","[""White""]","No","Female","2923927","null","null","learn_feedback","","","learn_feedback","16.6667","30","out","","","","","","","","","","","","","","","","","","","","","","",""
"","","","","","canvas-keyboard-response","31","998102","0.0-12.0-4.3","2d_cat_multi_stim_exp1","2022-4-26","15:2:4","25","75","3","9","10","40","30","120","61","20","[""White""]","No","Female","2923927","null","null","","","","clear_screen","","","","","","","","","","","","","","","","","","","","","","","","","",""
"","","","","","canvas-keyboard-response","32","998610","0.0-12.0-0.4","2d_cat_multi_stim_exp1","2022-4-26","15:2:4","25","75","3","9","10","40","30","120","61","20","[""White""]","No","Female","2923927","null","null","","","","fixation","","","","","","","","","","","","","","","","","","","","","","","","","",""
"","","","","","canvas-keyboard-response","33","999118","0.0-12.0-1.4","2d_cat_multi_stim_exp1","2022-4-26","15:2:4","25","75","3","9","10","40","30","120","61","20","[""White""]","No","Female","2923927","null","null","","","","clear_screen","","","","","","","","","","","","","","","","","","","","","","","","","",""
"","","","","","canvas-keyboard-response","34","1000813","0.0-12.0-2.4","2d_cat_multi_stim_exp1","2022-4-26","15:2:4","25","75","3","9","10","40","30","120","61","20","[""White""]","No","Female","2923927","1686","i","learn","","","learn_trial","26.6667","120","out","0","1","","","","","","","","","","","","","","","","","","","","",""
"","","","","","canvas-keyboard-response","35","1001322","0.0-12.0-3.4","2d_cat_multi_stim_exp1","2022-4-26","15:2:4","25","75","3","9","10","40","30","120","61","20","[""White""]","No","Female","2923927","null","null","learn_feedback","","","learn_feedback","26.6667","120","out","","","","","","","","","","","","","","","","","","","","","","",""
"","","","","","canvas-keyboard-response","36","1001380","0.0-12.0-4.4","2d_cat_multi_stim_exp1","2022-4-26","15:2:4","25","75","3","9","10","40","30","120","61","20","[""White""]","No","Female","2923927","null","null","","","","clear_screen","","","","","","","","","","","","","","","","","","","","","","","","","",""
"","","","","","canvas-keyboard-response","37","1001890","0.0-12.0-0.5","2d_cat_multi_stim_exp1","2022-4-26","15:2:4","25","75","3","9","10","40","30","120","61","20","[""White""]","No","Female","2923927","null","null","","","","fixation","","","","","","","","","","","","","","","","","","","","","","","","","",""
"","","","","","canvas-keyboard-response","38","1002398","0.0-12.0-1.5","2d_cat_multi_stim_exp1","2022-4-26","15:2:4","25","75","3","9","10","40","30","120","61","20","[""White""]","No","Female","2923927","null","null","","","","clear_screen","","","","","","","","","","","","","","","","","","","","","","","","","",""
"","","","","","canvas-keyboard-response","39","1003188","0.0-12.0-2.5","2d_cat_multi_stim_exp1","2022-4-26","15:2:4","25","75","3","9","10","40","30","120","61","20","[""White""]","No","Female","2923927","783","u","learn","","","learn_trial","25","75","in","1","1","","","","","","","","","","","","","","","","","","","","",""
"","","","","","canvas-keyboard-response","40","1003698","0.0-12.0-3.5","2d_cat_multi_stim_exp1","2022-4-26","15:2:4","25","75","3","9","10","40","30","120","61","20","[""White""]","No","Female","2923927","null","null","learn_feedback","","","learn_feedback","25","75","in","","","","","","","","","","","","","","","","","","","","","","",""
"","","","","","canvas-keyboard-response","41","1003756","0.0-12.0-4.5","2d_cat_multi_stim_exp1","2022-4-26","15:2:4","25","75","3","9","10","40","30","120","61","20","[""White""]","No","Female","2923927","null","null","","","","clear_screen","","","","","","","","","","","","","","","","","","","","","","","","","",""
"","","","","","canvas-keyboard-response","42","1004263","0.0-12.0-0.6","2d_cat_multi_stim_exp1","2022-4-26","15:2:4","25","75","3","9","10","40","30","120","61","20","[""White""]","No","Female","2923927","null","null","","","","fixation","","","","","","","","","","","","","","","","","","","","","","","","","",""
"","","","","","canvas-keyboard-response","43","1004772","0.0-12.0-1.6","2d_cat_multi_stim_exp1","2022-4-26","15:2:4","25","75","3","9","10","40","30","120","61","20","[""White""]","No","Female","2923927","null","null","","","","clear_screen","","","","","","","","","","","","","","","","","","","","","","","","","",""
"","","","","","canvas-keyboard-response","44","1006541","0.0-12.0-2.6","2d_cat_multi_stim_exp1","2022-4-26","15:2:4","25","75","3","9","10","40","30","120","61","20","[""White""]","No","Female","2923927","1759","i","learn","","","learn_trial","36.6667","30","out","0","1","","","","","","","","","","","","","","","","","","","","",""
"","","","","","canvas-keyboard-response","45","1007050","0.0-12.0-3.6","2d_cat_multi_stim_exp1","2022-4-26","15:2:4","25","75","3","9","10","40","30","120","61","20","[""White""]","No","Female","2923927","null","null","learn_feedback","","","learn_feedback","36.6667","30","out","","","","","","","","","","","","","","","","","","","","","","",""
"","","","","","canvas-keyboard-response","46","1007108","0.0-12.0-4.6","2d_cat_multi_stim_exp1","2022-4-26","15:2:4","25","75","3","9","10","40","30","120","61","20","[""White""]","No","Female","2923927","null","null","","","","clear_screen","","","","","","","","","","","","","","","","","","","","","","","","","",""
"","","","","","canvas-keyboard-response","47","1007617","0.0-12.0-0.7","2d_cat_multi_stim_exp1","2022-4-26","15:2:4","25","75","3","9","10","40","30","120","61","20","[""White""]","No","Female","2923927","null","null","","","","fixation","","","","","","","","","","","","","","","","","","","","","","","","","",""
"","","","","","canvas-keyboard-response","48","1008124","0.0-12.0-1.7","2d_cat_multi_stim_exp1","2022-4-26","15:2:4","25","75","3","9","10","40","30","120","61","20","[""White""]","No","Female","2923927","null","null","","","","clear_screen","","","","","","","","","","","","","","","","","","","","","","","","","",""
"","","","","","canvas-keyboard-response","49","1009021","0.0-12.0-2.7","2d_cat_multi_stim_exp1","2022-4-26","15:2:4","25","75","3","9","10","40","30","120","61","20","[""White""]","No","Female","2923927","886","u","learn","","","learn_trial","36.6667","70","out","1","0","","","","","","","","","","","","","","","","","","","","",""
"","","","","","canvas-keyboard-response","50","1010030","0.0-12.0-3.7","2d_cat_multi_stim_exp1","2022-4-26","15:2:4","25","75","3","9","10","40","30","120","61","20","[""White""]","No","Female","2923927","null","null","learn_feedback","","","learn_feedback","36.6667","70","out","","","","","","","","","","","","","","","","","","","","","","",""
"","","","","","canvas-keyboard-response","51","1010088","0.0-12.0-4.7","2d_cat_multi_stim_exp1","2022-4-26","15:2:4","25","75","3","9","10","40","30","120","61","20","[""White""]","No","Female","2923927","null","null","","","","clear_screen","","","","","","","","","","","","","","","","","","","","","","","","","",""
"","","","","","canvas-keyboard-response","52","1010595","0.0-12.0-0.8","2d_cat_multi_stim_exp1","2022-4-26","15:2:4","25","75","3","9","10","40","30","120","61","20","[""White""]","No","Female","2923927","null","null","","","","fixation","","","","","","","","","","","","","","","","","","","","","","","","","",""
"","","","","","canvas-keyboard-response","53","1011104","0.0-12.0-1.8","2d_cat_multi_stim_exp1","2022-4-26","15:2:4","25","75","3","9","10","40","30","120","61","20","[""White""]","No","Female","2923927","null","null","","","","clear_screen","","","","","","","","","","","","","","","","","","","","","","","","","",""
"","","","","","canvas-keyboard-response","54","1013140","0.0-12.0-2.8","2d_cat_multi_stim_exp1","2022-4-26","15:2:4","25","75","3","9","10","40","30","120","61","20","[""White""]","No","Female","2923927","2028","i","learn","","","learn_trial","30","30","out","0","1","","","","","","","","","","","","","","","","","","","","",""
"","","","","","canvas-keyboard-response","55","1013650","0.0-12.0-3.8","2d_cat_multi_stim_exp1","2022-4-26","15:2:4","25","75","3","9","10","40","30","120","61","20","[""White""]","No","Female","2923927","null","null","learn_feedback","","","learn_feedback","30","30","out","","","","","","","","","","","","","","","","","","","","","","",""
"","","","","","canvas-keyboard-response","56","1013707","0.0-12.0-4.8","2d_cat_multi_stim_exp1","2022-4-26","15:2:4","25","75","3","9","10","40","30","120","61","20","[""White""]","No","Female","2923927","null","null","","","","clear_screen","","","","","","","","","","","","","","","","","","","","","","","","","",""
"","","","","","canvas-keyboard-response","57","1014215","0.0-12.0-0.9","2d_cat_multi_stim_exp1","2022-4-26","15:2:4","25","75","3","9","10","40","30","120","61","20","[""White""]","No","Female","2923927","null","null","","","","fixation","","","","","","","","","","","","","","","","","","","","","","","","","",""
"","","","","","canvas-keyboard-response","58","1014724","0.0-12.0-1.9","2d_cat_multi_stim_exp1","2022-4-26","15:2:4","25","75","3","9","10","40","30","120","61","20","[""White""]","No","Female","2923927","null","null","","","","clear_screen","","","","","","","","","","","","","","","","","","","","","","","","","",""
"","","","","","canvas-keyboard-response","59","1016125","0.0-12.0-2.9","2d_cat_multi_stim_exp1","2022-4-26","15:2:4","25","75","3","9","10","40","30","120","61","20","[""White""]","No","Female","2923927","1392","u","learn","","","learn_trial","25","75","in","1","1","","","","","","","","","","","","","","","","","","","","",""
"","","","","","canvas-keyboard-response","60","1016635","0.0-12.0-3.9","2d_cat_multi_stim_exp1","2022-4-26","15:2:4","25","75","3","9","10","40","30","120","61","20","[""White""]","No","Female","2923927","null","null","learn_feedback","","","learn_feedback","25","75","in","","","","","","","","","","","","","","","","","","","","","","",""
"","","","","","canvas-keyboard-response","61","1016694","0.0-12.0-4.9","2d_cat_multi_stim_exp1","2022-4-26","15:2:4","25","75","3","9","10","40","30","120","61","20","[""White""]","No","Female","2923927","null","null","","","","clear_screen","","","","","","","","","","","","","","","","","","","","","","","","","",""
"","","","","","canvas-keyboard-response","62","1017203","0.0-12.0-0.10","2d_cat_multi_stim_exp1","2022-4-26","15:2:4","25","75","3","9","10","40","30","120","61","20","[""White""]","No","Female","2923927","null","null","","","","fixation","","","","","","","","","","","","","","","","","","","","","","","","","",""
"","","","","","canvas-keyboard-response","63","1017710","0.0-12.0-1.10","2d_cat_multi_stim_exp1","2022-4-26","15:2:4","25","75","3","9","10","40","30","120","61","20","[""White""]","No","Female","2923927","null","null","","","","clear_screen","","","","","","","","","","","","","","","","","","","","","","","","","",""
"","","","","","canvas-keyboard-response","64","1019365","0.0-12.0-2.10","2d_cat_multi_stim_exp1","2022-4-26","15:2:4","25","75","3","9","10","40","30","120","61","20","[""White""]","No","Female","2923927","1646","i","learn","","","learn_trial","25","75","in","0","0","","","","","","","","","","","","","","","","","","","","",""
"","","","","","canvas-keyboard-response","65","1020374","0.0-12.0-3.10","2d_cat_multi_stim_exp1","2022-4-26","15:2:4","25","75","3","9","10","40","30","120","61","20","[""White""]","No","Female","2923927","null","null","learn_feedback","","","learn_feedback","25","75","in","","","","","","","","","","","","","","","","","","","","","","",""
"","","","","","canvas-keyboard-response","66","1020432","0.0-12.0-4.10","2d_cat_multi_stim_exp1","2022-4-26","15:2:4","25","75","3","9","10","40","30","120","61","20","[""White""]","No","Female","2923927","null","null","","","","clear_screen","","","","","","","","","","","","","","","","","","","","","","","","","",""
"","","","","","canvas-keyboard-response","67","1020941","0.0-12.0-0.11","2d_cat_multi_stim_exp1","2022-4-26","15:2:4","25","75","3","9","10","40","30","120","61","20","[""White""]","No","Female","2923927","null","null","","","","fixation","","","","","","","","","","","","","","","","","","","","","","","","","",""
"","","","","","canvas-keyboard-response","68","1021449","0.0-12.0-1.11","2d_cat_multi_stim_exp1","2022-4-26","15:2:4","25","75","3","9","10","40","30","120","61","20","[""White""]","No","Female","2923927","null","null","","","","clear_screen","","","","","","","","","","","","","","","","","","","","","","","","","",""
"","","","","","canvas-keyboard-response","69","1022364","0.0-12.0-2.11","2d_cat_multi_stim_exp1","2022-4-26","15:2:4","25","75","3","9","10","40","30","120","61","20","[""White""]","No","Female","2923927","907","u","learn","","","learn_trial","25","75","in","1","1","","","","","","","","","","","","","","","","","","","","",""
"","","","","","canvas-keyboard-response","70","1022873","0.0-12.0-3.11","2d_cat_multi_stim_exp1","2022-4-26","15:2:4","25","75","3","9","10","40","30","120","61","20","[""White""]","No","Female","2923927","null","null","learn_feedback","","","learn_feedback","25","75","in","","","","","","","","","","","","","","","","","","","","","","",""
"","","","","","canvas-keyboard-response","71","1022930","0.0-12.0-4.11","2d_cat_multi_stim_exp1","2022-4-26","15:2:4","25","75","3","9","10","40","30","120","61","20","[""White""]","No","Female","2923927","null","null","","","","clear_screen","","","","","","","","","","","","","","","","","","","","","","","","","",""
"","","","","","canvas-keyboard-response","72","1023439","0.0-12.0-0.12","2d_cat_multi_stim_exp1","2022-4-26","15:2:4","25","75","3","9","10","40","30","120","61","20","[""White""]","No","Female","2923927","null","null","","","","fixation","","","","","","","","","","","","","","","","","","","","","","","","","",""
"","","","","","canvas-keyboard-response","73","1023947","0.0-12.0-1.12","2d_cat_multi_stim_exp1","2022-4-26","15:2:4","25","75","3","9","10","40","30","120","61","20","[""White""]","No","Female","2923927","null","null","","","","clear_screen","","","","","","","","","","","","","","","","","","","","","","","","","",""
"","","","","","canvas-keyboard-response","74","1024556","0.0-12.0-2.12","2d_cat_multi_stim_exp1","2022-4-26","15:2:4","25","75","3","9","10","40","30","120","61","20","[""White""]","No","Female","2923927","597","u","learn","","","learn_trial","13.3333","80","out","1","0","","","","","","","","","","","","","","","","","","","","",""
"","","","","","canvas-keyboard-response","75","1025565","0.0-12.0-3.12","2d_cat_multi_stim_exp1","2022-4-26","15:2:4","25","75","3","9","10","40","30","120","61","20","[""White""]","No","Female","2923927","null","null","learn_feedback","","","learn_feedback","13.3333","80","out","","","","","","","","","","","","","","","","","","","","","","",""
"","","","","","canvas-keyboard-response","76","1025623","0.0-12.0-4.12","2d_cat_multi_stim_exp1","2022-4-26","15:2:4","25","75","3","9","10","40","30","120","61","20","[""White""]","No","Female","2923927","null","null","","","","clear_screen","","","","","","","","","","","","","","","","","","","","","","","","","",""
"","","","","","canvas-keyboard-response","77","1026132","0.0-12.0-0.13","2d_cat_multi_stim_exp1","2022-4-26","15:2:4","25","75","3","9","10","40","30","120","61","20","[""White""]","No","Female","2923927","null","null","","","","fixation","","","","","","","","","","","","","","","","","","","","","","","","","",""
"","","","","","canvas-keyboard-response","78","1026641","0.0-12.0-1.13","2d_cat_multi_stim_exp1","2022-4-26","15:2:4","25","75","3","9","10","40","30","120","61","20","[""White""]","No","Female","2923927","null","null","","","","clear_screen","","","","","","","","","","","","","","","","","","","","","","","","","",""
"","","","","","canvas-keyboard-response","79","1028045","0.0-12.0-2.13","2d_cat_multi_stim_exp1","2022-4-26","15:2:4","25","75","3","9","10","40","30","120","61","20","[""White""]","No","Female","2923927","1394","i","learn","","","learn_trial","26.6667","60","out","0","1","","","","","","","","","","","","","","","","","","","","",""
"","","","","","canvas-keyboard-response","80","1028553","0.0-12.0-3.13","2d_cat_multi_stim_exp1","2022-4-26","15:2:4","25","75","3","9","10","40","30","120","61","20","[""White""]","No","Female","2923927","null","null","learn_feedback","","","learn_feedback","26.6667","60","out","","","","","","","","","","","","","","","","","","","","","","",""
"","","","","","canvas-keyboard-response","81","1028611","0.0-12.0-4.13","2d_cat_multi_stim_exp1","2022-4-26","15:2:4","25","75","3","9","10","40","30","120","61","20","[""White""]","No","Female","2923927","null","null","","","","clear_screen","","","","","","","","","","","","","","","","","","","","","","","","","",""
"","","","","","canvas-keyboard-response","82","1029120","0.0-12.0-0.14","2d_cat_multi_stim_exp1","2022-4-26","15:2:4","25","75","3","9","10","40","30","120","61","20","[""White""]","No","Female","2923927","null","null","","","","fixation","","","","","","","","","","","","","","","","","","","","","","","","","",""
"","","","","","canvas-keyboard-response","83","1029628","0.0-12.0-1.14","2d_cat_multi_stim_exp1","2022-4-26","15:2:4","25","75","3","9","10","40","30","120","61","20","[""White""]","No","Female","2923927","null","null","","","","clear_screen","","","","","","","","","","","","","","","","","","","","","","","","","",""
"","","","","","canvas-keyboard-response","84","1030468","0.0-12.0-2.14","2d_cat_multi_stim_exp1","2022-4-26","15:2:4","25","75","3","9","10","40","30","120","61","20","[""White""]","No","Female","2923927","832","i","learn","","","learn_trial","36.6667","40","out","0","1","","","","","","","","","","","","","","","","","","","","",""
"","","","","","canvas-keyboard-response","85","1030977","0.0-12.0-3.14","2d_cat_multi_stim_exp1","2022-4-26","15:2:4","25","75","3","9","10","40","30","120","61","20","[""White""]","No","Female","2923927","null","null","learn_feedback","","","learn_feedback","36.6667","40","out","","","","","","","","","","","","","","","","","","","","","","",""
"","","","","","canvas-keyboard-response","86","1031035","0.0-12.0-4.14","2d_cat_multi_stim_exp1","2022-4-26","15:2:4","25","75","3","9","10","40","30","120","61","20","[""White""]","No","Female","2923927","null","null","","","","clear_screen","","","","","","","","","","","","","","","","","","","","","","","","","",""
"","","","","","canvas-keyboard-response","87","1031543","0.0-12.0-0.15","2d_cat_multi_stim_exp1","2022-4-26","15:2:4","25","75","3","9","10","40","30","120","61","20","[""White""]","No","Female","2923927","null","null","","","","fixation","","","","","","","","","","","","","","","","","","","","","","","","","",""
"","","","","","canvas-keyboard-response","88","1032053","0.0-12.0-1.15","2d_cat_multi_stim_exp1","2022-4-26","15:2:4","25","75","3","9","10","40","30","120","61","20","[""White""]","No","Female","2923927","null","null","","","","clear_screen","","","","","","","","","","","","","","","","","","","","","","","","","",""
"","","","","","canvas-keyboard-response","89","1033860","0.0-12.0-2.15","2d_cat_multi_stim_exp1","2022-4-26","15:2:4","25","75","3","9","10","40","30","120","61","20","[""White""]","No","Female","2923927","1797","u","learn","","","learn_trial","25","75","in","1","1","","","","","","","","","","","","","","","","","","","","",""
"","","","","","canvas-keyboard-response","90","1034372","0.0-12.0-3.15","2d_cat_multi_stim_exp1","2022-4-26","15:2:4","25","75","3","9","10","40","30","120","61","20","[""White""]","No","Female","2923927","null","null","learn_feedback","","","learn_feedback","25","75","in","","","","","","","","","","","","","","","","","","","","","","",""
"","","","","","canvas-keyboard-response","91","1034431","0.0-12.0-4.15","2d_cat_multi_stim_exp1","2022-4-26","15:2:4","25","75","3","9","10","40","30","120","61","20","[""White""]","No","Female","2923927","null","null","","","","clear_screen","","","","","","","","","","","","","","","","","","","","","","","","","",""
"","","","","","canvas-keyboard-response","92","1034940","0.0-12.0-0.16","2d_cat_multi_stim_exp1","2022-4-26","15:2:4","25","75","3","9","10","40","30","120","61","20","[""White""]","No","Female","2923927","null","null","","","","fixation","","","","","","","","","","","","","","","","","","","","","","","","","",""
"","","","","","canvas-keyboard-response","93","1035449","0.0-12.0-1.16","2d_cat_multi_stim_exp1","2022-4-26","15:2:4","25","75","3","9","10","40","30","120","61","20","[""White""]","No","Female","2923927","null","null","","","","clear_screen","","","","","","","","","","","","","","","","","","","","","","","","","",""
"","","","","","canvas-keyboard-response","94","1037076","0.0-12.0-2.16","2d_cat_multi_stim_exp1","2022-4-26","15:2:4","25","75","3","9","10","40","30","120","61","20","[""White""]","No","Female","2923927","1617","u","learn","","","learn_trial","25","75","in","1","1","","","","","","","","","","","","","","","","","","","","",""
"","","","","","canvas-keyboard-response","95","1037586","0.0-12.0-3.16","2d_cat_multi_stim_exp1","2022-4-26","15:2:4","25","75","3","9","10","40","30","120","61","20","[""White""]","No","Female","2923927","null","null","learn_feedback","","","learn_feedback","25","75","in","","","","","","","","","","","","","","","","","","","","","","",""
"","","","","","canvas-keyboard-response","96","1037645","0.0-12.0-4.16","2d_cat_multi_stim_exp1","2022-4-26","15:2:4","25","75","3","9","10","40","30","120","61","20","[""White""]","No","Female","2923927","null","null","","","","clear_screen","","","","","","","","","","","","","","","","","","","","","","","","","",""
"","","","","","canvas-keyboard-response","97","1038154","0.0-12.0-0.17","2d_cat_multi_stim_exp1","2022-4-26","15:2:4","25","75","3","9","10","40","30","120","61","20","[""White""]","No","Female","2923927","null","null","","","","fixation","","","","","","","","","","","","","","","","","","","","","","","","","",""
"","","","","","canvas-keyboard-response","98","1038663","0.0-12.0-1.17","2d_cat_multi_stim_exp1","2022-4-26","15:2:4","25","75","3","9","10","40","30","120","61","20","[""White""]","No","Female","2923927","null","null","","","","clear_screen","","","","","","","","","","","","","","","","","","","","","","","","","",""
"","","","","","canvas-keyboard-response","99","1039492","0.0-12.0-2.17","2d_cat_multi_stim_exp1","2022-4-26","15:2:4","25","75","3","9","10","40","30","120","61","20","[""White""]","No","Female","2923927","820","u","learn","","","learn_trial","26.8705","67.9635","in","1","1","","","","","","","","","","","","","","","","","","","","",""
"","","","","","canvas-keyboard-response","100","1040003","0.0-12.0-3.17","2d_cat_multi_stim_exp1","2022-4-26","15:2:4","25","75","3","9","10","40","30","120","61","20","[""White""]","No","Female","2923927","null","null","learn_feedback","","","learn_feedback","26.8705","67.9635","in","","","","","","","","","","","","","","","","","","","","","","",""
"","","","","","canvas-keyboard-response","101","1040060","0.0-12.0-4.17","2d_cat_multi_stim_exp1","2022-4-26","15:2:4","25","75","3","9","10","40","30","120","61","20","[""White""]","No","Female","2923927","null","null","","","","clear_screen","","","","","","","","","","","","","","","","","","","","","","","","","",""
"","","","","","canvas-keyboard-response","102","1040569","0.0-12.0-0.18","2d_cat_multi_stim_exp1","2022-4-26","15:2:4","25","75","3","9","10","40","30","120","61","20","[""White""]","No","Female","2923927","null","null","","","","fixation","","","","","","","","","","","","","","","","","","","","","","","","","",""
"","","","","","canvas-keyboard-response","103","1041081","0.0-12.0-1.18","2d_cat_multi_stim_exp1","2022-4-26","15:2:4","25","75","3","9","10","40","30","120","61","20","[""White""]","No","Female","2923927","null","null","","","","clear_screen","","","","","","","","","","","","","","","","","","","","","","","","","",""
"","","","","","canvas-keyboard-response","104","1041732","0.0-12.0-2.18","2d_cat_multi_stim_exp1","2022-4-26","15:2:4","25","75","3","9","10","40","30","120","61","20","[""White""]","No","Female","2923927","643","u","learn","","","learn_trial","22.5729","69.7099","in","1","1","","","","","","","","","","","","","","","","","","","","",""
"","","","","","canvas-keyboard-response","105","1042242","0.0-12.0-3.18","2d_cat_multi_stim_exp1","2022-4-26","15:2:4","25","75","3","9","10","40","30","120","61","20","[""White""]","No","Female","2923927","null","null","learn_feedback","","","learn_feedback","22.5729","69.7099","in","","","","","","","","","","","","","","","","","","","","","","",""
"","","","","","canvas-keyboard-response","106","1042300","0.0-12.0-4.18","2d_cat_multi_stim_exp1","2022-4-26","15:2:4","25","75","3","9","10","40","30","120","61","20","[""White""]","No","Female","2923927","null","null","","","","clear_screen","","","","","","","","","","","","","","","","","","","","","","","","","",""
"","","","","","canvas-keyboard-response","107","1042807","0.0-12.0-0.19","2d_cat_multi_stim_exp1","2022-4-26","15:2:4","25","75","3","9","10","40","30","120","61","20","[""White""]","No","Female","2923927","null","null","","","","fixation","","","","","","","","","","","","","","","","","","","","","","","","","",""
"","","","","","canvas-keyboard-response","108","1043317","0.0-12.0-1.19","2d_cat_multi_stim_exp1","2022-4-26","15:2:4","25","75","3","9","10","40","30","120","61","20","[""White""]","No","Female","2923927","null","null","","","","clear_screen","","","","","","","","","","","","","","","","","","","","","","","","","",""
"","","","","","canvas-keyboard-response","109","1044309","0.0-12.0-2.19","2d_cat_multi_stim_exp1","2022-4-26","15:2:4","25","75","3","9","10","40","30","120","61","20","[""White""]","No","Female","2923927","984","u","learn","","","learn_trial","25","75","in","1","1","","","","","","","","","","","","","","","","","","","","",""
"","","","","","canvas-keyboard-response","110","1044817","0.0-12.0-3.19","2d_cat_multi_stim_exp1","2022-4-26","15:2:4","25","75","3","9","10","40","30","120","61","20","[""White""]","No","Female","2923927","null","null","learn_feedback","","","learn_feedback","25","75","in","","","","","","","","","","","","","","","","","","","","","","",""
"","","","","","canvas-keyboard-response","111","1044875","0.0-12.0-4.19","2d_cat_multi_stim_exp1","2022-4-26","15:2:4","25","75","3","9","10","40","30","120","61","20","[""White""]","No","Female","2923927","null","null","","","","clear_screen","","","","","","","","","","","","","","","","","","","","","","","","","",""
"","","","","","canvas-keyboard-response","112","1045384","0.0-12.0-0.20","2d_cat_multi_stim_exp1","2022-4-26","15:2:4","25","75","3","9","10","40","30","120","61","20","[""White""]","No","Female","2923927","null","null","","","","fixation","","","","","","","","","","","","","","","","","","","","","","","","","",""
"","","","","","canvas-keyboard-response","113","1045892","0.0-12.0-1.20","2d_cat_multi_stim_exp1","2022-4-26","15:2:4","25","75","3","9","10","40","30","120","61","20","[""White""]","No","Female","2923927","null","null","","","","clear_screen","","","","","","","","","","","","","","","","","","","","","","","","","",""
"","","","","","canvas-keyboard-response","114","1046516","0.0-12.0-2.20","2d_cat_multi_stim_exp1","2022-4-26","15:2:4","25","75","3","9","10","40","30","120","61","20","[""White""]","No","Female","2923927","614","u","learn","","","learn_trial","22.1081","77.3943","in","1","1","","","","","","","","","","","","","","","","","","","","",""
"","","","","","canvas-keyboard-response","115","1047025","0.0-12.0-3.20","2d_cat_multi_stim_exp1","2022-4-26","15:2:4","25","75","3","9","10","40","30","120","61","20","[""White""]","No","Female","2923927","null","null","learn_feedback","","","learn_feedback","22.1081","77.3943","in","","","","","","","","","","","","","","","","","","","","","","",""
"","","","","","canvas-keyboard-response","116","1047084","0.0-12.0-4.20","2d_cat_multi_stim_exp1","2022-4-26","15:2:4","25","75","3","9","10","40","30","120","61","20","[""White""]","No","Female","2923927","null","null","","","","clear_screen","","","","","","","","","","","","","","","","","","","","","","","","","",""
"","","","","","canvas-keyboard-response","117","1047591","0.0-12.0-0.21","2d_cat_multi_stim_exp1","2022-4-26","15:2:4","25","75","3","9","10","40","30","120","61","20","[""White""]","No","Female","2923927","null","null","","","","fixation","","","","","","","","","","","","","","","","","","","","","","","","","",""
"","","","","","canvas-keyboard-response","118","1048100","0.0-12.0-1.21","2d_cat_multi_stim_exp1","2022-4-26","15:2:4","25","75","3","9","10","40","30","120","61","20","[""White""]","No","Female","2923927","null","null","","","","clear_screen","","","","","","","","","","","","","","","","","","","","","","","","","",""
"","","","","","canvas-keyboard-response","119","1049261","0.0-12.0-2.21","2d_cat_multi_stim_exp1","2022-4-26","15:2:4","25","75","3","9","10","40","30","120","61","20","[""White""]","No","Female","2923927","1152","u","learn","","","learn_trial","25","75","in","1","1","","","","","","","","","","","","","","","","","","","","",""
"","","","","","canvas-keyboard-response","120","1049768","0.0-12.0-3.21","2d_cat_multi_stim_exp1","2022-4-26","15:2:4","25","75","3","9","10","40","30","120","61","20","[""White""]","No","Female","2923927","null","null","learn_feedback","","","learn_feedback","25","75","in","","","","","","","","","","","","","","","","","","","","","","",""
"","","","","","canvas-keyboard-response","121","1049830","0.0-12.0-4.21","2d_cat_multi_stim_exp1","2022-4-26","15:2:4","25","75","3","9","10","40","30","120","61","20","[""White""]","No","Female","2923927","null","null","","","","clear_screen","","","","","","","","","","","","","","","","","","","","","","","","","",""
"","","","","","canvas-keyboard-response","122","1050339","0.0-12.0-0.22","2d_cat_multi_stim_exp1","2022-4-26","15:2:4","25","75","3","9","10","40","30","120","61","20","[""White""]","No","Female","2923927","null","null","","","","fixation","","","","","","","","","","","","","","","","","","","","","","","","","",""
"","","","","","canvas-keyboard-response","123","1050847","0.0-12.0-1.22","2d_cat_multi_stim_exp1","2022-4-26","15:2:4","25","75","3","9","10","40","30","120","61","20","[""White""]","No","Female","2923927","null","null","","","","clear_screen","","","","","","","","","","","","","","","","","","","","","","","","","",""
"","","","","","canvas-keyboard-response","124","1052108","0.0-12.0-2.22","2d_cat_multi_stim_exp1","2022-4-26","15:2:4","25","75","3","9","10","40","30","120","61","20","[""White""]","No","Female","2923927","1252","u","learn","","","learn_trial","25","75","in","1","1","","","","","","","","","","","","","","","","","","","","",""
"","","","","","canvas-keyboard-response","125","1052617","0.0-12.0-3.22","2d_cat_multi_stim_exp1","2022-4-26","15:2:4","25","75","3","9","10","40","30","120","61","20","[""White""]","No","Female","2923927","null","null","learn_feedback","","","learn_feedback","25","75","in","","","","","","","","","","","","","","","","","","","","","","",""
"","","","","","canvas-keyboard-response","126","1052675","0.0-12.0-4.22","2d_cat_multi_stim_exp1","2022-4-26","15:2:4","25","75","3","9","10","40","30","120","61","20","[""White""]","No","Female","2923927","null","null","","","","clear_screen","","","","","","","","","","","","","","","","","","","","","","","","","",""
"","","","","","canvas-keyboard-response","127","1053183","0.0-12.0-0.23","2d_cat_multi_stim_exp1","2022-4-26","15:2:4","25","75","3","9","10","40","30","120","61","20","[""White""]","No","Female","2923927","null","null","","","","fixation","","","","","","","","","","","","","","","","","","","","","","","","","",""
"","","","","","canvas-keyboard-response","128","1053692","0.0-12.0-1.23","2d_cat_multi_stim_exp1","2022-4-26","15:2:4","25","75","3","9","10","40","30","120","61","20","[""White""]","No","Female","2923927","null","null","","","","clear_screen","","","","","","","","","","","","","","","","","","","","","","","","","",""
"","","","","","canvas-keyboard-response","129","1054557","0.0-12.0-2.23","2d_cat_multi_stim_exp1","2022-4-26","15:2:4","25","75","3","9","10","40","30","120","61","20","[""White""]","No","Female","2923927","857","i","learn","","","learn_trial","13.3333","100","out","0","1","","","","","","","","","","","","","","","","","","","","",""
"","","","","","canvas-keyboard-response","130","1055066","0.0-12.0-3.23","2d_cat_multi_stim_exp1","2022-4-26","15:2:4","25","75","3","9","10","40","30","120","61","20","[""White""]","No","Female","2923927","null","null","learn_feedback","","","learn_feedback","13.3333","100","out","","","","","","","","","","","","","","","","","","","","","","",""
"","","","","","canvas-keyboard-response","131","1055124","0.0-12.0-4.23","2d_cat_multi_stim_exp1","2022-4-26","15:2:4","25","75","3","9","10","40","30","120","61","20","[""White""]","No","Female","2923927","null","null","","","","clear_screen","","","","","","","","","","","","","","","","","","","","","","","","","",""
"","","","","","canvas-keyboard-response","132","1055632","0.0-12.0-0.24","2d_cat_multi_stim_exp1","2022-4-26","15:2:4","25","75","3","9","10","40","30","120","61","20","[""White""]","No","Female","2923927","null","null","","","","fixation","","","","","","","","","","","","","","","","","","","","","","","","","",""
"","","","","","canvas-keyboard-response","133","1056140","0.0-12.0-1.24","2d_cat_multi_stim_exp1","2022-4-26","15:2:4","25","75","3","9","10","40","30","120","61","20","[""White""]","No","Female","2923927","null","null","","","","clear_screen","","","","","","","","","","","","","","","","","","","","","","","","","",""
"","","","","","canvas-keyboard-response","134","1057270","0.0-12.0-2.24","2d_cat_multi_stim_exp1","2022-4-26","15:2:4","25","75","3","9","10","40","30","120","61","20","[""White""]","No","Female","2923927","1120","u","learn","","","learn_trial","25","75","in","1","1","","","","","","","","","","","","","","","","","","","","",""
"","","","","","canvas-keyboard-response","135","1057779","0.0-12.0-3.24","2d_cat_multi_stim_exp1","2022-4-26","15:2:4","25","75","3","9","10","40","30","120","61","20","[""White""]","No","Female","2923927","null","null","learn_feedback","","","learn_feedback","25","75","in","","","","","","","","","","","","","","","","","","","","","","",""
"","","","","","canvas-keyboard-response","136","1057837","0.0-12.0-4.24","2d_cat_multi_stim_exp1","2022-4-26","15:2:4","25","75","3","9","10","40","30","120","61","20","[""White""]","No","Female","2923927","null","null","","","","clear_screen","","","","","","","","","","","","","","","","","","","","","","","","","",""
"","","","","","canvas-keyboard-response","137","1058345","0.0-12.0-0.25","2d_cat_multi_stim_exp1","2022-4-26","15:2:4","25","75","3","9","10","40","30","120","61","20","[""White""]","No","Female","2923927","null","null","","","","fixation","","","","","","","","","","","","","","","","","","","","","","","","","",""
"","","","","","canvas-keyboard-response","138","1058853","0.0-12.0-1.25","2d_cat_multi_stim_exp1","2022-4-26","15:2:4","25","75","3","9","10","40","30","120","61","20","[""White""]","No","Female","2923927","null","null","","","","clear_screen","","","","","","","","","","","","","","","","","","","","","","","","","",""
"","","","","","canvas-keyboard-response","139","1059573","0.0-12.0-2.25","2d_cat_multi_stim_exp1","2022-4-26","15:2:4","25","75","3","9","10","40","30","120","61","20","[""White""]","No","Female","2923927","710","i","learn","","","learn_trial","23.3333","40","out","0","1","","","","","","","","","","","","","","","","","","","","",""
"","","","","","canvas-keyboard-response","140","1060082","0.0-12.0-3.25","2d_cat_multi_stim_exp1","2022-4-26","15:2:4","25","75","3","9","10","40","30","120","61","20","[""White""]","No","Female","2923927","null","null","learn_feedback","","","learn_feedback","23.3333","40","out","","","","","","","","","","","","","","","","","","","","","","",""
"","","","","","canvas-keyboard-response","141","1060139","0.0-12.0-4.25","2d_cat_multi_stim_exp1","2022-4-26","15:2:4","25","75","3","9","10","40","30","120","61","20","[""White""]","No","Female","2923927","null","null","","","","clear_screen","","","","","","","","","","","","","","","","","","","","","","","","","",""
"","","","","","canvas-keyboard-response","142","1060647","0.0-12.0-0.26","2d_cat_multi_stim_exp1","2022-4-26","15:2:4","25","75","3","9","10","40","30","120","61","20","[""White""]","No","Female","2923927","null","null","","","","fixation","","","","","","","","","","","","","","","","","","","","","","","","","",""
"","","","","","canvas-keyboard-response","143","1061156","0.0-12.0-1.26","2d_cat_multi_stim_exp1","2022-4-26","15:2:4","25","75","3","9","10","40","30","120","61","20","[""White""]","No","Female","2923927","null","null","","","","clear_screen","","","","","","","","","","","","","","","","","","","","","","","","","",""
"","","","","","canvas-keyboard-response","144","1062148","0.0-12.0-2.26","2d_cat_multi_stim_exp1","2022-4-26","15:2:4","25","75","3","9","10","40","30","120","61","20","[""White""]","No","Female","2923927","982","i","learn","","","learn_trial","10","30","out","0","1","","","","","","","","","","","","","","","","","","","","",""
"","","","","","canvas-keyboard-response","145","1062657","0.0-12.0-3.26","2d_cat_multi_stim_exp1","2022-4-26","15:2:4","25","75","3","9","10","40","30","120","61","20","[""White""]","No","Female","2923927","null","null","learn_feedback","","","learn_feedback","10","30","out","","","","","","","","","","","","","","","","","","","","","","",""
"","","","","","canvas-keyboard-response","146","1062715","0.0-12.0-4.26","2d_cat_multi_stim_exp1","2022-4-26","15:2:4","25","75","3","9","10","40","30","120","61","20","[""White""]","No","Female","2923927","null","null","","","","clear_screen","","","","","","","","","","","","","","","","","","","","","","","","","",""
"","","","","","canvas-keyboard-response","147","1063222","0.0-12.0-0.27","2d_cat_multi_stim_exp1","2022-4-26","15:2:4","25","75","3","9","10","40","30","120","61","20","[""White""]","No","Female","2923927","null","null","","","","fixation","","","","","","","","","","","","","","","","","","","","","","","","","",""
"","","","","","canvas-keyboard-response","148","1063731","0.0-12.0-1.27","2d_cat_multi_stim_exp1","2022-4-26","15:2:4","25","75","3","9","10","40","30","120","61","20","[""White""]","No","Female","2923927","null","null","","","","clear_screen","","","","","","","","","","","","","","","","","","","","","","","","","",""
"","","","","","canvas-keyboard-response","149","1064915","0.0-12.0-2.27","2d_cat_multi_stim_exp1","2022-4-26","15:2:4","25","75","3","9","10","40","30","120","61","20","[""White""]","No","Female","2923927","1178","u","learn","","","learn_trial","27.8087","71.8376","in","1","1","","","","","","","","","","","","","","","","","","","","",""
"","","","","","canvas-keyboard-response","150","1065425","0.0-12.0-3.27","2d_cat_multi_stim_exp1","2022-4-26","15:2:4","25","75","3","9","10","40","30","120","61","20","[""White""]","No","Female","2923927","null","null","learn_feedback","","","learn_feedback","27.8087","71.8376","in","","","","","","","","","","","","","","","","","","","","","","",""
"","","","","","canvas-keyboard-response","151","1065483","0.0-12.0-4.27","2d_cat_multi_stim_exp1","2022-4-26","15:2:4","25","75","3","9","10","40","30","120","61","20","[""White""]","No","Female","2923927","null","null","","","","clear_screen","","","","","","","","","","","","","","","","","","","","","","","","","",""
"","","","","","canvas-keyboard-response","152","1065992","0.0-12.0-0.28","2d_cat_multi_stim_exp1","2022-4-26","15:2:4","25","75","3","9","10","40","30","120","61","20","[""White""]","No","Female","2923927","null","null","","","","fixation","","","","","","","","","","","","","","","","","","","","","","","","","",""
"","","","","","canvas-keyboard-response","153","1066502","0.0-12.0-1.28","2d_cat_multi_stim_exp1","2022-4-26","15:2:4","25","75","3","9","10","40","30","120","61","20","[""White""]","No","Female","2923927","null","null","","","","clear_screen","","","","","","","","","","","","","","","","","","","","","","","","","",""
"","","","","","canvas-keyboard-response","154","1067268","0.0-12.0-2.28","2d_cat_multi_stim_exp1","2022-4-26","15:2:4","25","75","3","9","10","40","30","120","61","20","[""White""]","No","Female","2923927","755","u","learn","","","learn_trial","25","75","in","1","1","","","","","","","","","","","","","","","","","","","","",""
"","","","","","canvas-keyboard-response","155","1067780","0.0-12.0-3.28","2d_cat_multi_stim_exp1","2022-4-26","15:2:4","25","75","3","9","10","40","30","120","61","20","[""White""]","No","Female","2923927","null","null","learn_feedback","","","learn_feedback","25","75","in","","","","","","","","","","","","","","","","","","","","","","",""
"","","","","","canvas-keyboard-response","156","1067839","0.0-12.0-4.28","2d_cat_multi_stim_exp1","2022-4-26","15:2:4","25","75","3","9","10","40","30","120","61","20","[""White""]","No","Female","2923927","null","null","","","","clear_screen","","","","","","","","","","","","","","","","","","","","","","","","","",""
"","","","","","canvas-keyboard-response","157","1068349","0.0-12.0-0.29","2d_cat_multi_stim_exp1","2022-4-26","15:2:4","25","75","3","9","10","40","30","120","61","20","[""White""]","No","Female","2923927","null","null","","","","fixation","","","","","","","","","","","","","","","","","","","","","","","","","",""
"","","","","","canvas-keyboard-response","158","1068858","0.0-12.0-1.29","2d_cat_multi_stim_exp1","2022-4-26","15:2:4","25","75","3","9","10","40","30","120","61","20","[""White""]","No","Female","2923927","null","null","","","","clear_screen","","","","","","","","","","","","","","","","","","","","","","","","","",""
"","","","","","canvas-keyboard-response","159","1069572","0.0-12.0-2.29","2d_cat_multi_stim_exp1","2022-4-26","15:2:4","25","75","3","9","10","40","30","120","61","20","[""White""]","No","Female","2923927","706","u","learn","","","learn_trial","28","75","in","1","1","","","","","","","","","","","","","","","","","","","","",""
"","","","","","canvas-keyboard-response","160","1070082","0.0-12.0-3.29","2d_cat_multi_stim_exp1","2022-4-26","15:2:4","25","75","3","9","10","40","30","120","61","20","[""White""]","No","Female","2923927","null","null","learn_feedback","","","learn_feedback","28","75","in","","","","","","","","","","","","","","","","","","","","","","",""
"","","","","","canvas-keyboard-response","161","1070140","0.0-12.0-4.29","2d_cat_multi_stim_exp1","2022-4-26","15:2:4","25","75","3","9","10","40","30","120","61","20","[""White""]","No","Female","2923927","null","null","","","","clear_screen","","","","","","","","","","","","","","","","","","","","","","","","","",""
"","","","","","canvas-keyboard-response","162","1070649","0.0-12.0-0.30","2d_cat_multi_stim_exp1","2022-4-26","15:2:4","25","75","3","9","10","40","30","120","61","20","[""White""]","No","Female","2923927","null","null","","","","fixation","","","","","","","","","","","","","","","","","","","","","","","","","",""
"","","","","","canvas-keyboard-response","163","1071159","0.0-12.0-1.30","2d_cat_multi_stim_exp1","2022-4-26","15:2:4","25","75","3","9","10","40","30","120","61","20","[""White""]","No","Female","2923927","null","null","","","","clear_screen","","","","","","","","","","","","","","","","","","","","","","","","","",""
"","","","","","canvas-keyboard-response","164","1072917","0.0-12.0-2.30","2d_cat_multi_stim_exp1","2022-4-26","15:2:4","25","75","3","9","10","40","30","120","61","20","[""White""]","No","Female","2923927","1748","u","learn","","","learn_trial","25","75","in","1","1","","","","","","","","","","","","","","","","","","","","",""
"","","","","","canvas-keyboard-response","165","1073426","0.0-12.0-3.30","2d_cat_multi_stim_exp1","2022-4-26","15:2:4","25","75","3","9","10","40","30","120","61","20","[""White""]","No","Female","2923927","null","null","learn_feedback","","","learn_feedback","25","75","in","","","","","","","","","","","","","","","","","","","","","","",""
"","","","","","canvas-keyboard-response","166","1073484","0.0-12.0-4.30","2d_cat_multi_stim_exp1","2022-4-26","15:2:4","25","75","3","9","10","40","30","120","61","20","[""White""]","No","Female","2923927","null","null","","","","clear_screen","","","","","","","","","","","","","","","","","","","","","","","","","",""
"","","","","","canvas-keyboard-response","167","1073993","0.0-12.0-0.31","2d_cat_multi_stim_exp1","2022-4-26","15:2:4","25","75","3","9","10","40","30","120","61","20","[""White""]","No","Female","2923927","null","null","","","","fixation","","","","","","","","","","","","","","","","","","","","","","","","","",""
"","","","","","canvas-keyboard-response","168","1074502","0.0-12.0-1.31","2d_cat_multi_stim_exp1","2022-4-26","15:2:4","25","75","3","9","10","40","30","120","61","20","[""White""]","No","Female","2923927","null","null","","","","clear_screen","","","","","","","","","","","","","","","","","","","","","","","","","",""
"","","","","","canvas-keyboard-response","169","1075756","0.0-12.0-2.31","2d_cat_multi_stim_exp1","2022-4-26","15:2:4","25","75","3","9","10","40","30","120","61","20","[""White""]","No","Female","2923927","1244","i","learn","","","learn_trial","20","120","out","0","1","","","","","","","","","","","","","","","","","","","","",""
"","","","","","canvas-keyboard-response","170","1076265","0.0-12.0-3.31","2d_cat_multi_stim_exp1","2022-4-26","15:2:4","25","75","3","9","10","40","30","120","61","20","[""White""]","No","Female","2923927","null","null","learn_feedback","","","learn_feedback","20","120","out","","","","","","","","","","","","","","","","","","","","","","",""
"","","","","","canvas-keyboard-response","171","1076324","0.0-12.0-4.31","2d_cat_multi_stim_exp1","2022-4-26","15:2:4","25","75","3","9","10","40","30","120","61","20","[""White""]","No","Female","2923927","null","null","","","","clear_screen","","","","","","","","","","","","","","","","","","","","","","","","","",""
"","","","","","canvas-keyboard-response","172","1076832","0.0-12.0-0.32","2d_cat_multi_stim_exp1","2022-4-26","15:2:4","25","75","3","9","10","40","30","120","61","20","[""White""]","No","Female","2923927","null","null","","","","fixation","","","","","","","","","","","","","","","","","","","","","","","","","",""
"","","","","","canvas-keyboard-response","173","1077341","0.0-12.0-1.32","2d_cat_multi_stim_exp1","2022-4-26","15:2:4","25","75","3","9","10","40","30","120","61","20","[""White""]","No","Female","2923927","null","null","","","","clear_screen","","","","","","","","","","","","","","","","","","","","","","","","","",""
"","","","","","canvas-keyboard-response","174","1078373","0.0-12.0-2.32","2d_cat_multi_stim_exp1","2022-4-26","15:2:4","25","75","3","9","10","40","30","120","61","20","[""White""]","No","Female","2923927","1024","u","learn","","","learn_trial","22.9268","68.4948","in","1","1","","","","","","","","","","","","","","","","","","","","",""
"","","","","","canvas-keyboard-response","175","1078882","0.0-12.0-3.32","2d_cat_multi_stim_exp1","2022-4-26","15:2:4","25","75","3","9","10","40","30","120","61","20","[""White""]","No","Female","2923927","null","null","learn_feedback","","","learn_feedback","22.9268","68.4948","in","","","","","","","","","","","","","","","","","","","","","","",""
"","","","","","canvas-keyboard-response","176","1078940","0.0-12.0-4.32","2d_cat_multi_stim_exp1","2022-4-26","15:2:4","25","75","3","9","10","40","30","120","61","20","[""White""]","No","Female","2923927","null","null","","","","clear_screen","","","","","","","","","","","","","","","","","","","","","","","","","",""
"","","","","","canvas-keyboard-response","177","1079448","0.0-12.0-0.33","2d_cat_multi_stim_exp1","2022-4-26","15:2:4","25","75","3","9","10","40","30","120","61","20","[""White""]","No","Female","2923927","null","null","","","","fixation","","","","","","","","","","","","","","","","","","","","","","","","","",""
"","","","","","canvas-keyboard-response","178","1079957","0.0-12.0-1.33","2d_cat_multi_stim_exp1","2022-4-26","15:2:4","25","75","3","9","10","40","30","120","61","20","[""White""]","No","Female","2923927","null","null","","","","clear_screen","","","","","","","","","","","","","","","","","","","","","","","","","",""
"","","","","","canvas-keyboard-response","179","1081140","0.0-12.0-2.33","2d_cat_multi_stim_exp1","2022-4-26","15:2:4","25","75","3","9","10","40","30","120","61","20","[""White""]","No","Female","2923927","1174","u","learn","","","learn_trial","22.2971","71.095","in","1","1","","","","","","","","","","","","","","","","","","","","",""
"","","","","","canvas-keyboard-response","180","1081649","0.0-12.0-3.33","2d_cat_multi_stim_exp1","2022-4-26","15:2:4","25","75","3","9","10","40","30","120","61","20","[""White""]","No","Female","2923927","null","null","learn_feedback","","","learn_feedback","22.2971","71.095","in","","","","","","","","","","","","","","","","","","","","","","",""
"","","","","","canvas-keyboard-response","181","1081707","0.0-12.0-4.33","2d_cat_multi_stim_exp1","2022-4-26","15:2:4","25","75","3","9","10","40","30","120","61","20","[""White""]","No","Female","2923927","null","null","","","","clear_screen","","","","","","","","","","","","","","","","","","","","","","","","","",""
"","","","","","canvas-keyboard-response","182","1082215","0.0-12.0-0.34","2d_cat_multi_stim_exp1","2022-4-26","15:2:4","25","75","3","9","10","40","30","120","61","20","[""White""]","No","Female","2923927","null","null","","","","fixation","","","","","","","","","","","","","","","","","","","","","","","","","",""
"","","","","","canvas-keyboard-response","183","1082723","0.0-12.0-1.34","2d_cat_multi_stim_exp1","2022-4-26","15:2:4","25","75","3","9","10","40","30","120","61","20","[""White""]","No","Female","2923927","null","null","","","","clear_screen","","","","","","","","","","","","","","","","","","","","","","","","","",""
"","","","","","canvas-keyboard-response","184","1083645","0.0-12.0-2.34","2d_cat_multi_stim_exp1","2022-4-26","15:2:4","25","75","3","9","10","40","30","120","61","20","[""White""]","No","Female","2923927","911","i","learn","","","learn_trial","20","30","out","0","1","","","","","","","","","","","","","","","","","","","","",""
"","","","","","canvas-keyboard-response","185","1084153","0.0-12.0-3.34","2d_cat_multi_stim_exp1","2022-4-26","15:2:4","25","75","3","9","10","40","30","120","61","20","[""White""]","No","Female","2923927","null","null","learn_feedback","","","learn_feedback","20","30","out","","","","","","","","","","","","","","","","","","","","","","",""
"","","","","","canvas-keyboard-response","186","1084212","0.0-12.0-4.34","2d_cat_multi_stim_exp1","2022-4-26","15:2:4","25","75","3","9","10","40","30","120","61","20","[""White""]","No","Female","2923927","null","null","","","","clear_screen","","","","","","","","","","","","","","","","","","","","","","","","","",""
"","","","","","canvas-keyboard-response","187","1084720","0.0-12.0-0.35","2d_cat_multi_stim_exp1","2022-4-26","15:2:4","25","75","3","9","10","40","30","120","61","20","[""White""]","No","Female","2923927","null","null","","","","fixation","","","","","","","","","","","","","","","","","","","","","","","","","",""
"","","","","","canvas-keyboard-response","188","1085229","0.0-12.0-1.35","2d_cat_multi_stim_exp1","2022-4-26","15:2:4","25","75","3","9","10","40","30","120","61","20","[""White""]","No","Female","2923927","null","null","","","","clear_screen","","","","","","","","","","","","","","","","","","","","","","","","","",""
"","","","","","canvas-keyboard-response","189","1086260","0.0-12.0-2.35","2d_cat_multi_stim_exp1","2022-4-26","15:2:4","25","75","3","9","10","40","30","120","61","20","[""White""]","No","Female","2923927","1022","i","learn","","","learn_trial","10","90","out","0","1","","","","","","","","","","","","","","","","","","","","",""
"","","","","","canvas-keyboard-response","190","1086769","0.0-12.0-3.35","2d_cat_multi_stim_exp1","2022-4-26","15:2:4","25","75","3","9","10","40","30","120","61","20","[""White""]","No","Female","2923927","null","null","learn_feedback","","","learn_feedback","10","90","out","","","","","","","","","","","","","","","","","","","","","","",""
"","","","","","canvas-keyboard-response","191","1086827","0.0-12.0-4.35","2d_cat_multi_stim_exp1","2022-4-26","15:2:4","25","75","3","9","10","40","30","120","61","20","[""White""]","No","Female","2923927","null","null","","","","clear_screen","","","","","","","","","","","","","","","","","","","","","","","","","",""
"","","","","","canvas-keyboard-response","192","1087335","0.0-12.0-0.36","2d_cat_multi_stim_exp1","2022-4-26","15:2:4","25","75","3","9","10","40","30","120","61","20","[""White""]","No","Female","2923927","null","null","","","","fixation","","","","","","","","","","","","","","","","","","","","","","","","","",""
"","","","","","canvas-keyboard-response","193","1087844","0.0-12.0-1.36","2d_cat_multi_stim_exp1","2022-4-26","15:2:4","25","75","3","9","10","40","30","120","61","20","[""White""]","No","Female","2923927","null","null","","","","clear_screen","","","","","","","","","","","","","","","","","","","","","","","","","",""
"","","","","","canvas-keyboard-response","194","1088523","0.0-12.0-2.36","2d_cat_multi_stim_exp1","2022-4-26","15:2:4","25","75","3","9","10","40","30","120","61","20","[""White""]","No","Female","2923927","671","u","learn","","","learn_trial","26.4216","67.0746","in","1","1","","","","","","","","","","","","","","","","","","","","",""
"","","","","","canvas-keyboard-response","195","1089033","0.0-12.0-3.36","2d_cat_multi_stim_exp1","2022-4-26","15:2:4","25","75","3","9","10","40","30","120","61","20","[""White""]","No","Female","2923927","null","null","learn_feedback","","","learn_feedback","26.4216","67.0746","in","","","","","","","","","","","","","","","","","","","","","","",""
"","","","","","canvas-keyboard-response","196","1089091","0.0-12.0-4.36","2d_cat_multi_stim_exp1","2022-4-26","15:2:4","25","75","3","9","10","40","30","120","61","20","[""White""]","No","Female","2923927","null","null","","","","clear_screen","","","","","","","","","","","","","","","","","","","","","","","","","",""
"","","","","","canvas-keyboard-response","197","1089598","0.0-12.0-0.37","2d_cat_multi_stim_exp1","2022-4-26","15:2:4","25","75","3","9","10","40","30","120","61","20","[""White""]","No","Female","2923927","null","null","","","","fixation","","","","","","","","","","","","","","","","","","","","","","","","","",""
"","","","","","canvas-keyboard-response","198","1090107","0.0-12.0-1.37","2d_cat_multi_stim_exp1","2022-4-26","15:2:4","25","75","3","9","10","40","30","120","61","20","[""White""]","No","Female","2923927","null","null","","","","clear_screen","","","","","","","","","","","","","","","","","","","","","","","","","",""
"","","","","","canvas-keyboard-response","199","1091204","0.0-12.0-2.37","2d_cat_multi_stim_exp1","2022-4-26","15:2:4","25","75","3","9","10","40","30","120","61","20","[""White""]","No","Female","2923927","1088","i","learn","","","learn_trial","10","110","out","0","1","","","","","","","","","","","","","","","","","","","","",""
"","","","","","canvas-keyboard-response","200","1091713","0.0-12.0-3.37","2d_cat_multi_stim_exp1","2022-4-26","15:2:4","25","75","3","9","10","40","30","120","61","20","[""White""]","No","Female","2923927","null","null","learn_feedback","","","learn_feedback","10","110","out","","","","","","","","","","","","","","","","","","","","","","",""
"","","","","","canvas-keyboard-response","201","1091772","0.0-12.0-4.37","2d_cat_multi_stim_exp1","2022-4-26","15:2:4","25","75","3","9","10","40","30","120","61","20","[""White""]","No","Female","2923927","null","null","","","","clear_screen","","","","","","","","","","","","","","","","","","","","","","","","","",""
"","","","","","canvas-keyboard-response","202","1092280","0.0-12.0-0.38","2d_cat_multi_stim_exp1","2022-4-26","15:2:4","25","75","3","9","10","40","30","120","61","20","[""White""]","No","Female","2923927","null","null","","","","fixation","","","","","","","","","","","","","","","","","","","","","","","","","",""
"","","","","","canvas-keyboard-response","203","1092789","0.0-12.0-1.38","2d_cat_multi_stim_exp1","2022-4-26","15:2:4","25","75","3","9","10","40","30","120","61","20","[""White""]","No","Female","2923927","null","null","","","","clear_screen","","","","","","","","","","","","","","","","","","","","","","","","","",""
"","","","","","canvas-keyboard-response","204","1094037","0.0-12.0-2.38","2d_cat_multi_stim_exp1","2022-4-26","15:2:4","25","75","3","9","10","40","30","120","61","20","[""White""]","No","Female","2923927","1239","i","learn","","","learn_trial","30","60","out","0","1","","","","","","","","","","","","","","","","","","","","",""
"","","","","","canvas-keyboard-response","205","1094546","0.0-12.0-3.38","2d_cat_multi_stim_exp1","2022-4-26","15:2:4","25","75","3","9","10","40","30","120","61","20","[""White""]","No","Female","2923927","null","null","learn_feedback","","","learn_feedback","30","60","out","","","","","","","","","","","","","","","","","","","","","","",""
"","","","","","canvas-keyboard-response","206","1094604","0.0-12.0-4.38","2d_cat_multi_stim_exp1","2022-4-26","15:2:4","25","75","3","9","10","40","30","120","61","20","[""White""]","No","Female","2923927","null","null","","","","clear_screen","","","","","","","","","","","","","","","","","","","","","","","","","",""
"","","","","","canvas-keyboard-response","207","1095113","0.0-12.0-0.39","2d_cat_multi_stim_exp1","2022-4-26","15:2:4","25","75","3","9","10","40","30","120","61","20","[""White""]","No","Female","2923927","null","null","","","","fixation","","","","","","","","","","","","","","","","","","","","","","","","","",""
"","","","","","canvas-keyboard-response","208","1095620","0.0-12.0-1.39","2d_cat_multi_stim_exp1","2022-4-26","15:2:4","25","75","3","9","10","40","30","120","61","20","[""White""]","No","Female","2923927","null","null","","","","clear_screen","","","","","","","","","","","","","","","","","","","","","","","","","",""
"","","","","","canvas-keyboard-response","209","1096564","0.0-12.0-2.39","2d_cat_multi_stim_exp1","2022-4-26","15:2:4","25","75","3","9","10","40","30","120","61","20","[""White""]","No","Female","2923927","935","u","learn","","","learn_trial","25","75","in","1","1","","","","","","","","","","","","","","","","","","","","",""
"","","","","","canvas-keyboard-response","210","1097073","0.0-12.0-3.39","2d_cat_multi_stim_exp1","2022-4-26","15:2:4","25","75","3","9","10","40","30","120","61","20","[""White""]","No","Female","2923927","null","null","learn_feedback","","","learn_feedback","25","75","in","","","","","","","","","","","","","","","","","","","","","","",""
"","","","","","canvas-keyboard-response","211","1097130","0.0-12.0-4.39","2d_cat_multi_stim_exp1","2022-4-26","15:2:4","25","75","3","9","10","40","30","120","61","20","[""White""]","No","Female","2923927","null","null","","","","clear_screen","","","","","","","","","","","","","","","","","","","","","","","","","",""
"","","","","","canvas-keyboard-response","212","1097638","0.0-12.0-0.40","2d_cat_multi_stim_exp1","2022-4-26","15:2:4","25","75","3","9","10","40","30","120","61","20","[""White""]","No","Female","2923927","null","null","","","","fixation","","","","","","","","","","","","","","","","","","","","","","","","","",""
"","","","","","canvas-keyboard-response","213","1098147","0.0-12.0-1.40","2d_cat_multi_stim_exp1","2022-4-26","15:2:4","25","75","3","9","10","40","30","120","61","20","[""White""]","No","Female","2923927","null","null","","","","clear_screen","","","","","","","","","","","","","","","","","","","","","","","","","",""
"","","","","","canvas-keyboard-response","214","1100052","0.0-12.0-2.40","2d_cat_multi_stim_exp1","2022-4-26","15:2:4","25","75","3","9","10","40","30","120","61","20","[""White""]","No","Female","2923927","1897","u","learn","","","learn_trial","23.3333","70","out","1","0","","","","","","","","","","","","","","","","","","","","",""
"","","","","","canvas-keyboard-response","215","1101060","0.0-12.0-3.40","2d_cat_multi_stim_exp1","2022-4-26","15:2:4","25","75","3","9","10","40","30","120","61","20","[""White""]","No","Female","2923927","null","null","learn_feedback","","","learn_feedback","23.3333","70","out","","","","","","","","","","","","","","","","","","","","","","",""
"","","","","","canvas-keyboard-response","216","1101120","0.0-12.0-4.40","2d_cat_multi_stim_exp1","2022-4-26","15:2:4","25","75","3","9","10","40","30","120","61","20","[""White""]","No","Female","2923927","null","null","","","","clear_screen","","","","","","","","","","","","","","","","","","","","","","","","","",""
"","","","","","canvas-keyboard-response","217","1101631","0.0-12.0-0.41","2d_cat_multi_stim_exp1","2022-4-26","15:2:4","25","75","3","9","10","40","30","120","61","20","[""White""]","No","Female","2923927","null","null","","","","fixation","","","","","","","","","","","","","","","","","","","","","","","","","",""
"","","","","","canvas-keyboard-response","218","1102143","0.0-12.0-1.41","2d_cat_multi_stim_exp1","2022-4-26","15:2:4","25","75","3","9","10","40","30","120","61","20","[""White""]","No","Female","2923927","null","null","","","","clear_screen","","","","","","","","","","","","","","","","","","","","","","","","","",""
"","","","","","canvas-keyboard-response","219","1103116","0.0-12.0-2.41","2d_cat_multi_stim_exp1","2022-4-26","15:2:4","25","75","3","9","10","40","30","120","61","20","[""White""]","No","Female","2923927","963","i","learn","","","learn_trial","36.6667","90","out","0","1","","","","","","","","","","","","","","","","","","","","",""
"","","","","","canvas-keyboard-response","220","1103626","0.0-12.0-3.41","2d_cat_multi_stim_exp1","2022-4-26","15:2:4","25","75","3","9","10","40","30","120","61","20","[""White""]","No","Female","2923927","null","null","learn_feedback","","","learn_feedback","36.6667","90","out","","","","","","","","","","","","","","","","","","","","","","",""
"","","","","","canvas-keyboard-response","221","1103686","0.0-12.0-4.41","2d_cat_multi_stim_exp1","2022-4-26","15:2:4","25","75","3","9","10","40","30","120","61","20","[""White""]","No","Female","2923927","null","null","","","","clear_screen","","","","","","","","","","","","","","","","","","","","","","","","","",""
"","","","","","canvas-keyboard-response","222","1104194","0.0-12.0-0.42","2d_cat_multi_stim_exp1","2022-4-26","15:2:4","25","75","3","9","10","40","30","120","61","20","[""White""]","No","Female","2923927","null","null","","","","fixation","","","","","","","","","","","","","","","","","","","","","","","","","",""
"","","","","","canvas-keyboard-response","223","1104703","0.0-12.0-1.42","2d_cat_multi_stim_exp1","2022-4-26","15:2:4","25","75","3","9","10","40","30","120","61","20","[""White""]","No","Female","2923927","null","null","","","","clear_screen","","","","","","","","","","","","","","","","","","","","","","","","","",""
"","","","","","canvas-keyboard-response","224","1106108","0.0-12.0-2.42","2d_cat_multi_stim_exp1","2022-4-26","15:2:4","25","75","3","9","10","40","30","120","61","20","[""White""]","No","Female","2923927","1396","u","learn","","","learn_trial","16.6667","100","out","1","0","","","","","","","","","","","","","","","","","","","","",""
"","","","","","canvas-keyboard-response","225","1107118","0.0-12.0-3.42","2d_cat_multi_stim_exp1","2022-4-26","15:2:4","25","75","3","9","10","40","30","120","61","20","[""White""]","No","Female","2923927","null","null","learn_feedback","","","learn_feedback","16.6667","100","out","","","","","","","","","","","","","","","","","","","","","","",""
"","","","","","canvas-keyboard-response","226","1107176","0.0-12.0-4.42","2d_cat_multi_stim_exp1","2022-4-26","15:2:4","25","75","3","9","10","40","30","120","61","20","[""White""]","No","Female","2923927","null","null","","","","clear_screen","","","","","","","","","","","","","","","","","","","","","","","","","",""
"","","","","","canvas-keyboard-response","227","1107686","0.0-12.0-0.43","2d_cat_multi_stim_exp1","2022-4-26","15:2:4","25","75","3","9","10","40","30","120","61","20","[""White""]","No","Female","2923927","null","null","","","","fixation","","","","","","","","","","","","","","","","","","","","","","","","","",""
"","","","","","canvas-keyboard-response","228","1108195","0.0-12.0-1.43","2d_cat_multi_stim_exp1","2022-4-26","15:2:4","25","75","3","9","10","40","30","120","61","20","[""White""]","No","Female","2923927","null","null","","","","clear_screen","","","","","","","","","","","","","","","","","","","","","","","","","",""
"","","","","","canvas-keyboard-response","229","1109228","0.0-12.0-2.43","2d_cat_multi_stim_exp1","2022-4-26","15:2:4","25","75","3","9","10","40","30","120","61","20","[""White""]","No","Female","2923927","1024","i","learn","","","learn_trial","30","70","out","0","1","","","","","","","","","","","","","","","","","","","","",""
"","","","","","canvas-keyboard-response","230","1109738","0.0-12.0-3.43","2d_cat_multi_stim_exp1","2022-4-26","15:2:4","25","75","3","9","10","40","30","120","61","20","[""White""]","No","Female","2923927","null","null","learn_feedback","","","learn_feedback","30","70","out","","","","","","","","","","","","","","","","","","","","","","",""
"","","","","","canvas-keyboard-response","231","1109796","0.0-12.0-4.43","2d_cat_multi_stim_exp1","2022-4-26","15:2:4","25","75","3","9","10","40","30","120","61","20","[""White""]","No","Female","2923927","null","null","","","","clear_screen","","","","","","","","","","","","","","","","","","","","","","","","","",""
"","","","","","canvas-keyboard-response","232","1110307","0.0-12.0-0.44","2d_cat_multi_stim_exp1","2022-4-26","15:2:4","25","75","3","9","10","40","30","120","61","20","[""White""]","No","Female","2923927","null","null","","","","fixation","","","","","","","","","","","","","","","","","","","","","","","","","",""
"","","","","","canvas-keyboard-response","233","1110816","0.0-12.0-1.44","2d_cat_multi_stim_exp1","2022-4-26","15:2:4","25","75","3","9","10","40","30","120","61","20","[""White""]","No","Female","2923927","null","null","","","","clear_screen","","","","","","","","","","","","","","","","","","","","","","","","","",""
"","","","","","canvas-keyboard-response","234","1112004","0.0-12.0-2.44","2d_cat_multi_stim_exp1","2022-4-26","15:2:4","25","75","3","9","10","40","30","120","61","20","[""White""]","No","Female","2923927","1179","i","learn","","","learn_trial","22.5729","80.2901","in","0","0","","","","","","","","","","","","","","","","","","","","",""
"","","","","","canvas-keyboard-response","235","1113013","0.0-12.0-3.44","2d_cat_multi_stim_exp1","2022-4-26","15:2:4","25","75","3","9","10","40","30","120","61","20","[""White""]","No","Female","2923927","null","null","learn_feedback","","","learn_feedback","22.5729","80.2901","in","","","","","","","","","","","","","","","","","","","","","","",""
"","","","","","canvas-keyboard-response","236","1113071","0.0-12.0-4.44","2d_cat_multi_stim_exp1","2022-4-26","15:2:4","25","75","3","9","10","40","30","120","61","20","[""White""]","No","Female","2923927","null","null","","","","clear_screen","","","","","","","","","","","","","","","","","","","","","","","","","",""
"","","","","","canvas-keyboard-response","237","1113580","0.0-12.0-0.45","2d_cat_multi_stim_exp1","2022-4-26","15:2:4","25","75","3","9","10","40","30","120","61","20","[""White""]","No","Female","2923927","null","null","","","","fixation","","","","","","","","","","","","","","","","","","","","","","","","","",""
"","","","","","canvas-keyboard-response","238","1114088","0.0-12.0-1.45","2d_cat_multi_stim_exp1","2022-4-26","15:2:4","25","75","3","9","10","40","30","120","61","20","[""White""]","No","Female","2923927","null","null","","","","clear_screen","","","","","","","","","","","","","","","","","","","","","","","","","",""
"","","","","","canvas-keyboard-response","239","1114700","0.0-12.0-2.45","2d_cat_multi_stim_exp1","2022-4-26","15:2:4","25","75","3","9","10","40","30","120","61","20","[""White""]","No","Female","2923927","603","u","learn","","","learn_trial","23.3333","80","out","1","0","","","","","","","","","","","","","","","","","","","","",""
"","","","","","canvas-keyboard-response","240","1115709","0.0-12.0-3.45","2d_cat_multi_stim_exp1","2022-4-26","15:2:4","25","75","3","9","10","40","30","120","61","20","[""White""]","No","Female","2923927","null","null","learn_feedback","","","learn_feedback","23.3333","80","out","","","","","","","","","","","","","","","","","","","","","","",""
"","","","","","canvas-keyboard-response","241","1115767","0.0-12.0-4.45","2d_cat_multi_stim_exp1","2022-4-26","15:2:4","25","75","3","9","10","40","30","120","61","20","[""White""]","No","Female","2923927","null","null","","","","clear_screen","","","","","","","","","","","","","","","","","","","","","","","","","",""
"","","","","","canvas-keyboard-response","242","1116275","0.0-12.0-0.46","2d_cat_multi_stim_exp1","2022-4-26","15:2:4","25","75","3","9","10","40","30","120","61","20","[""White""]","No","Female","2923927","null","null","","","","fixation","","","","","","","","","","","","","","","","","","","","","","","","","",""
"","","","","","canvas-keyboard-response","243","1116783","0.0-12.0-1.46","2d_cat_multi_stim_exp1","2022-4-26","15:2:4","25","75","3","9","10","40","30","120","61","20","[""White""]","No","Female","2923927","null","null","","","","clear_screen","","","","","","","","","","","","","","","","","","","","","","","","","",""
"","","","","","canvas-keyboard-response","244","1117588","0.0-12.0-2.46","2d_cat_multi_stim_exp1","2022-4-26","15:2:4","25","75","3","9","10","40","30","120","61","20","[""White""]","No","Female","2923927","797","i","learn","","","learn_trial","13.3333","120","out","0","1","","","","","","","","","","","","","","","","","","","","",""
"","","","","","canvas-keyboard-response","245","1118097","0.0-12.0-3.46","2d_cat_multi_stim_exp1","2022-4-26","15:2:4","25","75","3","9","10","40","30","120","61","20","[""White""]","No","Female","2923927","null","null","learn_feedback","","","learn_feedback","13.3333","120","out","","","","","","","","","","","","","","","","","","","","","","",""
"","","","","","canvas-keyboard-response","246","1118155","0.0-12.0-4.46","2d_cat_multi_stim_exp1","2022-4-26","15:2:4","25","75","3","9","10","40","30","120","61","20","[""White""]","No","Female","2923927","null","null","","","","clear_screen","","","","","","","","","","","","","","","","","","","","","","","","","",""
"","","","","","canvas-keyboard-response","247","1118664","0.0-12.0-0.47","2d_cat_multi_stim_exp1","2022-4-26","15:2:4","25","75","3","9","10","40","30","120","61","20","[""White""]","No","Female","2923927","null","null","","","","fixation","","","","","","","","","","","","","","","","","","","","","","","","","",""
"","","","","","canvas-keyboard-response","248","1119172","0.0-12.0-1.47","2d_cat_multi_stim_exp1","2022-4-26","15:2:4","25","75","3","9","10","40","30","120","61","20","[""White""]","No","Female","2923927","null","null","","","","clear_screen","","","","","","","","","","","","","","","","","","","","","","","","","",""
"","","","","","canvas-keyboard-response","249","1120332","0.0-12.0-2.47","2d_cat_multi_stim_exp1","2022-4-26","15:2:4","25","75","3","9","10","40","30","120","61","20","[""White""]","No","Female","2923927","1150","i","learn","","","learn_trial","26.6667","80","out","0","1","","","","","","","","","","","","","","","","","","","","",""
"","","","","","canvas-keyboard-response","250","1120841","0.0-12.0-3.47","2d_cat_multi_stim_exp1","2022-4-26","15:2:4","25","75","3","9","10","40","30","120","61","20","[""White""]","No","Female","2923927","null","null","learn_feedback","","","learn_feedback","26.6667","80","out","","","","","","","","","","","","","","","","","","","","","","",""
"","","","","","canvas-keyboard-response","251","1120899","0.0-12.0-4.47","2d_cat_multi_stim_exp1","2022-4-26","15:2:4","25","75","3","9","10","40","30","120","61","20","[""White""]","No","Female","2923927","null","null","","","","clear_screen","","","","","","","","","","","","","","","","","","","","","","","","","",""
"","","","","","canvas-keyboard-response","252","1121407","0.0-12.0-0.48","2d_cat_multi_stim_exp1","2022-4-26","15:2:4","25","75","3","9","10","40","30","120","61","20","[""White""]","No","Female","2923927","null","null","","","","fixation","","","","","","","","","","","","","","","","","","","","","","","","","",""
"","","","","","canvas-keyboard-response","253","1121916","0.0-12.0-1.48","2d_cat_multi_stim_exp1","2022-4-26","15:2:4","25","75","3","9","10","40","30","120","61","20","[""White""]","No","Female","2923927","null","null","","","","clear_screen","","","","","","","","","","","","","","","","","","","","","","","","","",""
"","","","","","canvas-keyboard-response","254","1123147","0.0-12.0-2.48","2d_cat_multi_stim_exp1","2022-4-26","15:2:4","25","75","3","9","10","40","30","120","61","20","[""White""]","No","Female","2923927","1223","u","learn","","","learn_trial","25.4027","83.9185","in","1","1","","","","","","","","","","","","","","","","","","","","",""
"","","","","","canvas-keyboard-response","255","1123657","0.0-12.0-3.48","2d_cat_multi_stim_exp1","2022-4-26","15:2:4","25","75","3","9","10","40","30","120","61","20","[""White""]","No","Female","2923927","null","null","learn_feedback","","","learn_feedback","25.4027","83.9185","in","","","","","","","","","","","","","","","","","","","","","","",""
"","","","","","canvas-keyboard-response","256","1123715","0.0-12.0-4.48","2d_cat_multi_stim_exp1","2022-4-26","15:2:4","25","75","3","9","10","40","30","120","61","20","[""White""]","No","Female","2923927","null","null","","","","clear_screen","","","","","","","","","","","","","","","","","","","","","","","","","",""
"","","","","","canvas-keyboard-response","257","1124222","0.0-12.0-0.49","2d_cat_multi_stim_exp1","2022-4-26","15:2:4","25","75","3","9","10","40","30","120","61","20","[""White""]","No","Female","2923927","null","null","","","","fixation","","","","","","","","","","","","","","","","","","","","","","","","","",""
"","","","","","canvas-keyboard-response","258","1124731","0.0-12.0-1.49","2d_cat_multi_stim_exp1","2022-4-26","15:2:4","25","75","3","9","10","40","30","120","61","20","[""White""]","No","Female","2923927","null","null","","","","clear_screen","","","","","","","","","","","","","","","","","","","","","","","","","",""
"","","","","","canvas-keyboard-response","259","1125516","0.0-12.0-2.49","2d_cat_multi_stim_exp1","2022-4-26","15:2:4","25","75","3","9","10","40","30","120","61","20","[""White""]","No","Female","2923927","775","u","learn","","","learn_trial","26.4216","82.9254","in","1","1","","","","","","","","","","","","","","","","","","","","",""
"","","","","","canvas-keyboard-response","260","1126025","0.0-12.0-3.49","2d_cat_multi_stim_exp1","2022-4-26","15:2:4","25","75","3","9","10","40","30","120","61","20","[""White""]","No","Female","2923927","null","null","learn_feedback","","","learn_feedback","26.4216","82.9254","in","","","","","","","","","","","","","","","","","","","","","","",""
"","","","","","canvas-keyboard-response","261","1126082","0.0-12.0-4.49","2d_cat_multi_stim_exp1","2022-4-26","15:2:4","25","75","3","9","10","40","30","120","61","20","[""White""]","No","Female","2923927","null","null","","","","clear_screen","","","","","","","","","","","","","","","","","","","","","","","","","",""
"","","","","","canvas-keyboard-response","262","1126591","0.0-12.0-0.50","2d_cat_multi_stim_exp1","2022-4-26","15:2:4","25","75","3","9","10","40","30","120","61","20","[""White""]","No","Female","2923927","null","null","","","","fixation","","","","","","","","","","","","","","","","","","","","","","","","","",""
"","","","","","canvas-keyboard-response","263","1127103","0.0-12.0-1.50","2d_cat_multi_stim_exp1","2022-4-26","15:2:4","25","75","3","9","10","40","30","120","61","20","[""White""]","No","Female","2923927","null","null","","","","clear_screen","","","","","","","","","","","","","","","","","","","","","","","","","",""
"","","","","","canvas-keyboard-response","264","1127500","0.0-12.0-2.50","2d_cat_multi_stim_exp1","2022-4-26","15:2:4","25","75","3","9","10","40","30","120","61","20","[""White""]","No","Female","2923927","389","u","learn","","","learn_trial","26.8705","82.0365","in","1","1","","","","","","","","","","","","","","","","","","","","",""
"","","","","","canvas-keyboard-response","265","1128009","0.0-12.0-3.50","2d_cat_multi_stim_exp1","2022-4-26","15:2:4","25","75","3","9","10","40","30","120","61","20","[""White""]","No","Female","2923927","null","null","learn_feedback","","","learn_feedback","26.8705","82.0365","in","","","","","","","","","","","","","","","","","","","","","","",""
"","","","","","canvas-keyboard-response","266","1128067","0.0-12.0-4.50","2d_cat_multi_stim_exp1","2022-4-26","15:2:4","25","75","3","9","10","40","30","120","61","20","[""White""]","No","Female","2923927","null","null","","","","clear_screen","","","","","","","","","","","","","","","","","","","","","","","","","",""
"","","","","","canvas-keyboard-response","267","1128575","0.0-12.0-0.51","2d_cat_multi_stim_exp1","2022-4-26","15:2:4","25","75","3","9","10","40","30","120","61","20","[""White""]","No","Female","2923927","null","null","","","","fixation","","","","","","","","","","","","","","","","","","","","","","","","","",""
"","","","","","canvas-keyboard-response","268","1129084","0.0-12.0-1.51","2d_cat_multi_stim_exp1","2022-4-26","15:2:4","25","75","3","9","10","40","30","120","61","20","[""White""]","No","Female","2923927","null","null","","","","clear_screen","","","","","","","","","","","","","","","","","","","","","","","","","",""
"","","","","","canvas-keyboard-response","269","1129796","0.0-12.0-2.51","2d_cat_multi_stim_exp1","2022-4-26","15:2:4","25","75","3","9","10","40","30","120","61","20","[""White""]","No","Female","2923927","703","i","learn","","","learn_trial","23.3333","50","out","0","1","","","","","","","","","","","","","","","","","","","","",""
"","","","","","canvas-keyboard-response","270","1130304","0.0-12.0-3.51","2d_cat_multi_stim_exp1","2022-4-26","15:2:4","25","75","3","9","10","40","30","120","61","20","[""White""]","No","Female","2923927","null","null","learn_feedback","","","learn_feedback","23.3333","50","out","","","","","","","","","","","","","","","","","","","","","","",""
"","","","","","canvas-keyboard-response","271","1130362","0.0-12.0-4.51","2d_cat_multi_stim_exp1","2022-4-26","15:2:4","25","75","3","9","10","40","30","120","61","20","[""White""]","No","Female","2923927","null","null","","","","clear_screen","","","","","","","","","","","","","","","","","","","","","","","","","",""
"","","","","","canvas-keyboard-response","272","1130871","0.0-12.0-0.52","2d_cat_multi_stim_exp1","2022-4-26","15:2:4","25","75","3","9","10","40","30","120","61","20","[""White""]","No","Female","2923927","null","null","","","","fixation","","","","","","","","","","","","","","","","","","","","","","","","","",""
"","","","","","canvas-keyboard-response","273","1131379","0.0-12.0-1.52","2d_cat_multi_stim_exp1","2022-4-26","15:2:4","25","75","3","9","10","40","30","120","61","20","[""White""]","No","Female","2923927","null","null","","","","clear_screen","","","","","","","","","","","","","","","","","","","","","","","","","",""
"","","","","","canvas-keyboard-response","274","1132108","0.0-12.0-2.52","2d_cat_multi_stim_exp1","2022-4-26","15:2:4","25","75","3","9","10","40","30","120","61","20","[""White""]","No","Female","2923927","720","i","learn","","","learn_trial","26.6667","30","out","0","1","","","","","","","","","","","","","","","","","","","","",""
"","","","","","canvas-keyboard-response","275","1132616","0.0-12.0-3.52","2d_cat_multi_stim_exp1","2022-4-26","15:2:4","25","75","3","9","10","40","30","120","61","20","[""White""]","No","Female","2923927","null","null","learn_feedback","","","learn_feedback","26.6667","30","out","","","","","","","","","","","","","","","","","","","","","","",""
"","","","","","canvas-keyboard-response","276","1132674","0.0-12.0-4.52","2d_cat_multi_stim_exp1","2022-4-26","15:2:4","25","75","3","9","10","40","30","120","61","20","[""White""]","No","Female","2923927","null","null","","","","clear_screen","","","","","","","","","","","","","","","","","","","","","","","","","",""
"","","","","","canvas-keyboard-response","277","1133182","0.0-12.0-0.53","2d_cat_multi_stim_exp1","2022-4-26","15:2:4","25","75","3","9","10","40","30","120","61","20","[""White""]","No","Female","2923927","null","null","","","","fixation","","","","","","","","","","","","","","","","","","","","","","","","","",""
"","","","","","canvas-keyboard-response","278","1133690","0.0-12.0-1.53","2d_cat_multi_stim_exp1","2022-4-26","15:2:4","25","75","3","9","10","40","30","120","61","20","[""White""]","No","Female","2923927","null","null","","","","clear_screen","","","","","","","","","","","","","","","","","","","","","","","","","",""
"","","","","","canvas-keyboard-response","279","1134420","0.0-12.0-2.53","2d_cat_multi_stim_exp1","2022-4-26","15:2:4","25","75","3","9","10","40","30","120","61","20","[""White""]","No","Female","2923927","720","i","learn","","","learn_trial","13.3333","30","out","0","1","","","","","","","","","","","","","","","","","","","","",""
"","","","","","canvas-keyboard-response","280","1134933","0.0-12.0-3.53","2d_cat_multi_stim_exp1","2022-4-26","15:2:4","25","75","3","9","10","40","30","120","61","20","[""White""]","No","Female","2923927","null","null","learn_feedback","","","learn_feedback","13.3333","30","out","","","","","","","","","","","","","","","","","","","","","","",""
"","","","","","canvas-keyboard-response","281","1134995","0.0-12.0-4.53","2d_cat_multi_stim_exp1","2022-4-26","15:2:4","25","75","3","9","10","40","30","120","61","20","[""White""]","No","Female","2923927","null","null","","","","clear_screen","","","","","","","","","","","","","","","","","","","","","","","","","",""
"","","","","","canvas-keyboard-response","282","1135505","0.0-12.0-0.54","2d_cat_multi_stim_exp1","2022-4-26","15:2:4","25","75","3","9","10","40","30","120","61","20","[""White""]","No","Female","2923927","null","null","","","","fixation","","","","","","","","","","","","","","","","","","","","","","","","","",""
"","","","","","canvas-keyboard-response","283","1136015","0.0-12.0-1.54","2d_cat_multi_stim_exp1","2022-4-26","15:2:4","25","75","3","9","10","40","30","120","61","20","[""White""]","No","Female","2923927","null","null","","","","clear_screen","","","","","","","","","","","","","","","","","","","","","","","","","",""
"","","","","","canvas-keyboard-response","284","1136852","0.0-12.0-2.54","2d_cat_multi_stim_exp1","2022-4-26","15:2:4","25","75","3","9","10","40","30","120","61","20","[""White""]","No","Female","2923927","828","u","learn","","","learn_trial","25","75","in","1","1","","","","","","","","","","","","","","","","","","","","",""
"","","","","","canvas-keyboard-response","285","1137361","0.0-12.0-3.54","2d_cat_multi_stim_exp1","2022-4-26","15:2:4","25","75","3","9","10","40","30","120","61","20","[""White""]","No","Female","2923927","null","null","learn_feedback","","","learn_feedback","25","75","in","","","","","","","","","","","","","","","","","","","","","","",""
"","","","","","canvas-keyboard-response","286","1137420","0.0-12.0-4.54","2d_cat_multi_stim_exp1","2022-4-26","15:2:4","25","75","3","9","10","40","30","120","61","20","[""White""]","No","Female","2923927","null","null","","","","clear_screen","","","","","","","","","","","","","","","","","","","","","","","","","",""
"","","","","","canvas-keyboard-response","287","1137928","0.0-12.0-0.55","2d_cat_multi_stim_exp1","2022-4-26","15:2:4","25","75","3","9","10","40","30","120","61","20","[""White""]","No","Female","2923927","null","null","","","","fixation","","","","","","","","","","","","","","","","","","","","","","","","","",""
"","","","","","canvas-keyboard-response","288","1138437","0.0-12.0-1.55","2d_cat_multi_stim_exp1","2022-4-26","15:2:4","25","75","3","9","10","40","30","120","61","20","[""White""]","No","Female","2923927","null","null","","","","clear_screen","","","","","","","","","","","","","","","","","","","","","","","","","",""
"","","","","","canvas-keyboard-response","289","1139125","0.0-12.0-2.55","2d_cat_multi_stim_exp1","2022-4-26","15:2:4","25","75","3","9","10","40","30","120","61","20","[""White""]","No","Female","2923927","677","i","learn","","","learn_trial","26.6667","40","out","0","1","","","","","","","","","","","","","","","","","","","","",""
"","","","","","canvas-keyboard-response","290","1139633","0.0-12.0-3.55","2d_cat_multi_stim_exp1","2022-4-26","15:2:4","25","75","3","9","10","40","30","120","61","20","[""White""]","No","Female","2923927","null","null","learn_feedback","","","learn_feedback","26.6667","40","out","","","","","","","","","","","","","","","","","","","","","","",""
"","","","","","canvas-keyboard-response","291","1139693","0.0-12.0-4.55","2d_cat_multi_stim_exp1","2022-4-26","15:2:4","25","75","3","9","10","40","30","120","61","20","[""White""]","No","Female","2923927","null","null","","","","clear_screen","","","","","","","","","","","","","","","","","","","","","","","","","",""
"","","","","","canvas-keyboard-response","292","1140201","0.0-12.0-0.56","2d_cat_multi_stim_exp1","2022-4-26","15:2:4","25","75","3","9","10","40","30","120","61","20","[""White""]","No","Female","2923927","null","null","","","","fixation","","","","","","","","","","","","","","","","","","","","","","","","","",""
"","","","","","canvas-keyboard-response","293","1140710","0.0-12.0-1.56","2d_cat_multi_stim_exp1","2022-4-26","15:2:4","25","75","3","9","10","40","30","120","61","20","[""White""]","No","Female","2923927","null","null","","","","clear_screen","","","","","","","","","","","","","","","","","","","","","","","","","",""
"","","","","","canvas-keyboard-response","294","1141428","0.0-12.0-2.56","2d_cat_multi_stim_exp1","2022-4-26","15:2:4","25","75","3","9","10","40","30","120","61","20","[""White""]","No","Female","2923927","709","u","learn","","","learn_trial","25","75","in","1","1","","","","","","","","","","","","","","","","","","","","",""
"","","","","","canvas-keyboard-response","295","1141937","0.0-12.0-3.56","2d_cat_multi_stim_exp1","2022-4-26","15:2:4","25","75","3","9","10","40","30","120","61","20","[""White""]","No","Female","2923927","null","null","learn_feedback","","","learn_feedback","25","75","in","","","","","","","","","","","","","","","","","","","","","","",""
"","","","","","canvas-keyboard-response","296","1141996","0.0-12.0-4.56","2d_cat_multi_stim_exp1","2022-4-26","15:2:4","25","75","3","9","10","40","30","120","61","20","[""White""]","No","Female","2923927","null","null","","","","clear_screen","","","","","","","","","","","","","","","","","","","","","","","","","",""
"","","","","","canvas-keyboard-response","297","1142504","0.0-12.0-0.57","2d_cat_multi_stim_exp1","2022-4-26","15:2:4","25","75","3","9","10","40","30","120","61","20","[""White""]","No","Female","2923927","null","null","","","","fixation","","","","","","","","","","","","","","","","","","","","","","","","","",""
