"success","timeout","failed_images","failed_audio","failed_video","trial_type","trial_index","time_elapsed","internal_node_id","exp_name","date","time","angle_mean_in","radius_mean_in","angle_sd_in","radius_sd_in","angle_min_out","angle_max_out","radius_min_out","radius_max_out","sub_n","age","race","ethnicity","gender","exp_duration","rt","response","exp_trial_type","stimulus","view_history","screen_id","angle","radius","distribution","choice","correct","order","angle_a","radius_a","angle_b","radius_b","jkl_correct","transfer_trial_type","choice_set","abc_correct","tc_correct","tc_angle","tdc_a","tdc_b","tdc_c","pair","category_a","category_b","category_c","angle_c","radius_c","question_order"
"true","false","[]","[]","[]","preload","0","37","0.0-0.0","2d_cat_multi_stim_exp1","2022-4-26","15:52:47","25","75","3","9","10","40","30","120","64","18","[""Black or African-American""]","No","Female","3131296","","","","","","","","","","","","","","","","","","","","","","","","","","","","","","","",""
"","","","","","survey-html-form","1","1271","0.0-1.0","2d_cat_multi_stim_exp1","2022-4-26","15:52:47","25","75","3","9","10","40","30","120","64","18","[""Black or African-American""]","No","Female","3131296","1220","{""response"":""64""}","enter-sub-number","","","","","","","","","","","","","","","","","","","","","","","","","","","","",""
"true","","","","","fullscreen","2","2920","0.0-2.0","2d_cat_multi_stim_exp1","2022-4-26","15:52:47","25","75","3","9","10","40","30","120","64","18","[""Black or African-American""]","No","Female","3131296","","","","","","","","","","","","","","","","","","","","","","","","","","","","","","","",""
"","","","","","image-button-response","3","1244290","0.0-3.0","2d_cat_multi_stim_exp1","2022-4-26","15:52:47","25","75","3","9","10","40","30","120","64","18","[""Black or African-American""]","No","Female","3131296","1241362","0","","consent.png","","","","","","","","","","","","","","","","","","","","","","","","","","","",""
"","","","","","html-button-response","4","1252624","0.0-4.0","2d_cat_multi_stim_exp1","2022-4-26","15:52:47","25","75","3","9","10","40","30","120","64","18","[""Black or African-American""]","No","Female","3131296","8329","0","","<div style= ""font-size:25px;"" <p> <strong> Welcome to the experiment! </strong><br> <p style=""color:#8B0000; font-size:25px;""><strong> Please do NOT exit full screen until you are done with the experiment. </strong> </p><p style=""font-size:25px;color:#8B0000;""> <strong> The experiment will be canceled and your data will be lost <br> if you try to go back or refresh the page at any point during the experiment.</strong> </p><br><p> <strong> Thanks in advance for your contribution to our research! </strong></p>","","","","","","","","","","","","","","","","","","","","","","","","","","","",""
"","","","","","instructions","5","1320552","0.0-5.0","2d_cat_multi_stim_exp1","2022-4-26","15:52:47","25","75","3","9","10","40","30","120","64","18","[""Black or African-American""]","No","Female","3131296","67925","","","","[{""page_index"":0,""viewing_time"":9333},{""page_index"":1,""viewing_time"":4848},{""page_index"":2,""viewing_time"":28607},{""page_index"":3,""viewing_time"":25136}]","instructions_1","","","","","","","","","","","","","","","","","","","","","","","","","",""
"","","","","","instructions","6","1323015","0.0-6.0","2d_cat_multi_stim_exp1","2022-4-26","15:52:47","25","75","3","9","10","40","30","120","64","18","[""Black or African-American""]","No","Female","3131296","2461","","","","[{""page_index"":0,""viewing_time"":2460}]","Click to see the kinds of turtles that will appear in the study.","","","","","","","","","","","","","","","","","","","","","","","","","",""
"","","","","","canvas-keyboard-response","7","1338038","0.0-7.0","2d_cat_multi_stim_exp1","2022-4-26","15:52:47","25","75","3","9","10","40","30","120","64","18","[""Black or African-American""]","No","Female","3131296","null","null","","","","demo_range","","","","","","","","","","","","","","","","","","","","","","","","","",""
"","","","","","instructions","8","1341849","0.0-8.0","2d_cat_multi_stim_exp1","2022-4-26","15:52:47","25","75","3","9","10","40","30","120","64","18","[""Black or African-American""]","No","Female","3131296","3309","","","","[{""page_index"":0,""viewing_time"":3309}]","Click to see some turtles in the subspecies.","","","","","","","","","","","","","","","","","","","","","","","","","",""
"","","","","","canvas-keyboard-response","9","1356868","0.0-9.0","2d_cat_multi_stim_exp1","2022-4-26","15:52:47","25","75","3","9","10","40","30","120","64","18","[""Black or African-American""]","No","Female","3131296","null","null","","","","demo_in","","","","","","","","","","","","","","","","","","","","","","","","","",""
"","","","","","instructions","10","1414655","0.0-10.0","2d_cat_multi_stim_exp1","2022-4-26","15:52:47","25","75","3","9","10","40","30","120","64","18","[""Black or African-American""]","No","Female","3131296","57286","","","","[{""page_index"":0,""viewing_time"":10278},{""page_index"":1,""viewing_time"":38384},{""page_index"":2,""viewing_time"":8624}]","instructions_2","","","","","","","","","","","","","","","","","","","","","","","","","",""
"","","","","","instructions","11","1419567","0.0-11.0","2d_cat_multi_stim_exp1","2022-4-26","15:52:47","25","75","3","9","10","40","30","120","64","18","[""Black or African-American""]","No","Female","3131296","4910","","","","[{""page_index"":0,""viewing_time"":4910}]","Click to begin the first phase of the experiment.","","","","","","","","","","","","","","","","","","","","","","","","","",""
"","","","","","canvas-keyboard-response","12","1420076","0.0-12.0-0.0","2d_cat_multi_stim_exp1","2022-4-26","15:52:47","25","75","3","9","10","40","30","120","64","18","[""Black or African-American""]","No","Female","3131296","null","null","","","","fixation","","","","","","","","","","","","","","","","","","","","","","","","","",""
"","","","","","canvas-keyboard-response","13","1420586","0.0-12.0-1.0","2d_cat_multi_stim_exp1","2022-4-26","15:52:47","25","75","3","9","10","40","30","120","64","18","[""Black or African-American""]","No","Female","3131296","null","null","","","","clear_screen","","","","","","","","","","","","","","","","","","","","","","","","","",""
"","","","","","canvas-keyboard-response","14","1424880","0.0-12.0-2.0","2d_cat_multi_stim_exp1","2022-4-26","15:52:47","25","75","3","9","10","40","30","120","64","18","[""Black or African-American""]","No","Female","3131296","4283","u","learn","","","learn_trial","26.6667","90","out","1","0","","","","","","","","","","","","","","","","","","","","",""
"","","","","","canvas-keyboard-response","15","1425891","0.0-12.0-3.0","2d_cat_multi_stim_exp1","2022-4-26","15:52:47","25","75","3","9","10","40","30","120","64","18","[""Black or African-American""]","No","Female","3131296","null","null","learn_feedback","","","learn_feedback","26.6667","90","out","","","","","","","","","","","","","","","","","","","","","","",""
"","","","","","canvas-keyboard-response","16","1425951","0.0-12.0-4.0","2d_cat_multi_stim_exp1","2022-4-26","15:52:47","25","75","3","9","10","40","30","120","64","18","[""Black or African-American""]","No","Female","3131296","null","null","","","","clear_screen","","","","","","","","","","","","","","","","","","","","","","","","","",""
"","","","","","canvas-keyboard-response","17","1426461","0.0-12.0-0.1","2d_cat_multi_stim_exp1","2022-4-26","15:52:47","25","75","3","9","10","40","30","120","64","18","[""Black or African-American""]","No","Female","3131296","null","null","","","","fixation","","","","","","","","","","","","","","","","","","","","","","","","","",""
"","","","","","canvas-keyboard-response","18","1426969","0.0-12.0-1.1","2d_cat_multi_stim_exp1","2022-4-26","15:52:47","25","75","3","9","10","40","30","120","64","18","[""Black or African-American""]","No","Female","3131296","null","null","","","","clear_screen","","","","","","","","","","","","","","","","","","","","","","","","","",""
"","","","","","canvas-keyboard-response","19","1428712","0.0-12.0-2.1","2d_cat_multi_stim_exp1","2022-4-26","15:52:47","25","75","3","9","10","40","30","120","64","18","[""Black or African-American""]","No","Female","3131296","1732","u","learn","","","learn_trial","16.6667","50","out","1","0","","","","","","","","","","","","","","","","","","","","",""
"","","","","","canvas-keyboard-response","20","1429722","0.0-12.0-3.1","2d_cat_multi_stim_exp1","2022-4-26","15:52:47","25","75","3","9","10","40","30","120","64","18","[""Black or African-American""]","No","Female","3131296","null","null","learn_feedback","","","learn_feedback","16.6667","50","out","","","","","","","","","","","","","","","","","","","","","","",""
"","","","","","canvas-keyboard-response","21","1429781","0.0-12.0-4.1","2d_cat_multi_stim_exp1","2022-4-26","15:52:47","25","75","3","9","10","40","30","120","64","18","[""Black or African-American""]","No","Female","3131296","null","null","","","","clear_screen","","","","","","","","","","","","","","","","","","","","","","","","","",""
"","","","","","canvas-keyboard-response","22","1430290","0.0-12.0-0.2","2d_cat_multi_stim_exp1","2022-4-26","15:52:47","25","75","3","9","10","40","30","120","64","18","[""Black or African-American""]","No","Female","3131296","null","null","","","","fixation","","","","","","","","","","","","","","","","","","","","","","","","","",""
"","","","","","canvas-keyboard-response","23","1430798","0.0-12.0-1.2","2d_cat_multi_stim_exp1","2022-4-26","15:52:47","25","75","3","9","10","40","30","120","64","18","[""Black or African-American""]","No","Female","3131296","null","null","","","","clear_screen","","","","","","","","","","","","","","","","","","","","","","","","","",""
"","","","","","canvas-keyboard-response","24","1434888","0.0-12.0-2.2","2d_cat_multi_stim_exp1","2022-4-26","15:52:47","25","75","3","9","10","40","30","120","64","18","[""Black or African-American""]","No","Female","3131296","4080","i","learn","","","learn_trial","25","75","in","0","0","","","","","","","","","","","","","","","","","","","","",""
"","","","","","canvas-keyboard-response","25","1435897","0.0-12.0-3.2","2d_cat_multi_stim_exp1","2022-4-26","15:52:47","25","75","3","9","10","40","30","120","64","18","[""Black or African-American""]","No","Female","3131296","null","null","learn_feedback","","","learn_feedback","25","75","in","","","","","","","","","","","","","","","","","","","","","","",""
"","","","","","canvas-keyboard-response","26","1435956","0.0-12.0-4.2","2d_cat_multi_stim_exp1","2022-4-26","15:52:47","25","75","3","9","10","40","30","120","64","18","[""Black or African-American""]","No","Female","3131296","null","null","","","","clear_screen","","","","","","","","","","","","","","","","","","","","","","","","","",""
"","","","","","canvas-keyboard-response","27","1436465","0.0-12.0-0.3","2d_cat_multi_stim_exp1","2022-4-26","15:52:47","25","75","3","9","10","40","30","120","64","18","[""Black or African-American""]","No","Female","3131296","null","null","","","","fixation","","","","","","","","","","","","","","","","","","","","","","","","","",""
"","","","","","canvas-keyboard-response","28","1436974","0.0-12.0-1.3","2d_cat_multi_stim_exp1","2022-4-26","15:52:47","25","75","3","9","10","40","30","120","64","18","[""Black or African-American""]","No","Female","3131296","null","null","","","","clear_screen","","","","","","","","","","","","","","","","","","","","","","","","","",""
"","","","","","canvas-keyboard-response","29","1438592","0.0-12.0-2.3","2d_cat_multi_stim_exp1","2022-4-26","15:52:47","25","75","3","9","10","40","30","120","64","18","[""Black or African-American""]","No","Female","3131296","1609","i","learn","","","learn_trial","10","90","out","0","1","","","","","","","","","","","","","","","","","","","","",""
"","","","","","canvas-keyboard-response","30","1439106","0.0-12.0-3.3","2d_cat_multi_stim_exp1","2022-4-26","15:52:47","25","75","3","9","10","40","30","120","64","18","[""Black or African-American""]","No","Female","3131296","null","null","learn_feedback","","","learn_feedback","10","90","out","","","","","","","","","","","","","","","","","","","","","","",""
"","","","","","canvas-keyboard-response","31","1439164","0.0-12.0-4.3","2d_cat_multi_stim_exp1","2022-4-26","15:52:47","25","75","3","9","10","40","30","120","64","18","[""Black or African-American""]","No","Female","3131296","null","null","","","","clear_screen","","","","","","","","","","","","","","","","","","","","","","","","","",""
"","","","","","canvas-keyboard-response","32","1439673","0.0-12.0-0.4","2d_cat_multi_stim_exp1","2022-4-26","15:52:47","25","75","3","9","10","40","30","120","64","18","[""Black or African-American""]","No","Female","3131296","null","null","","","","fixation","","","","","","","","","","","","","","","","","","","","","","","","","",""
"","","","","","canvas-keyboard-response","33","1440182","0.0-12.0-1.4","2d_cat_multi_stim_exp1","2022-4-26","15:52:47","25","75","3","9","10","40","30","120","64","18","[""Black or African-American""]","No","Female","3131296","null","null","","","","clear_screen","","","","","","","","","","","","","","","","","","","","","","","","","",""
"","","","","","canvas-keyboard-response","34","1442456","0.0-12.0-2.4","2d_cat_multi_stim_exp1","2022-4-26","15:52:47","25","75","3","9","10","40","30","120","64","18","[""Black or African-American""]","No","Female","3131296","2264","u","learn","","","learn_trial","13.3333","80","out","1","0","","","","","","","","","","","","","","","","","","","","",""
"","","","","","canvas-keyboard-response","35","1443464","0.0-12.0-3.4","2d_cat_multi_stim_exp1","2022-4-26","15:52:47","25","75","3","9","10","40","30","120","64","18","[""Black or African-American""]","No","Female","3131296","null","null","learn_feedback","","","learn_feedback","13.3333","80","out","","","","","","","","","","","","","","","","","","","","","","",""
"","","","","","canvas-keyboard-response","36","1443522","0.0-12.0-4.4","2d_cat_multi_stim_exp1","2022-4-26","15:52:47","25","75","3","9","10","40","30","120","64","18","[""Black or African-American""]","No","Female","3131296","null","null","","","","clear_screen","","","","","","","","","","","","","","","","","","","","","","","","","",""
"","","","","","canvas-keyboard-response","37","1444030","0.0-12.0-0.5","2d_cat_multi_stim_exp1","2022-4-26","15:52:47","25","75","3","9","10","40","30","120","64","18","[""Black or African-American""]","No","Female","3131296","null","null","","","","fixation","","","","","","","","","","","","","","","","","","","","","","","","","",""
"","","","","","canvas-keyboard-response","38","1444539","0.0-12.0-1.5","2d_cat_multi_stim_exp1","2022-4-26","15:52:47","25","75","3","9","10","40","30","120","64","18","[""Black or African-American""]","No","Female","3131296","null","null","","","","clear_screen","","","","","","","","","","","","","","","","","","","","","","","","","",""
"","","","","","canvas-keyboard-response","39","1445847","0.0-12.0-2.5","2d_cat_multi_stim_exp1","2022-4-26","15:52:47","25","75","3","9","10","40","30","120","64","18","[""Black or African-American""]","No","Female","3131296","1300","u","learn","","","learn_trial","25","75","in","1","1","","","","","","","","","","","","","","","","","","","","",""
"","","","","","canvas-keyboard-response","40","1446356","0.0-12.0-3.5","2d_cat_multi_stim_exp1","2022-4-26","15:52:47","25","75","3","9","10","40","30","120","64","18","[""Black or African-American""]","No","Female","3131296","null","null","learn_feedback","","","learn_feedback","25","75","in","","","","","","","","","","","","","","","","","","","","","","",""
"","","","","","canvas-keyboard-response","41","1446414","0.0-12.0-4.5","2d_cat_multi_stim_exp1","2022-4-26","15:52:47","25","75","3","9","10","40","30","120","64","18","[""Black or African-American""]","No","Female","3131296","null","null","","","","clear_screen","","","","","","","","","","","","","","","","","","","","","","","","","",""
"","","","","","canvas-keyboard-response","42","1446922","0.0-12.0-0.6","2d_cat_multi_stim_exp1","2022-4-26","15:52:47","25","75","3","9","10","40","30","120","64","18","[""Black or African-American""]","No","Female","3131296","null","null","","","","fixation","","","","","","","","","","","","","","","","","","","","","","","","","",""
"","","","","","canvas-keyboard-response","43","1447430","0.0-12.0-1.6","2d_cat_multi_stim_exp1","2022-4-26","15:52:47","25","75","3","9","10","40","30","120","64","18","[""Black or African-American""]","No","Female","3131296","null","null","","","","clear_screen","","","","","","","","","","","","","","","","","","","","","","","","","",""
"","","","","","canvas-keyboard-response","44","1450719","0.0-12.0-2.6","2d_cat_multi_stim_exp1","2022-4-26","15:52:47","25","75","3","9","10","40","30","120","64","18","[""Black or African-American""]","No","Female","3131296","3277","u","learn","","","learn_trial","22.5729","69.7099","in","1","1","","","","","","","","","","","","","","","","","","","","",""
"","","","","","canvas-keyboard-response","45","1451227","0.0-12.0-3.6","2d_cat_multi_stim_exp1","2022-4-26","15:52:47","25","75","3","9","10","40","30","120","64","18","[""Black or African-American""]","No","Female","3131296","null","null","learn_feedback","","","learn_feedback","22.5729","69.7099","in","","","","","","","","","","","","","","","","","","","","","","",""
"","","","","","canvas-keyboard-response","46","1451286","0.0-12.0-4.6","2d_cat_multi_stim_exp1","2022-4-26","15:52:47","25","75","3","9","10","40","30","120","64","18","[""Black or African-American""]","No","Female","3131296","null","null","","","","clear_screen","","","","","","","","","","","","","","","","","","","","","","","","","",""
"","","","","","canvas-keyboard-response","47","1451794","0.0-12.0-0.7","2d_cat_multi_stim_exp1","2022-4-26","15:52:47","25","75","3","9","10","40","30","120","64","18","[""Black or African-American""]","No","Female","3131296","null","null","","","","fixation","","","","","","","","","","","","","","","","","","","","","","","","","",""
"","","","","","canvas-keyboard-response","48","1452303","0.0-12.0-1.7","2d_cat_multi_stim_exp1","2022-4-26","15:52:47","25","75","3","9","10","40","30","120","64","18","[""Black or African-American""]","No","Female","3131296","null","null","","","","clear_screen","","","","","","","","","","","","","","","","","","","","","","","","","",""
"","","","","","canvas-keyboard-response","49","1454390","0.0-12.0-2.7","2d_cat_multi_stim_exp1","2022-4-26","15:52:47","25","75","3","9","10","40","30","120","64","18","[""Black or African-American""]","No","Female","3131296","2079","u","learn","","","learn_trial","22.1081","72.6057","in","1","1","","","","","","","","","","","","","","","","","","","","",""
"","","","","","canvas-keyboard-response","50","1454899","0.0-12.0-3.7","2d_cat_multi_stim_exp1","2022-4-26","15:52:47","25","75","3","9","10","40","30","120","64","18","[""Black or African-American""]","No","Female","3131296","null","null","learn_feedback","","","learn_feedback","22.1081","72.6057","in","","","","","","","","","","","","","","","","","","","","","","",""
"","","","","","canvas-keyboard-response","51","1454957","0.0-12.0-4.7","2d_cat_multi_stim_exp1","2022-4-26","15:52:47","25","75","3","9","10","40","30","120","64","18","[""Black or African-American""]","No","Female","3131296","null","null","","","","clear_screen","","","","","","","","","","","","","","","","","","","","","","","","","",""
"","","","","","canvas-keyboard-response","52","1455466","0.0-12.0-0.8","2d_cat_multi_stim_exp1","2022-4-26","15:52:47","25","75","3","9","10","40","30","120","64","18","[""Black or African-American""]","No","Female","3131296","null","null","","","","fixation","","","","","","","","","","","","","","","","","","","","","","","","","",""
"","","","","","canvas-keyboard-response","53","1455975","0.0-12.0-1.8","2d_cat_multi_stim_exp1","2022-4-26","15:52:47","25","75","3","9","10","40","30","120","64","18","[""Black or African-American""]","No","Female","3131296","null","null","","","","clear_screen","","","","","","","","","","","","","","","","","","","","","","","","","",""
"","","","","","canvas-keyboard-response","54","1457999","0.0-12.0-2.8","2d_cat_multi_stim_exp1","2022-4-26","15:52:47","25","75","3","9","10","40","30","120","64","18","[""Black or African-American""]","No","Female","3131296","2013","i","learn","","","learn_trial","25","75","in","0","0","","","","","","","","","","","","","","","","","","","","",""
"","","","","","canvas-keyboard-response","55","1459011","0.0-12.0-3.8","2d_cat_multi_stim_exp1","2022-4-26","15:52:47","25","75","3","9","10","40","30","120","64","18","[""Black or African-American""]","No","Female","3131296","null","null","learn_feedback","","","learn_feedback","25","75","in","","","","","","","","","","","","","","","","","","","","","","",""
"","","","","","canvas-keyboard-response","56","1459069","0.0-12.0-4.8","2d_cat_multi_stim_exp1","2022-4-26","15:52:47","25","75","3","9","10","40","30","120","64","18","[""Black or African-American""]","No","Female","3131296","null","null","","","","clear_screen","","","","","","","","","","","","","","","","","","","","","","","","","",""
"","","","","","canvas-keyboard-response","57","1459579","0.0-12.0-0.9","2d_cat_multi_stim_exp1","2022-4-26","15:52:47","25","75","3","9","10","40","30","120","64","18","[""Black or African-American""]","No","Female","3131296","null","null","","","","fixation","","","","","","","","","","","","","","","","","","","","","","","","","",""
"","","","","","canvas-keyboard-response","58","1460088","0.0-12.0-1.9","2d_cat_multi_stim_exp1","2022-4-26","15:52:47","25","75","3","9","10","40","30","120","64","18","[""Black or African-American""]","No","Female","3131296","null","null","","","","clear_screen","","","","","","","","","","","","","","","","","","","","","","","","","",""
"","","","","","canvas-keyboard-response","59","1462199","0.0-12.0-2.9","2d_cat_multi_stim_exp1","2022-4-26","15:52:47","25","75","3","9","10","40","30","120","64","18","[""Black or African-American""]","No","Female","3131296","2103","u","learn","","","learn_trial","25.4027","66.0815","in","1","1","","","","","","","","","","","","","","","","","","","","",""
"","","","","","canvas-keyboard-response","60","1462709","0.0-12.0-3.9","2d_cat_multi_stim_exp1","2022-4-26","15:52:47","25","75","3","9","10","40","30","120","64","18","[""Black or African-American""]","No","Female","3131296","null","null","learn_feedback","","","learn_feedback","25.4027","66.0815","in","","","","","","","","","","","","","","","","","","","","","","",""
"","","","","","canvas-keyboard-response","61","1462767","0.0-12.0-4.9","2d_cat_multi_stim_exp1","2022-4-26","15:52:47","25","75","3","9","10","40","30","120","64","18","[""Black or African-American""]","No","Female","3131296","null","null","","","","clear_screen","","","","","","","","","","","","","","","","","","","","","","","","","",""
"","","","","","canvas-keyboard-response","62","1463277","0.0-12.0-0.10","2d_cat_multi_stim_exp1","2022-4-26","15:52:47","25","75","3","9","10","40","30","120","64","18","[""Black or African-American""]","No","Female","3131296","null","null","","","","fixation","","","","","","","","","","","","","","","","","","","","","","","","","",""
"","","","","","canvas-keyboard-response","63","1463785","0.0-12.0-1.10","2d_cat_multi_stim_exp1","2022-4-26","15:52:47","25","75","3","9","10","40","30","120","64","18","[""Black or African-American""]","No","Female","3131296","null","null","","","","clear_screen","","","","","","","","","","","","","","","","","","","","","","","","","",""
"","","","","","canvas-keyboard-response","64","1465160","0.0-12.0-2.10","2d_cat_multi_stim_exp1","2022-4-26","15:52:47","25","75","3","9","10","40","30","120","64","18","[""Black or African-American""]","No","Female","3131296","1365","u","learn","","","learn_trial","25","75","in","1","1","","","","","","","","","","","","","","","","","","","","",""
"","","","","","canvas-keyboard-response","65","1465670","0.0-12.0-3.10","2d_cat_multi_stim_exp1","2022-4-26","15:52:47","25","75","3","9","10","40","30","120","64","18","[""Black or African-American""]","No","Female","3131296","null","null","learn_feedback","","","learn_feedback","25","75","in","","","","","","","","","","","","","","","","","","","","","","",""
"","","","","","canvas-keyboard-response","66","1465728","0.0-12.0-4.10","2d_cat_multi_stim_exp1","2022-4-26","15:52:47","25","75","3","9","10","40","30","120","64","18","[""Black or African-American""]","No","Female","3131296","null","null","","","","clear_screen","","","","","","","","","","","","","","","","","","","","","","","","","",""
"","","","","","canvas-keyboard-response","67","1466236","0.0-12.0-0.11","2d_cat_multi_stim_exp1","2022-4-26","15:52:47","25","75","3","9","10","40","30","120","64","18","[""Black or African-American""]","No","Female","3131296","null","null","","","","fixation","","","","","","","","","","","","","","","","","","","","","","","","","",""
"","","","","","canvas-keyboard-response","68","1466745","0.0-12.0-1.11","2d_cat_multi_stim_exp1","2022-4-26","15:52:47","25","75","3","9","10","40","30","120","64","18","[""Black or African-American""]","No","Female","3131296","null","null","","","","clear_screen","","","","","","","","","","","","","","","","","","","","","","","","","",""
"","","","","","canvas-keyboard-response","69","1469688","0.0-12.0-2.11","2d_cat_multi_stim_exp1","2022-4-26","15:52:47","25","75","3","9","10","40","30","120","64","18","[""Black or African-American""]","No","Female","3131296","2929","i","learn","","","learn_trial","29.2426","62.2721","in","0","0","","","","","","","","","","","","","","","","","","","","",""
"","","","","","canvas-keyboard-response","70","1470696","0.0-12.0-3.11","2d_cat_multi_stim_exp1","2022-4-26","15:52:47","25","75","3","9","10","40","30","120","64","18","[""Black or African-American""]","No","Female","3131296","null","null","learn_feedback","","","learn_feedback","29.2426","62.2721","in","","","","","","","","","","","","","","","","","","","","","","",""
"","","","","","canvas-keyboard-response","71","1470755","0.0-12.0-4.11","2d_cat_multi_stim_exp1","2022-4-26","15:52:47","25","75","3","9","10","40","30","120","64","18","[""Black or African-American""]","No","Female","3131296","null","null","","","","clear_screen","","","","","","","","","","","","","","","","","","","","","","","","","",""
"","","","","","canvas-keyboard-response","72","1471262","0.0-12.0-0.12","2d_cat_multi_stim_exp1","2022-4-26","15:52:47","25","75","3","9","10","40","30","120","64","18","[""Black or African-American""]","No","Female","3131296","null","null","","","","fixation","","","","","","","","","","","","","","","","","","","","","","","","","",""
"","","","","","canvas-keyboard-response","73","1471771","0.0-12.0-1.12","2d_cat_multi_stim_exp1","2022-4-26","15:52:47","25","75","3","9","10","40","30","120","64","18","[""Black or African-American""]","No","Female","3131296","null","null","","","","clear_screen","","","","","","","","","","","","","","","","","","","","","","","","","",""
"","","","","","canvas-keyboard-response","74","1472543","0.0-12.0-2.12","2d_cat_multi_stim_exp1","2022-4-26","15:52:47","25","75","3","9","10","40","30","120","64","18","[""Black or African-American""]","No","Female","3131296","764","u","learn","","","learn_trial","23.8209","83.2757","in","1","1","","","","","","","","","","","","","","","","","","","","",""
"","","","","","canvas-keyboard-response","75","1473052","0.0-12.0-3.12","2d_cat_multi_stim_exp1","2022-4-26","15:52:47","25","75","3","9","10","40","30","120","64","18","[""Black or African-American""]","No","Female","3131296","null","null","learn_feedback","","","learn_feedback","23.8209","83.2757","in","","","","","","","","","","","","","","","","","","","","","","",""
"","","","","","canvas-keyboard-response","76","1473110","0.0-12.0-4.12","2d_cat_multi_stim_exp1","2022-4-26","15:52:47","25","75","3","9","10","40","30","120","64","18","[""Black or African-American""]","No","Female","3131296","null","null","","","","clear_screen","","","","","","","","","","","","","","","","","","","","","","","","","",""
"","","","","","canvas-keyboard-response","77","1473618","0.0-12.0-0.13","2d_cat_multi_stim_exp1","2022-4-26","15:52:47","25","75","3","9","10","40","30","120","64","18","[""Black or African-American""]","No","Female","3131296","null","null","","","","fixation","","","","","","","","","","","","","","","","","","","","","","","","","",""
"","","","","","canvas-keyboard-response","78","1474127","0.0-12.0-1.13","2d_cat_multi_stim_exp1","2022-4-26","15:52:47","25","75","3","9","10","40","30","120","64","18","[""Black or African-American""]","No","Female","3131296","null","null","","","","clear_screen","","","","","","","","","","","","","","","","","","","","","","","","","",""
"","","","","","canvas-keyboard-response","79","1475223","0.0-12.0-2.13","2d_cat_multi_stim_exp1","2022-4-26","15:52:47","25","75","3","9","10","40","30","120","64","18","[""Black or African-American""]","No","Female","3131296","1088","i","learn","","","learn_trial","10","60","out","0","1","","","","","","","","","","","","","","","","","","","","",""
"","","","","","canvas-keyboard-response","80","1475732","0.0-12.0-3.13","2d_cat_multi_stim_exp1","2022-4-26","15:52:47","25","75","3","9","10","40","30","120","64","18","[""Black or African-American""]","No","Female","3131296","null","null","learn_feedback","","","learn_feedback","10","60","out","","","","","","","","","","","","","","","","","","","","","","",""
"","","","","","canvas-keyboard-response","81","1475789","0.0-12.0-4.13","2d_cat_multi_stim_exp1","2022-4-26","15:52:47","25","75","3","9","10","40","30","120","64","18","[""Black or African-American""]","No","Female","3131296","null","null","","","","clear_screen","","","","","","","","","","","","","","","","","","","","","","","","","",""
"","","","","","canvas-keyboard-response","82","1476297","0.0-12.0-0.14","2d_cat_multi_stim_exp1","2022-4-26","15:52:47","25","75","3","9","10","40","30","120","64","18","[""Black or African-American""]","No","Female","3131296","null","null","","","","fixation","","","","","","","","","","","","","","","","","","","","","","","","","",""
"","","","","","canvas-keyboard-response","83","1476809","0.0-12.0-1.14","2d_cat_multi_stim_exp1","2022-4-26","15:52:47","25","75","3","9","10","40","30","120","64","18","[""Black or African-American""]","No","Female","3131296","null","null","","","","clear_screen","","","","","","","","","","","","","","","","","","","","","","","","","",""
"","","","","","canvas-keyboard-response","84","1477831","0.0-12.0-2.14","2d_cat_multi_stim_exp1","2022-4-26","15:52:47","25","75","3","9","10","40","30","120","64","18","[""Black or African-American""]","No","Female","3131296","1014","u","learn","","","learn_trial","26.6667","60","out","1","0","","","","","","","","","","","","","","","","","","","","",""
"","","","","","canvas-keyboard-response","85","1478839","0.0-12.0-3.14","2d_cat_multi_stim_exp1","2022-4-26","15:52:47","25","75","3","9","10","40","30","120","64","18","[""Black or African-American""]","No","Female","3131296","null","null","learn_feedback","","","learn_feedback","26.6667","60","out","","","","","","","","","","","","","","","","","","","","","","",""
"","","","","","canvas-keyboard-response","86","1478897","0.0-12.0-4.14","2d_cat_multi_stim_exp1","2022-4-26","15:52:47","25","75","3","9","10","40","30","120","64","18","[""Black or African-American""]","No","Female","3131296","null","null","","","","clear_screen","","","","","","","","","","","","","","","","","","","","","","","","","",""
"","","","","","canvas-keyboard-response","87","1479405","0.0-12.0-0.15","2d_cat_multi_stim_exp1","2022-4-26","15:52:47","25","75","3","9","10","40","30","120","64","18","[""Black or African-American""]","No","Female","3131296","null","null","","","","fixation","","","","","","","","","","","","","","","","","","","","","","","","","",""
"","","","","","canvas-keyboard-response","88","1479913","0.0-12.0-1.15","2d_cat_multi_stim_exp1","2022-4-26","15:52:47","25","75","3","9","10","40","30","120","64","18","[""Black or African-American""]","No","Female","3131296","null","null","","","","clear_screen","","","","","","","","","","","","","","","","","","","","","","","","","",""
"","","","","","canvas-keyboard-response","89","1481399","0.0-12.0-2.15","2d_cat_multi_stim_exp1","2022-4-26","15:52:47","25","75","3","9","10","40","30","120","64","18","[""Black or African-American""]","No","Female","3131296","1477","u","learn","","","learn_trial","23.3333","90","out","1","0","","","","","","","","","","","","","","","","","","","","",""
"","","","","","canvas-keyboard-response","90","1482408","0.0-12.0-3.15","2d_cat_multi_stim_exp1","2022-4-26","15:52:47","25","75","3","9","10","40","30","120","64","18","[""Black or African-American""]","No","Female","3131296","null","null","learn_feedback","","","learn_feedback","23.3333","90","out","","","","","","","","","","","","","","","","","","","","","","",""
"","","","","","canvas-keyboard-response","91","1482466","0.0-12.0-4.15","2d_cat_multi_stim_exp1","2022-4-26","15:52:47","25","75","3","9","10","40","30","120","64","18","[""Black or African-American""]","No","Female","3131296","null","null","","","","clear_screen","","","","","","","","","","","","","","","","","","","","","","","","","",""
"","","","","","canvas-keyboard-response","92","1482974","0.0-12.0-0.16","2d_cat_multi_stim_exp1","2022-4-26","15:52:47","25","75","3","9","10","40","30","120","64","18","[""Black or African-American""]","No","Female","3131296","null","null","","","","fixation","","","","","","","","","","","","","","","","","","","","","","","","","",""
"","","","","","canvas-keyboard-response","93","1483482","0.0-12.0-1.16","2d_cat_multi_stim_exp1","2022-4-26","15:52:47","25","75","3","9","10","40","30","120","64","18","[""Black or African-American""]","No","Female","3131296","null","null","","","","clear_screen","","","","","","","","","","","","","","","","","","","","","","","","","",""
"","","","","","canvas-keyboard-response","94","1484687","0.0-12.0-2.16","2d_cat_multi_stim_exp1","2022-4-26","15:52:47","25","75","3","9","10","40","30","120","64","18","[""Black or African-American""]","No","Female","3131296","1197","i","learn","","","learn_trial","25.9271","83.5595","in","0","0","","","","","","","","","","","","","","","","","","","","",""
"","","","","","canvas-keyboard-response","95","1485695","0.0-12.0-3.16","2d_cat_multi_stim_exp1","2022-4-26","15:52:47","25","75","3","9","10","40","30","120","64","18","[""Black or African-American""]","No","Female","3131296","null","null","learn_feedback","","","learn_feedback","25.9271","83.5595","in","","","","","","","","","","","","","","","","","","","","","","",""
"","","","","","canvas-keyboard-response","96","1485754","0.0-12.0-4.16","2d_cat_multi_stim_exp1","2022-4-26","15:52:47","25","75","3","9","10","40","30","120","64","18","[""Black or African-American""]","No","Female","3131296","null","null","","","","clear_screen","","","","","","","","","","","","","","","","","","","","","","","","","",""
"","","","","","canvas-keyboard-response","97","1486261","0.0-12.0-0.17","2d_cat_multi_stim_exp1","2022-4-26","15:52:47","25","75","3","9","10","40","30","120","64","18","[""Black or African-American""]","No","Female","3131296","null","null","","","","fixation","","","","","","","","","","","","","","","","","","","","","","","","","",""
"","","","","","canvas-keyboard-response","98","1486770","0.0-12.0-1.17","2d_cat_multi_stim_exp1","2022-4-26","15:52:47","25","75","3","9","10","40","30","120","64","18","[""Black or African-American""]","No","Female","3131296","null","null","","","","clear_screen","","","","","","","","","","","","","","","","","","","","","","","","","",""
"","","","","","canvas-keyboard-response","99","1489992","0.0-12.0-2.17","2d_cat_multi_stim_exp1","2022-4-26","15:52:47","25","75","3","9","10","40","30","120","64","18","[""Black or African-American""]","No","Female","3131296","3213","u","learn","","","learn_trial","25","75","in","1","1","","","","","","","","","","","","","","","","","","","","",""
"","","","","","canvas-keyboard-response","100","1490504","0.0-12.0-3.17","2d_cat_multi_stim_exp1","2022-4-26","15:52:47","25","75","3","9","10","40","30","120","64","18","[""Black or African-American""]","No","Female","3131296","null","null","learn_feedback","","","learn_feedback","25","75","in","","","","","","","","","","","","","","","","","","","","","","",""
"","","","","","canvas-keyboard-response","101","1490564","0.0-12.0-4.17","2d_cat_multi_stim_exp1","2022-4-26","15:52:47","25","75","3","9","10","40","30","120","64","18","[""Black or African-American""]","No","Female","3131296","null","null","","","","clear_screen","","","","","","","","","","","","","","","","","","","","","","","","","",""
"","","","","","canvas-keyboard-response","102","1491074","0.0-12.0-0.18","2d_cat_multi_stim_exp1","2022-4-26","15:52:47","25","75","3","9","10","40","30","120","64","18","[""Black or African-American""]","No","Female","3131296","null","null","","","","fixation","","","","","","","","","","","","","","","","","","","","","","","","","",""
"","","","","","canvas-keyboard-response","103","1491583","0.0-12.0-1.18","2d_cat_multi_stim_exp1","2022-4-26","15:52:47","25","75","3","9","10","40","30","120","64","18","[""Black or African-American""]","No","Female","3131296","null","null","","","","clear_screen","","","","","","","","","","","","","","","","","","","","","","","","","",""
"","","","","","canvas-keyboard-response","104","1493366","0.0-12.0-2.18","2d_cat_multi_stim_exp1","2022-4-26","15:52:47","25","75","3","9","10","40","30","120","64","18","[""Black or African-American""]","No","Female","3131296","1774","i","learn","","","learn_trial","10","40","out","0","1","","","","","","","","","","","","","","","","","","","","",""
"","","","","","canvas-keyboard-response","105","1493876","0.0-12.0-3.18","2d_cat_multi_stim_exp1","2022-4-26","15:52:47","25","75","3","9","10","40","30","120","64","18","[""Black or African-American""]","No","Female","3131296","null","null","learn_feedback","","","learn_feedback","10","40","out","","","","","","","","","","","","","","","","","","","","","","",""
"","","","","","canvas-keyboard-response","106","1493935","0.0-12.0-4.18","2d_cat_multi_stim_exp1","2022-4-26","15:52:47","25","75","3","9","10","40","30","120","64","18","[""Black or African-American""]","No","Female","3131296","null","null","","","","clear_screen","","","","","","","","","","","","","","","","","","","","","","","","","",""
"","","","","","canvas-keyboard-response","107","1494447","0.0-12.0-0.19","2d_cat_multi_stim_exp1","2022-4-26","15:52:47","25","75","3","9","10","40","30","120","64","18","[""Black or African-American""]","No","Female","3131296","null","null","","","","fixation","","","","","","","","","","","","","","","","","","","","","","","","","",""
"","","","","","canvas-keyboard-response","108","1494957","0.0-12.0-1.19","2d_cat_multi_stim_exp1","2022-4-26","15:52:47","25","75","3","9","10","40","30","120","64","18","[""Black or African-American""]","No","Female","3131296","null","null","","","","clear_screen","","","","","","","","","","","","","","","","","","","","","","","","","",""
"","","","","","canvas-keyboard-response","109","1498159","0.0-12.0-2.19","2d_cat_multi_stim_exp1","2022-4-26","15:52:47","25","75","3","9","10","40","30","120","64","18","[""Black or African-American""]","No","Female","3131296","3193","u","learn","","","learn_trial","25","75","in","1","1","","","","","","","","","","","","","","","","","","","","",""
"","","","","","canvas-keyboard-response","110","1498669","0.0-12.0-3.19","2d_cat_multi_stim_exp1","2022-4-26","15:52:47","25","75","3","9","10","40","30","120","64","18","[""Black or African-American""]","No","Female","3131296","null","null","learn_feedback","","","learn_feedback","25","75","in","","","","","","","","","","","","","","","","","","","","","","",""
"","","","","","canvas-keyboard-response","111","1498728","0.0-12.0-4.19","2d_cat_multi_stim_exp1","2022-4-26","15:52:47","25","75","3","9","10","40","30","120","64","18","[""Black or African-American""]","No","Female","3131296","null","null","","","","clear_screen","","","","","","","","","","","","","","","","","","","","","","","","","",""
"","","","","","canvas-keyboard-response","112","1499236","0.0-12.0-0.20","2d_cat_multi_stim_exp1","2022-4-26","15:52:47","25","75","3","9","10","40","30","120","64","18","[""Black or African-American""]","No","Female","3131296","null","null","","","","fixation","","","","","","","","","","","","","","","","","","","","","","","","","",""
"","","","","","canvas-keyboard-response","113","1499745","0.0-12.0-1.20","2d_cat_multi_stim_exp1","2022-4-26","15:52:47","25","75","3","9","10","40","30","120","64","18","[""Black or African-American""]","No","Female","3131296","null","null","","","","clear_screen","","","","","","","","","","","","","","","","","","","","","","","","","",""
"","","","","","canvas-keyboard-response","114","1500967","0.0-12.0-2.20","2d_cat_multi_stim_exp1","2022-4-26","15:52:47","25","75","3","9","10","40","30","120","64","18","[""Black or African-American""]","No","Female","3131296","1213","i","learn","","","learn_trial","13.3333","120","out","0","1","","","","","","","","","","","","","","","","","","","","",""
"","","","","","canvas-keyboard-response","115","1501476","0.0-12.0-3.20","2d_cat_multi_stim_exp1","2022-4-26","15:52:47","25","75","3","9","10","40","30","120","64","18","[""Black or African-American""]","No","Female","3131296","null","null","learn_feedback","","","learn_feedback","13.3333","120","out","","","","","","","","","","","","","","","","","","","","","","",""
"","","","","","canvas-keyboard-response","116","1501534","0.0-12.0-4.20","2d_cat_multi_stim_exp1","2022-4-26","15:52:47","25","75","3","9","10","40","30","120","64","18","[""Black or African-American""]","No","Female","3131296","null","null","","","","clear_screen","","","","","","","","","","","","","","","","","","","","","","","","","",""
"","","","","","canvas-keyboard-response","117","1502042","0.0-12.0-0.21","2d_cat_multi_stim_exp1","2022-4-26","15:52:47","25","75","3","9","10","40","30","120","64","18","[""Black or African-American""]","No","Female","3131296","null","null","","","","fixation","","","","","","","","","","","","","","","","","","","","","","","","","",""
"","","","","","canvas-keyboard-response","118","1502551","0.0-12.0-1.21","2d_cat_multi_stim_exp1","2022-4-26","15:52:47","25","75","3","9","10","40","30","120","64","18","[""Black or African-American""]","No","Female","3131296","null","null","","","","clear_screen","","","","","","","","","","","","","","","","","","","","","","","","","",""
"","","","","","canvas-keyboard-response","119","1503855","0.0-12.0-2.21","2d_cat_multi_stim_exp1","2022-4-26","15:52:47","25","75","3","9","10","40","30","120","64","18","[""Black or African-American""]","No","Female","3131296","1295","u","learn","","","learn_trial","25","75","in","1","1","","","","","","","","","","","","","","","","","","","","",""
"","","","","","canvas-keyboard-response","120","1504365","0.0-12.0-3.21","2d_cat_multi_stim_exp1","2022-4-26","15:52:47","25","75","3","9","10","40","30","120","64","18","[""Black or African-American""]","No","Female","3131296","null","null","learn_feedback","","","learn_feedback","25","75","in","","","","","","","","","","","","","","","","","","","","","","",""
"","","","","","canvas-keyboard-response","121","1504423","0.0-12.0-4.21","2d_cat_multi_stim_exp1","2022-4-26","15:52:47","25","75","3","9","10","40","30","120","64","18","[""Black or African-American""]","No","Female","3131296","null","null","","","","clear_screen","","","","","","","","","","","","","","","","","","","","","","","","","",""
"","","","","","canvas-keyboard-response","122","1504932","0.0-12.0-0.22","2d_cat_multi_stim_exp1","2022-4-26","15:52:47","25","75","3","9","10","40","30","120","64","18","[""Black or African-American""]","No","Female","3131296","null","null","","","","fixation","","","","","","","","","","","","","","","","","","","","","","","","","",""
"","","","","","canvas-keyboard-response","123","1505440","0.0-12.0-1.22","2d_cat_multi_stim_exp1","2022-4-26","15:52:47","25","75","3","9","10","40","30","120","64","18","[""Black or African-American""]","No","Female","3131296","null","null","","","","clear_screen","","","","","","","","","","","","","","","","","","","","","","","","","",""
"","","","","","canvas-keyboard-response","124","1506439","0.0-12.0-2.22","2d_cat_multi_stim_exp1","2022-4-26","15:52:47","25","75","3","9","10","40","30","120","64","18","[""Black or African-American""]","No","Female","3131296","989","u","learn","","","learn_trial","22.2971","71.095","in","1","1","","","","","","","","","","","","","","","","","","","","",""
"","","","","","canvas-keyboard-response","125","1506948","0.0-12.0-3.22","2d_cat_multi_stim_exp1","2022-4-26","15:52:47","25","75","3","9","10","40","30","120","64","18","[""Black or African-American""]","No","Female","3131296","null","null","learn_feedback","","","learn_feedback","22.2971","71.095","in","","","","","","","","","","","","","","","","","","","","","","",""
"","","","","","canvas-keyboard-response","126","1507007","0.0-12.0-4.22","2d_cat_multi_stim_exp1","2022-4-26","15:52:47","25","75","3","9","10","40","30","120","64","18","[""Black or African-American""]","No","Female","3131296","null","null","","","","clear_screen","","","","","","","","","","","","","","","","","","","","","","","","","",""
"","","","","","canvas-keyboard-response","127","1507515","0.0-12.0-0.23","2d_cat_multi_stim_exp1","2022-4-26","15:52:47","25","75","3","9","10","40","30","120","64","18","[""Black or African-American""]","No","Female","3131296","null","null","","","","fixation","","","","","","","","","","","","","","","","","","","","","","","","","",""
"","","","","","canvas-keyboard-response","128","1508023","0.0-12.0-1.23","2d_cat_multi_stim_exp1","2022-4-26","15:52:47","25","75","3","9","10","40","30","120","64","18","[""Black or African-American""]","No","Female","3131296","null","null","","","","clear_screen","","","","","","","","","","","","","","","","","","","","","","","","","",""
"","","","","","canvas-keyboard-response","129","1508886","0.0-12.0-2.23","2d_cat_multi_stim_exp1","2022-4-26","15:52:47","25","75","3","9","10","40","30","120","64","18","[""Black or African-American""]","No","Female","3131296","855","i","learn","","","learn_trial","16.6667","30","out","0","1","","","","","","","","","","","","","","","","","","","","",""
"","","","","","canvas-keyboard-response","130","1509395","0.0-12.0-3.23","2d_cat_multi_stim_exp1","2022-4-26","15:52:47","25","75","3","9","10","40","30","120","64","18","[""Black or African-American""]","No","Female","3131296","null","null","learn_feedback","","","learn_feedback","16.6667","30","out","","","","","","","","","","","","","","","","","","","","","","",""
"","","","","","canvas-keyboard-response","131","1509454","0.0-12.0-4.23","2d_cat_multi_stim_exp1","2022-4-26","15:52:47","25","75","3","9","10","40","30","120","64","18","[""Black or African-American""]","No","Female","3131296","null","null","","","","clear_screen","","","","","","","","","","","","","","","","","","","","","","","","","",""
"","","","","","canvas-keyboard-response","132","1509962","0.0-12.0-0.24","2d_cat_multi_stim_exp1","2022-4-26","15:52:47","25","75","3","9","10","40","30","120","64","18","[""Black or African-American""]","No","Female","3131296","null","null","","","","fixation","","","","","","","","","","","","","","","","","","","","","","","","","",""
"","","","","","canvas-keyboard-response","133","1510471","0.0-12.0-1.24","2d_cat_multi_stim_exp1","2022-4-26","15:52:47","25","75","3","9","10","40","30","120","64","18","[""Black or African-American""]","No","Female","3131296","null","null","","","","clear_screen","","","","","","","","","","","","","","","","","","","","","","","","","",""
"","","","","","canvas-keyboard-response","134","1511871","0.0-12.0-2.24","2d_cat_multi_stim_exp1","2022-4-26","15:52:47","25","75","3","9","10","40","30","120","64","18","[""Black or African-American""]","No","Female","3131296","1392","u","learn","","","learn_trial","20","90","out","1","0","","","","","","","","","","","","","","","","","","","","",""
"","","","","","canvas-keyboard-response","135","1512880","0.0-12.0-3.24","2d_cat_multi_stim_exp1","2022-4-26","15:52:47","25","75","3","9","10","40","30","120","64","18","[""Black or African-American""]","No","Female","3131296","null","null","learn_feedback","","","learn_feedback","20","90","out","","","","","","","","","","","","","","","","","","","","","","",""
"","","","","","canvas-keyboard-response","136","1512938","0.0-12.0-4.24","2d_cat_multi_stim_exp1","2022-4-26","15:52:47","25","75","3","9","10","40","30","120","64","18","[""Black or African-American""]","No","Female","3131296","null","null","","","","clear_screen","","","","","","","","","","","","","","","","","","","","","","","","","",""
"","","","","","canvas-keyboard-response","137","1513451","0.0-12.0-0.25","2d_cat_multi_stim_exp1","2022-4-26","15:52:47","25","75","3","9","10","40","30","120","64","18","[""Black or African-American""]","No","Female","3131296","null","null","","","","fixation","","","","","","","","","","","","","","","","","","","","","","","","","",""
"","","","","","canvas-keyboard-response","138","1513960","0.0-12.0-1.25","2d_cat_multi_stim_exp1","2022-4-26","15:52:47","25","75","3","9","10","40","30","120","64","18","[""Black or African-American""]","No","Female","3131296","null","null","","","","clear_screen","","","","","","","","","","","","","","","","","","","","","","","","","",""
"","","","","","canvas-keyboard-response","139","1515687","0.0-12.0-2.25","2d_cat_multi_stim_exp1","2022-4-26","15:52:47","25","75","3","9","10","40","30","120","64","18","[""Black or African-American""]","No","Female","3131296","1717","i","learn","","","learn_trial","10","110","out","0","1","","","","","","","","","","","","","","","","","","","","",""
"","","","","","canvas-keyboard-response","140","1516195","0.0-12.0-3.25","2d_cat_multi_stim_exp1","2022-4-26","15:52:47","25","75","3","9","10","40","30","120","64","18","[""Black or African-American""]","No","Female","3131296","null","null","learn_feedback","","","learn_feedback","10","110","out","","","","","","","","","","","","","","","","","","","","","","",""
"","","","","","canvas-keyboard-response","141","1516254","0.0-12.0-4.25","2d_cat_multi_stim_exp1","2022-4-26","15:52:47","25","75","3","9","10","40","30","120","64","18","[""Black or African-American""]","No","Female","3131296","null","null","","","","clear_screen","","","","","","","","","","","","","","","","","","","","","","","","","",""
"","","","","","canvas-keyboard-response","142","1516762","0.0-12.0-0.26","2d_cat_multi_stim_exp1","2022-4-26","15:52:47","25","75","3","9","10","40","30","120","64","18","[""Black or African-American""]","No","Female","3131296","null","null","","","","fixation","","","","","","","","","","","","","","","","","","","","","","","","","",""
"","","","","","canvas-keyboard-response","143","1517270","0.0-12.0-1.26","2d_cat_multi_stim_exp1","2022-4-26","15:52:47","25","75","3","9","10","40","30","120","64","18","[""Black or African-American""]","No","Female","3131296","null","null","","","","clear_screen","","","","","","","","","","","","","","","","","","","","","","","","","",""
"","","","","","canvas-keyboard-response","144","1518478","0.0-12.0-2.26","2d_cat_multi_stim_exp1","2022-4-26","15:52:47","25","75","3","9","10","40","30","120","64","18","[""Black or African-American""]","No","Female","3131296","1200","u","learn","","","learn_trial","25","75","in","1","1","","","","","","","","","","","","","","","","","","","","",""
"","","","","","canvas-keyboard-response","145","1518988","0.0-12.0-3.26","2d_cat_multi_stim_exp1","2022-4-26","15:52:47","25","75","3","9","10","40","30","120","64","18","[""Black or African-American""]","No","Female","3131296","null","null","learn_feedback","","","learn_feedback","25","75","in","","","","","","","","","","","","","","","","","","","","","","",""
"","","","","","canvas-keyboard-response","146","1519045","0.0-12.0-4.26","2d_cat_multi_stim_exp1","2022-4-26","15:52:47","25","75","3","9","10","40","30","120","64","18","[""Black or African-American""]","No","Female","3131296","null","null","","","","clear_screen","","","","","","","","","","","","","","","","","","","","","","","","","",""
"","","","","","canvas-keyboard-response","147","1519553","0.0-12.0-0.27","2d_cat_multi_stim_exp1","2022-4-26","15:52:47","25","75","3","9","10","40","30","120","64","18","[""Black or African-American""]","No","Female","3131296","null","null","","","","fixation","","","","","","","","","","","","","","","","","","","","","","","","","",""
"","","","","","canvas-keyboard-response","148","1520062","0.0-12.0-1.27","2d_cat_multi_stim_exp1","2022-4-26","15:52:47","25","75","3","9","10","40","30","120","64","18","[""Black or African-American""]","No","Female","3131296","null","null","","","","clear_screen","","","","","","","","","","","","","","","","","","","","","","","","","",""
"","","","","","canvas-keyboard-response","149","1522375","0.0-12.0-2.27","2d_cat_multi_stim_exp1","2022-4-26","15:52:47","25","75","3","9","10","40","30","120","64","18","[""Black or African-American""]","No","Female","3131296","2305","u","learn","","","learn_trial","25","75","in","1","1","","","","","","","","","","","","","","","","","","","","",""
"","","","","","canvas-keyboard-response","150","1522885","0.0-12.0-3.27","2d_cat_multi_stim_exp1","2022-4-26","15:52:47","25","75","3","9","10","40","30","120","64","18","[""Black or African-American""]","No","Female","3131296","null","null","learn_feedback","","","learn_feedback","25","75","in","","","","","","","","","","","","","","","","","","","","","","",""
"","","","","","canvas-keyboard-response","151","1522942","0.0-12.0-4.27","2d_cat_multi_stim_exp1","2022-4-26","15:52:47","25","75","3","9","10","40","30","120","64","18","[""Black or African-American""]","No","Female","3131296","null","null","","","","clear_screen","","","","","","","","","","","","","","","","","","","","","","","","","",""
"","","","","","canvas-keyboard-response","152","1523455","0.0-12.0-0.28","2d_cat_multi_stim_exp1","2022-4-26","15:52:47","25","75","3","9","10","40","30","120","64","18","[""Black or African-American""]","No","Female","3131296","null","null","","","","fixation","","","","","","","","","","","","","","","","","","","","","","","","","",""
"","","","","","canvas-keyboard-response","153","1523963","0.0-12.0-1.28","2d_cat_multi_stim_exp1","2022-4-26","15:52:47","25","75","3","9","10","40","30","120","64","18","[""Black or African-American""]","No","Female","3131296","null","null","","","","clear_screen","","","","","","","","","","","","","","","","","","","","","","","","","",""
"","","","","","canvas-keyboard-response","154","1525830","0.0-12.0-2.28","2d_cat_multi_stim_exp1","2022-4-26","15:52:47","25","75","3","9","10","40","30","120","64","18","[""Black or African-American""]","No","Female","3131296","1859","u","learn","","","learn_trial","25","75","in","1","1","","","","","","","","","","","","","","","","","","","","",""
"","","","","","canvas-keyboard-response","155","1526339","0.0-12.0-3.28","2d_cat_multi_stim_exp1","2022-4-26","15:52:47","25","75","3","9","10","40","30","120","64","18","[""Black or African-American""]","No","Female","3131296","null","null","learn_feedback","","","learn_feedback","25","75","in","","","","","","","","","","","","","","","","","","","","","","",""
"","","","","","canvas-keyboard-response","156","1526398","0.0-12.0-4.28","2d_cat_multi_stim_exp1","2022-4-26","15:52:47","25","75","3","9","10","40","30","120","64","18","[""Black or African-American""]","No","Female","3131296","null","null","","","","clear_screen","","","","","","","","","","","","","","","","","","","","","","","","","",""
"","","","","","canvas-keyboard-response","157","1526905","0.0-12.0-0.29","2d_cat_multi_stim_exp1","2022-4-26","15:52:47","25","75","3","9","10","40","30","120","64","18","[""Black or African-American""]","No","Female","3131296","null","null","","","","fixation","","","","","","","","","","","","","","","","","","","","","","","","","",""
"","","","","","canvas-keyboard-response","158","1527413","0.0-12.0-1.29","2d_cat_multi_stim_exp1","2022-4-26","15:52:47","25","75","3","9","10","40","30","120","64","18","[""Black or African-American""]","No","Female","3131296","null","null","","","","clear_screen","","","","","","","","","","","","","","","","","","","","","","","","","",""
"","","","","","canvas-keyboard-response","159","1528527","0.0-12.0-2.29","2d_cat_multi_stim_exp1","2022-4-26","15:52:47","25","75","3","9","10","40","30","120","64","18","[""Black or African-American""]","No","Female","3131296","1104","i","learn","","","learn_trial","20.7574","87.7279","in","0","0","","","","","","","","","","","","","","","","","","","","",""
"","","","","","canvas-keyboard-response","160","1529536","0.0-12.0-3.29","2d_cat_multi_stim_exp1","2022-4-26","15:52:47","25","75","3","9","10","40","30","120","64","18","[""Black or African-American""]","No","Female","3131296","null","null","learn_feedback","","","learn_feedback","20.7574","87.7279","in","","","","","","","","","","","","","","","","","","","","","","",""
"","","","","","canvas-keyboard-response","161","1529594","0.0-12.0-4.29","2d_cat_multi_stim_exp1","2022-4-26","15:52:47","25","75","3","9","10","40","30","120","64","18","[""Black or African-American""]","No","Female","3131296","null","null","","","","clear_screen","","","","","","","","","","","","","","","","","","","","","","","","","",""
"","","","","","canvas-keyboard-response","162","1530102","0.0-12.0-0.30","2d_cat_multi_stim_exp1","2022-4-26","15:52:47","25","75","3","9","10","40","30","120","64","18","[""Black or African-American""]","No","Female","3131296","null","null","","","","fixation","","","","","","","","","","","","","","","","","","","","","","","","","",""
"","","","","","canvas-keyboard-response","163","1530611","0.0-12.0-1.30","2d_cat_multi_stim_exp1","2022-4-26","15:52:47","25","75","3","9","10","40","30","120","64","18","[""Black or African-American""]","No","Female","3131296","null","null","","","","clear_screen","","","","","","","","","","","","","","","","","","","","","","","","","",""
"","","","","","canvas-keyboard-response","164","1531383","0.0-12.0-2.30","2d_cat_multi_stim_exp1","2022-4-26","15:52:47","25","75","3","9","10","40","30","120","64","18","[""Black or African-American""]","No","Female","3131296","764","i","learn","","","learn_trial","27.8087","78.1624","in","0","0","","","","","","","","","","","","","","","","","","","","",""
"","","","","","canvas-keyboard-response","165","1532392","0.0-12.0-3.30","2d_cat_multi_stim_exp1","2022-4-26","15:52:47","25","75","3","9","10","40","30","120","64","18","[""Black or African-American""]","No","Female","3131296","null","null","learn_feedback","","","learn_feedback","27.8087","78.1624","in","","","","","","","","","","","","","","","","","","","","","","",""
"","","","","","canvas-keyboard-response","166","1532450","0.0-12.0-4.30","2d_cat_multi_stim_exp1","2022-4-26","15:52:47","25","75","3","9","10","40","30","120","64","18","[""Black or African-American""]","No","Female","3131296","null","null","","","","clear_screen","","","","","","","","","","","","","","","","","","","","","","","","","",""
"","","","","","canvas-keyboard-response","167","1532958","0.0-12.0-0.31","2d_cat_multi_stim_exp1","2022-4-26","15:52:47","25","75","3","9","10","40","30","120","64","18","[""Black or African-American""]","No","Female","3131296","null","null","","","","fixation","","","","","","","","","","","","","","","","","","","","","","","","","",""
"","","","","","canvas-keyboard-response","168","1533471","0.0-12.0-1.31","2d_cat_multi_stim_exp1","2022-4-26","15:52:47","25","75","3","9","10","40","30","120","64","18","[""Black or African-American""]","No","Female","3131296","null","null","","","","clear_screen","","","","","","","","","","","","","","","","","","","","","","","","","",""
"","","","","","canvas-keyboard-response","169","1534103","0.0-12.0-2.31","2d_cat_multi_stim_exp1","2022-4-26","15:52:47","25","75","3","9","10","40","30","120","64","18","[""Black or African-American""]","No","Female","3131296","622","u","learn","","","learn_trial","33.3333","90","out","1","0","","","","","","","","","","","","","","","","","","","","",""
"","","","","","canvas-keyboard-response","170","1535112","0.0-12.0-3.31","2d_cat_multi_stim_exp1","2022-4-26","15:52:47","25","75","3","9","10","40","30","120","64","18","[""Black or African-American""]","No","Female","3131296","null","null","learn_feedback","","","learn_feedback","33.3333","90","out","","","","","","","","","","","","","","","","","","","","","","",""
"","","","","","canvas-keyboard-response","171","1535170","0.0-12.0-4.31","2d_cat_multi_stim_exp1","2022-4-26","15:52:47","25","75","3","9","10","40","30","120","64","18","[""Black or African-American""]","No","Female","3131296","null","null","","","","clear_screen","","","","","","","","","","","","","","","","","","","","","","","","","",""
"","","","","","canvas-keyboard-response","172","1535678","0.0-12.0-0.32","2d_cat_multi_stim_exp1","2022-4-26","15:52:47","25","75","3","9","10","40","30","120","64","18","[""Black or African-American""]","No","Female","3131296","null","null","","","","fixation","","","","","","","","","","","","","","","","","","","","","","","","","",""
"","","","","","canvas-keyboard-response","173","1536186","0.0-12.0-1.32","2d_cat_multi_stim_exp1","2022-4-26","15:52:47","25","75","3","9","10","40","30","120","64","18","[""Black or African-American""]","No","Female","3131296","null","null","","","","clear_screen","","","","","","","","","","","","","","","","","","","","","","","","","",""
"","","","","","canvas-keyboard-response","174","1536870","0.0-12.0-2.32","2d_cat_multi_stim_exp1","2022-4-26","15:52:47","25","75","3","9","10","40","30","120","64","18","[""Black or African-American""]","No","Female","3131296","676","i","learn","","","learn_trial","20","40","out","0","1","","","","","","","","","","","","","","","","","","","","",""
"","","","","","canvas-keyboard-response","175","1537379","0.0-12.0-3.32","2d_cat_multi_stim_exp1","2022-4-26","15:52:47","25","75","3","9","10","40","30","120","64","18","[""Black or African-American""]","No","Female","3131296","null","null","learn_feedback","","","learn_feedback","20","40","out","","","","","","","","","","","","","","","","","","","","","","",""
"","","","","","canvas-keyboard-response","176","1537438","0.0-12.0-4.32","2d_cat_multi_stim_exp1","2022-4-26","15:52:47","25","75","3","9","10","40","30","120","64","18","[""Black or African-American""]","No","Female","3131296","null","null","","","","clear_screen","","","","","","","","","","","","","","","","","","","","","","","","","",""
"","","","","","canvas-keyboard-response","177","1537947","0.0-12.0-0.33","2d_cat_multi_stim_exp1","2022-4-26","15:52:47","25","75","3","9","10","40","30","120","64","18","[""Black or African-American""]","No","Female","3131296","null","null","","","","fixation","","","","","","","","","","","","","","","","","","","","","","","","","",""
"","","","","","canvas-keyboard-response","178","1538458","0.0-12.0-1.33","2d_cat_multi_stim_exp1","2022-4-26","15:52:47","25","75","3","9","10","40","30","120","64","18","[""Black or African-American""]","No","Female","3131296","null","null","","","","clear_screen","","","","","","","","","","","","","","","","","","","","","","","","","",""
"","","","","","canvas-keyboard-response","179","1539215","0.0-12.0-2.33","2d_cat_multi_stim_exp1","2022-4-26","15:52:47","25","75","3","9","10","40","30","120","64","18","[""Black or African-American""]","No","Female","3131296","744","u","learn","","","learn_trial","25","75","in","1","1","","","","","","","","","","","","","","","","","","","","",""
"","","","","","canvas-keyboard-response","180","1539726","0.0-12.0-3.33","2d_cat_multi_stim_exp1","2022-4-26","15:52:47","25","75","3","9","10","40","30","120","64","18","[""Black or African-American""]","No","Female","3131296","null","null","learn_feedback","","","learn_feedback","25","75","in","","","","","","","","","","","","","","","","","","","","","","",""
"","","","","","canvas-keyboard-response","181","1539784","0.0-12.0-4.33","2d_cat_multi_stim_exp1","2022-4-26","15:52:47","25","75","3","9","10","40","30","120","64","18","[""Black or African-American""]","No","Female","3131296","null","null","","","","clear_screen","","","","","","","","","","","","","","","","","","","","","","","","","",""
"","","","","","canvas-keyboard-response","182","1540293","0.0-12.0-0.34","2d_cat_multi_stim_exp1","2022-4-26","15:52:47","25","75","3","9","10","40","30","120","64","18","[""Black or African-American""]","No","Female","3131296","null","null","","","","fixation","","","","","","","","","","","","","","","","","","","","","","","","","",""
"","","","","","canvas-keyboard-response","183","1540803","0.0-12.0-1.34","2d_cat_multi_stim_exp1","2022-4-26","15:52:47","25","75","3","9","10","40","30","120","64","18","[""Black or African-American""]","No","Female","3131296","null","null","","","","clear_screen","","","","","","","","","","","","","","","","","","","","","","","","","",""
"","","","","","canvas-keyboard-response","184","1542855","0.0-12.0-2.34","2d_cat_multi_stim_exp1","2022-4-26","15:52:47","25","75","3","9","10","40","30","120","64","18","[""Black or African-American""]","No","Female","3131296","2038","u","learn","","","learn_trial","25","75","in","1","1","","","","","","","","","","","","","","","","","","","","",""
"","","","","","canvas-keyboard-response","185","1543364","0.0-12.0-3.34","2d_cat_multi_stim_exp1","2022-4-26","15:52:47","25","75","3","9","10","40","30","120","64","18","[""Black or African-American""]","No","Female","3131296","null","null","learn_feedback","","","learn_feedback","25","75","in","","","","","","","","","","","","","","","","","","","","","","",""
"","","","","","canvas-keyboard-response","186","1543423","0.0-12.0-4.34","2d_cat_multi_stim_exp1","2022-4-26","15:52:47","25","75","3","9","10","40","30","120","64","18","[""Black or African-American""]","No","Female","3131296","null","null","","","","clear_screen","","","","","","","","","","","","","","","","","","","","","","","","","",""
"","","","","","canvas-keyboard-response","187","1543932","0.0-12.0-0.35","2d_cat_multi_stim_exp1","2022-4-26","15:52:47","25","75","3","9","10","40","30","120","64","18","[""Black or African-American""]","No","Female","3131296","null","null","","","","fixation","","","","","","","","","","","","","","","","","","","","","","","","","",""
"","","","","","canvas-keyboard-response","188","1544441","0.0-12.0-1.35","2d_cat_multi_stim_exp1","2022-4-26","15:52:47","25","75","3","9","10","40","30","120","64","18","[""Black or African-American""]","No","Female","3131296","null","null","","","","clear_screen","","","","","","","","","","","","","","","","","","","","","","","","","",""
"","","","","","canvas-keyboard-response","189","1545366","0.0-12.0-2.35","2d_cat_multi_stim_exp1","2022-4-26","15:52:47","25","75","3","9","10","40","30","120","64","18","[""Black or African-American""]","No","Female","3131296","915","u","learn","","","learn_trial","25","75","in","1","1","","","","","","","","","","","","","","","","","","","","",""
"","","","","","canvas-keyboard-response","190","1545876","0.0-12.0-3.35","2d_cat_multi_stim_exp1","2022-4-26","15:52:47","25","75","3","9","10","40","30","120","64","18","[""Black or African-American""]","No","Female","3131296","null","null","learn_feedback","","","learn_feedback","25","75","in","","","","","","","","","","","","","","","","","","","","","","",""
"","","","","","canvas-keyboard-response","191","1545934","0.0-12.0-4.35","2d_cat_multi_stim_exp1","2022-4-26","15:52:47","25","75","3","9","10","40","30","120","64","18","[""Black or African-American""]","No","Female","3131296","null","null","","","","clear_screen","","","","","","","","","","","","","","","","","","","","","","","","","",""
"","","","","","canvas-keyboard-response","192","1546442","0.0-12.0-0.36","2d_cat_multi_stim_exp1","2022-4-26","15:52:47","25","75","3","9","10","40","30","120","64","18","[""Black or African-American""]","No","Female","3131296","null","null","","","","fixation","","","","","","","","","","","","","","","","","","","","","","","","","",""
"","","","","","canvas-keyboard-response","193","1546951","0.0-12.0-1.36","2d_cat_multi_stim_exp1","2022-4-26","15:52:47","25","75","3","9","10","40","30","120","64","18","[""Black or African-American""]","No","Female","3131296","null","null","","","","clear_screen","","","","","","","","","","","","","","","","","","","","","","","","","",""
"","","","","","canvas-keyboard-response","194","1547934","0.0-12.0-2.36","2d_cat_multi_stim_exp1","2022-4-26","15:52:47","25","75","3","9","10","40","30","120","64","18","[""Black or African-American""]","No","Female","3131296","975","i","learn","","","learn_trial","30","40","out","0","1","","","","","","","","","","","","","","","","","","","","",""
"","","","","","canvas-keyboard-response","195","1548443","0.0-12.0-3.36","2d_cat_multi_stim_exp1","2022-4-26","15:52:47","25","75","3","9","10","40","30","120","64","18","[""Black or African-American""]","No","Female","3131296","null","null","learn_feedback","","","learn_feedback","30","40","out","","","","","","","","","","","","","","","","","","","","","","",""
"","","","","","canvas-keyboard-response","196","1548501","0.0-12.0-4.36","2d_cat_multi_stim_exp1","2022-4-26","15:52:47","25","75","3","9","10","40","30","120","64","18","[""Black or African-American""]","No","Female","3131296","null","null","","","","clear_screen","","","","","","","","","","","","","","","","","","","","","","","","","",""
"","","","","","canvas-keyboard-response","197","1549009","0.0-12.0-0.37","2d_cat_multi_stim_exp1","2022-4-26","15:52:47","25","75","3","9","10","40","30","120","64","18","[""Black or African-American""]","No","Female","3131296","null","null","","","","fixation","","","","","","","","","","","","","","","","","","","","","","","","","",""
"","","","","","canvas-keyboard-response","198","1549518","0.0-12.0-1.37","2d_cat_multi_stim_exp1","2022-4-26","15:52:47","25","75","3","9","10","40","30","120","64","18","[""Black or African-American""]","No","Female","3131296","null","null","","","","clear_screen","","","","","","","","","","","","","","","","","","","","","","","","","",""
"","","","","","canvas-keyboard-response","199","1550367","0.0-12.0-2.37","2d_cat_multi_stim_exp1","2022-4-26","15:52:47","25","75","3","9","10","40","30","120","64","18","[""Black or African-American""]","No","Female","3131296","840","u","learn","","","learn_trial","23.3473","82.5112","in","1","1","","","","","","","","","","","","","","","","","","","","",""
"","","","","","canvas-keyboard-response","200","1550875","0.0-12.0-3.37","2d_cat_multi_stim_exp1","2022-4-26","15:52:47","25","75","3","9","10","40","30","120","64","18","[""Black or African-American""]","No","Female","3131296","null","null","learn_feedback","","","learn_feedback","23.3473","82.5112","in","","","","","","","","","","","","","","","","","","","","","","",""
"","","","","","canvas-keyboard-response","201","1550933","0.0-12.0-4.37","2d_cat_multi_stim_exp1","2022-4-26","15:52:47","25","75","3","9","10","40","30","120","64","18","[""Black or African-American""]","No","Female","3131296","null","null","","","","clear_screen","","","","","","","","","","","","","","","","","","","","","","","","","",""
"","","","","","canvas-keyboard-response","202","1551441","0.0-12.0-0.38","2d_cat_multi_stim_exp1","2022-4-26","15:52:47","25","75","3","9","10","40","30","120","64","18","[""Black or African-American""]","No","Female","3131296","null","null","","","","fixation","","","","","","","","","","","","","","","","","","","","","","","","","",""
"","","","","","canvas-keyboard-response","203","1551950","0.0-12.0-1.38","2d_cat_multi_stim_exp1","2022-4-26","15:52:47","25","75","3","9","10","40","30","120","64","18","[""Black or African-American""]","No","Female","3131296","null","null","","","","clear_screen","","","","","","","","","","","","","","","","","","","","","","","","","",""
"","","","","","canvas-keyboard-response","204","1552902","0.0-12.0-2.38","2d_cat_multi_stim_exp1","2022-4-26","15:52:47","25","75","3","9","10","40","30","120","64","18","[""Black or African-American""]","No","Female","3131296","943","i","learn","","","learn_trial","20","60","out","0","1","","","","","","","","","","","","","","","","","","","","",""
"","","","","","canvas-keyboard-response","205","1553411","0.0-12.0-3.38","2d_cat_multi_stim_exp1","2022-4-26","15:52:47","25","75","3","9","10","40","30","120","64","18","[""Black or African-American""]","No","Female","3131296","null","null","learn_feedback","","","learn_feedback","20","60","out","","","","","","","","","","","","","","","","","","","","","","",""
"","","","","","canvas-keyboard-response","206","1553469","0.0-12.0-4.38","2d_cat_multi_stim_exp1","2022-4-26","15:52:47","25","75","3","9","10","40","30","120","64","18","[""Black or African-American""]","No","Female","3131296","null","null","","","","clear_screen","","","","","","","","","","","","","","","","","","","","","","","","","",""
"","","","","","canvas-keyboard-response","207","1553977","0.0-12.0-0.39","2d_cat_multi_stim_exp1","2022-4-26","15:52:47","25","75","3","9","10","40","30","120","64","18","[""Black or African-American""]","No","Female","3131296","null","null","","","","fixation","","","","","","","","","","","","","","","","","","","","","","","","","",""
"","","","","","canvas-keyboard-response","208","1554485","0.0-12.0-1.39","2d_cat_multi_stim_exp1","2022-4-26","15:52:47","25","75","3","9","10","40","30","120","64","18","[""Black or African-American""]","No","Female","3131296","null","null","","","","clear_screen","","","","","","","","","","","","","","","","","","","","","","","","","",""
"","","","","","canvas-keyboard-response","209","1555302","0.0-12.0-2.39","2d_cat_multi_stim_exp1","2022-4-26","15:52:47","25","75","3","9","10","40","30","120","64","18","[""Black or African-American""]","No","Female","3131296","808","u","learn","","","learn_trial","27.5753","79.6161","in","1","1","","","","","","","","","","","","","","","","","","","","",""
"","","","","","canvas-keyboard-response","210","1555811","0.0-12.0-3.39","2d_cat_multi_stim_exp1","2022-4-26","15:52:47","25","75","3","9","10","40","30","120","64","18","[""Black or African-American""]","No","Female","3131296","null","null","learn_feedback","","","learn_feedback","27.5753","79.6161","in","","","","","","","","","","","","","","","","","","","","","","",""
"","","","","","canvas-keyboard-response","211","1555870","0.0-12.0-4.39","2d_cat_multi_stim_exp1","2022-4-26","15:52:47","25","75","3","9","10","40","30","120","64","18","[""Black or African-American""]","No","Female","3131296","null","null","","","","clear_screen","","","","","","","","","","","","","","","","","","","","","","","","","",""
"","","","","","canvas-keyboard-response","212","1556378","0.0-12.0-0.40","2d_cat_multi_stim_exp1","2022-4-26","15:52:47","25","75","3","9","10","40","30","120","64","18","[""Black or African-American""]","No","Female","3131296","null","null","","","","fixation","","","","","","","","","","","","","","","","","","","","","","","","","",""
"","","","","","canvas-keyboard-response","213","1556887","0.0-12.0-1.40","2d_cat_multi_stim_exp1","2022-4-26","15:52:47","25","75","3","9","10","40","30","120","64","18","[""Black or African-American""]","No","Female","3131296","null","null","","","","clear_screen","","","","","","","","","","","","","","","","","","","","","","","","","",""
"","","","","","canvas-keyboard-response","214","1557535","0.0-12.0-2.40","2d_cat_multi_stim_exp1","2022-4-26","15:52:47","25","75","3","9","10","40","30","120","64","18","[""Black or African-American""]","No","Female","3131296","640","u","learn","","","learn_trial","25","75","in","1","1","","","","","","","","","","","","","","","","","","","","",""
"","","","","","canvas-keyboard-response","215","1558044","0.0-12.0-3.40","2d_cat_multi_stim_exp1","2022-4-26","15:52:47","25","75","3","9","10","40","30","120","64","18","[""Black or African-American""]","No","Female","3131296","null","null","learn_feedback","","","learn_feedback","25","75","in","","","","","","","","","","","","","","","","","","","","","","",""
"","","","","","canvas-keyboard-response","216","1558101","0.0-12.0-4.40","2d_cat_multi_stim_exp1","2022-4-26","15:52:47","25","75","3","9","10","40","30","120","64","18","[""Black or African-American""]","No","Female","3131296","null","null","","","","clear_screen","","","","","","","","","","","","","","","","","","","","","","","","","",""
"","","","","","canvas-keyboard-response","217","1558609","0.0-12.0-0.41","2d_cat_multi_stim_exp1","2022-4-26","15:52:47","25","75","3","9","10","40","30","120","64","18","[""Black or African-American""]","No","Female","3131296","null","null","","","","fixation","","","","","","","","","","","","","","","","","","","","","","","","","",""
"","","","","","canvas-keyboard-response","218","1559117","0.0-12.0-1.41","2d_cat_multi_stim_exp1","2022-4-26","15:52:47","25","75","3","9","10","40","30","120","64","18","[""Black or African-American""]","No","Female","3131296","null","null","","","","clear_screen","","","","","","","","","","","","","","","","","","","","","","","","","",""
"","","","","","canvas-keyboard-response","219","1560342","0.0-12.0-2.41","2d_cat_multi_stim_exp1","2022-4-26","15:52:47","25","75","3","9","10","40","30","120","64","18","[""Black or African-American""]","No","Female","3131296","1217","i","learn","","","learn_trial","13.3333","60","out","0","1","","","","","","","","","","","","","","","","","","","","",""
"","","","","","canvas-keyboard-response","220","1560856","0.0-12.0-3.41","2d_cat_multi_stim_exp1","2022-4-26","15:52:47","25","75","3","9","10","40","30","120","64","18","[""Black or African-American""]","No","Female","3131296","null","null","learn_feedback","","","learn_feedback","13.3333","60","out","","","","","","","","","","","","","","","","","","","","","","",""
"","","","","","canvas-keyboard-response","221","1560914","0.0-12.0-4.41","2d_cat_multi_stim_exp1","2022-4-26","15:52:47","25","75","3","9","10","40","30","120","64","18","[""Black or African-American""]","No","Female","3131296","null","null","","","","clear_screen","","","","","","","","","","","","","","","","","","","","","","","","","",""
"","","","","","canvas-keyboard-response","222","1561422","0.0-12.0-0.42","2d_cat_multi_stim_exp1","2022-4-26","15:52:47","25","75","3","9","10","40","30","120","64","18","[""Black or African-American""]","No","Female","3131296","null","null","","","","fixation","","","","","","","","","","","","","","","","","","","","","","","","","",""
"","","","","","canvas-keyboard-response","223","1561931","0.0-12.0-1.42","2d_cat_multi_stim_exp1","2022-4-26","15:52:47","25","75","3","9","10","40","30","120","64","18","[""Black or African-American""]","No","Female","3131296","null","null","","","","clear_screen","","","","","","","","","","","","","","","","","","","","","","","","","",""
"","","","","","canvas-keyboard-response","224","1562918","0.0-12.0-2.42","2d_cat_multi_stim_exp1","2022-4-26","15:52:47","25","75","3","9","10","40","30","120","64","18","[""Black or African-American""]","No","Female","3131296","979","i","learn","","","learn_trial","10","120","out","0","1","","","","","","","","","","","","","","","","","","","","",""
"","","","","","canvas-keyboard-response","225","1563427","0.0-12.0-3.42","2d_cat_multi_stim_exp1","2022-4-26","15:52:47","25","75","3","9","10","40","30","120","64","18","[""Black or African-American""]","No","Female","3131296","null","null","learn_feedback","","","learn_feedback","10","120","out","","","","","","","","","","","","","","","","","","","","","","",""
"","","","","","canvas-keyboard-response","226","1563485","0.0-12.0-4.42","2d_cat_multi_stim_exp1","2022-4-26","15:52:47","25","75","3","9","10","40","30","120","64","18","[""Black or African-American""]","No","Female","3131296","null","null","","","","clear_screen","","","","","","","","","","","","","","","","","","","","","","","","","",""
"","","","","","canvas-keyboard-response","227","1563993","0.0-12.0-0.43","2d_cat_multi_stim_exp1","2022-4-26","15:52:47","25","75","3","9","10","40","30","120","64","18","[""Black or African-American""]","No","Female","3131296","null","null","","","","fixation","","","","","","","","","","","","","","","","","","","","","","","","","",""
"","","","","","canvas-keyboard-response","228","1564502","0.0-12.0-1.43","2d_cat_multi_stim_exp1","2022-4-26","15:52:47","25","75","3","9","10","40","30","120","64","18","[""Black or African-American""]","No","Female","3131296","null","null","","","","clear_screen","","","","","","","","","","","","","","","","","","","","","","","","","",""
"","","","","","canvas-keyboard-response","229","1565783","0.0-12.0-2.43","2d_cat_multi_stim_exp1","2022-4-26","15:52:47","25","75","3","9","10","40","30","120","64","18","[""Black or African-American""]","No","Female","3131296","1272","u","learn","","","learn_trial","25","75","in","1","1","","","","","","","","","","","","","","","","","","","","",""
"","","","","","canvas-keyboard-response","230","1566292","0.0-12.0-3.43","2d_cat_multi_stim_exp1","2022-4-26","15:52:47","25","75","3","9","10","40","30","120","64","18","[""Black or African-American""]","No","Female","3131296","null","null","learn_feedback","","","learn_feedback","25","75","in","","","","","","","","","","","","","","","","","","","","","","",""
"","","","","","canvas-keyboard-response","231","1566349","0.0-12.0-4.43","2d_cat_multi_stim_exp1","2022-4-26","15:52:47","25","75","3","9","10","40","30","120","64","18","[""Black or African-American""]","No","Female","3131296","null","null","","","","clear_screen","","","","","","","","","","","","","","","","","","","","","","","","","",""
"","","","","","canvas-keyboard-response","232","1566854","0.0-12.0-0.44","2d_cat_multi_stim_exp1","2022-4-26","15:52:47","25","75","3","9","10","40","30","120","64","18","[""Black or African-American""]","No","Female","3131296","null","null","","","","fixation","","","","","","","","","","","","","","","","","","","","","","","","","",""
"","","","","","canvas-keyboard-response","233","1567361","0.0-12.0-1.44","2d_cat_multi_stim_exp1","2022-4-26","15:52:47","25","75","3","9","10","40","30","120","64","18","[""Black or African-American""]","No","Female","3131296","null","null","","","","clear_screen","","","","","","","","","","","","","","","","","","","","","","","","","",""
"","","","","","canvas-keyboard-response","234","1568487","0.0-12.0-2.44","2d_cat_multi_stim_exp1","2022-4-26","15:52:47","25","75","3","9","10","40","30","120","64","18","[""Black or African-American""]","No","Female","3131296","1119","u","learn","","","learn_trial","19","75","in","1","1","","","","","","","","","","","","","","","","","","","","",""
"","","","","","canvas-keyboard-response","235","1568997","0.0-12.0-3.44","2d_cat_multi_stim_exp1","2022-4-26","15:52:47","25","75","3","9","10","40","30","120","64","18","[""Black or African-American""]","No","Female","3131296","null","null","learn_feedback","","","learn_feedback","19","75","in","","","","","","","","","","","","","","","","","","","","","","",""
"","","","","","canvas-keyboard-response","236","1569053","0.0-12.0-4.44","2d_cat_multi_stim_exp1","2022-4-26","15:52:47","25","75","3","9","10","40","30","120","64","18","[""Black or African-American""]","No","Female","3131296","null","null","","","","clear_screen","","","","","","","","","","","","","","","","","","","","","","","","","",""
"","","","","","canvas-keyboard-response","237","1569560","0.0-12.0-0.45","2d_cat_multi_stim_exp1","2022-4-26","15:52:47","25","75","3","9","10","40","30","120","64","18","[""Black or African-American""]","No","Female","3131296","null","null","","","","fixation","","","","","","","","","","","","","","","","","","","","","","","","","",""
"","","","","","canvas-keyboard-response","238","1570067","0.0-12.0-1.45","2d_cat_multi_stim_exp1","2022-4-26","15:52:47","25","75","3","9","10","40","30","120","64","18","[""Black or African-American""]","No","Female","3131296","null","null","","","","clear_screen","","","","","","","","","","","","","","","","","","","","","","","","","",""
"","","","","","canvas-keyboard-response","239","1570903","0.0-12.0-2.45","2d_cat_multi_stim_exp1","2022-4-26","15:52:47","25","75","3","9","10","40","30","120","64","18","[""Black or African-American""]","No","Female","3131296","829","u","learn","","","learn_trial","25","75","in","1","1","","","","","","","","","","","","","","","","","","","","",""
"","","","","","canvas-keyboard-response","240","1571410","0.0-12.0-3.45","2d_cat_multi_stim_exp1","2022-4-26","15:52:47","25","75","3","9","10","40","30","120","64","18","[""Black or African-American""]","No","Female","3131296","null","null","learn_feedback","","","learn_feedback","25","75","in","","","","","","","","","","","","","","","","","","","","","","",""
"","","","","","canvas-keyboard-response","241","1571467","0.0-12.0-4.45","2d_cat_multi_stim_exp1","2022-4-26","15:52:47","25","75","3","9","10","40","30","120","64","18","[""Black or African-American""]","No","Female","3131296","null","null","","","","clear_screen","","","","","","","","","","","","","","","","","","","","","","","","","",""
"","","","","","canvas-keyboard-response","242","1571973","0.0-12.0-0.46","2d_cat_multi_stim_exp1","2022-4-26","15:52:47","25","75","3","9","10","40","30","120","64","18","[""Black or African-American""]","No","Female","3131296","null","null","","","","fixation","","","","","","","","","","","","","","","","","","","","","","","","","",""
"","","","","","canvas-keyboard-response","243","1572479","0.0-12.0-1.46","2d_cat_multi_stim_exp1","2022-4-26","15:52:47","25","75","3","9","10","40","30","120","64","18","[""Black or African-American""]","No","Female","3131296","null","null","","","","clear_screen","","","","","","","","","","","","","","","","","","","","","","","","","",""
"","","","","","canvas-keyboard-response","244","1573745","0.0-12.0-2.46","2d_cat_multi_stim_exp1","2022-4-26","15:52:47","25","75","3","9","10","40","30","120","64","18","[""Black or African-American""]","No","Female","3131296","1256","u","learn","","","learn_trial","20","120","out","1","0","","","","","","","","","","","","","","","","","","","","",""
"","","","","","canvas-keyboard-response","245","1574755","0.0-12.0-3.46","2d_cat_multi_stim_exp1","2022-4-26","15:52:47","25","75","3","9","10","40","30","120","64","18","[""Black or African-American""]","No","Female","3131296","null","null","learn_feedback","","","learn_feedback","20","120","out","","","","","","","","","","","","","","","","","","","","","","",""
"","","","","","canvas-keyboard-response","246","1574816","0.0-12.0-4.46","2d_cat_multi_stim_exp1","2022-4-26","15:52:47","25","75","3","9","10","40","30","120","64","18","[""Black or African-American""]","No","Female","3131296","null","null","","","","clear_screen","","","","","","","","","","","","","","","","","","","","","","","","","",""
"","","","","","canvas-keyboard-response","247","1575324","0.0-12.0-0.47","2d_cat_multi_stim_exp1","2022-4-26","15:52:47","25","75","3","9","10","40","30","120","64","18","[""Black or African-American""]","No","Female","3131296","null","null","","","","fixation","","","","","","","","","","","","","","","","","","","","","","","","","",""
"","","","","","canvas-keyboard-response","248","1575833","0.0-12.0-1.47","2d_cat_multi_stim_exp1","2022-4-26","15:52:47","25","75","3","9","10","40","30","120","64","18","[""Black or African-American""]","No","Female","3131296","null","null","","","","clear_screen","","","","","","","","","","","","","","","","","","","","","","","","","",""
"","","","","","canvas-keyboard-response","249","1576623","0.0-12.0-2.47","2d_cat_multi_stim_exp1","2022-4-26","15:52:47","25","75","3","9","10","40","30","120","64","18","[""Black or African-American""]","No","Female","3131296","783","u","learn","","","learn_trial","27.2592","80.9214","in","1","1","","","","","","","","","","","","","","","","","","","","",""
"","","","","","canvas-keyboard-response","250","1577130","0.0-12.0-3.47","2d_cat_multi_stim_exp1","2022-4-26","15:52:47","25","75","3","9","10","40","30","120","64","18","[""Black or African-American""]","No","Female","3131296","null","null","learn_feedback","","","learn_feedback","27.2592","80.9214","in","","","","","","","","","","","","","","","","","","","","","","",""
"","","","","","canvas-keyboard-response","251","1577190","0.0-12.0-4.47","2d_cat_multi_stim_exp1","2022-4-26","15:52:47","25","75","3","9","10","40","30","120","64","18","[""Black or African-American""]","No","Female","3131296","null","null","","","","clear_screen","","","","","","","","","","","","","","","","","","","","","","","","","",""
"","","","","","canvas-keyboard-response","252","1577696","0.0-12.0-0.48","2d_cat_multi_stim_exp1","2022-4-26","15:52:47","25","75","3","9","10","40","30","120","64","18","[""Black or African-American""]","No","Female","3131296","null","null","","","","fixation","","","","","","","","","","","","","","","","","","","","","","","","","",""
"","","","","","canvas-keyboard-response","253","1578205","0.0-12.0-1.48","2d_cat_multi_stim_exp1","2022-4-26","15:52:47","25","75","3","9","10","40","30","120","64","18","[""Black or African-American""]","No","Female","3131296","null","null","","","","clear_screen","","","","","","","","","","","","","","","","","","","","","","","","","",""
"","","","","","canvas-keyboard-response","254","1578992","0.0-12.0-2.48","2d_cat_multi_stim_exp1","2022-4-26","15:52:47","25","75","3","9","10","40","30","120","64","18","[""Black or African-American""]","No","Female","3131296","780","u","learn","","","learn_trial","25","75","in","1","1","","","","","","","","","","","","","","","","","","","","",""
"","","","","","canvas-keyboard-response","255","1579500","0.0-12.0-3.48","2d_cat_multi_stim_exp1","2022-4-26","15:52:47","25","75","3","9","10","40","30","120","64","18","[""Black or African-American""]","No","Female","3131296","null","null","learn_feedback","","","learn_feedback","25","75","in","","","","","","","","","","","","","","","","","","","","","","",""
"","","","","","canvas-keyboard-response","256","1579557","0.0-12.0-4.48","2d_cat_multi_stim_exp1","2022-4-26","15:52:47","25","75","3","9","10","40","30","120","64","18","[""Black or African-American""]","No","Female","3131296","null","null","","","","clear_screen","","","","","","","","","","","","","","","","","","","","","","","","","",""
"","","","","","canvas-keyboard-response","257","1580064","0.0-12.0-0.49","2d_cat_multi_stim_exp1","2022-4-26","15:52:47","25","75","3","9","10","40","30","120","64","18","[""Black or African-American""]","No","Female","3131296","null","null","","","","fixation","","","","","","","","","","","","","","","","","","","","","","","","","",""
"","","","","","canvas-keyboard-response","258","1580572","0.0-12.0-1.49","2d_cat_multi_stim_exp1","2022-4-26","15:52:47","25","75","3","9","10","40","30","120","64","18","[""Black or African-American""]","No","Female","3131296","null","null","","","","clear_screen","","","","","","","","","","","","","","","","","","","","","","","","","",""
"","","","","","canvas-keyboard-response","259","1581670","0.0-12.0-2.49","2d_cat_multi_stim_exp1","2022-4-26","15:52:47","25","75","3","9","10","40","30","120","64","18","[""Black or African-American""]","No","Female","3131296","1091","u","learn","","","learn_trial","23.3333","70","out","1","0","","","","","","","","","","","","","","","","","","","","",""
"","","","","","canvas-keyboard-response","260","1582678","0.0-12.0-3.49","2d_cat_multi_stim_exp1","2022-4-26","15:52:47","25","75","3","9","10","40","30","120","64","18","[""Black or African-American""]","No","Female","3131296","null","null","learn_feedback","","","learn_feedback","23.3333","70","out","","","","","","","","","","","","","","","","","","","","","","",""
"","","","","","canvas-keyboard-response","261","1582734","0.0-12.0-4.49","2d_cat_multi_stim_exp1","2022-4-26","15:52:47","25","75","3","9","10","40","30","120","64","18","[""Black or African-American""]","No","Female","3131296","null","null","","","","clear_screen","","","","","","","","","","","","","","","","","","","","","","","","","",""
"","","","","","canvas-keyboard-response","262","1583240","0.0-12.0-0.50","2d_cat_multi_stim_exp1","2022-4-26","15:52:47","25","75","3","9","10","40","30","120","64","18","[""Black or African-American""]","No","Female","3131296","null","null","","","","fixation","","","","","","","","","","","","","","","","","","","","","","","","","",""
"","","","","","canvas-keyboard-response","263","1583746","0.0-12.0-1.50","2d_cat_multi_stim_exp1","2022-4-26","15:52:47","25","75","3","9","10","40","30","120","64","18","[""Black or African-American""]","No","Female","3131296","null","null","","","","clear_screen","","","","","","","","","","","","","","","","","","","","","","","","","",""
"","","","","","canvas-keyboard-response","264","1584606","0.0-12.0-2.50","2d_cat_multi_stim_exp1","2022-4-26","15:52:47","25","75","3","9","10","40","30","120","64","18","[""Black or African-American""]","No","Female","3131296","853","u","learn","","","learn_trial","25","75","in","1","1","","","","","","","","","","","","","","","","","","","","",""
"","","","","","canvas-keyboard-response","265","1585113","0.0-12.0-3.50","2d_cat_multi_stim_exp1","2022-4-26","15:52:47","25","75","3","9","10","40","30","120","64","18","[""Black or African-American""]","No","Female","3131296","null","null","learn_feedback","","","learn_feedback","25","75","in","","","","","","","","","","","","","","","","","","","","","","",""
"","","","","","canvas-keyboard-response","266","1585172","0.0-12.0-4.50","2d_cat_multi_stim_exp1","2022-4-26","15:52:47","25","75","3","9","10","40","30","120","64","18","[""Black or African-American""]","No","Female","3131296","null","null","","","","clear_screen","","","","","","","","","","","","","","","","","","","","","","","","","",""
"","","","","","canvas-keyboard-response","267","1585678","0.0-12.0-0.51","2d_cat_multi_stim_exp1","2022-4-26","15:52:47","25","75","3","9","10","40","30","120","64","18","[""Black or African-American""]","No","Female","3131296","null","null","","","","fixation","","","","","","","","","","","","","","","","","","","","","","","","","",""
"","","","","","canvas-keyboard-response","268","1586186","0.0-12.0-1.51","2d_cat_multi_stim_exp1","2022-4-26","15:52:47","25","75","3","9","10","40","30","120","64","18","[""Black or African-American""]","No","Female","3131296","null","null","","","","clear_screen","","","","","","","","","","","","","","","","","","","","","","","","","",""
"","","","","","canvas-keyboard-response","269","1586799","0.0-12.0-2.51","2d_cat_multi_stim_exp1","2022-4-26","15:52:47","25","75","3","9","10","40","30","120","64","18","[""Black or African-American""]","No","Female","3131296","606","i","learn","","","learn_trial","10","30","out","0","1","","","","","","","","","","","","","","","","","","","","",""
"","","","","","canvas-keyboard-response","270","1587306","0.0-12.0-3.51","2d_cat_multi_stim_exp1","2022-4-26","15:52:47","25","75","3","9","10","40","30","120","64","18","[""Black or African-American""]","No","Female","3131296","null","null","learn_feedback","","","learn_feedback","10","30","out","","","","","","","","","","","","","","","","","","","","","","",""
"","","","","","canvas-keyboard-response","271","1587362","0.0-12.0-4.51","2d_cat_multi_stim_exp1","2022-4-26","15:52:47","25","75","3","9","10","40","30","120","64","18","[""Black or African-American""]","No","Female","3131296","null","null","","","","clear_screen","","","","","","","","","","","","","","","","","","","","","","","","","",""
"","","","","","canvas-keyboard-response","272","1587868","0.0-12.0-0.52","2d_cat_multi_stim_exp1","2022-4-26","15:52:47","25","75","3","9","10","40","30","120","64","18","[""Black or African-American""]","No","Female","3131296","null","null","","","","fixation","","","","","","","","","","","","","","","","","","","","","","","","","",""
"","","","","","canvas-keyboard-response","273","1588376","0.0-12.0-1.52","2d_cat_multi_stim_exp1","2022-4-26","15:52:47","25","75","3","9","10","40","30","120","64","18","[""Black or African-American""]","No","Female","3131296","null","null","","","","clear_screen","","","","","","","","","","","","","","","","","","","","","","","","","",""
"","","","","","canvas-keyboard-response","274","1590518","0.0-12.0-2.52","2d_cat_multi_stim_exp1","2022-4-26","15:52:47","25","75","3","9","10","40","30","120","64","18","[""Black or African-American""]","No","Female","3131296","2136","i","learn","","","learn_trial","16.6667","80","out","0","1","","","","","","","","","","","","","","","","","","","","",""
"","","","","","canvas-keyboard-response","275","1591026","0.0-12.0-3.52","2d_cat_multi_stim_exp1","2022-4-26","15:52:47","25","75","3","9","10","40","30","120","64","18","[""Black or African-American""]","No","Female","3131296","null","null","learn_feedback","","","learn_feedback","16.6667","80","out","","","","","","","","","","","","","","","","","","","","","","",""
"","","","","","canvas-keyboard-response","276","1591083","0.0-12.0-4.52","2d_cat_multi_stim_exp1","2022-4-26","15:52:47","25","75","3","9","10","40","30","120","64","18","[""Black or African-American""]","No","Female","3131296","null","null","","","","clear_screen","","","","","","","","","","","","","","","","","","","","","","","","","",""
"","","","","","canvas-keyboard-response","277","1591588","0.0-12.0-0.53","2d_cat_multi_stim_exp1","2022-4-26","15:52:47","25","75","3","9","10","40","30","120","64","18","[""Black or African-American""]","No","Female","3131296","null","null","","","","fixation","","","","","","","","","","","","","","","","","","","","","","","","","",""
"","","","","","canvas-keyboard-response","278","1592097","0.0-12.0-1.53","2d_cat_multi_stim_exp1","2022-4-26","15:52:47","25","75","3","9","10","40","30","120","64","18","[""Black or African-American""]","No","Female","3131296","null","null","","","","clear_screen","","","","","","","","","","","","","","","","","","","","","","","","","",""
