"success","timeout","failed_images","failed_audio","failed_video","trial_type","trial_index","time_elapsed","internal_node_id","exp_name","date","time","angle_mean_in","radius_mean_in","angle_sd_in","radius_sd_in","angle_min_out","angle_max_out","radius_min_out","radius_max_out","sub_n","age","race","ethnicity","gender","exp_duration","rt","response","exp_trial_type","stimulus","view_history","screen_id","angle","radius","distribution","correct","choice","order","angle_a","radius_a","angle_b","radius_b","angle_c","radius_c","jkl_correct","transfer_trial_type","choice_set","abc_correct","tc_correct","tc_angle","tdc_a","tdc_b","tdc_c","pair","category_a","category_b","category_c","question_order"
"true","false","[]","[]","[]","preload","0","18","0.0-0.0","2d_cat_multi_stim_exp1","2022-4-25","12:31:46","25","75","3","9","10","40","30","120","55","20","[""Asian""]","No","Female","2998717","","","","","","","","","","","","","","","","","","","","","","","","","","","","","","","",""
"","","","","","survey-html-form","1","1059134","0.0-1.0","2d_cat_multi_stim_exp1","2022-4-25","12:31:46","25","75","3","9","10","40","30","120","55","20","[""Asian""]","No","Female","2998717","1059106","{""response"":""55""}","enter-sub-number","","","","","","","","","","","","","","","","","","","","","","","","","","","","",""
"true","","","","","fullscreen","2","1066943","0.0-2.0","2d_cat_multi_stim_exp1","2022-4-25","12:31:46","25","75","3","9","10","40","30","120","55","20","[""Asian""]","No","Female","2998717","","","","","","","","","","","","","","","","","","","","","","","","","","","","","","","",""
"","","","","","image-button-response","3","1069143","0.0-3.0","2d_cat_multi_stim_exp1","2022-4-25","12:31:46","25","75","3","9","10","40","30","120","55","20","[""Asian""]","No","Female","2998717","2191","0","","consent.png","","","","","","","","","","","","","","","","","","","","","","","","","","","",""
"","","","","","html-button-response","4","1073544","0.0-4.0","2d_cat_multi_stim_exp1","2022-4-25","12:31:46","25","75","3","9","10","40","30","120","55","20","[""Asian""]","No","Female","2998717","4396","0","","<div style= ""font-size:25px;"" <p> <strong> Welcome to the experiment! </strong><br> <p style=""color:#8B0000; font-size:25px;""><strong> Please do NOT exit full screen until you are done with the experiment. </strong> </p><p style=""font-size:25px;color:#8B0000;""> <strong> The experiment will be canceled and your data will be lost <br> if you try to go back or refresh the page at any point during the experiment.</strong> </p><br><p> <strong> Thanks in advance for your contribution to our research! </strong></p>","","","","","","","","","","","","","","","","","","","","","","","","","","","",""
"","","","","","instructions","5","1107967","0.0-5.0","2d_cat_multi_stim_exp1","2022-4-25","12:31:46","25","75","3","9","10","40","30","120","55","20","[""Asian""]","No","Female","2998717","34419","","","","[{""page_index"":0,""viewing_time"":11259},{""page_index"":1,""viewing_time"":1528},{""page_index"":2,""viewing_time"":10040},{""page_index"":3,""viewing_time"":11591}]","instructions_1","","","","","","","","","","","","","","","","","","","","","","","","","",""
"","","","","","instructions","6","1109296","0.0-6.0","2d_cat_multi_stim_exp1","2022-4-25","12:31:46","25","75","3","9","10","40","30","120","55","20","[""Asian""]","No","Female","2998717","1325","","","","[{""page_index"":0,""viewing_time"":1325}]","Click to see the kinds of turtles that will appear in the study.","","","","","","","","","","","","","","","","","","","","","","","","","",""
"","","","","","canvas-keyboard-response","7","1124314","0.0-7.0","2d_cat_multi_stim_exp1","2022-4-25","12:31:46","25","75","3","9","10","40","30","120","55","20","[""Asian""]","No","Female","2998717","null","null","","","","demo_range","","","","","","","","","","","","","","","","","","","","","","","","","",""
"","","","","","instructions","8","1125951","0.0-8.0","2d_cat_multi_stim_exp1","2022-4-25","12:31:46","25","75","3","9","10","40","30","120","55","20","[""Asian""]","No","Female","2998717","1135","","","","[{""page_index"":0,""viewing_time"":1135}]","Click to see some turtles in the subspecies.","","","","","","","","","","","","","","","","","","","","","","","","","",""
"","","","","","canvas-keyboard-response","9","1140969","0.0-9.0","2d_cat_multi_stim_exp1","2022-4-25","12:31:46","25","75","3","9","10","40","30","120","55","20","[""Asian""]","No","Female","2998717","null","null","","","","demo_in","","","","","","","","","","","","","","","","","","","","","","","","","",""
"","","","","","instructions","10","1165823","0.0-10.0","2d_cat_multi_stim_exp1","2022-4-25","12:31:46","25","75","3","9","10","40","30","120","55","20","[""Asian""]","No","Female","2998717","24352","","","","[{""page_index"":0,""viewing_time"":4527},{""page_index"":1,""viewing_time"":15289},{""page_index"":2,""viewing_time"":4535}]","instructions_2","","","","","","","","","","","","","","","","","","","","","","","","","",""
"","","","","","instructions","11","1166695","0.0-11.0","2d_cat_multi_stim_exp1","2022-4-25","12:31:46","25","75","3","9","10","40","30","120","55","20","[""Asian""]","No","Female","2998717","869","","","","[{""page_index"":0,""viewing_time"":869}]","Click to begin the first phase of the experiment.","","","","","","","","","","","","","","","","","","","","","","","","","",""
"","","","","","canvas-keyboard-response","12","1167204","0.0-12.0-0.0","2d_cat_multi_stim_exp1","2022-4-25","12:31:46","25","75","3","9","10","40","30","120","55","20","[""Asian""]","No","Female","2998717","null","null","","","","fixation","","","","","","","","","","","","","","","","","","","","","","","","","",""
"","","","","","canvas-keyboard-response","13","1167719","0.0-12.0-1.0","2d_cat_multi_stim_exp1","2022-4-25","12:31:46","25","75","3","9","10","40","30","120","55","20","[""Asian""]","No","Female","2998717","null","null","","","","clear_screen","","","","","","","","","","","","","","","","","","","","","","","","","",""
"","","","","","canvas-keyboard-response","14","1178903","0.0-12.0-2.0","2d_cat_multi_stim_exp1","2022-4-25","12:31:46","25","75","3","9","10","40","30","120","55","20","[""Asian""]","No","Female","2998717","11175","i","learn","","","learn_trial","25.4027","66.0815","in","0","0","","","","","","","","","","","","","","","","","","","","",""
"","","","","","canvas-keyboard-response","15","1179914","0.0-12.0-3.0","2d_cat_multi_stim_exp1","2022-4-25","12:31:46","25","75","3","9","10","40","30","120","55","20","[""Asian""]","No","Female","2998717","null","null","learn_feedback","","","learn_feedback","25.4027","66.0815","in","","","","","","","","","","","","","","","","","","","","","","",""
"","","","","","canvas-keyboard-response","16","1179976","0.0-12.0-4.0","2d_cat_multi_stim_exp1","2022-4-25","12:31:46","25","75","3","9","10","40","30","120","55","20","[""Asian""]","No","Female","2998717","null","null","","","","clear_screen","","","","","","","","","","","","","","","","","","","","","","","","","",""
"","","","","","canvas-keyboard-response","17","1180488","0.0-12.0-0.1","2d_cat_multi_stim_exp1","2022-4-25","12:31:46","25","75","3","9","10","40","30","120","55","20","[""Asian""]","No","Female","2998717","null","null","","","","fixation","","","","","","","","","","","","","","","","","","","","","","","","","",""
"","","","","","canvas-keyboard-response","18","1181001","0.0-12.0-1.1","2d_cat_multi_stim_exp1","2022-4-25","12:31:46","25","75","3","9","10","40","30","120","55","20","[""Asian""]","No","Female","2998717","null","null","","","","clear_screen","","","","","","","","","","","","","","","","","","","","","","","","","",""
"","","","","","canvas-keyboard-response","19","1183871","0.0-12.0-2.1","2d_cat_multi_stim_exp1","2022-4-25","12:31:46","25","75","3","9","10","40","30","120","55","20","[""Asian""]","No","Female","2998717","2860","u","learn","","","learn_trial","40","70","out","0","1","","","","","","","","","","","","","","","","","","","","",""
"","","","","","canvas-keyboard-response","20","1184880","0.0-12.0-3.1","2d_cat_multi_stim_exp1","2022-4-25","12:31:46","25","75","3","9","10","40","30","120","55","20","[""Asian""]","No","Female","2998717","null","null","learn_feedback","","","learn_feedback","40","70","out","","","","","","","","","","","","","","","","","","","","","","",""
"","","","","","canvas-keyboard-response","21","1184942","0.0-12.0-4.1","2d_cat_multi_stim_exp1","2022-4-25","12:31:46","25","75","3","9","10","40","30","120","55","20","[""Asian""]","No","Female","2998717","null","null","","","","clear_screen","","","","","","","","","","","","","","","","","","","","","","","","","",""
"","","","","","canvas-keyboard-response","22","1185451","0.0-12.0-0.2","2d_cat_multi_stim_exp1","2022-4-25","12:31:46","25","75","3","9","10","40","30","120","55","20","[""Asian""]","No","Female","2998717","null","null","","","","fixation","","","","","","","","","","","","","","","","","","","","","","","","","",""
"","","","","","canvas-keyboard-response","23","1185961","0.0-12.0-1.2","2d_cat_multi_stim_exp1","2022-4-25","12:31:46","25","75","3","9","10","40","30","120","55","20","[""Asian""]","No","Female","2998717","null","null","","","","clear_screen","","","","","","","","","","","","","","","","","","","","","","","","","",""
"","","","","","canvas-keyboard-response","24","1188423","0.0-12.0-2.2","2d_cat_multi_stim_exp1","2022-4-25","12:31:46","25","75","3","9","10","40","30","120","55","20","[""Asian""]","No","Female","2998717","2455","u","learn","","","learn_trial","20","60","out","0","1","","","","","","","","","","","","","","","","","","","","",""
"","","","","","canvas-keyboard-response","25","1189433","0.0-12.0-3.2","2d_cat_multi_stim_exp1","2022-4-25","12:31:46","25","75","3","9","10","40","30","120","55","20","[""Asian""]","No","Female","2998717","null","null","learn_feedback","","","learn_feedback","20","60","out","","","","","","","","","","","","","","","","","","","","","","",""
"","","","","","canvas-keyboard-response","26","1189492","0.0-12.0-4.2","2d_cat_multi_stim_exp1","2022-4-25","12:31:46","25","75","3","9","10","40","30","120","55","20","[""Asian""]","No","Female","2998717","null","null","","","","clear_screen","","","","","","","","","","","","","","","","","","","","","","","","","",""
"","","","","","canvas-keyboard-response","27","1190001","0.0-12.0-0.3","2d_cat_multi_stim_exp1","2022-4-25","12:31:46","25","75","3","9","10","40","30","120","55","20","[""Asian""]","No","Female","2998717","null","null","","","","fixation","","","","","","","","","","","","","","","","","","","","","","","","","",""
"","","","","","canvas-keyboard-response","28","1190512","0.0-12.0-1.3","2d_cat_multi_stim_exp1","2022-4-25","12:31:46","25","75","3","9","10","40","30","120","55","20","[""Asian""]","No","Female","2998717","null","null","","","","clear_screen","","","","","","","","","","","","","","","","","","","","","","","","","",""
"","","","","","canvas-keyboard-response","29","1192935","0.0-12.0-2.3","2d_cat_multi_stim_exp1","2022-4-25","12:31:46","25","75","3","9","10","40","30","120","55","20","[""Asian""]","No","Female","2998717","2415","i","learn","","","learn_trial","20","40","out","1","0","","","","","","","","","","","","","","","","","","","","",""
"","","","","","canvas-keyboard-response","30","1193448","0.0-12.0-3.3","2d_cat_multi_stim_exp1","2022-4-25","12:31:46","25","75","3","9","10","40","30","120","55","20","[""Asian""]","No","Female","2998717","null","null","learn_feedback","","","learn_feedback","20","40","out","","","","","","","","","","","","","","","","","","","","","","",""
"","","","","","canvas-keyboard-response","31","1193507","0.0-12.0-4.3","2d_cat_multi_stim_exp1","2022-4-25","12:31:46","25","75","3","9","10","40","30","120","55","20","[""Asian""]","No","Female","2998717","null","null","","","","clear_screen","","","","","","","","","","","","","","","","","","","","","","","","","",""
"","","","","","canvas-keyboard-response","32","1194016","0.0-12.0-0.4","2d_cat_multi_stim_exp1","2022-4-25","12:31:46","25","75","3","9","10","40","30","120","55","20","[""Asian""]","No","Female","2998717","null","null","","","","fixation","","","","","","","","","","","","","","","","","","","","","","","","","",""
"","","","","","canvas-keyboard-response","33","1194528","0.0-12.0-1.4","2d_cat_multi_stim_exp1","2022-4-25","12:31:46","25","75","3","9","10","40","30","120","55","20","[""Asian""]","No","Female","2998717","null","null","","","","clear_screen","","","","","","","","","","","","","","","","","","","","","","","","","",""
"","","","","","canvas-keyboard-response","34","1196752","0.0-12.0-2.4","2d_cat_multi_stim_exp1","2022-4-25","12:31:46","25","75","3","9","10","40","30","120","55","20","[""Asian""]","No","Female","2998717","2217","u","learn","","","learn_trial","30","70","out","0","1","","","","","","","","","","","","","","","","","","","","",""
"","","","","","canvas-keyboard-response","35","1197764","0.0-12.0-3.4","2d_cat_multi_stim_exp1","2022-4-25","12:31:46","25","75","3","9","10","40","30","120","55","20","[""Asian""]","No","Female","2998717","null","null","learn_feedback","","","learn_feedback","30","70","out","","","","","","","","","","","","","","","","","","","","","","",""
"","","","","","canvas-keyboard-response","36","1197825","0.0-12.0-4.4","2d_cat_multi_stim_exp1","2022-4-25","12:31:46","25","75","3","9","10","40","30","120","55","20","[""Asian""]","No","Female","2998717","null","null","","","","clear_screen","","","","","","","","","","","","","","","","","","","","","","","","","",""
"","","","","","canvas-keyboard-response","37","1198333","0.0-12.0-0.5","2d_cat_multi_stim_exp1","2022-4-25","12:31:46","25","75","3","9","10","40","30","120","55","20","[""Asian""]","No","Female","2998717","null","null","","","","fixation","","","","","","","","","","","","","","","","","","","","","","","","","",""
"","","","","","canvas-keyboard-response","38","1198843","0.0-12.0-1.5","2d_cat_multi_stim_exp1","2022-4-25","12:31:46","25","75","3","9","10","40","30","120","55","20","[""Asian""]","No","Female","2998717","null","null","","","","clear_screen","","","","","","","","","","","","","","","","","","","","","","","","","",""
"","","","","","canvas-keyboard-response","39","1200470","0.0-12.0-2.5","2d_cat_multi_stim_exp1","2022-4-25","12:31:46","25","75","3","9","10","40","30","120","55","20","[""Asian""]","No","Female","2998717","1618","u","learn","","","learn_trial","40","110","out","0","1","","","","","","","","","","","","","","","","","","","","",""
"","","","","","canvas-keyboard-response","40","1201478","0.0-12.0-3.5","2d_cat_multi_stim_exp1","2022-4-25","12:31:46","25","75","3","9","10","40","30","120","55","20","[""Asian""]","No","Female","2998717","null","null","learn_feedback","","","learn_feedback","40","110","out","","","","","","","","","","","","","","","","","","","","","","",""
"","","","","","canvas-keyboard-response","41","1201537","0.0-12.0-4.5","2d_cat_multi_stim_exp1","2022-4-25","12:31:46","25","75","3","9","10","40","30","120","55","20","[""Asian""]","No","Female","2998717","null","null","","","","clear_screen","","","","","","","","","","","","","","","","","","","","","","","","","",""
"","","","","","canvas-keyboard-response","42","1202045","0.0-12.0-0.6","2d_cat_multi_stim_exp1","2022-4-25","12:31:46","25","75","3","9","10","40","30","120","55","20","[""Asian""]","No","Female","2998717","null","null","","","","fixation","","","","","","","","","","","","","","","","","","","","","","","","","",""
"","","","","","canvas-keyboard-response","43","1202556","0.0-12.0-1.6","2d_cat_multi_stim_exp1","2022-4-25","12:31:46","25","75","3","9","10","40","30","120","55","20","[""Asian""]","No","Female","2998717","null","null","","","","clear_screen","","","","","","","","","","","","","","","","","","","","","","","","","",""
"","","","","","canvas-keyboard-response","44","1204063","0.0-12.0-2.6","2d_cat_multi_stim_exp1","2022-4-25","12:31:46","25","75","3","9","10","40","30","120","55","20","[""Asian""]","No","Female","2998717","1496","u","learn","","","learn_trial","25","75","in","1","1","","","","","","","","","","","","","","","","","","","","",""
"","","","","","canvas-keyboard-response","45","1204574","0.0-12.0-3.6","2d_cat_multi_stim_exp1","2022-4-25","12:31:46","25","75","3","9","10","40","30","120","55","20","[""Asian""]","No","Female","2998717","null","null","learn_feedback","","","learn_feedback","25","75","in","","","","","","","","","","","","","","","","","","","","","","",""
"","","","","","canvas-keyboard-response","46","1204633","0.0-12.0-4.6","2d_cat_multi_stim_exp1","2022-4-25","12:31:46","25","75","3","9","10","40","30","120","55","20","[""Asian""]","No","Female","2998717","null","null","","","","clear_screen","","","","","","","","","","","","","","","","","","","","","","","","","",""
"","","","","","canvas-keyboard-response","47","1205142","0.0-12.0-0.7","2d_cat_multi_stim_exp1","2022-4-25","12:31:46","25","75","3","9","10","40","30","120","55","20","[""Asian""]","No","Female","2998717","null","null","","","","fixation","","","","","","","","","","","","","","","","","","","","","","","","","",""
"","","","","","canvas-keyboard-response","48","1205652","0.0-12.0-1.7","2d_cat_multi_stim_exp1","2022-4-25","12:31:46","25","75","3","9","10","40","30","120","55","20","[""Asian""]","No","Female","2998717","null","null","","","","clear_screen","","","","","","","","","","","","","","","","","","","","","","","","","",""
"","","","","","canvas-keyboard-response","49","1206519","0.0-12.0-2.7","2d_cat_multi_stim_exp1","2022-4-25","12:31:46","25","75","3","9","10","40","30","120","55","20","[""Asian""]","No","Female","2998717","855","i","learn","","","learn_trial","13.3333","100","out","1","0","","","","","","","","","","","","","","","","","","","","",""
"","","","","","canvas-keyboard-response","50","1207028","0.0-12.0-3.7","2d_cat_multi_stim_exp1","2022-4-25","12:31:46","25","75","3","9","10","40","30","120","55","20","[""Asian""]","No","Female","2998717","null","null","learn_feedback","","","learn_feedback","13.3333","100","out","","","","","","","","","","","","","","","","","","","","","","",""
"","","","","","canvas-keyboard-response","51","1207090","0.0-12.0-4.7","2d_cat_multi_stim_exp1","2022-4-25","12:31:46","25","75","3","9","10","40","30","120","55","20","[""Asian""]","No","Female","2998717","null","null","","","","clear_screen","","","","","","","","","","","","","","","","","","","","","","","","","",""
"","","","","","canvas-keyboard-response","52","1207599","0.0-12.0-0.8","2d_cat_multi_stim_exp1","2022-4-25","12:31:46","25","75","3","9","10","40","30","120","55","20","[""Asian""]","No","Female","2998717","null","null","","","","fixation","","","","","","","","","","","","","","","","","","","","","","","","","",""
"","","","","","canvas-keyboard-response","53","1208112","0.0-12.0-1.8","2d_cat_multi_stim_exp1","2022-4-25","12:31:46","25","75","3","9","10","40","30","120","55","20","[""Asian""]","No","Female","2998717","null","null","","","","clear_screen","","","","","","","","","","","","","","","","","","","","","","","","","",""
"","","","","","canvas-keyboard-response","54","1208927","0.0-12.0-2.8","2d_cat_multi_stim_exp1","2022-4-25","12:31:46","25","75","3","9","10","40","30","120","55","20","[""Asian""]","No","Female","2998717","804","i","learn","","","learn_trial","36.6667","60","out","1","0","","","","","","","","","","","","","","","","","","","","",""
"","","","","","canvas-keyboard-response","55","1209436","0.0-12.0-3.8","2d_cat_multi_stim_exp1","2022-4-25","12:31:46","25","75","3","9","10","40","30","120","55","20","[""Asian""]","No","Female","2998717","null","null","learn_feedback","","","learn_feedback","36.6667","60","out","","","","","","","","","","","","","","","","","","","","","","",""
"","","","","","canvas-keyboard-response","56","1209500","0.0-12.0-4.8","2d_cat_multi_stim_exp1","2022-4-25","12:31:46","25","75","3","9","10","40","30","120","55","20","[""Asian""]","No","Female","2998717","null","null","","","","clear_screen","","","","","","","","","","","","","","","","","","","","","","","","","",""
"","","","","","canvas-keyboard-response","57","1210010","0.0-12.0-0.9","2d_cat_multi_stim_exp1","2022-4-25","12:31:46","25","75","3","9","10","40","30","120","55","20","[""Asian""]","No","Female","2998717","null","null","","","","fixation","","","","","","","","","","","","","","","","","","","","","","","","","",""
"","","","","","canvas-keyboard-response","58","1210521","0.0-12.0-1.9","2d_cat_multi_stim_exp1","2022-4-25","12:31:46","25","75","3","9","10","40","30","120","55","20","[""Asian""]","No","Female","2998717","null","null","","","","clear_screen","","","","","","","","","","","","","","","","","","","","","","","","","",""
"","","","","","canvas-keyboard-response","59","1211301","0.0-12.0-2.9","2d_cat_multi_stim_exp1","2022-4-25","12:31:46","25","75","3","9","10","40","30","120","55","20","[""Asian""]","No","Female","2998717","771","u","learn","","","learn_trial","25","75","in","1","1","","","","","","","","","","","","","","","","","","","","",""
"","","","","","canvas-keyboard-response","60","1211810","0.0-12.0-3.9","2d_cat_multi_stim_exp1","2022-4-25","12:31:46","25","75","3","9","10","40","30","120","55","20","[""Asian""]","No","Female","2998717","null","null","learn_feedback","","","learn_feedback","25","75","in","","","","","","","","","","","","","","","","","","","","","","",""
"","","","","","canvas-keyboard-response","61","1211871","0.0-12.0-4.9","2d_cat_multi_stim_exp1","2022-4-25","12:31:46","25","75","3","9","10","40","30","120","55","20","[""Asian""]","No","Female","2998717","null","null","","","","clear_screen","","","","","","","","","","","","","","","","","","","","","","","","","",""
"","","","","","canvas-keyboard-response","62","1212383","0.0-12.0-0.10","2d_cat_multi_stim_exp1","2022-4-25","12:31:46","25","75","3","9","10","40","30","120","55","20","[""Asian""]","No","Female","2998717","null","null","","","","fixation","","","","","","","","","","","","","","","","","","","","","","","","","",""
"","","","","","canvas-keyboard-response","63","1212895","0.0-12.0-1.10","2d_cat_multi_stim_exp1","2022-4-25","12:31:46","25","75","3","9","10","40","30","120","55","20","[""Asian""]","No","Female","2998717","null","null","","","","clear_screen","","","","","","","","","","","","","","","","","","","","","","","","","",""
"","","","","","canvas-keyboard-response","64","1213584","0.0-12.0-2.10","2d_cat_multi_stim_exp1","2022-4-25","12:31:46","25","75","3","9","10","40","30","120","55","20","[""Asian""]","No","Female","2998717","678","u","learn","","","learn_trial","25","75","in","1","1","","","","","","","","","","","","","","","","","","","","",""
"","","","","","canvas-keyboard-response","65","1214095","0.0-12.0-3.10","2d_cat_multi_stim_exp1","2022-4-25","12:31:46","25","75","3","9","10","40","30","120","55","20","[""Asian""]","No","Female","2998717","null","null","learn_feedback","","","learn_feedback","25","75","in","","","","","","","","","","","","","","","","","","","","","","",""
"","","","","","canvas-keyboard-response","66","1214157","0.0-12.0-4.10","2d_cat_multi_stim_exp1","2022-4-25","12:31:46","25","75","3","9","10","40","30","120","55","20","[""Asian""]","No","Female","2998717","null","null","","","","clear_screen","","","","","","","","","","","","","","","","","","","","","","","","","",""
"","","","","","canvas-keyboard-response","67","1214665","0.0-12.0-0.11","2d_cat_multi_stim_exp1","2022-4-25","12:31:46","25","75","3","9","10","40","30","120","55","20","[""Asian""]","No","Female","2998717","null","null","","","","fixation","","","","","","","","","","","","","","","","","","","","","","","","","",""
"","","","","","canvas-keyboard-response","68","1215175","0.0-12.0-1.11","2d_cat_multi_stim_exp1","2022-4-25","12:31:46","25","75","3","9","10","40","30","120","55","20","[""Asian""]","No","Female","2998717","null","null","","","","clear_screen","","","","","","","","","","","","","","","","","","","","","","","","","",""
"","","","","","canvas-keyboard-response","69","1215855","0.0-12.0-2.11","2d_cat_multi_stim_exp1","2022-4-25","12:31:46","25","75","3","9","10","40","30","120","55","20","[""Asian""]","No","Female","2998717","670","i","learn","","","learn_trial","33.3333","120","out","1","0","","","","","","","","","","","","","","","","","","","","",""
"","","","","","canvas-keyboard-response","70","1216363","0.0-12.0-3.11","2d_cat_multi_stim_exp1","2022-4-25","12:31:46","25","75","3","9","10","40","30","120","55","20","[""Asian""]","No","Female","2998717","null","null","learn_feedback","","","learn_feedback","33.3333","120","out","","","","","","","","","","","","","","","","","","","","","","",""
"","","","","","canvas-keyboard-response","71","1216424","0.0-12.0-4.11","2d_cat_multi_stim_exp1","2022-4-25","12:31:46","25","75","3","9","10","40","30","120","55","20","[""Asian""]","No","Female","2998717","null","null","","","","clear_screen","","","","","","","","","","","","","","","","","","","","","","","","","",""
"","","","","","canvas-keyboard-response","72","1216933","0.0-12.0-0.12","2d_cat_multi_stim_exp1","2022-4-25","12:31:46","25","75","3","9","10","40","30","120","55","20","[""Asian""]","No","Female","2998717","null","null","","","","fixation","","","","","","","","","","","","","","","","","","","","","","","","","",""
"","","","","","canvas-keyboard-response","73","1217446","0.0-12.0-1.12","2d_cat_multi_stim_exp1","2022-4-25","12:31:46","25","75","3","9","10","40","30","120","55","20","[""Asian""]","No","Female","2998717","null","null","","","","clear_screen","","","","","","","","","","","","","","","","","","","","","","","","","",""
"","","","","","canvas-keyboard-response","74","1218280","0.0-12.0-2.12","2d_cat_multi_stim_exp1","2022-4-25","12:31:46","25","75","3","9","10","40","30","120","55","20","[""Asian""]","No","Female","2998717","822","i","learn","","","learn_trial","36.6667","30","out","1","0","","","","","","","","","","","","","","","","","","","","",""
"","","","","","canvas-keyboard-response","75","1218790","0.0-12.0-3.12","2d_cat_multi_stim_exp1","2022-4-25","12:31:46","25","75","3","9","10","40","30","120","55","20","[""Asian""]","No","Female","2998717","null","null","learn_feedback","","","learn_feedback","36.6667","30","out","","","","","","","","","","","","","","","","","","","","","","",""
"","","","","","canvas-keyboard-response","76","1218851","0.0-12.0-4.12","2d_cat_multi_stim_exp1","2022-4-25","12:31:46","25","75","3","9","10","40","30","120","55","20","[""Asian""]","No","Female","2998717","null","null","","","","clear_screen","","","","","","","","","","","","","","","","","","","","","","","","","",""
"","","","","","canvas-keyboard-response","77","1219360","0.0-12.0-0.13","2d_cat_multi_stim_exp1","2022-4-25","12:31:46","25","75","3","9","10","40","30","120","55","20","[""Asian""]","No","Female","2998717","null","null","","","","fixation","","","","","","","","","","","","","","","","","","","","","","","","","",""
"","","","","","canvas-keyboard-response","78","1219872","0.0-12.0-1.13","2d_cat_multi_stim_exp1","2022-4-25","12:31:46","25","75","3","9","10","40","30","120","55","20","[""Asian""]","No","Female","2998717","null","null","","","","clear_screen","","","","","","","","","","","","","","","","","","","","","","","","","",""
"","","","","","canvas-keyboard-response","79","1220550","0.0-12.0-2.13","2d_cat_multi_stim_exp1","2022-4-25","12:31:46","25","75","3","9","10","40","30","120","55","20","[""Asian""]","No","Female","2998717","668","i","learn","","","learn_trial","23.3333","30","out","1","0","","","","","","","","","","","","","","","","","","","","",""
"","","","","","canvas-keyboard-response","80","1221061","0.0-12.0-3.13","2d_cat_multi_stim_exp1","2022-4-25","12:31:46","25","75","3","9","10","40","30","120","55","20","[""Asian""]","No","Female","2998717","null","null","learn_feedback","","","learn_feedback","23.3333","30","out","","","","","","","","","","","","","","","","","","","","","","",""
"","","","","","canvas-keyboard-response","81","1221121","0.0-12.0-4.13","2d_cat_multi_stim_exp1","2022-4-25","12:31:46","25","75","3","9","10","40","30","120","55","20","[""Asian""]","No","Female","2998717","null","null","","","","clear_screen","","","","","","","","","","","","","","","","","","","","","","","","","",""
"","","","","","canvas-keyboard-response","82","1221629","0.0-12.0-0.14","2d_cat_multi_stim_exp1","2022-4-25","12:31:46","25","75","3","9","10","40","30","120","55","20","[""Asian""]","No","Female","2998717","null","null","","","","fixation","","","","","","","","","","","","","","","","","","","","","","","","","",""
"","","","","","canvas-keyboard-response","83","1222141","0.0-12.0-1.14","2d_cat_multi_stim_exp1","2022-4-25","12:31:46","25","75","3","9","10","40","30","120","55","20","[""Asian""]","No","Female","2998717","null","null","","","","clear_screen","","","","","","","","","","","","","","","","","","","","","","","","","",""
"","","","","","canvas-keyboard-response","84","1223112","0.0-12.0-2.14","2d_cat_multi_stim_exp1","2022-4-25","12:31:46","25","75","3","9","10","40","30","120","55","20","[""Asian""]","No","Female","2998717","957","u","learn","","","learn_trial","25","75","in","1","1","","","","","","","","","","","","","","","","","","","","",""
"","","","","","canvas-keyboard-response","85","1223622","0.0-12.0-3.14","2d_cat_multi_stim_exp1","2022-4-25","12:31:46","25","75","3","9","10","40","30","120","55","20","[""Asian""]","No","Female","2998717","null","null","learn_feedback","","","learn_feedback","25","75","in","","","","","","","","","","","","","","","","","","","","","","",""
"","","","","","canvas-keyboard-response","86","1223683","0.0-12.0-4.14","2d_cat_multi_stim_exp1","2022-4-25","12:31:46","25","75","3","9","10","40","30","120","55","20","[""Asian""]","No","Female","2998717","null","null","","","","clear_screen","","","","","","","","","","","","","","","","","","","","","","","","","",""
"","","","","","canvas-keyboard-response","87","1224191","0.0-12.0-0.15","2d_cat_multi_stim_exp1","2022-4-25","12:31:46","25","75","3","9","10","40","30","120","55","20","[""Asian""]","No","Female","2998717","null","null","","","","fixation","","","","","","","","","","","","","","","","","","","","","","","","","",""
"","","","","","canvas-keyboard-response","88","1224704","0.0-12.0-1.15","2d_cat_multi_stim_exp1","2022-4-25","12:31:46","25","75","3","9","10","40","30","120","55","20","[""Asian""]","No","Female","2998717","null","null","","","","clear_screen","","","","","","","","","","","","","","","","","","","","","","","","","",""
"","","","","","canvas-keyboard-response","89","1225439","0.0-12.0-2.15","2d_cat_multi_stim_exp1","2022-4-25","12:31:46","25","75","3","9","10","40","30","120","55","20","[""Asian""]","No","Female","2998717","726","u","learn","","","learn_trial","25","75","in","1","1","","","","","","","","","","","","","","","","","","","","",""
"","","","","","canvas-keyboard-response","90","1225950","0.0-12.0-3.15","2d_cat_multi_stim_exp1","2022-4-25","12:31:46","25","75","3","9","10","40","30","120","55","20","[""Asian""]","No","Female","2998717","null","null","learn_feedback","","","learn_feedback","25","75","in","","","","","","","","","","","","","","","","","","","","","","",""
"","","","","","canvas-keyboard-response","91","1226012","0.0-12.0-4.15","2d_cat_multi_stim_exp1","2022-4-25","12:31:46","25","75","3","9","10","40","30","120","55","20","[""Asian""]","No","Female","2998717","null","null","","","","clear_screen","","","","","","","","","","","","","","","","","","","","","","","","","",""
"","","","","","canvas-keyboard-response","92","1226521","0.0-12.0-0.16","2d_cat_multi_stim_exp1","2022-4-25","12:31:46","25","75","3","9","10","40","30","120","55","20","[""Asian""]","No","Female","2998717","null","null","","","","fixation","","","","","","","","","","","","","","","","","","","","","","","","","",""
"","","","","","canvas-keyboard-response","93","1227036","0.0-12.0-1.16","2d_cat_multi_stim_exp1","2022-4-25","12:31:46","25","75","3","9","10","40","30","120","55","20","[""Asian""]","No","Female","2998717","null","null","","","","clear_screen","","","","","","","","","","","","","","","","","","","","","","","","","",""
"","","","","","canvas-keyboard-response","94","1227575","0.0-12.0-2.16","2d_cat_multi_stim_exp1","2022-4-25","12:31:46","25","75","3","9","10","40","30","120","55","20","[""Asian""]","No","Female","2998717","530","i","learn","","","learn_trial","16.6667","100","out","1","0","","","","","","","","","","","","","","","","","","","","",""
"","","","","","canvas-keyboard-response","95","1228084","0.0-12.0-3.16","2d_cat_multi_stim_exp1","2022-4-25","12:31:46","25","75","3","9","10","40","30","120","55","20","[""Asian""]","No","Female","2998717","null","null","learn_feedback","","","learn_feedback","16.6667","100","out","","","","","","","","","","","","","","","","","","","","","","",""
"","","","","","canvas-keyboard-response","96","1228146","0.0-12.0-4.16","2d_cat_multi_stim_exp1","2022-4-25","12:31:46","25","75","3","9","10","40","30","120","55","20","[""Asian""]","No","Female","2998717","null","null","","","","clear_screen","","","","","","","","","","","","","","","","","","","","","","","","","",""
"","","","","","canvas-keyboard-response","97","1228655","0.0-12.0-0.17","2d_cat_multi_stim_exp1","2022-4-25","12:31:46","25","75","3","9","10","40","30","120","55","20","[""Asian""]","No","Female","2998717","null","null","","","","fixation","","","","","","","","","","","","","","","","","","","","","","","","","",""
"","","","","","canvas-keyboard-response","98","1229167","0.0-12.0-1.17","2d_cat_multi_stim_exp1","2022-4-25","12:31:46","25","75","3","9","10","40","30","120","55","20","[""Asian""]","No","Female","2998717","null","null","","","","clear_screen","","","","","","","","","","","","","","","","","","","","","","","","","",""
"","","","","","canvas-keyboard-response","99","1229919","0.0-12.0-2.17","2d_cat_multi_stim_exp1","2022-4-25","12:31:46","25","75","3","9","10","40","30","120","55","20","[""Asian""]","No","Female","2998717","746","u","learn","","","learn_trial","22.5729","69.7099","in","1","1","","","","","","","","","","","","","","","","","","","","",""
"","","","","","canvas-keyboard-response","100","1230431","0.0-12.0-3.17","2d_cat_multi_stim_exp1","2022-4-25","12:31:46","25","75","3","9","10","40","30","120","55","20","[""Asian""]","No","Female","2998717","null","null","learn_feedback","","","learn_feedback","22.5729","69.7099","in","","","","","","","","","","","","","","","","","","","","","","",""
"","","","","","canvas-keyboard-response","101","1230492","0.0-12.0-4.17","2d_cat_multi_stim_exp1","2022-4-25","12:31:46","25","75","3","9","10","40","30","120","55","20","[""Asian""]","No","Female","2998717","null","null","","","","clear_screen","","","","","","","","","","","","","","","","","","","","","","","","","",""
"","","","","","canvas-keyboard-response","102","1231001","0.0-12.0-0.18","2d_cat_multi_stim_exp1","2022-4-25","12:31:46","25","75","3","9","10","40","30","120","55","20","[""Asian""]","No","Female","2998717","null","null","","","","fixation","","","","","","","","","","","","","","","","","","","","","","","","","",""
"","","","","","canvas-keyboard-response","103","1231516","0.0-12.0-1.18","2d_cat_multi_stim_exp1","2022-4-25","12:31:46","25","75","3","9","10","40","30","120","55","20","[""Asian""]","No","Female","2998717","null","null","","","","clear_screen","","","","","","","","","","","","","","","","","","","","","","","","","",""
"","","","","","canvas-keyboard-response","104","1232183","0.0-12.0-2.18","2d_cat_multi_stim_exp1","2022-4-25","12:31:46","25","75","3","9","10","40","30","120","55","20","[""Asian""]","No","Female","2998717","656","u","learn","","","learn_trial","22.0121","75.8068","in","1","1","","","","","","","","","","","","","","","","","","","","",""
"","","","","","canvas-keyboard-response","105","1232692","0.0-12.0-3.18","2d_cat_multi_stim_exp1","2022-4-25","12:31:46","25","75","3","9","10","40","30","120","55","20","[""Asian""]","No","Female","2998717","null","null","learn_feedback","","","learn_feedback","22.0121","75.8068","in","","","","","","","","","","","","","","","","","","","","","","",""
"","","","","","canvas-keyboard-response","106","1232751","0.0-12.0-4.18","2d_cat_multi_stim_exp1","2022-4-25","12:31:46","25","75","3","9","10","40","30","120","55","20","[""Asian""]","No","Female","2998717","null","null","","","","clear_screen","","","","","","","","","","","","","","","","","","","","","","","","","",""
"","","","","","canvas-keyboard-response","107","1233262","0.0-12.0-0.19","2d_cat_multi_stim_exp1","2022-4-25","12:31:46","25","75","3","9","10","40","30","120","55","20","[""Asian""]","No","Female","2998717","null","null","","","","fixation","","","","","","","","","","","","","","","","","","","","","","","","","",""
"","","","","","canvas-keyboard-response","108","1233773","0.0-12.0-1.19","2d_cat_multi_stim_exp1","2022-4-25","12:31:46","25","75","3","9","10","40","30","120","55","20","[""Asian""]","No","Female","2998717","null","null","","","","clear_screen","","","","","","","","","","","","","","","","","","","","","","","","","",""
"","","","","","canvas-keyboard-response","109","1235295","0.0-12.0-2.19","2d_cat_multi_stim_exp1","2022-4-25","12:31:46","25","75","3","9","10","40","30","120","55","20","[""Asian""]","No","Female","2998717","1513","u","learn","","","learn_trial","25","75","in","1","1","","","","","","","","","","","","","","","","","","","","",""
"","","","","","canvas-keyboard-response","110","1235804","0.0-12.0-3.19","2d_cat_multi_stim_exp1","2022-4-25","12:31:46","25","75","3","9","10","40","30","120","55","20","[""Asian""]","No","Female","2998717","null","null","learn_feedback","","","learn_feedback","25","75","in","","","","","","","","","","","","","","","","","","","","","","",""
"","","","","","canvas-keyboard-response","111","1235862","0.0-12.0-4.19","2d_cat_multi_stim_exp1","2022-4-25","12:31:46","25","75","3","9","10","40","30","120","55","20","[""Asian""]","No","Female","2998717","null","null","","","","clear_screen","","","","","","","","","","","","","","","","","","","","","","","","","",""
"","","","","","canvas-keyboard-response","112","1236374","0.0-12.0-0.20","2d_cat_multi_stim_exp1","2022-4-25","12:31:46","25","75","3","9","10","40","30","120","55","20","[""Asian""]","No","Female","2998717","null","null","","","","fixation","","","","","","","","","","","","","","","","","","","","","","","","","",""
"","","","","","canvas-keyboard-response","113","1236884","0.0-12.0-1.20","2d_cat_multi_stim_exp1","2022-4-25","12:31:46","25","75","3","9","10","40","30","120","55","20","[""Asian""]","No","Female","2998717","null","null","","","","clear_screen","","","","","","","","","","","","","","","","","","","","","","","","","",""
"","","","","","canvas-keyboard-response","114","1237542","0.0-12.0-2.20","2d_cat_multi_stim_exp1","2022-4-25","12:31:46","25","75","3","9","10","40","30","120","55","20","[""Asian""]","No","Female","2998717","648","u","learn","","","learn_trial","25","75","in","1","1","","","","","","","","","","","","","","","","","","","","",""
"","","","","","canvas-keyboard-response","115","1238052","0.0-12.0-3.20","2d_cat_multi_stim_exp1","2022-4-25","12:31:46","25","75","3","9","10","40","30","120","55","20","[""Asian""]","No","Female","2998717","null","null","learn_feedback","","","learn_feedback","25","75","in","","","","","","","","","","","","","","","","","","","","","","",""
"","","","","","canvas-keyboard-response","116","1238115","0.0-12.0-4.20","2d_cat_multi_stim_exp1","2022-4-25","12:31:46","25","75","3","9","10","40","30","120","55","20","[""Asian""]","No","Female","2998717","null","null","","","","clear_screen","","","","","","","","","","","","","","","","","","","","","","","","","",""
"","","","","","canvas-keyboard-response","117","1238619","0.0-12.0-0.21","2d_cat_multi_stim_exp1","2022-4-25","12:31:46","25","75","3","9","10","40","30","120","55","20","[""Asian""]","No","Female","2998717","null","null","","","","fixation","","","","","","","","","","","","","","","","","","","","","","","","","",""
"","","","","","canvas-keyboard-response","118","1239134","0.0-12.0-1.21","2d_cat_multi_stim_exp1","2022-4-25","12:31:46","25","75","3","9","10","40","30","120","55","20","[""Asian""]","No","Female","2998717","null","null","","","","clear_screen","","","","","","","","","","","","","","","","","","","","","","","","","",""
"","","","","","canvas-keyboard-response","119","1239751","0.0-12.0-2.21","2d_cat_multi_stim_exp1","2022-4-25","12:31:46","25","75","3","9","10","40","30","120","55","20","[""Asian""]","No","Female","2998717","608","u","learn","","","learn_trial","25","75","in","1","1","","","","","","","","","","","","","","","","","","","","",""
"","","","","","canvas-keyboard-response","120","1240263","0.0-12.0-3.21","2d_cat_multi_stim_exp1","2022-4-25","12:31:46","25","75","3","9","10","40","30","120","55","20","[""Asian""]","No","Female","2998717","null","null","learn_feedback","","","learn_feedback","25","75","in","","","","","","","","","","","","","","","","","","","","","","",""
"","","","","","canvas-keyboard-response","121","1240324","0.0-12.0-4.21","2d_cat_multi_stim_exp1","2022-4-25","12:31:46","25","75","3","9","10","40","30","120","55","20","[""Asian""]","No","Female","2998717","null","null","","","","clear_screen","","","","","","","","","","","","","","","","","","","","","","","","","",""
"","","","","","canvas-keyboard-response","122","1240833","0.0-12.0-0.22","2d_cat_multi_stim_exp1","2022-4-25","12:31:46","25","75","3","9","10","40","30","120","55","20","[""Asian""]","No","Female","2998717","null","null","","","","fixation","","","","","","","","","","","","","","","","","","","","","","","","","",""
"","","","","","canvas-keyboard-response","123","1241348","0.0-12.0-1.22","2d_cat_multi_stim_exp1","2022-4-25","12:31:46","25","75","3","9","10","40","30","120","55","20","[""Asian""]","No","Female","2998717","null","null","","","","clear_screen","","","","","","","","","","","","","","","","","","","","","","","","","",""
"","","","","","canvas-keyboard-response","124","1241847","0.0-12.0-2.22","2d_cat_multi_stim_exp1","2022-4-25","12:31:46","25","75","3","9","10","40","30","120","55","20","[""Asian""]","No","Female","2998717","488","u","learn","","","learn_trial","26.4216","67.0746","in","1","1","","","","","","","","","","","","","","","","","","","","",""
"","","","","","canvas-keyboard-response","125","1242361","0.0-12.0-3.22","2d_cat_multi_stim_exp1","2022-4-25","12:31:46","25","75","3","9","10","40","30","120","55","20","[""Asian""]","No","Female","2998717","null","null","learn_feedback","","","learn_feedback","26.4216","67.0746","in","","","","","","","","","","","","","","","","","","","","","","",""
"","","","","","canvas-keyboard-response","126","1242419","0.0-12.0-4.22","2d_cat_multi_stim_exp1","2022-4-25","12:31:46","25","75","3","9","10","40","30","120","55","20","[""Asian""]","No","Female","2998717","null","null","","","","clear_screen","","","","","","","","","","","","","","","","","","","","","","","","","",""
"","","","","","canvas-keyboard-response","127","1242928","0.0-12.0-0.23","2d_cat_multi_stim_exp1","2022-4-25","12:31:46","25","75","3","9","10","40","30","120","55","20","[""Asian""]","No","Female","2998717","null","null","","","","fixation","","","","","","","","","","","","","","","","","","","","","","","","","",""
"","","","","","canvas-keyboard-response","128","1243441","0.0-12.0-1.23","2d_cat_multi_stim_exp1","2022-4-25","12:31:46","25","75","3","9","10","40","30","120","55","20","[""Asian""]","No","Female","2998717","null","null","","","","clear_screen","","","","","","","","","","","","","","","","","","","","","","","","","",""
"","","","","","canvas-keyboard-response","129","1244022","0.0-12.0-2.23","2d_cat_multi_stim_exp1","2022-4-25","12:31:46","25","75","3","9","10","40","30","120","55","20","[""Asian""]","No","Female","2998717","573","i","learn","","","learn_trial","10","110","out","1","0","","","","","","","","","","","","","","","","","","","","",""
"","","","","","canvas-keyboard-response","130","1244535","0.0-12.0-3.23","2d_cat_multi_stim_exp1","2022-4-25","12:31:46","25","75","3","9","10","40","30","120","55","20","[""Asian""]","No","Female","2998717","null","null","learn_feedback","","","learn_feedback","10","110","out","","","","","","","","","","","","","","","","","","","","","","",""
"","","","","","canvas-keyboard-response","131","1244594","0.0-12.0-4.23","2d_cat_multi_stim_exp1","2022-4-25","12:31:46","25","75","3","9","10","40","30","120","55","20","[""Asian""]","No","Female","2998717","null","null","","","","clear_screen","","","","","","","","","","","","","","","","","","","","","","","","","",""
"","","","","","canvas-keyboard-response","132","1245104","0.0-12.0-0.24","2d_cat_multi_stim_exp1","2022-4-25","12:31:46","25","75","3","9","10","40","30","120","55","20","[""Asian""]","No","Female","2998717","null","null","","","","fixation","","","","","","","","","","","","","","","","","","","","","","","","","",""
"","","","","","canvas-keyboard-response","133","1245616","0.0-12.0-1.24","2d_cat_multi_stim_exp1","2022-4-25","12:31:46","25","75","3","9","10","40","30","120","55","20","[""Asian""]","No","Female","2998717","null","null","","","","clear_screen","","","","","","","","","","","","","","","","","","","","","","","","","",""
"","","","","","canvas-keyboard-response","134","1246462","0.0-12.0-2.24","2d_cat_multi_stim_exp1","2022-4-25","12:31:46","25","75","3","9","10","40","30","120","55","20","[""Asian""]","No","Female","2998717","838","i","learn","","","learn_trial","23.3333","100","out","1","0","","","","","","","","","","","","","","","","","","","","",""
"","","","","","canvas-keyboard-response","135","1246972","0.0-12.0-3.24","2d_cat_multi_stim_exp1","2022-4-25","12:31:46","25","75","3","9","10","40","30","120","55","20","[""Asian""]","No","Female","2998717","null","null","learn_feedback","","","learn_feedback","23.3333","100","out","","","","","","","","","","","","","","","","","","","","","","",""
"","","","","","canvas-keyboard-response","136","1247035","0.0-12.0-4.24","2d_cat_multi_stim_exp1","2022-4-25","12:31:46","25","75","3","9","10","40","30","120","55","20","[""Asian""]","No","Female","2998717","null","null","","","","clear_screen","","","","","","","","","","","","","","","","","","","","","","","","","",""
"","","","","","canvas-keyboard-response","137","1247545","0.0-12.0-0.25","2d_cat_multi_stim_exp1","2022-4-25","12:31:46","25","75","3","9","10","40","30","120","55","20","[""Asian""]","No","Female","2998717","null","null","","","","fixation","","","","","","","","","","","","","","","","","","","","","","","","","",""
"","","","","","canvas-keyboard-response","138","1248055","0.0-12.0-1.25","2d_cat_multi_stim_exp1","2022-4-25","12:31:46","25","75","3","9","10","40","30","120","55","20","[""Asian""]","No","Female","2998717","null","null","","","","clear_screen","","","","","","","","","","","","","","","","","","","","","","","","","",""
"","","","","","canvas-keyboard-response","139","1248798","0.0-12.0-2.25","2d_cat_multi_stim_exp1","2022-4-25","12:31:46","25","75","3","9","10","40","30","120","55","20","[""Asian""]","No","Female","2998717","733","u","learn","","","learn_trial","25","75","in","1","1","","","","","","","","","","","","","","","","","","","","",""
"","","","","","canvas-keyboard-response","140","1249309","0.0-12.0-3.25","2d_cat_multi_stim_exp1","2022-4-25","12:31:46","25","75","3","9","10","40","30","120","55","20","[""Asian""]","No","Female","2998717","null","null","learn_feedback","","","learn_feedback","25","75","in","","","","","","","","","","","","","","","","","","","","","","",""
"","","","","","canvas-keyboard-response","141","1249373","0.0-12.0-4.25","2d_cat_multi_stim_exp1","2022-4-25","12:31:46","25","75","3","9","10","40","30","120","55","20","[""Asian""]","No","Female","2998717","null","null","","","","clear_screen","","","","","","","","","","","","","","","","","","","","","","","","","",""
"","","","","","canvas-keyboard-response","142","1249884","0.0-12.0-0.26","2d_cat_multi_stim_exp1","2022-4-25","12:31:46","25","75","3","9","10","40","30","120","55","20","[""Asian""]","No","Female","2998717","null","null","","","","fixation","","","","","","","","","","","","","","","","","","","","","","","","","",""
"","","","","","canvas-keyboard-response","143","1250397","0.0-12.0-1.26","2d_cat_multi_stim_exp1","2022-4-25","12:31:46","25","75","3","9","10","40","30","120","55","20","[""Asian""]","No","Female","2998717","null","null","","","","clear_screen","","","","","","","","","","","","","","","","","","","","","","","","","",""
"","","","","","canvas-keyboard-response","144","1251175","0.0-12.0-2.26","2d_cat_multi_stim_exp1","2022-4-25","12:31:46","25","75","3","9","10","40","30","120","55","20","[""Asian""]","No","Female","2998717","765","i","learn","","","learn_trial","33.3333","90","out","1","0","","","","","","","","","","","","","","","","","","","","",""
"","","","","","canvas-keyboard-response","145","1251687","0.0-12.0-3.26","2d_cat_multi_stim_exp1","2022-4-25","12:31:46","25","75","3","9","10","40","30","120","55","20","[""Asian""]","No","Female","2998717","null","null","learn_feedback","","","learn_feedback","33.3333","90","out","","","","","","","","","","","","","","","","","","","","","","",""
"","","","","","canvas-keyboard-response","146","1251746","0.0-12.0-4.26","2d_cat_multi_stim_exp1","2022-4-25","12:31:46","25","75","3","9","10","40","30","120","55","20","[""Asian""]","No","Female","2998717","null","null","","","","clear_screen","","","","","","","","","","","","","","","","","","","","","","","","","",""
"","","","","","canvas-keyboard-response","147","1252255","0.0-12.0-0.27","2d_cat_multi_stim_exp1","2022-4-25","12:31:46","25","75","3","9","10","40","30","120","55","20","[""Asian""]","No","Female","2998717","null","null","","","","fixation","","","","","","","","","","","","","","","","","","","","","","","","","",""
"","","","","","canvas-keyboard-response","148","1252768","0.0-12.0-1.27","2d_cat_multi_stim_exp1","2022-4-25","12:31:46","25","75","3","9","10","40","30","120","55","20","[""Asian""]","No","Female","2998717","null","null","","","","clear_screen","","","","","","","","","","","","","","","","","","","","","","","","","",""
"","","","","","canvas-keyboard-response","149","1253399","0.0-12.0-2.27","2d_cat_multi_stim_exp1","2022-4-25","12:31:46","25","75","3","9","10","40","30","120","55","20","[""Asian""]","No","Female","2998717","619","u","learn","","","learn_trial","22.1081","72.6057","in","1","1","","","","","","","","","","","","","","","","","","","","",""
"","","","","","canvas-keyboard-response","150","1253910","0.0-12.0-3.27","2d_cat_multi_stim_exp1","2022-4-25","12:31:46","25","75","3","9","10","40","30","120","55","20","[""Asian""]","No","Female","2998717","null","null","learn_feedback","","","learn_feedback","22.1081","72.6057","in","","","","","","","","","","","","","","","","","","","","","","",""
"","","","","","canvas-keyboard-response","151","1253973","0.0-12.0-4.27","2d_cat_multi_stim_exp1","2022-4-25","12:31:46","25","75","3","9","10","40","30","120","55","20","[""Asian""]","No","Female","2998717","null","null","","","","clear_screen","","","","","","","","","","","","","","","","","","","","","","","","","",""
"","","","","","canvas-keyboard-response","152","1254482","0.0-12.0-0.28","2d_cat_multi_stim_exp1","2022-4-25","12:31:46","25","75","3","9","10","40","30","120","55","20","[""Asian""]","No","Female","2998717","null","null","","","","fixation","","","","","","","","","","","","","","","","","","","","","","","","","",""
"","","","","","canvas-keyboard-response","153","1254992","0.0-12.0-1.28","2d_cat_multi_stim_exp1","2022-4-25","12:31:46","25","75","3","9","10","40","30","120","55","20","[""Asian""]","No","Female","2998717","null","null","","","","clear_screen","","","","","","","","","","","","","","","","","","","","","","","","","",""
"","","","","","canvas-keyboard-response","154","1255783","0.0-12.0-2.28","2d_cat_multi_stim_exp1","2022-4-25","12:31:46","25","75","3","9","10","40","30","120","55","20","[""Asian""]","No","Female","2998717","778","i","learn","","","learn_trial","13.3333","60","out","1","0","","","","","","","","","","","","","","","","","","","","",""
"","","","","","canvas-keyboard-response","155","1256295","0.0-12.0-3.28","2d_cat_multi_stim_exp1","2022-4-25","12:31:46","25","75","3","9","10","40","30","120","55","20","[""Asian""]","No","Female","2998717","null","null","learn_feedback","","","learn_feedback","13.3333","60","out","","","","","","","","","","","","","","","","","","","","","","",""
"","","","","","canvas-keyboard-response","156","1256360","0.0-12.0-4.28","2d_cat_multi_stim_exp1","2022-4-25","12:31:46","25","75","3","9","10","40","30","120","55","20","[""Asian""]","No","Female","2998717","null","null","","","","clear_screen","","","","","","","","","","","","","","","","","","","","","","","","","",""
"","","","","","canvas-keyboard-response","157","1256869","0.0-12.0-0.29","2d_cat_multi_stim_exp1","2022-4-25","12:31:46","25","75","3","9","10","40","30","120","55","20","[""Asian""]","No","Female","2998717","null","null","","","","fixation","","","","","","","","","","","","","","","","","","","","","","","","","",""
"","","","","","canvas-keyboard-response","158","1257384","0.0-12.0-1.29","2d_cat_multi_stim_exp1","2022-4-25","12:31:46","25","75","3","9","10","40","30","120","55","20","[""Asian""]","No","Female","2998717","null","null","","","","clear_screen","","","","","","","","","","","","","","","","","","","","","","","","","",""
"","","","","","canvas-keyboard-response","159","1258102","0.0-12.0-2.29","2d_cat_multi_stim_exp1","2022-4-25","12:31:46","25","75","3","9","10","40","30","120","55","20","[""Asian""]","No","Female","2998717","710","i","learn","","","learn_trial","23.3333","40","out","1","0","","","","","","","","","","","","","","","","","","","","",""
"","","","","","canvas-keyboard-response","160","1258610","0.0-12.0-3.29","2d_cat_multi_stim_exp1","2022-4-25","12:31:46","25","75","3","9","10","40","30","120","55","20","[""Asian""]","No","Female","2998717","null","null","learn_feedback","","","learn_feedback","23.3333","40","out","","","","","","","","","","","","","","","","","","","","","","",""
"","","","","","canvas-keyboard-response","161","1258672","0.0-12.0-4.29","2d_cat_multi_stim_exp1","2022-4-25","12:31:46","25","75","3","9","10","40","30","120","55","20","[""Asian""]","No","Female","2998717","null","null","","","","clear_screen","","","","","","","","","","","","","","","","","","","","","","","","","",""
"","","","","","canvas-keyboard-response","162","1259181","0.0-12.0-0.30","2d_cat_multi_stim_exp1","2022-4-25","12:31:46","25","75","3","9","10","40","30","120","55","20","[""Asian""]","No","Female","2998717","null","null","","","","fixation","","","","","","","","","","","","","","","","","","","","","","","","","",""
"","","","","","canvas-keyboard-response","163","1259694","0.0-12.0-1.30","2d_cat_multi_stim_exp1","2022-4-25","12:31:46","25","75","3","9","10","40","30","120","55","20","[""Asian""]","No","Female","2998717","null","null","","","","clear_screen","","","","","","","","","","","","","","","","","","","","","","","","","",""
"","","","","","canvas-keyboard-response","164","1260263","0.0-12.0-2.30","2d_cat_multi_stim_exp1","2022-4-25","12:31:46","25","75","3","9","10","40","30","120","55","20","[""Asian""]","No","Female","2998717","558","i","learn","","","learn_trial","16.6667","50","out","1","0","","","","","","","","","","","","","","","","","","","","",""
"","","","","","canvas-keyboard-response","165","1260775","0.0-12.0-3.30","2d_cat_multi_stim_exp1","2022-4-25","12:31:46","25","75","3","9","10","40","30","120","55","20","[""Asian""]","No","Female","2998717","null","null","learn_feedback","","","learn_feedback","16.6667","50","out","","","","","","","","","","","","","","","","","","","","","","",""
"","","","","","canvas-keyboard-response","166","1260835","0.0-12.0-4.30","2d_cat_multi_stim_exp1","2022-4-25","12:31:46","25","75","3","9","10","40","30","120","55","20","[""Asian""]","No","Female","2998717","null","null","","","","clear_screen","","","","","","","","","","","","","","","","","","","","","","","","","",""
"","","","","","canvas-keyboard-response","167","1261344","0.0-12.0-0.31","2d_cat_multi_stim_exp1","2022-4-25","12:31:46","25","75","3","9","10","40","30","120","55","20","[""Asian""]","No","Female","2998717","null","null","","","","fixation","","","","","","","","","","","","","","","","","","","","","","","","","",""
"","","","","","canvas-keyboard-response","168","1261856","0.0-12.0-1.31","2d_cat_multi_stim_exp1","2022-4-25","12:31:46","25","75","3","9","10","40","30","120","55","20","[""Asian""]","No","Female","2998717","null","null","","","","clear_screen","","","","","","","","","","","","","","","","","","","","","","","","","",""
"","","","","","canvas-keyboard-response","169","1262488","0.0-12.0-2.31","2d_cat_multi_stim_exp1","2022-4-25","12:31:46","25","75","3","9","10","40","30","120","55","20","[""Asian""]","No","Female","2998717","622","u","learn","","","learn_trial","27.5753","79.6161","in","1","1","","","","","","","","","","","","","","","","","","","","",""
"","","","","","canvas-keyboard-response","170","1262995","0.0-12.0-3.31","2d_cat_multi_stim_exp1","2022-4-25","12:31:46","25","75","3","9","10","40","30","120","55","20","[""Asian""]","No","Female","2998717","null","null","learn_feedback","","","learn_feedback","27.5753","79.6161","in","","","","","","","","","","","","","","","","","","","","","","",""
"","","","","","canvas-keyboard-response","171","1263059","0.0-12.0-4.31","2d_cat_multi_stim_exp1","2022-4-25","12:31:46","25","75","3","9","10","40","30","120","55","20","[""Asian""]","No","Female","2998717","null","null","","","","clear_screen","","","","","","","","","","","","","","","","","","","","","","","","","",""
"","","","","","canvas-keyboard-response","172","1263568","0.0-12.0-0.32","2d_cat_multi_stim_exp1","2022-4-25","12:31:46","25","75","3","9","10","40","30","120","55","20","[""Asian""]","No","Female","2998717","null","null","","","","fixation","","","","","","","","","","","","","","","","","","","","","","","","","",""
"","","","","","canvas-keyboard-response","173","1264080","0.0-12.0-1.32","2d_cat_multi_stim_exp1","2022-4-25","12:31:46","25","75","3","9","10","40","30","120","55","20","[""Asian""]","No","Female","2998717","null","null","","","","clear_screen","","","","","","","","","","","","","","","","","","","","","","","","","",""
"","","","","","canvas-keyboard-response","174","1264680","0.0-12.0-2.32","2d_cat_multi_stim_exp1","2022-4-25","12:31:46","25","75","3","9","10","40","30","120","55","20","[""Asian""]","No","Female","2998717","588","u","learn","","","learn_trial","24.8654","83.9909","in","1","1","","","","","","","","","","","","","","","","","","","","",""
"","","","","","canvas-keyboard-response","175","1265188","0.0-12.0-3.32","2d_cat_multi_stim_exp1","2022-4-25","12:31:46","25","75","3","9","10","40","30","120","55","20","[""Asian""]","No","Female","2998717","null","null","learn_feedback","","","learn_feedback","24.8654","83.9909","in","","","","","","","","","","","","","","","","","","","","","","",""
"","","","","","canvas-keyboard-response","176","1265249","0.0-12.0-4.32","2d_cat_multi_stim_exp1","2022-4-25","12:31:46","25","75","3","9","10","40","30","120","55","20","[""Asian""]","No","Female","2998717","null","null","","","","clear_screen","","","","","","","","","","","","","","","","","","","","","","","","","",""
"","","","","","canvas-keyboard-response","177","1265758","0.0-12.0-0.33","2d_cat_multi_stim_exp1","2022-4-25","12:31:46","25","75","3","9","10","40","30","120","55","20","[""Asian""]","No","Female","2998717","null","null","","","","fixation","","","","","","","","","","","","","","","","","","","","","","","","","",""
"","","","","","canvas-keyboard-response","178","1266271","0.0-12.0-1.33","2d_cat_multi_stim_exp1","2022-4-25","12:31:46","25","75","3","9","10","40","30","120","55","20","[""Asian""]","No","Female","2998717","null","null","","","","clear_screen","","","","","","","","","","","","","","","","","","","","","","","","","",""
"","","","","","canvas-keyboard-response","179","1270063","0.0-12.0-2.33","2d_cat_multi_stim_exp1","2022-4-25","12:31:46","25","75","3","9","10","40","30","120","55","20","[""Asian""]","No","Female","2998717","3781","u","learn","","","learn_trial","40","80","out","0","1","","","","","","","","","","","","","","","","","","","","",""
"","","","","","canvas-keyboard-response","180","1271075","0.0-12.0-3.33","2d_cat_multi_stim_exp1","2022-4-25","12:31:46","25","75","3","9","10","40","30","120","55","20","[""Asian""]","No","Female","2998717","null","null","learn_feedback","","","learn_feedback","40","80","out","","","","","","","","","","","","","","","","","","","","","","",""
"","","","","","canvas-keyboard-response","181","1271138","0.0-12.0-4.33","2d_cat_multi_stim_exp1","2022-4-25","12:31:46","25","75","3","9","10","40","30","120","55","20","[""Asian""]","No","Female","2998717","null","null","","","","clear_screen","","","","","","","","","","","","","","","","","","","","","","","","","",""
"","","","","","canvas-keyboard-response","182","1271646","0.0-12.0-0.34","2d_cat_multi_stim_exp1","2022-4-25","12:31:46","25","75","3","9","10","40","30","120","55","20","[""Asian""]","No","Female","2998717","null","null","","","","fixation","","","","","","","","","","","","","","","","","","","","","","","","","",""
"","","","","","canvas-keyboard-response","183","1272154","0.0-12.0-1.34","2d_cat_multi_stim_exp1","2022-4-25","12:31:46","25","75","3","9","10","40","30","120","55","20","[""Asian""]","No","Female","2998717","null","null","","","","clear_screen","","","","","","","","","","","","","","","","","","","","","","","","","",""
"","","","","","canvas-keyboard-response","184","1272759","0.0-12.0-2.34","2d_cat_multi_stim_exp1","2022-4-25","12:31:46","25","75","3","9","10","40","30","120","55","20","[""Asian""]","No","Female","2998717","593","i","learn","","","learn_trial","23.3333","50","out","1","0","","","","","","","","","","","","","","","","","","","","",""
"","","","","","canvas-keyboard-response","185","1273269","0.0-12.0-3.34","2d_cat_multi_stim_exp1","2022-4-25","12:31:46","25","75","3","9","10","40","30","120","55","20","[""Asian""]","No","Female","2998717","null","null","learn_feedback","","","learn_feedback","23.3333","50","out","","","","","","","","","","","","","","","","","","","","","","",""
"","","","","","canvas-keyboard-response","186","1273332","0.0-12.0-4.34","2d_cat_multi_stim_exp1","2022-4-25","12:31:46","25","75","3","9","10","40","30","120","55","20","[""Asian""]","No","Female","2998717","null","null","","","","clear_screen","","","","","","","","","","","","","","","","","","","","","","","","","",""
"","","","","","canvas-keyboard-response","187","1273843","0.0-12.0-0.35","2d_cat_multi_stim_exp1","2022-4-25","12:31:46","25","75","3","9","10","40","30","120","55","20","[""Asian""]","No","Female","2998717","null","null","","","","fixation","","","","","","","","","","","","","","","","","","","","","","","","","",""
"","","","","","canvas-keyboard-response","188","1274354","0.0-12.0-1.35","2d_cat_multi_stim_exp1","2022-4-25","12:31:46","25","75","3","9","10","40","30","120","55","20","[""Asian""]","No","Female","2998717","null","null","","","","clear_screen","","","","","","","","","","","","","","","","","","","","","","","","","",""
"","","","","","canvas-keyboard-response","189","1275039","0.0-12.0-2.35","2d_cat_multi_stim_exp1","2022-4-25","12:31:46","25","75","3","9","10","40","30","120","55","20","[""Asian""]","No","Female","2998717","675","u","learn","","","learn_trial","27.8087","71.8376","in","1","1","","","","","","","","","","","","","","","","","","","","",""
"","","","","","canvas-keyboard-response","190","1275550","0.0-12.0-3.35","2d_cat_multi_stim_exp1","2022-4-25","12:31:46","25","75","3","9","10","40","30","120","55","20","[""Asian""]","No","Female","2998717","null","null","learn_feedback","","","learn_feedback","27.8087","71.8376","in","","","","","","","","","","","","","","","","","","","","","","",""
"","","","","","canvas-keyboard-response","191","1275608","0.0-12.0-4.35","2d_cat_multi_stim_exp1","2022-4-25","12:31:46","25","75","3","9","10","40","30","120","55","20","[""Asian""]","No","Female","2998717","null","null","","","","clear_screen","","","","","","","","","","","","","","","","","","","","","","","","","",""
"","","","","","canvas-keyboard-response","192","1276120","0.0-12.0-0.36","2d_cat_multi_stim_exp1","2022-4-25","12:31:46","25","75","3","9","10","40","30","120","55","20","[""Asian""]","No","Female","2998717","null","null","","","","fixation","","","","","","","","","","","","","","","","","","","","","","","","","",""
"","","","","","canvas-keyboard-response","193","1276629","0.0-12.0-1.36","2d_cat_multi_stim_exp1","2022-4-25","12:31:46","25","75","3","9","10","40","30","120","55","20","[""Asian""]","No","Female","2998717","null","null","","","","clear_screen","","","","","","","","","","","","","","","","","","","","","","","","","",""
"","","","","","canvas-keyboard-response","194","1277223","0.0-12.0-2.36","2d_cat_multi_stim_exp1","2022-4-25","12:31:46","25","75","3","9","10","40","30","120","55","20","[""Asian""]","No","Female","2998717","585","i","learn","","","learn_trial","20","50","out","1","0","","","","","","","","","","","","","","","","","","","","",""
"","","","","","canvas-keyboard-response","195","1277732","0.0-12.0-3.36","2d_cat_multi_stim_exp1","2022-4-25","12:31:46","25","75","3","9","10","40","30","120","55","20","[""Asian""]","No","Female","2998717","null","null","learn_feedback","","","learn_feedback","20","50","out","","","","","","","","","","","","","","","","","","","","","","",""
"","","","","","canvas-keyboard-response","196","1277792","0.0-12.0-4.36","2d_cat_multi_stim_exp1","2022-4-25","12:31:46","25","75","3","9","10","40","30","120","55","20","[""Asian""]","No","Female","2998717","null","null","","","","clear_screen","","","","","","","","","","","","","","","","","","","","","","","","","",""
"","","","","","canvas-keyboard-response","197","1278303","0.0-12.0-0.37","2d_cat_multi_stim_exp1","2022-4-25","12:31:46","25","75","3","9","10","40","30","120","55","20","[""Asian""]","No","Female","2998717","null","null","","","","fixation","","","","","","","","","","","","","","","","","","","","","","","","","",""
"","","","","","canvas-keyboard-response","198","1278810","0.0-12.0-1.37","2d_cat_multi_stim_exp1","2022-4-25","12:31:46","25","75","3","9","10","40","30","120","55","20","[""Asian""]","No","Female","2998717","null","null","","","","clear_screen","","","","","","","","","","","","","","","","","","","","","","","","","",""
"","","","","","canvas-keyboard-response","199","1280159","0.0-12.0-2.37","2d_cat_multi_stim_exp1","2022-4-25","12:31:46","25","75","3","9","10","40","30","120","55","20","[""Asian""]","No","Female","2998717","1339","u","learn","","","learn_trial","26.6667","60","out","0","1","","","","","","","","","","","","","","","","","","","","",""
"","","","","","canvas-keyboard-response","200","1281169","0.0-12.0-3.37","2d_cat_multi_stim_exp1","2022-4-25","12:31:46","25","75","3","9","10","40","30","120","55","20","[""Asian""]","No","Female","2998717","null","null","learn_feedback","","","learn_feedback","26.6667","60","out","","","","","","","","","","","","","","","","","","","","","","",""
"","","","","","canvas-keyboard-response","201","1281232","0.0-12.0-4.37","2d_cat_multi_stim_exp1","2022-4-25","12:31:46","25","75","3","9","10","40","30","120","55","20","[""Asian""]","No","Female","2998717","null","null","","","","clear_screen","","","","","","","","","","","","","","","","","","","","","","","","","",""
"","","","","","canvas-keyboard-response","202","1281742","0.0-12.0-0.38","2d_cat_multi_stim_exp1","2022-4-25","12:31:46","25","75","3","9","10","40","30","120","55","20","[""Asian""]","No","Female","2998717","null","null","","","","fixation","","","","","","","","","","","","","","","","","","","","","","","","","",""
"","","","","","canvas-keyboard-response","203","1282253","0.0-12.0-1.38","2d_cat_multi_stim_exp1","2022-4-25","12:31:46","25","75","3","9","10","40","30","120","55","20","[""Asian""]","No","Female","2998717","null","null","","","","clear_screen","","","","","","","","","","","","","","","","","","","","","","","","","",""
"","","","","","canvas-keyboard-response","204","1282832","0.0-12.0-2.38","2d_cat_multi_stim_exp1","2022-4-25","12:31:46","25","75","3","9","10","40","30","120","55","20","[""Asian""]","No","Female","2998717","570","i","learn","","","learn_trial","10","90","out","1","0","","","","","","","","","","","","","","","","","","","","",""
"","","","","","canvas-keyboard-response","205","1283342","0.0-12.0-3.38","2d_cat_multi_stim_exp1","2022-4-25","12:31:46","25","75","3","9","10","40","30","120","55","20","[""Asian""]","No","Female","2998717","null","null","learn_feedback","","","learn_feedback","10","90","out","","","","","","","","","","","","","","","","","","","","","","",""
"","","","","","canvas-keyboard-response","206","1283406","0.0-12.0-4.38","2d_cat_multi_stim_exp1","2022-4-25","12:31:46","25","75","3","9","10","40","30","120","55","20","[""Asian""]","No","Female","2998717","null","null","","","","clear_screen","","","","","","","","","","","","","","","","","","","","","","","","","",""
"","","","","","canvas-keyboard-response","207","1283921","0.0-12.0-0.39","2d_cat_multi_stim_exp1","2022-4-25","12:31:46","25","75","3","9","10","40","30","120","55","20","[""Asian""]","No","Female","2998717","null","null","","","","fixation","","","","","","","","","","","","","","","","","","","","","","","","","",""
"","","","","","canvas-keyboard-response","208","1284430","0.0-12.0-1.39","2d_cat_multi_stim_exp1","2022-4-25","12:31:46","25","75","3","9","10","40","30","120","55","20","[""Asian""]","No","Female","2998717","null","null","","","","clear_screen","","","","","","","","","","","","","","","","","","","","","","","","","",""
"","","","","","canvas-keyboard-response","209","1284975","0.0-12.0-2.39","2d_cat_multi_stim_exp1","2022-4-25","12:31:46","25","75","3","9","10","40","30","120","55","20","[""Asian""]","No","Female","2998717","535","i","learn","","","learn_trial","36.6667","100","out","1","0","","","","","","","","","","","","","","","","","","","","",""
"","","","","","canvas-keyboard-response","210","1285485","0.0-12.0-3.39","2d_cat_multi_stim_exp1","2022-4-25","12:31:46","25","75","3","9","10","40","30","120","55","20","[""Asian""]","No","Female","2998717","null","null","learn_feedback","","","learn_feedback","36.6667","100","out","","","","","","","","","","","","","","","","","","","","","","",""
"","","","","","canvas-keyboard-response","211","1285548","0.0-12.0-4.39","2d_cat_multi_stim_exp1","2022-4-25","12:31:46","25","75","3","9","10","40","30","120","55","20","[""Asian""]","No","Female","2998717","null","null","","","","clear_screen","","","","","","","","","","","","","","","","","","","","","","","","","",""
"","","","","","canvas-keyboard-response","212","1286057","0.0-12.0-0.40","2d_cat_multi_stim_exp1","2022-4-25","12:31:46","25","75","3","9","10","40","30","120","55","20","[""Asian""]","No","Female","2998717","null","null","","","","fixation","","","","","","","","","","","","","","","","","","","","","","","","","",""
"","","","","","canvas-keyboard-response","213","1286570","0.0-12.0-1.40","2d_cat_multi_stim_exp1","2022-4-25","12:31:46","25","75","3","9","10","40","30","120","55","20","[""Asian""]","No","Female","2998717","null","null","","","","clear_screen","","","","","","","","","","","","","","","","","","","","","","","","","",""
"","","","","","canvas-keyboard-response","214","1287409","0.0-12.0-2.40","2d_cat_multi_stim_exp1","2022-4-25","12:31:46","25","75","3","9","10","40","30","120","55","20","[""Asian""]","No","Female","2998717","827","u","learn","","","learn_trial","28","75","in","1","1","","","","","","","","","","","","","","","","","","","","",""
"","","","","","canvas-keyboard-response","215","1287917","0.0-12.0-3.40","2d_cat_multi_stim_exp1","2022-4-25","12:31:46","25","75","3","9","10","40","30","120","55","20","[""Asian""]","No","Female","2998717","null","null","learn_feedback","","","learn_feedback","28","75","in","","","","","","","","","","","","","","","","","","","","","","",""
"","","","","","canvas-keyboard-response","216","1287976","0.0-12.0-4.40","2d_cat_multi_stim_exp1","2022-4-25","12:31:46","25","75","3","9","10","40","30","120","55","20","[""Asian""]","No","Female","2998717","null","null","","","","clear_screen","","","","","","","","","","","","","","","","","","","","","","","","","",""
"","","","","","canvas-keyboard-response","217","1288484","0.0-12.0-0.41","2d_cat_multi_stim_exp1","2022-4-25","12:31:46","25","75","3","9","10","40","30","120","55","20","[""Asian""]","No","Female","2998717","null","null","","","","fixation","","","","","","","","","","","","","","","","","","","","","","","","","",""
"","","","","","canvas-keyboard-response","218","1288994","0.0-12.0-1.41","2d_cat_multi_stim_exp1","2022-4-25","12:31:46","25","75","3","9","10","40","30","120","55","20","[""Asian""]","No","Female","2998717","null","null","","","","clear_screen","","","","","","","","","","","","","","","","","","","","","","","","","",""
"","","","","","canvas-keyboard-response","219","1289630","0.0-12.0-2.41","2d_cat_multi_stim_exp1","2022-4-25","12:31:46","25","75","3","9","10","40","30","120","55","20","[""Asian""]","No","Female","2998717","626","u","learn","","","learn_trial","25","75","in","1","1","","","","","","","","","","","","","","","","","","","","",""
"","","","","","canvas-keyboard-response","220","1290139","0.0-12.0-3.41","2d_cat_multi_stim_exp1","2022-4-25","12:31:46","25","75","3","9","10","40","30","120","55","20","[""Asian""]","No","Female","2998717","null","null","learn_feedback","","","learn_feedback","25","75","in","","","","","","","","","","","","","","","","","","","","","","",""
"","","","","","canvas-keyboard-response","221","1290198","0.0-12.0-4.41","2d_cat_multi_stim_exp1","2022-4-25","12:31:46","25","75","3","9","10","40","30","120","55","20","[""Asian""]","No","Female","2998717","null","null","","","","clear_screen","","","","","","","","","","","","","","","","","","","","","","","","","",""
"","","","","","canvas-keyboard-response","222","1290706","0.0-12.0-0.42","2d_cat_multi_stim_exp1","2022-4-25","12:31:46","25","75","3","9","10","40","30","120","55","20","[""Asian""]","No","Female","2998717","null","null","","","","fixation","","","","","","","","","","","","","","","","","","","","","","","","","",""
"","","","","","canvas-keyboard-response","223","1291218","0.0-12.0-1.42","2d_cat_multi_stim_exp1","2022-4-25","12:31:46","25","75","3","9","10","40","30","120","55","20","[""Asian""]","No","Female","2998717","null","null","","","","clear_screen","","","","","","","","","","","","","","","","","","","","","","","","","",""
"","","","","","canvas-keyboard-response","224","1291871","0.0-12.0-2.42","2d_cat_multi_stim_exp1","2022-4-25","12:31:46","25","75","3","9","10","40","30","120","55","20","[""Asian""]","No","Female","2998717","644","i","learn","","","learn_trial","10","80","out","1","0","","","","","","","","","","","","","","","","","","","","",""
"","","","","","canvas-keyboard-response","225","1292383","0.0-12.0-3.42","2d_cat_multi_stim_exp1","2022-4-25","12:31:46","25","75","3","9","10","40","30","120","55","20","[""Asian""]","No","Female","2998717","null","null","learn_feedback","","","learn_feedback","10","80","out","","","","","","","","","","","","","","","","","","","","","","",""
"","","","","","canvas-keyboard-response","226","1292442","0.0-12.0-4.42","2d_cat_multi_stim_exp1","2022-4-25","12:31:46","25","75","3","9","10","40","30","120","55","20","[""Asian""]","No","Female","2998717","null","null","","","","clear_screen","","","","","","","","","","","","","","","","","","","","","","","","","",""
"","","","","","canvas-keyboard-response","227","1292950","0.0-12.0-0.43","2d_cat_multi_stim_exp1","2022-4-25","12:31:46","25","75","3","9","10","40","30","120","55","20","[""Asian""]","No","Female","2998717","null","null","","","","fixation","","","","","","","","","","","","","","","","","","","","","","","","","",""
"","","","","","canvas-keyboard-response","228","1293464","0.0-12.0-1.43","2d_cat_multi_stim_exp1","2022-4-25","12:31:46","25","75","3","9","10","40","30","120","55","20","[""Asian""]","No","Female","2998717","null","null","","","","clear_screen","","","","","","","","","","","","","","","","","","","","","","","","","",""
"","","","","","canvas-keyboard-response","229","1294143","0.0-12.0-2.43","2d_cat_multi_stim_exp1","2022-4-25","12:31:46","25","75","3","9","10","40","30","120","55","20","[""Asian""]","No","Female","2998717","668","i","learn","","","learn_trial","36.6667","40","out","1","0","","","","","","","","","","","","","","","","","","","","",""
"","","","","","canvas-keyboard-response","230","1294655","0.0-12.0-3.43","2d_cat_multi_stim_exp1","2022-4-25","12:31:46","25","75","3","9","10","40","30","120","55","20","[""Asian""]","No","Female","2998717","null","null","learn_feedback","","","learn_feedback","36.6667","40","out","","","","","","","","","","","","","","","","","","","","","","",""
"","","","","","canvas-keyboard-response","231","1294718","0.0-12.0-4.43","2d_cat_multi_stim_exp1","2022-4-25","12:31:46","25","75","3","9","10","40","30","120","55","20","[""Asian""]","No","Female","2998717","null","null","","","","clear_screen","","","","","","","","","","","","","","","","","","","","","","","","","",""
"","","","","","canvas-keyboard-response","232","1295226","0.0-12.0-0.44","2d_cat_multi_stim_exp1","2022-4-25","12:31:46","25","75","3","9","10","40","30","120","55","20","[""Asian""]","No","Female","2998717","null","null","","","","fixation","","","","","","","","","","","","","","","","","","","","","","","","","",""
"","","","","","canvas-keyboard-response","233","1295737","0.0-12.0-1.44","2d_cat_multi_stim_exp1","2022-4-25","12:31:46","25","75","3","9","10","40","30","120","55","20","[""Asian""]","No","Female","2998717","null","null","","","","clear_screen","","","","","","","","","","","","","","","","","","","","","","","","","",""
"","","","","","canvas-keyboard-response","234","1296439","0.0-12.0-2.44","2d_cat_multi_stim_exp1","2022-4-25","12:31:46","25","75","3","9","10","40","30","120","55","20","[""Asian""]","No","Female","2998717","690","u","learn","","","learn_trial","25","75","in","1","1","","","","","","","","","","","","","","","","","","","","",""
"","","","","","canvas-keyboard-response","235","1296948","0.0-12.0-3.44","2d_cat_multi_stim_exp1","2022-4-25","12:31:46","25","75","3","9","10","40","30","120","55","20","[""Asian""]","No","Female","2998717","null","null","learn_feedback","","","learn_feedback","25","75","in","","","","","","","","","","","","","","","","","","","","","","",""
"","","","","","canvas-keyboard-response","236","1297012","0.0-12.0-4.44","2d_cat_multi_stim_exp1","2022-4-25","12:31:46","25","75","3","9","10","40","30","120","55","20","[""Asian""]","No","Female","2998717","null","null","","","","clear_screen","","","","","","","","","","","","","","","","","","","","","","","","","",""
"","","","","","canvas-keyboard-response","237","1297524","0.0-12.0-0.45","2d_cat_multi_stim_exp1","2022-4-25","12:31:46","25","75","3","9","10","40","30","120","55","20","[""Asian""]","No","Female","2998717","null","null","","","","fixation","","","","","","","","","","","","","","","","","","","","","","","","","",""
"","","","","","canvas-keyboard-response","238","1298034","0.0-12.0-1.45","2d_cat_multi_stim_exp1","2022-4-25","12:31:46","25","75","3","9","10","40","30","120","55","20","[""Asian""]","No","Female","2998717","null","null","","","","clear_screen","","","","","","","","","","","","","","","","","","","","","","","","","",""
"","","","","","canvas-keyboard-response","239","1299615","0.0-12.0-2.45","2d_cat_multi_stim_exp1","2022-4-25","12:31:46","25","75","3","9","10","40","30","120","55","20","[""Asian""]","No","Female","2998717","1569","i","learn","","","learn_trial","40","120","out","1","0","","","","","","","","","","","","","","","","","","","","",""
"","","","","","canvas-keyboard-response","240","1300126","0.0-12.0-3.45","2d_cat_multi_stim_exp1","2022-4-25","12:31:46","25","75","3","9","10","40","30","120","55","20","[""Asian""]","No","Female","2998717","null","null","learn_feedback","","","learn_feedback","40","120","out","","","","","","","","","","","","","","","","","","","","","","",""
"","","","","","canvas-keyboard-response","241","1300186","0.0-12.0-4.45","2d_cat_multi_stim_exp1","2022-4-25","12:31:46","25","75","3","9","10","40","30","120","55","20","[""Asian""]","No","Female","2998717","null","null","","","","clear_screen","","","","","","","","","","","","","","","","","","","","","","","","","",""
"","","","","","canvas-keyboard-response","242","1300696","0.0-12.0-0.46","2d_cat_multi_stim_exp1","2022-4-25","12:31:46","25","75","3","9","10","40","30","120","55","20","[""Asian""]","No","Female","2998717","null","null","","","","fixation","","","","","","","","","","","","","","","","","","","","","","","","","",""
"","","","","","canvas-keyboard-response","243","1301208","0.0-12.0-1.46","2d_cat_multi_stim_exp1","2022-4-25","12:31:46","25","75","3","9","10","40","30","120","55","20","[""Asian""]","No","Female","2998717","null","null","","","","clear_screen","","","","","","","","","","","","","","","","","","","","","","","","","",""
"","","","","","canvas-keyboard-response","244","1302607","0.0-12.0-2.46","2d_cat_multi_stim_exp1","2022-4-25","12:31:46","25","75","3","9","10","40","30","120","55","20","[""Asian""]","No","Female","2998717","1388","u","learn","","","learn_trial","26.8705","82.0365","in","1","1","","","","","","","","","","","","","","","","","","","","",""
"","","","","","canvas-keyboard-response","245","1303115","0.0-12.0-3.46","2d_cat_multi_stim_exp1","2022-4-25","12:31:46","25","75","3","9","10","40","30","120","55","20","[""Asian""]","No","Female","2998717","null","null","learn_feedback","","","learn_feedback","26.8705","82.0365","in","","","","","","","","","","","","","","","","","","","","","","",""
"","","","","","canvas-keyboard-response","246","1303179","0.0-12.0-4.46","2d_cat_multi_stim_exp1","2022-4-25","12:31:46","25","75","3","9","10","40","30","120","55","20","[""Asian""]","No","Female","2998717","null","null","","","","clear_screen","","","","","","","","","","","","","","","","","","","","","","","","","",""
"","","","","","canvas-keyboard-response","247","1303688","0.0-12.0-0.47","2d_cat_multi_stim_exp1","2022-4-25","12:31:46","25","75","3","9","10","40","30","120","55","20","[""Asian""]","No","Female","2998717","null","null","","","","fixation","","","","","","","","","","","","","","","","","","","","","","","","","",""
"","","","","","canvas-keyboard-response","248","1304198","0.0-12.0-1.47","2d_cat_multi_stim_exp1","2022-4-25","12:31:46","25","75","3","9","10","40","30","120","55","20","[""Asian""]","No","Female","2998717","null","null","","","","clear_screen","","","","","","","","","","","","","","","","","","","","","","","","","",""
"","","","","","canvas-keyboard-response","249","1304983","0.0-12.0-2.47","2d_cat_multi_stim_exp1","2022-4-25","12:31:46","25","75","3","9","10","40","30","120","55","20","[""Asian""]","No","Female","2998717","777","i","learn","","","learn_trial","10","100","out","1","0","","","","","","","","","","","","","","","","","","","","",""
"","","","","","canvas-keyboard-response","250","1305493","0.0-12.0-3.47","2d_cat_multi_stim_exp1","2022-4-25","12:31:46","25","75","3","9","10","40","30","120","55","20","[""Asian""]","No","Female","2998717","null","null","learn_feedback","","","learn_feedback","10","100","out","","","","","","","","","","","","","","","","","","","","","","",""
"","","","","","canvas-keyboard-response","251","1305553","0.0-12.0-4.47","2d_cat_multi_stim_exp1","2022-4-25","12:31:46","25","75","3","9","10","40","30","120","55","20","[""Asian""]","No","Female","2998717","null","null","","","","clear_screen","","","","","","","","","","","","","","","","","","","","","","","","","",""
"","","","","","canvas-keyboard-response","252","1306062","0.0-12.0-0.48","2d_cat_multi_stim_exp1","2022-4-25","12:31:46","25","75","3","9","10","40","30","120","55","20","[""Asian""]","No","Female","2998717","null","null","","","","fixation","","","","","","","","","","","","","","","","","","","","","","","","","",""
"","","","","","canvas-keyboard-response","253","1306577","0.0-12.0-1.48","2d_cat_multi_stim_exp1","2022-4-25","12:31:46","25","75","3","9","10","40","30","120","55","20","[""Asian""]","No","Female","2998717","null","null","","","","clear_screen","","","","","","","","","","","","","","","","","","","","","","","","","",""
"","","","","","canvas-keyboard-response","254","1307631","0.0-12.0-2.48","2d_cat_multi_stim_exp1","2022-4-25","12:31:46","25","75","3","9","10","40","30","120","55","20","[""Asian""]","No","Female","2998717","1046","u","learn","","","learn_trial","25","75","in","1","1","","","","","","","","","","","","","","","","","","","","",""
"","","","","","canvas-keyboard-response","255","1308143","0.0-12.0-3.48","2d_cat_multi_stim_exp1","2022-4-25","12:31:46","25","75","3","9","10","40","30","120","55","20","[""Asian""]","No","Female","2998717","null","null","learn_feedback","","","learn_feedback","25","75","in","","","","","","","","","","","","","","","","","","","","","","",""
"","","","","","canvas-keyboard-response","256","1308206","0.0-12.0-4.48","2d_cat_multi_stim_exp1","2022-4-25","12:31:46","25","75","3","9","10","40","30","120","55","20","[""Asian""]","No","Female","2998717","null","null","","","","clear_screen","","","","","","","","","","","","","","","","","","","","","","","","","",""
"","","","","","canvas-keyboard-response","257","1308714","0.0-12.0-0.49","2d_cat_multi_stim_exp1","2022-4-25","12:31:46","25","75","3","9","10","40","30","120","55","20","[""Asian""]","No","Female","2998717","null","null","","","","fixation","","","","","","","","","","","","","","","","","","","","","","","","","",""
"","","","","","canvas-keyboard-response","258","1309228","0.0-12.0-1.49","2d_cat_multi_stim_exp1","2022-4-25","12:31:46","25","75","3","9","10","40","30","120","55","20","[""Asian""]","No","Female","2998717","null","null","","","","clear_screen","","","","","","","","","","","","","","","","","","","","","","","","","",""
"","","","","","canvas-keyboard-response","259","1310079","0.0-12.0-2.49","2d_cat_multi_stim_exp1","2022-4-25","12:31:46","25","75","3","9","10","40","30","120","55","20","[""Asian""]","No","Female","2998717","843","u","learn","","","learn_trial","25","75","in","1","1","","","","","","","","","","","","","","","","","","","","",""
"","","","","","canvas-keyboard-response","260","1310589","0.0-12.0-3.49","2d_cat_multi_stim_exp1","2022-4-25","12:31:46","25","75","3","9","10","40","30","120","55","20","[""Asian""]","No","Female","2998717","null","null","learn_feedback","","","learn_feedback","25","75","in","","","","","","","","","","","","","","","","","","","","","","",""
"","","","","","canvas-keyboard-response","261","1310649","0.0-12.0-4.49","2d_cat_multi_stim_exp1","2022-4-25","12:31:46","25","75","3","9","10","40","30","120","55","20","[""Asian""]","No","Female","2998717","null","null","","","","clear_screen","","","","","","","","","","","","","","","","","","","","","","","","","",""
"","","","","","canvas-keyboard-response","262","1311160","0.0-12.0-0.50","2d_cat_multi_stim_exp1","2022-4-25","12:31:46","25","75","3","9","10","40","30","120","55","20","[""Asian""]","No","Female","2998717","null","null","","","","fixation","","","","","","","","","","","","","","","","","","","","","","","","","",""
"","","","","","canvas-keyboard-response","263","1311674","0.0-12.0-1.50","2d_cat_multi_stim_exp1","2022-4-25","12:31:46","25","75","3","9","10","40","30","120","55","20","[""Asian""]","No","Female","2998717","null","null","","","","clear_screen","","","","","","","","","","","","","","","","","","","","","","","","","",""
"","","","","","canvas-keyboard-response","264","1312214","0.0-12.0-2.50","2d_cat_multi_stim_exp1","2022-4-25","12:31:46","25","75","3","9","10","40","30","120","55","20","[""Asian""]","No","Female","2998717","532","i","learn","","","learn_trial","40","30","out","1","0","","","","","","","","","","","","","","","","","","","","",""
"","","","","","canvas-keyboard-response","265","1312724","0.0-12.0-3.50","2d_cat_multi_stim_exp1","2022-4-25","12:31:46","25","75","3","9","10","40","30","120","55","20","[""Asian""]","No","Female","2998717","null","null","learn_feedback","","","learn_feedback","40","30","out","","","","","","","","","","","","","","","","","","","","","","",""
"","","","","","canvas-keyboard-response","266","1312784","0.0-12.0-4.50","2d_cat_multi_stim_exp1","2022-4-25","12:31:46","25","75","3","9","10","40","30","120","55","20","[""Asian""]","No","Female","2998717","null","null","","","","clear_screen","","","","","","","","","","","","","","","","","","","","","","","","","",""
"","","","","","canvas-keyboard-response","267","1313295","0.0-12.0-0.51","2d_cat_multi_stim_exp1","2022-4-25","12:31:46","25","75","3","9","10","40","30","120","55","20","[""Asian""]","No","Female","2998717","null","null","","","","fixation","","","","","","","","","","","","","","","","","","","","","","","","","",""
"","","","","","canvas-keyboard-response","268","1313809","0.0-12.0-1.51","2d_cat_multi_stim_exp1","2022-4-25","12:31:46","25","75","3","9","10","40","30","120","55","20","[""Asian""]","No","Female","2998717","null","null","","","","clear_screen","","","","","","","","","","","","","","","","","","","","","","","","","",""
"","","","","","canvas-keyboard-response","269","1316055","0.0-12.0-2.51","2d_cat_multi_stim_exp1","2022-4-25","12:31:46","25","75","3","9","10","40","30","120","55","20","[""Asian""]","No","Female","2998717","2235","i","learn","","","learn_trial","25","57","in","0","0","","","","","","","","","","","","","","","","","","","","",""
"","","","","","canvas-keyboard-response","270","1317067","0.0-12.0-3.51","2d_cat_multi_stim_exp1","2022-4-25","12:31:46","25","75","3","9","10","40","30","120","55","20","[""Asian""]","No","Female","2998717","null","null","learn_feedback","","","learn_feedback","25","57","in","","","","","","","","","","","","","","","","","","","","","","",""
"","","","","","canvas-keyboard-response","271","1317130","0.0-12.0-4.51","2d_cat_multi_stim_exp1","2022-4-25","12:31:46","25","75","3","9","10","40","30","120","55","20","[""Asian""]","No","Female","2998717","null","null","","","","clear_screen","","","","","","","","","","","","","","","","","","","","","","","","","",""
"","","","","","canvas-keyboard-response","272","1317640","0.0-12.0-0.52","2d_cat_multi_stim_exp1","2022-4-25","12:31:46","25","75","3","9","10","40","30","120","55","20","[""Asian""]","No","Female","2998717","null","null","","","","fixation","","","","","","","","","","","","","","","","","","","","","","","","","",""
"","","","","","canvas-keyboard-response","273","1318152","0.0-12.0-1.52","2d_cat_multi_stim_exp1","2022-4-25","12:31:46","25","75","3","9","10","40","30","120","55","20","[""Asian""]","No","Female","2998717","null","null","","","","clear_screen","","","","","","","","","","","","","","","","","","","","","","","","","",""
"","","","","","canvas-keyboard-response","274","1319175","0.0-12.0-2.52","2d_cat_multi_stim_exp1","2022-4-25","12:31:46","25","75","3","9","10","40","30","120","55","20","[""Asian""]","No","Female","2998717","1014","u","learn","","","learn_trial","25","75","in","1","1","","","","","","","","","","","","","","","","","","","","",""
"","","","","","canvas-keyboard-response","275","1319686","0.0-12.0-3.52","2d_cat_multi_stim_exp1","2022-4-25","12:31:46","25","75","3","9","10","40","30","120","55","20","[""Asian""]","No","Female","2998717","null","null","learn_feedback","","","learn_feedback","25","75","in","","","","","","","","","","","","","","","","","","","","","","",""
"","","","","","canvas-keyboard-response","276","1319745","0.0-12.0-4.52","2d_cat_multi_stim_exp1","2022-4-25","12:31:46","25","75","3","9","10","40","30","120","55","20","[""Asian""]","No","Female","2998717","null","null","","","","clear_screen","","","","","","","","","","","","","","","","","","","","","","","","","",""
"","","","","","canvas-keyboard-response","277","1320256","0.0-12.0-0.53","2d_cat_multi_stim_exp1","2022-4-25","12:31:46","25","75","3","9","10","40","30","120","55","20","[""Asian""]","No","Female","2998717","null","null","","","","fixation","","","","","","","","","","","","","","","","","","","","","","","","","",""
"","","","","","canvas-keyboard-response","278","1320769","0.0-12.0-1.53","2d_cat_multi_stim_exp1","2022-4-25","12:31:46","25","75","3","9","10","40","30","120","55","20","[""Asian""]","No","Female","2998717","null","null","","","","clear_screen","","","","","","","","","","","","","","","","","","","","","","","","","",""
"","","","","","canvas-keyboard-response","279","1321630","0.0-12.0-2.53","2d_cat_multi_stim_exp1","2022-4-25","12:31:46","25","75","3","9","10","40","30","120","55","20","[""Asian""]","No","Female","2998717","852","u","learn","","","learn_trial","23.3333","70","out","0","1","","","","","","","","","","","","","","","","","","","","",""
"","","","","","canvas-keyboard-response","280","1322640","0.0-12.0-3.53","2d_cat_multi_stim_exp1","2022-4-25","12:31:46","25","75","3","9","10","40","30","120","55","20","[""Asian""]","No","Female","2998717","null","null","learn_feedback","","","learn_feedback","23.3333","70","out","","","","","","","","","","","","","","","","","","","","","","",""
"","","","","","canvas-keyboard-response","281","1322699","0.0-12.0-4.53","2d_cat_multi_stim_exp1","2022-4-25","12:31:46","25","75","3","9","10","40","30","120","55","20","[""Asian""]","No","Female","2998717","null","null","","","","clear_screen","","","","","","","","","","","","","","","","","","","","","","","","","",""
"","","","","","canvas-keyboard-response","282","1323208","0.0-12.0-0.54","2d_cat_multi_stim_exp1","2022-4-25","12:31:46","25","75","3","9","10","40","30","120","55","20","[""Asian""]","No","Female","2998717","null","null","","","","fixation","","","","","","","","","","","","","","","","","","","","","","","","","",""
"","","","","","canvas-keyboard-response","283","1323719","0.0-12.0-1.54","2d_cat_multi_stim_exp1","2022-4-25","12:31:46","25","75","3","9","10","40","30","120","55","20","[""Asian""]","No","Female","2998717","null","null","","","","clear_screen","","","","","","","","","","","","","","","","","","","","","","","","","",""
"","","","","","canvas-keyboard-response","284","1324863","0.0-12.0-2.54","2d_cat_multi_stim_exp1","2022-4-25","12:31:46","25","75","3","9","10","40","30","120","55","20","[""Asian""]","No","Female","2998717","1131","u","learn","","","learn_trial","27.9518","76.607","in","1","1","","","","","","","","","","","","","","","","","","","","",""
"","","","","","canvas-keyboard-response","285","1325374","0.0-12.0-3.54","2d_cat_multi_stim_exp1","2022-4-25","12:31:46","25","75","3","9","10","40","30","120","55","20","[""Asian""]","No","Female","2998717","null","null","learn_feedback","","","learn_feedback","27.9518","76.607","in","","","","","","","","","","","","","","","","","","","","","","",""
"","","","","","canvas-keyboard-response","286","1325436","0.0-12.0-4.54","2d_cat_multi_stim_exp1","2022-4-25","12:31:46","25","75","3","9","10","40","30","120","55","20","[""Asian""]","No","Female","2998717","null","null","","","","clear_screen","","","","","","","","","","","","","","","","","","","","","","","","","",""
"","","","","","canvas-keyboard-response","287","1325944","0.0-12.0-0.55","2d_cat_multi_stim_exp1","2022-4-25","12:31:46","25","75","3","9","10","40","30","120","55","20","[""Asian""]","No","Female","2998717","null","null","","","","fixation","","","","","","","","","","","","","","","","","","","","","","","","","",""
"","","","","","canvas-keyboard-response","288","1326458","0.0-12.0-1.55","2d_cat_multi_stim_exp1","2022-4-25","12:31:46","25","75","3","9","10","40","30","120","55","20","[""Asian""]","No","Female","2998717","null","null","","","","clear_screen","","","","","","","","","","","","","","","","","","","","","","","","","",""
"","","","","","canvas-keyboard-response","289","1328758","0.0-12.0-2.55","2d_cat_multi_stim_exp1","2022-4-25","12:31:46","25","75","3","9","10","40","30","120","55","20","[""Asian""]","No","Female","2998717","2291","u","learn","","","learn_trial","33.3333","80","out","0","1","","","","","","","","","","","","","","","","","","","","",""
"","","","","","canvas-keyboard-response","290","1329767","0.0-12.0-3.55","2d_cat_multi_stim_exp1","2022-4-25","12:31:46","25","75","3","9","10","40","30","120","55","20","[""Asian""]","No","Female","2998717","null","null","learn_feedback","","","learn_feedback","33.3333","80","out","","","","","","","","","","","","","","","","","","","","","","",""
"","","","","","canvas-keyboard-response","291","1329829","0.0-12.0-4.55","2d_cat_multi_stim_exp1","2022-4-25","12:31:46","25","75","3","9","10","40","30","120","55","20","[""Asian""]","No","Female","2998717","null","null","","","","clear_screen","","","","","","","","","","","","","","","","","","","","","","","","","",""
"","","","","","canvas-keyboard-response","292","1330338","0.0-12.0-0.56","2d_cat_multi_stim_exp1","2022-4-25","12:31:46","25","75","3","9","10","40","30","120","55","20","[""Asian""]","No","Female","2998717","null","null","","","","fixation","","","","","","","","","","","","","","","","","","","","","","","","","",""
"","","","","","canvas-keyboard-response","293","1330849","0.0-12.0-1.56","2d_cat_multi_stim_exp1","2022-4-25","12:31:46","25","75","3","9","10","40","30","120","55","20","[""Asian""]","No","Female","2998717","null","null","","","","clear_screen","","","","","","","","","","","","","","","","","","","","","","","","","",""
"","","","","","canvas-keyboard-response","294","1331895","0.0-12.0-2.56","2d_cat_multi_stim_exp1","2022-4-25","12:31:46","25","75","3","9","10","40","30","120","55","20","[""Asian""]","No","Female","2998717","1037","i","learn","","","learn_trial","36.6667","80","out","1","0","","","","","","","","","","","","","","","","","","","","",""
"","","","","","canvas-keyboard-response","295","1332407","0.0-12.0-3.56","2d_cat_multi_stim_exp1","2022-4-25","12:31:46","25","75","3","9","10","40","30","120","55","20","[""Asian""]","No","Female","2998717","null","null","learn_feedback","","","learn_feedback","36.6667","80","out","","","","","","","","","","","","","","","","","","","","","","",""
