"success","timeout","failed_images","failed_audio","failed_video","trial_type","trial_index","time_elapsed","internal_node_id","exp_name","date","time","angle_mean_in","radius_mean_in","angle_sd_in","radius_sd_in","angle_min_out","angle_max_out","radius_min_out","radius_max_out","sub_n","age","race","ethnicity","gender","exp_duration","rt","response","exp_trial_type","stimulus","view_history","screen_id","angle","radius","distribution","choice","correct","order","angle_a","radius_a","angle_b","radius_b","angle_c","radius_c","jkl_correct","transfer_trial_type","choice_set","abc_correct","tc_correct","tc_angle","tdc_a","tdc_b","tdc_c","pair","category_a","category_b","category_c","question_order"
"true","false","[]","[]","[]","preload","0","25","0.0-0.0","2d_cat_multi_stim_exp1","2022-4-27","10:25:25","25","75","3","9","10","40","30","120","67","20","[""White""]","No","Female","1580464","","","","","","","","","","","","","","","","","","","","","","","","","","","","","","","",""
"","","","","","survey-html-form","1","3708","0.0-1.0","2d_cat_multi_stim_exp1","2022-4-27","10:25:25","25","75","3","9","10","40","30","120","67","20","[""White""]","No","Female","1580464","3667","{""response"":""67""}","enter-sub-number","","","","","","","","","","","","","","","","","","","","","","","","","","","","",""
"true","","","","","fullscreen","2","5642","0.0-2.0","2d_cat_multi_stim_exp1","2022-4-27","10:25:25","25","75","3","9","10","40","30","120","67","20","[""White""]","No","Female","1580464","","","","","","","","","","","","","","","","","","","","","","","","","","","","","","","",""
"","","","","","image-button-response","3","23435","0.0-3.0","2d_cat_multi_stim_exp1","2022-4-27","10:25:25","25","75","3","9","10","40","30","120","67","20","[""White""]","No","Female","1580464","17757","0","","consent.png","","","","","","","","","","","","","","","","","","","","","","","","","","","",""
"","","","","","html-button-response","4","29450","0.0-4.0","2d_cat_multi_stim_exp1","2022-4-27","10:25:25","25","75","3","9","10","40","30","120","67","20","[""White""]","No","Female","1580464","6009","0","","<div style= ""font-size:25px;"" <p> <strong> Welcome to the experiment! </strong><br> <p style=""color:#8B0000; font-size:25px;""><strong> Please do NOT exit full screen until you are done with the experiment. </strong> </p><p style=""font-size:25px;color:#8B0000;""> <strong> The experiment will be canceled and your data will be lost <br> if you try to go back or refresh the page at any point during the experiment.</strong> </p><br><p> <strong> Thanks in advance for your contribution to our research! </strong></p>","","","","","","","","","","","","","","","","","","","","","","","","","","","",""
"","","","","","instructions","5","76962","0.0-5.0","2d_cat_multi_stim_exp1","2022-4-27","10:25:25","25","75","3","9","10","40","30","120","67","20","[""White""]","No","Female","1580464","47505","","","","[{""page_index"":0,""viewing_time"":4290},{""page_index"":1,""viewing_time"":1856},{""page_index"":2,""viewing_time"":22215},{""page_index"":3,""viewing_time"":19144}]","instructions_1","","","","","","","","","","","","","","","","","","","","","","","","","",""
"","","","","","instructions","6","79042","0.0-6.0","2d_cat_multi_stim_exp1","2022-4-27","10:25:25","25","75","3","9","10","40","30","120","67","20","[""White""]","No","Female","1580464","2074","","","","[{""page_index"":0,""viewing_time"":2073}]","Click to see the kinds of turtles that will appear in the study.","","","","","","","","","","","","","","","","","","","","","","","","","",""
"","","","","","canvas-keyboard-response","7","94083","0.0-7.0","2d_cat_multi_stim_exp1","2022-4-27","10:25:25","25","75","3","9","10","40","30","120","67","20","[""White""]","No","Female","1580464","null","null","","","","demo_range","","","","","","","","","","","","","","","","","","","","","","","","","",""
"","","","","","instructions","8","98201","0.0-8.0","2d_cat_multi_stim_exp1","2022-4-27","10:25:25","25","75","3","9","10","40","30","120","67","20","[""White""]","No","Female","1580464","3615","","","","[{""page_index"":0,""viewing_time"":3615}]","Click to see some turtles in the subspecies.","","","","","","","","","","","","","","","","","","","","","","","","","",""
"","","","","","canvas-keyboard-response","9","113220","0.0-9.0","2d_cat_multi_stim_exp1","2022-4-27","10:25:25","25","75","3","9","10","40","30","120","67","20","[""White""]","No","Female","1580464","null","null","","","","demo_in","","","","","","","","","","","","","","","","","","","","","","","","","",""
"","","","","","instructions","10","158274","0.0-10.0","2d_cat_multi_stim_exp1","2022-4-27","10:25:25","25","75","3","9","10","40","30","120","67","20","[""White""]","No","Female","1580464","44551","","","","[{""page_index"":0,""viewing_time"":11080},{""page_index"":1,""viewing_time"":29023},{""page_index"":2,""viewing_time"":4448}]","instructions_2","","","","","","","","","","","","","","","","","","","","","","","","","",""
"","","","","","instructions","11","160057","0.0-11.0","2d_cat_multi_stim_exp1","2022-4-27","10:25:25","25","75","3","9","10","40","30","120","67","20","[""White""]","No","Female","1580464","1781","","","","[{""page_index"":0,""viewing_time"":1781}]","Click to begin the first phase of the experiment.","","","","","","","","","","","","","","","","","","","","","","","","","",""
"","","","","","canvas-keyboard-response","12","160568","0.0-12.0-0.0","2d_cat_multi_stim_exp1","2022-4-27","10:25:25","25","75","3","9","10","40","30","120","67","20","[""White""]","No","Female","1580464","null","null","","","","fixation","","","","","","","","","","","","","","","","","","","","","","","","","",""
"","","","","","canvas-keyboard-response","13","161077","0.0-12.0-1.0","2d_cat_multi_stim_exp1","2022-4-27","10:25:25","25","75","3","9","10","40","30","120","67","20","[""White""]","No","Female","1580464","null","null","","","","clear_screen","","","","","","","","","","","","","","","","","","","","","","","","","",""
"","","","","","canvas-keyboard-response","14","163713","0.0-12.0-2.0","2d_cat_multi_stim_exp1","2022-4-27","10:25:25","25","75","3","9","10","40","30","120","67","20","[""White""]","No","Female","1580464","2626","u","learn","","","learn_trial","23.8209","83.2757","in","1","1","","","","","","","","","","","","","","","","","","","","",""
"","","","","","canvas-keyboard-response","15","164226","0.0-12.0-3.0","2d_cat_multi_stim_exp1","2022-4-27","10:25:25","25","75","3","9","10","40","30","120","67","20","[""White""]","No","Female","1580464","null","null","learn_feedback","","","learn_feedback","23.8209","83.2757","in","","","","","","","","","","","","","","","","","","","","","","",""
"","","","","","canvas-keyboard-response","16","164286","0.0-12.0-4.0","2d_cat_multi_stim_exp1","2022-4-27","10:25:25","25","75","3","9","10","40","30","120","67","20","[""White""]","No","Female","1580464","null","null","","","","clear_screen","","","","","","","","","","","","","","","","","","","","","","","","","",""
"","","","","","canvas-keyboard-response","17","164798","0.0-12.0-0.1","2d_cat_multi_stim_exp1","2022-4-27","10:25:25","25","75","3","9","10","40","30","120","67","20","[""White""]","No","Female","1580464","null","null","","","","fixation","","","","","","","","","","","","","","","","","","","","","","","","","",""
"","","","","","canvas-keyboard-response","18","165312","0.0-12.0-1.1","2d_cat_multi_stim_exp1","2022-4-27","10:25:25","25","75","3","9","10","40","30","120","67","20","[""White""]","No","Female","1580464","null","null","","","","clear_screen","","","","","","","","","","","","","","","","","","","","","","","","","",""
"","","","","","canvas-keyboard-response","19","166529","0.0-12.0-2.1","2d_cat_multi_stim_exp1","2022-4-27","10:25:25","25","75","3","9","10","40","30","120","67","20","[""White""]","No","Female","1580464","1204","i","learn","","","learn_trial","36.6667","30","out","0","1","","","","","","","","","","","","","","","","","","","","",""
"","","","","","canvas-keyboard-response","20","167040","0.0-12.0-3.1","2d_cat_multi_stim_exp1","2022-4-27","10:25:25","25","75","3","9","10","40","30","120","67","20","[""White""]","No","Female","1580464","null","null","learn_feedback","","","learn_feedback","36.6667","30","out","","","","","","","","","","","","","","","","","","","","","","",""
"","","","","","canvas-keyboard-response","21","167104","0.0-12.0-4.1","2d_cat_multi_stim_exp1","2022-4-27","10:25:25","25","75","3","9","10","40","30","120","67","20","[""White""]","No","Female","1580464","null","null","","","","clear_screen","","","","","","","","","","","","","","","","","","","","","","","","","",""
"","","","","","canvas-keyboard-response","22","167613","0.0-12.0-0.2","2d_cat_multi_stim_exp1","2022-4-27","10:25:25","25","75","3","9","10","40","30","120","67","20","[""White""]","No","Female","1580464","null","null","","","","fixation","","","","","","","","","","","","","","","","","","","","","","","","","",""
"","","","","","canvas-keyboard-response","23","168125","0.0-12.0-1.2","2d_cat_multi_stim_exp1","2022-4-27","10:25:25","25","75","3","9","10","40","30","120","67","20","[""White""]","No","Female","1580464","null","null","","","","clear_screen","","","","","","","","","","","","","","","","","","","","","","","","","",""
"","","","","","canvas-keyboard-response","24","168905","0.0-12.0-2.2","2d_cat_multi_stim_exp1","2022-4-27","10:25:25","25","75","3","9","10","40","30","120","67","20","[""White""]","No","Female","1580464","768","u","learn","","","learn_trial","26.6667","70","out","1","0","","","","","","","","","","","","","","","","","","","","",""
"","","","","","canvas-keyboard-response","25","169915","0.0-12.0-3.2","2d_cat_multi_stim_exp1","2022-4-27","10:25:25","25","75","3","9","10","40","30","120","67","20","[""White""]","No","Female","1580464","null","null","learn_feedback","","","learn_feedback","26.6667","70","out","","","","","","","","","","","","","","","","","","","","","","",""
"","","","","","canvas-keyboard-response","26","169975","0.0-12.0-4.2","2d_cat_multi_stim_exp1","2022-4-27","10:25:25","25","75","3","9","10","40","30","120","67","20","[""White""]","No","Female","1580464","null","null","","","","clear_screen","","","","","","","","","","","","","","","","","","","","","","","","","",""
"","","","","","canvas-keyboard-response","27","170485","0.0-12.0-0.3","2d_cat_multi_stim_exp1","2022-4-27","10:25:25","25","75","3","9","10","40","30","120","67","20","[""White""]","No","Female","1580464","null","null","","","","fixation","","","","","","","","","","","","","","","","","","","","","","","","","",""
"","","","","","canvas-keyboard-response","28","171000","0.0-12.0-1.3","2d_cat_multi_stim_exp1","2022-4-27","10:25:25","25","75","3","9","10","40","30","120","67","20","[""White""]","No","Female","1580464","null","null","","","","clear_screen","","","","","","","","","","","","","","","","","","","","","","","","","",""
"","","","","","canvas-keyboard-response","29","171953","0.0-12.0-2.3","2d_cat_multi_stim_exp1","2022-4-27","10:25:25","25","75","3","9","10","40","30","120","67","20","[""White""]","No","Female","1580464","943","u","learn","","","learn_trial","25","75","in","1","1","","","","","","","","","","","","","","","","","","","","",""
"","","","","","canvas-keyboard-response","30","172463","0.0-12.0-3.3","2d_cat_multi_stim_exp1","2022-4-27","10:25:25","25","75","3","9","10","40","30","120","67","20","[""White""]","No","Female","1580464","null","null","learn_feedback","","","learn_feedback","25","75","in","","","","","","","","","","","","","","","","","","","","","","",""
"","","","","","canvas-keyboard-response","31","172527","0.0-12.0-4.3","2d_cat_multi_stim_exp1","2022-4-27","10:25:25","25","75","3","9","10","40","30","120","67","20","[""White""]","No","Female","1580464","null","null","","","","clear_screen","","","","","","","","","","","","","","","","","","","","","","","","","",""
"","","","","","canvas-keyboard-response","32","173034","0.0-12.0-0.4","2d_cat_multi_stim_exp1","2022-4-27","10:25:25","25","75","3","9","10","40","30","120","67","20","[""White""]","No","Female","1580464","null","null","","","","fixation","","","","","","","","","","","","","","","","","","","","","","","","","",""
"","","","","","canvas-keyboard-response","33","173548","0.0-12.0-1.4","2d_cat_multi_stim_exp1","2022-4-27","10:25:25","25","75","3","9","10","40","30","120","67","20","[""White""]","No","Female","1580464","null","null","","","","clear_screen","","","","","","","","","","","","","","","","","","","","","","","","","",""
"","","","","","canvas-keyboard-response","34","174841","0.0-12.0-2.4","2d_cat_multi_stim_exp1","2022-4-27","10:25:25","25","75","3","9","10","40","30","120","67","20","[""White""]","No","Female","1580464","1283","u","learn","","","learn_trial","25","75","in","1","1","","","","","","","","","","","","","","","","","","","","",""
"","","","","","canvas-keyboard-response","35","175354","0.0-12.0-3.4","2d_cat_multi_stim_exp1","2022-4-27","10:25:25","25","75","3","9","10","40","30","120","67","20","[""White""]","No","Female","1580464","null","null","learn_feedback","","","learn_feedback","25","75","in","","","","","","","","","","","","","","","","","","","","","","",""
"","","","","","canvas-keyboard-response","36","175418","0.0-12.0-4.4","2d_cat_multi_stim_exp1","2022-4-27","10:25:25","25","75","3","9","10","40","30","120","67","20","[""White""]","No","Female","1580464","null","null","","","","clear_screen","","","","","","","","","","","","","","","","","","","","","","","","","",""
"","","","","","canvas-keyboard-response","37","175927","0.0-12.0-0.5","2d_cat_multi_stim_exp1","2022-4-27","10:25:25","25","75","3","9","10","40","30","120","67","20","[""White""]","No","Female","1580464","null","null","","","","fixation","","","","","","","","","","","","","","","","","","","","","","","","","",""
"","","","","","canvas-keyboard-response","38","176438","0.0-12.0-1.5","2d_cat_multi_stim_exp1","2022-4-27","10:25:25","25","75","3","9","10","40","30","120","67","20","[""White""]","No","Female","1580464","null","null","","","","clear_screen","","","","","","","","","","","","","","","","","","","","","","","","","",""
"","","","","","canvas-keyboard-response","39","178057","0.0-12.0-2.5","2d_cat_multi_stim_exp1","2022-4-27","10:25:25","25","75","3","9","10","40","30","120","67","20","[""White""]","No","Female","1580464","1609","u","learn","","","learn_trial","25","75","in","1","1","","","","","","","","","","","","","","","","","","","","",""
"","","","","","canvas-keyboard-response","40","178570","0.0-12.0-3.5","2d_cat_multi_stim_exp1","2022-4-27","10:25:25","25","75","3","9","10","40","30","120","67","20","[""White""]","No","Female","1580464","null","null","learn_feedback","","","learn_feedback","25","75","in","","","","","","","","","","","","","","","","","","","","","","",""
"","","","","","canvas-keyboard-response","41","178629","0.0-12.0-4.5","2d_cat_multi_stim_exp1","2022-4-27","10:25:25","25","75","3","9","10","40","30","120","67","20","[""White""]","No","Female","1580464","null","null","","","","clear_screen","","","","","","","","","","","","","","","","","","","","","","","","","",""
"","","","","","canvas-keyboard-response","42","179137","0.0-12.0-0.6","2d_cat_multi_stim_exp1","2022-4-27","10:25:25","25","75","3","9","10","40","30","120","67","20","[""White""]","No","Female","1580464","null","null","","","","fixation","","","","","","","","","","","","","","","","","","","","","","","","","",""
"","","","","","canvas-keyboard-response","43","179651","0.0-12.0-1.6","2d_cat_multi_stim_exp1","2022-4-27","10:25:25","25","75","3","9","10","40","30","120","67","20","[""White""]","No","Female","1580464","null","null","","","","clear_screen","","","","","","","","","","","","","","","","","","","","","","","","","",""
"","","","","","canvas-keyboard-response","44","180545","0.0-12.0-2.6","2d_cat_multi_stim_exp1","2022-4-27","10:25:25","25","75","3","9","10","40","30","120","67","20","[""White""]","No","Female","1580464","884","i","learn","","","learn_trial","25","75","in","0","0","","","","","","","","","","","","","","","","","","","","",""
"","","","","","canvas-keyboard-response","45","181555","0.0-12.0-3.6","2d_cat_multi_stim_exp1","2022-4-27","10:25:25","25","75","3","9","10","40","30","120","67","20","[""White""]","No","Female","1580464","null","null","learn_feedback","","","learn_feedback","25","75","in","","","","","","","","","","","","","","","","","","","","","","",""
"","","","","","canvas-keyboard-response","46","181617","0.0-12.0-4.6","2d_cat_multi_stim_exp1","2022-4-27","10:25:25","25","75","3","9","10","40","30","120","67","20","[""White""]","No","Female","1580464","null","null","","","","clear_screen","","","","","","","","","","","","","","","","","","","","","","","","","",""
"","","","","","canvas-keyboard-response","47","182126","0.0-12.0-0.7","2d_cat_multi_stim_exp1","2022-4-27","10:25:25","25","75","3","9","10","40","30","120","67","20","[""White""]","No","Female","1580464","null","null","","","","fixation","","","","","","","","","","","","","","","","","","","","","","","","","",""
"","","","","","canvas-keyboard-response","48","182640","0.0-12.0-1.7","2d_cat_multi_stim_exp1","2022-4-27","10:25:25","25","75","3","9","10","40","30","120","67","20","[""White""]","No","Female","1580464","null","null","","","","clear_screen","","","","","","","","","","","","","","","","","","","","","","","","","",""
"","","","","","canvas-keyboard-response","49","183441","0.0-12.0-2.7","2d_cat_multi_stim_exp1","2022-4-27","10:25:25","25","75","3","9","10","40","30","120","67","20","[""White""]","No","Female","1580464","790","i","learn","","","learn_trial","26.6667","50","out","0","1","","","","","","","","","","","","","","","","","","","","",""
"","","","","","canvas-keyboard-response","50","183953","0.0-12.0-3.7","2d_cat_multi_stim_exp1","2022-4-27","10:25:25","25","75","3","9","10","40","30","120","67","20","[""White""]","No","Female","1580464","null","null","learn_feedback","","","learn_feedback","26.6667","50","out","","","","","","","","","","","","","","","","","","","","","","",""
"","","","","","canvas-keyboard-response","51","184016","0.0-12.0-4.7","2d_cat_multi_stim_exp1","2022-4-27","10:25:25","25","75","3","9","10","40","30","120","67","20","[""White""]","No","Female","1580464","null","null","","","","clear_screen","","","","","","","","","","","","","","","","","","","","","","","","","",""
"","","","","","canvas-keyboard-response","52","184524","0.0-12.0-0.8","2d_cat_multi_stim_exp1","2022-4-27","10:25:25","25","75","3","9","10","40","30","120","67","20","[""White""]","No","Female","1580464","null","null","","","","fixation","","","","","","","","","","","","","","","","","","","","","","","","","",""
"","","","","","canvas-keyboard-response","53","185036","0.0-12.0-1.8","2d_cat_multi_stim_exp1","2022-4-27","10:25:25","25","75","3","9","10","40","30","120","67","20","[""White""]","No","Female","1580464","null","null","","","","clear_screen","","","","","","","","","","","","","","","","","","","","","","","","","",""
"","","","","","canvas-keyboard-response","54","186593","0.0-12.0-2.8","2d_cat_multi_stim_exp1","2022-4-27","10:25:25","25","75","3","9","10","40","30","120","67","20","[""White""]","No","Female","1580464","1545","u","learn","","","learn_trial","23.3333","110","out","1","0","","","","","","","","","","","","","","","","","","","","",""
"","","","","","canvas-keyboard-response","55","187602","0.0-12.0-3.8","2d_cat_multi_stim_exp1","2022-4-27","10:25:25","25","75","3","9","10","40","30","120","67","20","[""White""]","No","Female","1580464","null","null","learn_feedback","","","learn_feedback","23.3333","110","out","","","","","","","","","","","","","","","","","","","","","","",""
"","","","","","canvas-keyboard-response","56","187664","0.0-12.0-4.8","2d_cat_multi_stim_exp1","2022-4-27","10:25:25","25","75","3","9","10","40","30","120","67","20","[""White""]","No","Female","1580464","null","null","","","","clear_screen","","","","","","","","","","","","","","","","","","","","","","","","","",""
"","","","","","canvas-keyboard-response","57","188173","0.0-12.0-0.9","2d_cat_multi_stim_exp1","2022-4-27","10:25:25","25","75","3","9","10","40","30","120","67","20","[""White""]","No","Female","1580464","null","null","","","","fixation","","","","","","","","","","","","","","","","","","","","","","","","","",""
"","","","","","canvas-keyboard-response","58","188683","0.0-12.0-1.9","2d_cat_multi_stim_exp1","2022-4-27","10:25:25","25","75","3","9","10","40","30","120","67","20","[""White""]","No","Female","1580464","null","null","","","","clear_screen","","","","","","","","","","","","","","","","","","","","","","","","","",""
"","","","","","canvas-keyboard-response","59","189624","0.0-12.0-2.9","2d_cat_multi_stim_exp1","2022-4-27","10:25:25","25","75","3","9","10","40","30","120","67","20","[""White""]","No","Female","1580464","929","u","learn","","","learn_trial","23.3333","80","out","1","0","","","","","","","","","","","","","","","","","","","","",""
"","","","","","canvas-keyboard-response","60","190637","0.0-12.0-3.9","2d_cat_multi_stim_exp1","2022-4-27","10:25:25","25","75","3","9","10","40","30","120","67","20","[""White""]","No","Female","1580464","null","null","learn_feedback","","","learn_feedback","23.3333","80","out","","","","","","","","","","","","","","","","","","","","","","",""
"","","","","","canvas-keyboard-response","61","190697","0.0-12.0-4.9","2d_cat_multi_stim_exp1","2022-4-27","10:25:25","25","75","3","9","10","40","30","120","67","20","[""White""]","No","Female","1580464","null","null","","","","clear_screen","","","","","","","","","","","","","","","","","","","","","","","","","",""
"","","","","","canvas-keyboard-response","62","191207","0.0-12.0-0.10","2d_cat_multi_stim_exp1","2022-4-27","10:25:25","25","75","3","9","10","40","30","120","67","20","[""White""]","No","Female","1580464","null","null","","","","fixation","","","","","","","","","","","","","","","","","","","","","","","","","",""
"","","","","","canvas-keyboard-response","63","191722","0.0-12.0-1.10","2d_cat_multi_stim_exp1","2022-4-27","10:25:25","25","75","3","9","10","40","30","120","67","20","[""White""]","No","Female","1580464","null","null","","","","clear_screen","","","","","","","","","","","","","","","","","","","","","","","","","",""
"","","","","","canvas-keyboard-response","64","192921","0.0-12.0-2.10","2d_cat_multi_stim_exp1","2022-4-27","10:25:25","25","75","3","9","10","40","30","120","67","20","[""White""]","No","Female","1580464","1192","u","learn","","","learn_trial","25","75","in","1","1","","","","","","","","","","","","","","","","","","","","",""
"","","","","","canvas-keyboard-response","65","193431","0.0-12.0-3.10","2d_cat_multi_stim_exp1","2022-4-27","10:25:25","25","75","3","9","10","40","30","120","67","20","[""White""]","No","Female","1580464","null","null","learn_feedback","","","learn_feedback","25","75","in","","","","","","","","","","","","","","","","","","","","","","",""
"","","","","","canvas-keyboard-response","66","193495","0.0-12.0-4.10","2d_cat_multi_stim_exp1","2022-4-27","10:25:25","25","75","3","9","10","40","30","120","67","20","[""White""]","No","Female","1580464","null","null","","","","clear_screen","","","","","","","","","","","","","","","","","","","","","","","","","",""
"","","","","","canvas-keyboard-response","67","194006","0.0-12.0-0.11","2d_cat_multi_stim_exp1","2022-4-27","10:25:25","25","75","3","9","10","40","30","120","67","20","[""White""]","No","Female","1580464","null","null","","","","fixation","","","","","","","","","","","","","","","","","","","","","","","","","",""
"","","","","","canvas-keyboard-response","68","194520","0.0-12.0-1.11","2d_cat_multi_stim_exp1","2022-4-27","10:25:25","25","75","3","9","10","40","30","120","67","20","[""White""]","No","Female","1580464","null","null","","","","clear_screen","","","","","","","","","","","","","","","","","","","","","","","","","",""
"","","","","","canvas-keyboard-response","69","195513","0.0-12.0-2.11","2d_cat_multi_stim_exp1","2022-4-27","10:25:25","25","75","3","9","10","40","30","120","67","20","[""White""]","No","Female","1580464","983","u","learn","","","learn_trial","25","75","in","1","1","","","","","","","","","","","","","","","","","","","","",""
"","","","","","canvas-keyboard-response","70","196023","0.0-12.0-3.11","2d_cat_multi_stim_exp1","2022-4-27","10:25:25","25","75","3","9","10","40","30","120","67","20","[""White""]","No","Female","1580464","null","null","learn_feedback","","","learn_feedback","25","75","in","","","","","","","","","","","","","","","","","","","","","","",""
"","","","","","canvas-keyboard-response","71","196083","0.0-12.0-4.11","2d_cat_multi_stim_exp1","2022-4-27","10:25:25","25","75","3","9","10","40","30","120","67","20","[""White""]","No","Female","1580464","null","null","","","","clear_screen","","","","","","","","","","","","","","","","","","","","","","","","","",""
"","","","","","canvas-keyboard-response","72","196593","0.0-12.0-0.12","2d_cat_multi_stim_exp1","2022-4-27","10:25:25","25","75","3","9","10","40","30","120","67","20","[""White""]","No","Female","1580464","null","null","","","","fixation","","","","","","","","","","","","","","","","","","","","","","","","","",""
"","","","","","canvas-keyboard-response","73","197107","0.0-12.0-1.12","2d_cat_multi_stim_exp1","2022-4-27","10:25:25","25","75","3","9","10","40","30","120","67","20","[""White""]","No","Female","1580464","null","null","","","","clear_screen","","","","","","","","","","","","","","","","","","","","","","","","","",""
"","","","","","canvas-keyboard-response","74","198145","0.0-12.0-2.12","2d_cat_multi_stim_exp1","2022-4-27","10:25:25","25","75","3","9","10","40","30","120","67","20","[""White""]","No","Female","1580464","1030","i","learn","","","learn_trial","27.5753","79.6161","in","0","0","","","","","","","","","","","","","","","","","","","","",""
"","","","","","canvas-keyboard-response","75","199153","0.0-12.0-3.12","2d_cat_multi_stim_exp1","2022-4-27","10:25:25","25","75","3","9","10","40","30","120","67","20","[""White""]","No","Female","1580464","null","null","learn_feedback","","","learn_feedback","27.5753","79.6161","in","","","","","","","","","","","","","","","","","","","","","","",""
"","","","","","canvas-keyboard-response","76","199216","0.0-12.0-4.12","2d_cat_multi_stim_exp1","2022-4-27","10:25:25","25","75","3","9","10","40","30","120","67","20","[""White""]","No","Female","1580464","null","null","","","","clear_screen","","","","","","","","","","","","","","","","","","","","","","","","","",""
"","","","","","canvas-keyboard-response","77","199726","0.0-12.0-0.13","2d_cat_multi_stim_exp1","2022-4-27","10:25:25","25","75","3","9","10","40","30","120","67","20","[""White""]","No","Female","1580464","null","null","","","","fixation","","","","","","","","","","","","","","","","","","","","","","","","","",""
"","","","","","canvas-keyboard-response","78","200238","0.0-12.0-1.13","2d_cat_multi_stim_exp1","2022-4-27","10:25:25","25","75","3","9","10","40","30","120","67","20","[""White""]","No","Female","1580464","null","null","","","","clear_screen","","","","","","","","","","","","","","","","","","","","","","","","","",""
"","","","","","canvas-keyboard-response","79","201362","0.0-12.0-2.13","2d_cat_multi_stim_exp1","2022-4-27","10:25:25","25","75","3","9","10","40","30","120","67","20","[""White""]","No","Female","1580464","1114","u","learn","","","learn_trial","30","100","out","1","0","","","","","","","","","","","","","","","","","","","","",""
"","","","","","canvas-keyboard-response","80","202372","0.0-12.0-3.13","2d_cat_multi_stim_exp1","2022-4-27","10:25:25","25","75","3","9","10","40","30","120","67","20","[""White""]","No","Female","1580464","null","null","learn_feedback","","","learn_feedback","30","100","out","","","","","","","","","","","","","","","","","","","","","","",""
"","","","","","canvas-keyboard-response","81","202435","0.0-12.0-4.13","2d_cat_multi_stim_exp1","2022-4-27","10:25:25","25","75","3","9","10","40","30","120","67","20","[""White""]","No","Female","1580464","null","null","","","","clear_screen","","","","","","","","","","","","","","","","","","","","","","","","","",""
"","","","","","canvas-keyboard-response","82","202946","0.0-12.0-0.14","2d_cat_multi_stim_exp1","2022-4-27","10:25:25","25","75","3","9","10","40","30","120","67","20","[""White""]","No","Female","1580464","null","null","","","","fixation","","","","","","","","","","","","","","","","","","","","","","","","","",""
"","","","","","canvas-keyboard-response","83","203457","0.0-12.0-1.14","2d_cat_multi_stim_exp1","2022-4-27","10:25:25","25","75","3","9","10","40","30","120","67","20","[""White""]","No","Female","1580464","null","null","","","","clear_screen","","","","","","","","","","","","","","","","","","","","","","","","","",""
"","","","","","canvas-keyboard-response","84","204184","0.0-12.0-2.14","2d_cat_multi_stim_exp1","2022-4-27","10:25:25","25","75","3","9","10","40","30","120","67","20","[""White""]","No","Female","1580464","718","u","learn","","","learn_trial","13.3333","50","out","1","0","","","","","","","","","","","","","","","","","","","","",""
"","","","","","canvas-keyboard-response","85","205195","0.0-12.0-3.14","2d_cat_multi_stim_exp1","2022-4-27","10:25:25","25","75","3","9","10","40","30","120","67","20","[""White""]","No","Female","1580464","null","null","learn_feedback","","","learn_feedback","13.3333","50","out","","","","","","","","","","","","","","","","","","","","","","",""
"","","","","","canvas-keyboard-response","86","205258","0.0-12.0-4.14","2d_cat_multi_stim_exp1","2022-4-27","10:25:25","25","75","3","9","10","40","30","120","67","20","[""White""]","No","Female","1580464","null","null","","","","clear_screen","","","","","","","","","","","","","","","","","","","","","","","","","",""
"","","","","","canvas-keyboard-response","87","205767","0.0-12.0-0.15","2d_cat_multi_stim_exp1","2022-4-27","10:25:25","25","75","3","9","10","40","30","120","67","20","[""White""]","No","Female","1580464","null","null","","","","fixation","","","","","","","","","","","","","","","","","","","","","","","","","",""
"","","","","","canvas-keyboard-response","88","206280","0.0-12.0-1.15","2d_cat_multi_stim_exp1","2022-4-27","10:25:25","25","75","3","9","10","40","30","120","67","20","[""White""]","No","Female","1580464","null","null","","","","clear_screen","","","","","","","","","","","","","","","","","","","","","","","","","",""
"","","","","","canvas-keyboard-response","89","207034","0.0-12.0-2.15","2d_cat_multi_stim_exp1","2022-4-27","10:25:25","25","75","3","9","10","40","30","120","67","20","[""White""]","No","Female","1580464","743","u","learn","","","learn_trial","10","90","out","1","0","","","","","","","","","","","","","","","","","","","","",""
"","","","","","canvas-keyboard-response","90","208046","0.0-12.0-3.15","2d_cat_multi_stim_exp1","2022-4-27","10:25:25","25","75","3","9","10","40","30","120","67","20","[""White""]","No","Female","1580464","null","null","learn_feedback","","","learn_feedback","10","90","out","","","","","","","","","","","","","","","","","","","","","","",""
"","","","","","canvas-keyboard-response","91","208108","0.0-12.0-4.15","2d_cat_multi_stim_exp1","2022-4-27","10:25:25","25","75","3","9","10","40","30","120","67","20","[""White""]","No","Female","1580464","null","null","","","","clear_screen","","","","","","","","","","","","","","","","","","","","","","","","","",""
"","","","","","canvas-keyboard-response","92","208617","0.0-12.0-0.16","2d_cat_multi_stim_exp1","2022-4-27","10:25:25","25","75","3","9","10","40","30","120","67","20","[""White""]","No","Female","1580464","null","null","","","","fixation","","","","","","","","","","","","","","","","","","","","","","","","","",""
"","","","","","canvas-keyboard-response","93","209127","0.0-12.0-1.16","2d_cat_multi_stim_exp1","2022-4-27","10:25:25","25","75","3","9","10","40","30","120","67","20","[""White""]","No","Female","1580464","null","null","","","","clear_screen","","","","","","","","","","","","","","","","","","","","","","","","","",""
"","","","","","canvas-keyboard-response","94","209873","0.0-12.0-2.16","2d_cat_multi_stim_exp1","2022-4-27","10:25:25","25","75","3","9","10","40","30","120","67","20","[""White""]","No","Female","1580464","736","i","learn","","","learn_trial","25","75","in","0","0","","","","","","","","","","","","","","","","","","","","",""
"","","","","","canvas-keyboard-response","95","210883","0.0-12.0-3.16","2d_cat_multi_stim_exp1","2022-4-27","10:25:25","25","75","3","9","10","40","30","120","67","20","[""White""]","No","Female","1580464","null","null","learn_feedback","","","learn_feedback","25","75","in","","","","","","","","","","","","","","","","","","","","","","",""
"","","","","","canvas-keyboard-response","96","210944","0.0-12.0-4.16","2d_cat_multi_stim_exp1","2022-4-27","10:25:25","25","75","3","9","10","40","30","120","67","20","[""White""]","No","Female","1580464","null","null","","","","clear_screen","","","","","","","","","","","","","","","","","","","","","","","","","",""
"","","","","","canvas-keyboard-response","97","211453","0.0-12.0-0.17","2d_cat_multi_stim_exp1","2022-4-27","10:25:25","25","75","3","9","10","40","30","120","67","20","[""White""]","No","Female","1580464","null","null","","","","fixation","","","","","","","","","","","","","","","","","","","","","","","","","",""
"","","","","","canvas-keyboard-response","98","211964","0.0-12.0-1.17","2d_cat_multi_stim_exp1","2022-4-27","10:25:25","25","75","3","9","10","40","30","120","67","20","[""White""]","No","Female","1580464","null","null","","","","clear_screen","","","","","","","","","","","","","","","","","","","","","","","","","",""
"","","","","","canvas-keyboard-response","99","212833","0.0-12.0-2.17","2d_cat_multi_stim_exp1","2022-4-27","10:25:25","25","75","3","9","10","40","30","120","67","20","[""White""]","No","Female","1580464","858","i","learn","","","learn_trial","30","60","out","0","1","","","","","","","","","","","","","","","","","","","","",""
"","","","","","canvas-keyboard-response","100","213342","0.0-12.0-3.17","2d_cat_multi_stim_exp1","2022-4-27","10:25:25","25","75","3","9","10","40","30","120","67","20","[""White""]","No","Female","1580464","null","null","learn_feedback","","","learn_feedback","30","60","out","","","","","","","","","","","","","","","","","","","","","","",""
"","","","","","canvas-keyboard-response","101","213404","0.0-12.0-4.17","2d_cat_multi_stim_exp1","2022-4-27","10:25:25","25","75","3","9","10","40","30","120","67","20","[""White""]","No","Female","1580464","null","null","","","","clear_screen","","","","","","","","","","","","","","","","","","","","","","","","","",""
"","","","","","canvas-keyboard-response","102","213915","0.0-12.0-0.18","2d_cat_multi_stim_exp1","2022-4-27","10:25:25","25","75","3","9","10","40","30","120","67","20","[""White""]","No","Female","1580464","null","null","","","","fixation","","","","","","","","","","","","","","","","","","","","","","","","","",""
"","","","","","canvas-keyboard-response","103","214428","0.0-12.0-1.18","2d_cat_multi_stim_exp1","2022-4-27","10:25:25","25","75","3","9","10","40","30","120","67","20","[""White""]","No","Female","1580464","null","null","","","","clear_screen","","","","","","","","","","","","","","","","","","","","","","","","","",""
"","","","","","canvas-keyboard-response","104","215488","0.0-12.0-2.18","2d_cat_multi_stim_exp1","2022-4-27","10:25:25","25","75","3","9","10","40","30","120","67","20","[""White""]","No","Female","1580464","1049","u","learn","","","learn_trial","22.5729","80.2901","in","1","1","","","","","","","","","","","","","","","","","","","","",""
"","","","","","canvas-keyboard-response","105","216002","0.0-12.0-3.18","2d_cat_multi_stim_exp1","2022-4-27","10:25:25","25","75","3","9","10","40","30","120","67","20","[""White""]","No","Female","1580464","null","null","learn_feedback","","","learn_feedback","22.5729","80.2901","in","","","","","","","","","","","","","","","","","","","","","","",""
"","","","","","canvas-keyboard-response","106","216063","0.0-12.0-4.18","2d_cat_multi_stim_exp1","2022-4-27","10:25:25","25","75","3","9","10","40","30","120","67","20","[""White""]","No","Female","1580464","null","null","","","","clear_screen","","","","","","","","","","","","","","","","","","","","","","","","","",""
"","","","","","canvas-keyboard-response","107","216572","0.0-12.0-0.19","2d_cat_multi_stim_exp1","2022-4-27","10:25:25","25","75","3","9","10","40","30","120","67","20","[""White""]","No","Female","1580464","null","null","","","","fixation","","","","","","","","","","","","","","","","","","","","","","","","","",""
"","","","","","canvas-keyboard-response","108","217083","0.0-12.0-1.19","2d_cat_multi_stim_exp1","2022-4-27","10:25:25","25","75","3","9","10","40","30","120","67","20","[""White""]","No","Female","1580464","null","null","","","","clear_screen","","","","","","","","","","","","","","","","","","","","","","","","","",""
"","","","","","canvas-keyboard-response","109","218153","0.0-12.0-2.19","2d_cat_multi_stim_exp1","2022-4-27","10:25:25","25","75","3","9","10","40","30","120","67","20","[""White""]","No","Female","1580464","1059","u","learn","","","learn_trial","23.3333","60","out","1","0","","","","","","","","","","","","","","","","","","","","",""
"","","","","","canvas-keyboard-response","110","219162","0.0-12.0-3.19","2d_cat_multi_stim_exp1","2022-4-27","10:25:25","25","75","3","9","10","40","30","120","67","20","[""White""]","No","Female","1580464","null","null","learn_feedback","","","learn_feedback","23.3333","60","out","","","","","","","","","","","","","","","","","","","","","","",""
"","","","","","canvas-keyboard-response","111","219225","0.0-12.0-4.19","2d_cat_multi_stim_exp1","2022-4-27","10:25:25","25","75","3","9","10","40","30","120","67","20","[""White""]","No","Female","1580464","null","null","","","","clear_screen","","","","","","","","","","","","","","","","","","","","","","","","","",""
"","","","","","canvas-keyboard-response","112","219733","0.0-12.0-0.20","2d_cat_multi_stim_exp1","2022-4-27","10:25:25","25","75","3","9","10","40","30","120","67","20","[""White""]","No","Female","1580464","null","null","","","","fixation","","","","","","","","","","","","","","","","","","","","","","","","","",""
"","","","","","canvas-keyboard-response","113","220245","0.0-12.0-1.20","2d_cat_multi_stim_exp1","2022-4-27","10:25:25","25","75","3","9","10","40","30","120","67","20","[""White""]","No","Female","1580464","null","null","","","","clear_screen","","","","","","","","","","","","","","","","","","","","","","","","","",""
"","","","","","canvas-keyboard-response","114","220985","0.0-12.0-2.20","2d_cat_multi_stim_exp1","2022-4-27","10:25:25","25","75","3","9","10","40","30","120","67","20","[""White""]","No","Female","1580464","728","u","learn","","","learn_trial","27.2592","80.9214","in","1","1","","","","","","","","","","","","","","","","","","","","",""
"","","","","","canvas-keyboard-response","115","221495","0.0-12.0-3.20","2d_cat_multi_stim_exp1","2022-4-27","10:25:25","25","75","3","9","10","40","30","120","67","20","[""White""]","No","Female","1580464","null","null","learn_feedback","","","learn_feedback","27.2592","80.9214","in","","","","","","","","","","","","","","","","","","","","","","",""
"","","","","","canvas-keyboard-response","116","221559","0.0-12.0-4.20","2d_cat_multi_stim_exp1","2022-4-27","10:25:25","25","75","3","9","10","40","30","120","67","20","[""White""]","No","Female","1580464","null","null","","","","clear_screen","","","","","","","","","","","","","","","","","","","","","","","","","",""
"","","","","","canvas-keyboard-response","117","222070","0.0-12.0-0.21","2d_cat_multi_stim_exp1","2022-4-27","10:25:25","25","75","3","9","10","40","30","120","67","20","[""White""]","No","Female","1580464","null","null","","","","fixation","","","","","","","","","","","","","","","","","","","","","","","","","",""
"","","","","","canvas-keyboard-response","118","222581","0.0-12.0-1.21","2d_cat_multi_stim_exp1","2022-4-27","10:25:25","25","75","3","9","10","40","30","120","67","20","[""White""]","No","Female","1580464","null","null","","","","clear_screen","","","","","","","","","","","","","","","","","","","","","","","","","",""
"","","","","","canvas-keyboard-response","119","223137","0.0-12.0-2.21","2d_cat_multi_stim_exp1","2022-4-27","10:25:25","25","75","3","9","10","40","30","120","67","20","[""White""]","No","Female","1580464","543","u","learn","","","learn_trial","25","75","in","1","1","","","","","","","","","","","","","","","","","","","","",""
"","","","","","canvas-keyboard-response","120","223646","0.0-12.0-3.21","2d_cat_multi_stim_exp1","2022-4-27","10:25:25","25","75","3","9","10","40","30","120","67","20","[""White""]","No","Female","1580464","null","null","learn_feedback","","","learn_feedback","25","75","in","","","","","","","","","","","","","","","","","","","","","","",""
"","","","","","canvas-keyboard-response","121","223704","0.0-12.0-4.21","2d_cat_multi_stim_exp1","2022-4-27","10:25:25","25","75","3","9","10","40","30","120","67","20","[""White""]","No","Female","1580464","null","null","","","","clear_screen","","","","","","","","","","","","","","","","","","","","","","","","","",""
"","","","","","canvas-keyboard-response","122","224213","0.0-12.0-0.22","2d_cat_multi_stim_exp1","2022-4-27","10:25:25","25","75","3","9","10","40","30","120","67","20","[""White""]","No","Female","1580464","null","null","","","","fixation","","","","","","","","","","","","","","","","","","","","","","","","","",""
"","","","","","canvas-keyboard-response","123","224727","0.0-12.0-1.22","2d_cat_multi_stim_exp1","2022-4-27","10:25:25","25","75","3","9","10","40","30","120","67","20","[""White""]","No","Female","1580464","null","null","","","","clear_screen","","","","","","","","","","","","","","","","","","","","","","","","","",""
"","","","","","canvas-keyboard-response","124","225649","0.0-12.0-2.22","2d_cat_multi_stim_exp1","2022-4-27","10:25:25","25","75","3","9","10","40","30","120","67","20","[""White""]","No","Female","1580464","910","i","learn","","","learn_trial","13.3333","110","out","0","1","","","","","","","","","","","","","","","","","","","","",""
"","","","","","canvas-keyboard-response","125","226161","0.0-12.0-3.22","2d_cat_multi_stim_exp1","2022-4-27","10:25:25","25","75","3","9","10","40","30","120","67","20","[""White""]","No","Female","1580464","null","null","learn_feedback","","","learn_feedback","13.3333","110","out","","","","","","","","","","","","","","","","","","","","","","",""
"","","","","","canvas-keyboard-response","126","226224","0.0-12.0-4.22","2d_cat_multi_stim_exp1","2022-4-27","10:25:25","25","75","3","9","10","40","30","120","67","20","[""White""]","No","Female","1580464","null","null","","","","clear_screen","","","","","","","","","","","","","","","","","","","","","","","","","",""
"","","","","","canvas-keyboard-response","127","226732","0.0-12.0-0.23","2d_cat_multi_stim_exp1","2022-4-27","10:25:25","25","75","3","9","10","40","30","120","67","20","[""White""]","No","Female","1580464","null","null","","","","fixation","","","","","","","","","","","","","","","","","","","","","","","","","",""
"","","","","","canvas-keyboard-response","128","227242","0.0-12.0-1.23","2d_cat_multi_stim_exp1","2022-4-27","10:25:25","25","75","3","9","10","40","30","120","67","20","[""White""]","No","Female","1580464","null","null","","","","clear_screen","","","","","","","","","","","","","","","","","","","","","","","","","",""
"","","","","","canvas-keyboard-response","129","227882","0.0-12.0-2.23","2d_cat_multi_stim_exp1","2022-4-27","10:25:25","25","75","3","9","10","40","30","120","67","20","[""White""]","No","Female","1580464","625","i","learn","","","learn_trial","40","100","out","0","1","","","","","","","","","","","","","","","","","","","","",""
"","","","","","canvas-keyboard-response","130","228396","0.0-12.0-3.23","2d_cat_multi_stim_exp1","2022-4-27","10:25:25","25","75","3","9","10","40","30","120","67","20","[""White""]","No","Female","1580464","null","null","learn_feedback","","","learn_feedback","40","100","out","","","","","","","","","","","","","","","","","","","","","","",""
"","","","","","canvas-keyboard-response","131","228459","0.0-12.0-4.23","2d_cat_multi_stim_exp1","2022-4-27","10:25:25","25","75","3","9","10","40","30","120","67","20","[""White""]","No","Female","1580464","null","null","","","","clear_screen","","","","","","","","","","","","","","","","","","","","","","","","","",""
"","","","","","canvas-keyboard-response","132","228968","0.0-12.0-0.24","2d_cat_multi_stim_exp1","2022-4-27","10:25:25","25","75","3","9","10","40","30","120","67","20","[""White""]","No","Female","1580464","null","null","","","","fixation","","","","","","","","","","","","","","","","","","","","","","","","","",""
"","","","","","canvas-keyboard-response","133","229483","0.0-12.0-1.24","2d_cat_multi_stim_exp1","2022-4-27","10:25:25","25","75","3","9","10","40","30","120","67","20","[""White""]","No","Female","1580464","null","null","","","","clear_screen","","","","","","","","","","","","","","","","","","","","","","","","","",""
"","","","","","canvas-keyboard-response","134","230240","0.0-12.0-2.24","2d_cat_multi_stim_exp1","2022-4-27","10:25:25","25","75","3","9","10","40","30","120","67","20","[""White""]","No","Female","1580464","745","i","learn","","","learn_trial","16.6667","100","out","0","1","","","","","","","","","","","","","","","","","","","","",""
"","","","","","canvas-keyboard-response","135","230753","0.0-12.0-3.24","2d_cat_multi_stim_exp1","2022-4-27","10:25:25","25","75","3","9","10","40","30","120","67","20","[""White""]","No","Female","1580464","null","null","learn_feedback","","","learn_feedback","16.6667","100","out","","","","","","","","","","","","","","","","","","","","","","",""
"","","","","","canvas-keyboard-response","136","230816","0.0-12.0-4.24","2d_cat_multi_stim_exp1","2022-4-27","10:25:25","25","75","3","9","10","40","30","120","67","20","[""White""]","No","Female","1580464","null","null","","","","clear_screen","","","","","","","","","","","","","","","","","","","","","","","","","",""
"","","","","","canvas-keyboard-response","137","231327","0.0-12.0-0.25","2d_cat_multi_stim_exp1","2022-4-27","10:25:25","25","75","3","9","10","40","30","120","67","20","[""White""]","No","Female","1580464","null","null","","","","fixation","","","","","","","","","","","","","","","","","","","","","","","","","",""
"","","","","","canvas-keyboard-response","138","231837","0.0-12.0-1.25","2d_cat_multi_stim_exp1","2022-4-27","10:25:25","25","75","3","9","10","40","30","120","67","20","[""White""]","No","Female","1580464","null","null","","","","clear_screen","","","","","","","","","","","","","","","","","","","","","","","","","",""
"","","","","","canvas-keyboard-response","139","232536","0.0-12.0-2.25","2d_cat_multi_stim_exp1","2022-4-27","10:25:25","25","75","3","9","10","40","30","120","67","20","[""White""]","No","Female","1580464","691","i","learn","","","learn_trial","25","75","in","0","0","","","","","","","","","","","","","","","","","","","","",""
"","","","","","canvas-keyboard-response","140","233549","0.0-12.0-3.25","2d_cat_multi_stim_exp1","2022-4-27","10:25:25","25","75","3","9","10","40","30","120","67","20","[""White""]","No","Female","1580464","null","null","learn_feedback","","","learn_feedback","25","75","in","","","","","","","","","","","","","","","","","","","","","","",""
"","","","","","canvas-keyboard-response","141","233609","0.0-12.0-4.25","2d_cat_multi_stim_exp1","2022-4-27","10:25:25","25","75","3","9","10","40","30","120","67","20","[""White""]","No","Female","1580464","null","null","","","","clear_screen","","","","","","","","","","","","","","","","","","","","","","","","","",""
"","","","","","canvas-keyboard-response","142","234119","0.0-12.0-0.26","2d_cat_multi_stim_exp1","2022-4-27","10:25:25","25","75","3","9","10","40","30","120","67","20","[""White""]","No","Female","1580464","null","null","","","","fixation","","","","","","","","","","","","","","","","","","","","","","","","","",""
"","","","","","canvas-keyboard-response","143","234633","0.0-12.0-1.26","2d_cat_multi_stim_exp1","2022-4-27","10:25:25","25","75","3","9","10","40","30","120","67","20","[""White""]","No","Female","1580464","null","null","","","","clear_screen","","","","","","","","","","","","","","","","","","","","","","","","","",""
"","","","","","canvas-keyboard-response","144","235920","0.0-12.0-2.26","2d_cat_multi_stim_exp1","2022-4-27","10:25:25","25","75","3","9","10","40","30","120","67","20","[""White""]","No","Female","1580464","1277","i","learn","","","learn_trial","40","60","out","0","1","","","","","","","","","","","","","","","","","","","","",""
"","","","","","canvas-keyboard-response","145","236432","0.0-12.0-3.26","2d_cat_multi_stim_exp1","2022-4-27","10:25:25","25","75","3","9","10","40","30","120","67","20","[""White""]","No","Female","1580464","null","null","learn_feedback","","","learn_feedback","40","60","out","","","","","","","","","","","","","","","","","","","","","","",""
"","","","","","canvas-keyboard-response","146","236494","0.0-12.0-4.26","2d_cat_multi_stim_exp1","2022-4-27","10:25:25","25","75","3","9","10","40","30","120","67","20","[""White""]","No","Female","1580464","null","null","","","","clear_screen","","","","","","","","","","","","","","","","","","","","","","","","","",""
"","","","","","canvas-keyboard-response","147","237007","0.0-12.0-0.27","2d_cat_multi_stim_exp1","2022-4-27","10:25:25","25","75","3","9","10","40","30","120","67","20","[""White""]","No","Female","1580464","null","null","","","","fixation","","","","","","","","","","","","","","","","","","","","","","","","","",""
"","","","","","canvas-keyboard-response","148","237522","0.0-12.0-1.27","2d_cat_multi_stim_exp1","2022-4-27","10:25:25","25","75","3","9","10","40","30","120","67","20","[""White""]","No","Female","1580464","null","null","","","","clear_screen","","","","","","","","","","","","","","","","","","","","","","","","","",""
"","","","","","canvas-keyboard-response","149","238616","0.0-12.0-2.27","2d_cat_multi_stim_exp1","2022-4-27","10:25:25","25","75","3","9","10","40","30","120","67","20","[""White""]","No","Female","1580464","1082","u","learn","","","learn_trial","25","75","in","1","1","","","","","","","","","","","","","","","","","","","","",""
"","","","","","canvas-keyboard-response","150","239126","0.0-12.0-3.27","2d_cat_multi_stim_exp1","2022-4-27","10:25:25","25","75","3","9","10","40","30","120","67","20","[""White""]","No","Female","1580464","null","null","learn_feedback","","","learn_feedback","25","75","in","","","","","","","","","","","","","","","","","","","","","","",""
"","","","","","canvas-keyboard-response","151","239188","0.0-12.0-4.27","2d_cat_multi_stim_exp1","2022-4-27","10:25:25","25","75","3","9","10","40","30","120","67","20","[""White""]","No","Female","1580464","null","null","","","","clear_screen","","","","","","","","","","","","","","","","","","","","","","","","","",""
"","","","","","canvas-keyboard-response","152","239699","0.0-12.0-0.28","2d_cat_multi_stim_exp1","2022-4-27","10:25:25","25","75","3","9","10","40","30","120","67","20","[""White""]","No","Female","1580464","null","null","","","","fixation","","","","","","","","","","","","","","","","","","","","","","","","","",""
"","","","","","canvas-keyboard-response","153","240210","0.0-12.0-1.28","2d_cat_multi_stim_exp1","2022-4-27","10:25:25","25","75","3","9","10","40","30","120","67","20","[""White""]","No","Female","1580464","null","null","","","","clear_screen","","","","","","","","","","","","","","","","","","","","","","","","","",""
"","","","","","canvas-keyboard-response","154","240985","0.0-12.0-2.28","2d_cat_multi_stim_exp1","2022-4-27","10:25:25","25","75","3","9","10","40","30","120","67","20","[""White""]","No","Female","1580464","761","i","learn","","","learn_trial","10","100","out","0","1","","","","","","","","","","","","","","","","","","","","",""
"","","","","","canvas-keyboard-response","155","241498","0.0-12.0-3.28","2d_cat_multi_stim_exp1","2022-4-27","10:25:25","25","75","3","9","10","40","30","120","67","20","[""White""]","No","Female","1580464","null","null","learn_feedback","","","learn_feedback","10","100","out","","","","","","","","","","","","","","","","","","","","","","",""
"","","","","","canvas-keyboard-response","156","241560","0.0-12.0-4.28","2d_cat_multi_stim_exp1","2022-4-27","10:25:25","25","75","3","9","10","40","30","120","67","20","[""White""]","No","Female","1580464","null","null","","","","clear_screen","","","","","","","","","","","","","","","","","","","","","","","","","",""
"","","","","","canvas-keyboard-response","157","242071","0.0-12.0-0.29","2d_cat_multi_stim_exp1","2022-4-27","10:25:25","25","75","3","9","10","40","30","120","67","20","[""White""]","No","Female","1580464","null","null","","","","fixation","","","","","","","","","","","","","","","","","","","","","","","","","",""
"","","","","","canvas-keyboard-response","158","242581","0.0-12.0-1.29","2d_cat_multi_stim_exp1","2022-4-27","10:25:25","25","75","3","9","10","40","30","120","67","20","[""White""]","No","Female","1580464","null","null","","","","clear_screen","","","","","","","","","","","","","","","","","","","","","","","","","",""
"","","","","","canvas-keyboard-response","159","243192","0.0-12.0-2.29","2d_cat_multi_stim_exp1","2022-4-27","10:25:25","25","75","3","9","10","40","30","120","67","20","[""White""]","No","Female","1580464","599","i","learn","","","learn_trial","27.8087","71.8376","in","0","0","","","","","","","","","","","","","","","","","","","","",""
"","","","","","canvas-keyboard-response","160","244203","0.0-12.0-3.29","2d_cat_multi_stim_exp1","2022-4-27","10:25:25","25","75","3","9","10","40","30","120","67","20","[""White""]","No","Female","1580464","null","null","learn_feedback","","","learn_feedback","27.8087","71.8376","in","","","","","","","","","","","","","","","","","","","","","","",""
"","","","","","canvas-keyboard-response","161","244263","0.0-12.0-4.29","2d_cat_multi_stim_exp1","2022-4-27","10:25:25","25","75","3","9","10","40","30","120","67","20","[""White""]","No","Female","1580464","null","null","","","","clear_screen","","","","","","","","","","","","","","","","","","","","","","","","","",""
"","","","","","canvas-keyboard-response","162","244774","0.0-12.0-0.30","2d_cat_multi_stim_exp1","2022-4-27","10:25:25","25","75","3","9","10","40","30","120","67","20","[""White""]","No","Female","1580464","null","null","","","","fixation","","","","","","","","","","","","","","","","","","","","","","","","","",""
"","","","","","canvas-keyboard-response","163","245288","0.0-12.0-1.30","2d_cat_multi_stim_exp1","2022-4-27","10:25:25","25","75","3","9","10","40","30","120","67","20","[""White""]","No","Female","1580464","null","null","","","","clear_screen","","","","","","","","","","","","","","","","","","","","","","","","","",""
"","","","","","canvas-keyboard-response","164","245961","0.0-12.0-2.30","2d_cat_multi_stim_exp1","2022-4-27","10:25:25","25","75","3","9","10","40","30","120","67","20","[""White""]","No","Female","1580464","663","i","learn","","","learn_trial","28","75","in","0","0","","","","","","","","","","","","","","","","","","","","",""
"","","","","","canvas-keyboard-response","165","246970","0.0-12.0-3.30","2d_cat_multi_stim_exp1","2022-4-27","10:25:25","25","75","3","9","10","40","30","120","67","20","[""White""]","No","Female","1580464","null","null","learn_feedback","","","learn_feedback","28","75","in","","","","","","","","","","","","","","","","","","","","","","",""
"","","","","","canvas-keyboard-response","166","247031","0.0-12.0-4.30","2d_cat_multi_stim_exp1","2022-4-27","10:25:25","25","75","3","9","10","40","30","120","67","20","[""White""]","No","Female","1580464","null","null","","","","clear_screen","","","","","","","","","","","","","","","","","","","","","","","","","",""
"","","","","","canvas-keyboard-response","167","247542","0.0-12.0-0.31","2d_cat_multi_stim_exp1","2022-4-27","10:25:25","25","75","3","9","10","40","30","120","67","20","[""White""]","No","Female","1580464","null","null","","","","fixation","","","","","","","","","","","","","","","","","","","","","","","","","",""
"","","","","","canvas-keyboard-response","168","248053","0.0-12.0-1.31","2d_cat_multi_stim_exp1","2022-4-27","10:25:25","25","75","3","9","10","40","30","120","67","20","[""White""]","No","Female","1580464","null","null","","","","clear_screen","","","","","","","","","","","","","","","","","","","","","","","","","",""
"","","","","","canvas-keyboard-response","169","248713","0.0-12.0-2.31","2d_cat_multi_stim_exp1","2022-4-27","10:25:25","25","75","3","9","10","40","30","120","67","20","[""White""]","No","Female","1580464","651","i","learn","","","learn_trial","25","75","in","0","0","","","","","","","","","","","","","","","","","","","","",""
"","","","","","canvas-keyboard-response","170","249721","0.0-12.0-3.31","2d_cat_multi_stim_exp1","2022-4-27","10:25:25","25","75","3","9","10","40","30","120","67","20","[""White""]","No","Female","1580464","null","null","learn_feedback","","","learn_feedback","25","75","in","","","","","","","","","","","","","","","","","","","","","","",""
"","","","","","canvas-keyboard-response","171","249780","0.0-12.0-4.31","2d_cat_multi_stim_exp1","2022-4-27","10:25:25","25","75","3","9","10","40","30","120","67","20","[""White""]","No","Female","1580464","null","null","","","","clear_screen","","","","","","","","","","","","","","","","","","","","","","","","","",""
"","","","","","canvas-keyboard-response","172","250291","0.0-12.0-0.32","2d_cat_multi_stim_exp1","2022-4-27","10:25:25","25","75","3","9","10","40","30","120","67","20","[""White""]","No","Female","1580464","null","null","","","","fixation","","","","","","","","","","","","","","","","","","","","","","","","","",""
"","","","","","canvas-keyboard-response","173","250806","0.0-12.0-1.32","2d_cat_multi_stim_exp1","2022-4-27","10:25:25","25","75","3","9","10","40","30","120","67","20","[""White""]","No","Female","1580464","null","null","","","","clear_screen","","","","","","","","","","","","","","","","","","","","","","","","","",""
"","","","","","canvas-keyboard-response","174","251688","0.0-12.0-2.32","2d_cat_multi_stim_exp1","2022-4-27","10:25:25","25","75","3","9","10","40","30","120","67","20","[""White""]","No","Female","1580464","872","u","learn","","","learn_trial","30","90","out","1","0","","","","","","","","","","","","","","","","","","","","",""
"","","","","","canvas-keyboard-response","175","252698","0.0-12.0-3.32","2d_cat_multi_stim_exp1","2022-4-27","10:25:25","25","75","3","9","10","40","30","120","67","20","[""White""]","No","Female","1580464","null","null","learn_feedback","","","learn_feedback","30","90","out","","","","","","","","","","","","","","","","","","","","","","",""
"","","","","","canvas-keyboard-response","176","252757","0.0-12.0-4.32","2d_cat_multi_stim_exp1","2022-4-27","10:25:25","25","75","3","9","10","40","30","120","67","20","[""White""]","No","Female","1580464","null","null","","","","clear_screen","","","","","","","","","","","","","","","","","","","","","","","","","",""
"","","","","","canvas-keyboard-response","177","253270","0.0-12.0-0.33","2d_cat_multi_stim_exp1","2022-4-27","10:25:25","25","75","3","9","10","40","30","120","67","20","[""White""]","No","Female","1580464","null","null","","","","fixation","","","","","","","","","","","","","","","","","","","","","","","","","",""
"","","","","","canvas-keyboard-response","178","253779","0.0-12.0-1.33","2d_cat_multi_stim_exp1","2022-4-27","10:25:25","25","75","3","9","10","40","30","120","67","20","[""White""]","No","Female","1580464","null","null","","","","clear_screen","","","","","","","","","","","","","","","","","","","","","","","","","",""
"","","","","","canvas-keyboard-response","179","254273","0.0-12.0-2.33","2d_cat_multi_stim_exp1","2022-4-27","10:25:25","25","75","3","9","10","40","30","120","67","20","[""White""]","No","Female","1580464","483","u","learn","","","learn_trial","22.9268","68.4948","in","1","1","","","","","","","","","","","","","","","","","","","","",""
"","","","","","canvas-keyboard-response","180","254786","0.0-12.0-3.33","2d_cat_multi_stim_exp1","2022-4-27","10:25:25","25","75","3","9","10","40","30","120","67","20","[""White""]","No","Female","1580464","null","null","learn_feedback","","","learn_feedback","22.9268","68.4948","in","","","","","","","","","","","","","","","","","","","","","","",""
"","","","","","canvas-keyboard-response","181","254849","0.0-12.0-4.33","2d_cat_multi_stim_exp1","2022-4-27","10:25:25","25","75","3","9","10","40","30","120","67","20","[""White""]","No","Female","1580464","null","null","","","","clear_screen","","","","","","","","","","","","","","","","","","","","","","","","","",""
"","","","","","canvas-keyboard-response","182","255360","0.0-12.0-0.34","2d_cat_multi_stim_exp1","2022-4-27","10:25:25","25","75","3","9","10","40","30","120","67","20","[""White""]","No","Female","1580464","null","null","","","","fixation","","","","","","","","","","","","","","","","","","","","","","","","","",""
"","","","","","canvas-keyboard-response","183","255875","0.0-12.0-1.34","2d_cat_multi_stim_exp1","2022-4-27","10:25:25","25","75","3","9","10","40","30","120","67","20","[""White""]","No","Female","1580464","null","null","","","","clear_screen","","","","","","","","","","","","","","","","","","","","","","","","","",""
"","","","","","canvas-keyboard-response","184","256353","0.0-12.0-2.34","2d_cat_multi_stim_exp1","2022-4-27","10:25:25","25","75","3","9","10","40","30","120","67","20","[""White""]","No","Female","1580464","467","u","learn","","","learn_trial","25","75","in","1","1","","","","","","","","","","","","","","","","","","","","",""
"","","","","","canvas-keyboard-response","185","256862","0.0-12.0-3.34","2d_cat_multi_stim_exp1","2022-4-27","10:25:25","25","75","3","9","10","40","30","120","67","20","[""White""]","No","Female","1580464","null","null","learn_feedback","","","learn_feedback","25","75","in","","","","","","","","","","","","","","","","","","","","","","",""
"","","","","","canvas-keyboard-response","186","256921","0.0-12.0-4.34","2d_cat_multi_stim_exp1","2022-4-27","10:25:25","25","75","3","9","10","40","30","120","67","20","[""White""]","No","Female","1580464","null","null","","","","clear_screen","","","","","","","","","","","","","","","","","","","","","","","","","",""
"","","","","","canvas-keyboard-response","187","257431","0.0-12.0-0.35","2d_cat_multi_stim_exp1","2022-4-27","10:25:25","25","75","3","9","10","40","30","120","67","20","[""White""]","No","Female","1580464","null","null","","","","fixation","","","","","","","","","","","","","","","","","","","","","","","","","",""
"","","","","","canvas-keyboard-response","188","257941","0.0-12.0-1.35","2d_cat_multi_stim_exp1","2022-4-27","10:25:25","25","75","3","9","10","40","30","120","67","20","[""White""]","No","Female","1580464","null","null","","","","clear_screen","","","","","","","","","","","","","","","","","","","","","","","","","",""
"","","","","","canvas-keyboard-response","189","258449","0.0-12.0-2.35","2d_cat_multi_stim_exp1","2022-4-27","10:25:25","25","75","3","9","10","40","30","120","67","20","[""White""]","No","Female","1580464","499","u","learn","","","learn_trial","27.5753","70.3839","in","1","1","","","","","","","","","","","","","","","","","","","","",""
"","","","","","canvas-keyboard-response","190","258957","0.0-12.0-3.35","2d_cat_multi_stim_exp1","2022-4-27","10:25:25","25","75","3","9","10","40","30","120","67","20","[""White""]","No","Female","1580464","null","null","learn_feedback","","","learn_feedback","27.5753","70.3839","in","","","","","","","","","","","","","","","","","","","","","","",""
"","","","","","canvas-keyboard-response","191","259019","0.0-12.0-4.35","2d_cat_multi_stim_exp1","2022-4-27","10:25:25","25","75","3","9","10","40","30","120","67","20","[""White""]","No","Female","1580464","null","null","","","","clear_screen","","","","","","","","","","","","","","","","","","","","","","","","","",""
"","","","","","canvas-keyboard-response","192","259530","0.0-12.0-0.36","2d_cat_multi_stim_exp1","2022-4-27","10:25:25","25","75","3","9","10","40","30","120","67","20","[""White""]","No","Female","1580464","null","null","","","","fixation","","","","","","","","","","","","","","","","","","","","","","","","","",""
"","","","","","canvas-keyboard-response","193","260041","0.0-12.0-1.36","2d_cat_multi_stim_exp1","2022-4-27","10:25:25","25","75","3","9","10","40","30","120","67","20","[""White""]","No","Female","1580464","null","null","","","","clear_screen","","","","","","","","","","","","","","","","","","","","","","","","","",""
"","","","","","canvas-keyboard-response","194","260489","0.0-12.0-2.36","2d_cat_multi_stim_exp1","2022-4-27","10:25:25","25","75","3","9","10","40","30","120","67","20","[""White""]","No","Female","1580464","438","i","learn","","","learn_trial","30","40","out","0","1","","","","","","","","","","","","","","","","","","","","",""
"","","","","","canvas-keyboard-response","195","261003","0.0-12.0-3.36","2d_cat_multi_stim_exp1","2022-4-27","10:25:25","25","75","3","9","10","40","30","120","67","20","[""White""]","No","Female","1580464","null","null","learn_feedback","","","learn_feedback","30","40","out","","","","","","","","","","","","","","","","","","","","","","",""
"","","","","","canvas-keyboard-response","196","261062","0.0-12.0-4.36","2d_cat_multi_stim_exp1","2022-4-27","10:25:25","25","75","3","9","10","40","30","120","67","20","[""White""]","No","Female","1580464","null","null","","","","clear_screen","","","","","","","","","","","","","","","","","","","","","","","","","",""
"","","","","","canvas-keyboard-response","197","261573","0.0-12.0-0.37","2d_cat_multi_stim_exp1","2022-4-27","10:25:25","25","75","3","9","10","40","30","120","67","20","[""White""]","No","Female","1580464","null","null","","","","fixation","","","","","","","","","","","","","","","","","","","","","","","","","",""
"","","","","","canvas-keyboard-response","198","262082","0.0-12.0-1.37","2d_cat_multi_stim_exp1","2022-4-27","10:25:25","25","75","3","9","10","40","30","120","67","20","[""White""]","No","Female","1580464","null","null","","","","clear_screen","","","","","","","","","","","","","","","","","","","","","","","","","",""
"","","","","","canvas-keyboard-response","199","262649","0.0-12.0-2.37","2d_cat_multi_stim_exp1","2022-4-27","10:25:25","25","75","3","9","10","40","30","120","67","20","[""White""]","No","Female","1580464","556","u","learn","","","learn_trial","25","75","in","1","1","","","","","","","","","","","","","","","","","","","","",""
"","","","","","canvas-keyboard-response","200","263158","0.0-12.0-3.37","2d_cat_multi_stim_exp1","2022-4-27","10:25:25","25","75","3","9","10","40","30","120","67","20","[""White""]","No","Female","1580464","null","null","learn_feedback","","","learn_feedback","25","75","in","","","","","","","","","","","","","","","","","","","","","","",""
"","","","","","canvas-keyboard-response","201","263218","0.0-12.0-4.37","2d_cat_multi_stim_exp1","2022-4-27","10:25:25","25","75","3","9","10","40","30","120","67","20","[""White""]","No","Female","1580464","null","null","","","","clear_screen","","","","","","","","","","","","","","","","","","","","","","","","","",""
"","","","","","canvas-keyboard-response","202","263730","0.0-12.0-0.38","2d_cat_multi_stim_exp1","2022-4-27","10:25:25","25","75","3","9","10","40","30","120","67","20","[""White""]","No","Female","1580464","null","null","","","","fixation","","","","","","","","","","","","","","","","","","","","","","","","","",""
"","","","","","canvas-keyboard-response","203","264242","0.0-12.0-1.38","2d_cat_multi_stim_exp1","2022-4-27","10:25:25","25","75","3","9","10","40","30","120","67","20","[""White""]","No","Female","1580464","null","null","","","","clear_screen","","","","","","","","","","","","","","","","","","","","","","","","","",""
"","","","","","canvas-keyboard-response","204","265449","0.0-12.0-2.38","2d_cat_multi_stim_exp1","2022-4-27","10:25:25","25","75","3","9","10","40","30","120","67","20","[""White""]","No","Female","1580464","1198","u","learn","","","learn_trial","26.4216","82.9254","in","1","1","","","","","","","","","","","","","","","","","","","","",""
"","","","","","canvas-keyboard-response","205","265957","0.0-12.0-3.38","2d_cat_multi_stim_exp1","2022-4-27","10:25:25","25","75","3","9","10","40","30","120","67","20","[""White""]","No","Female","1580464","null","null","learn_feedback","","","learn_feedback","26.4216","82.9254","in","","","","","","","","","","","","","","","","","","","","","","",""
"","","","","","canvas-keyboard-response","206","266016","0.0-12.0-4.38","2d_cat_multi_stim_exp1","2022-4-27","10:25:25","25","75","3","9","10","40","30","120","67","20","[""White""]","No","Female","1580464","null","null","","","","clear_screen","","","","","","","","","","","","","","","","","","","","","","","","","",""
"","","","","","canvas-keyboard-response","207","266526","0.0-12.0-0.39","2d_cat_multi_stim_exp1","2022-4-27","10:25:25","25","75","3","9","10","40","30","120","67","20","[""White""]","No","Female","1580464","null","null","","","","fixation","","","","","","","","","","","","","","","","","","","","","","","","","",""
"","","","","","canvas-keyboard-response","208","267038","0.0-12.0-1.39","2d_cat_multi_stim_exp1","2022-4-27","10:25:25","25","75","3","9","10","40","30","120","67","20","[""White""]","No","Female","1580464","null","null","","","","clear_screen","","","","","","","","","","","","","","","","","","","","","","","","","",""
"","","","","","canvas-keyboard-response","209","267930","0.0-12.0-2.39","2d_cat_multi_stim_exp1","2022-4-27","10:25:25","25","75","3","9","10","40","30","120","67","20","[""White""]","No","Female","1580464","880","u","learn","","","learn_trial","16.6667","60","out","1","0","","","","","","","","","","","","","","","","","","","","",""
"","","","","","canvas-keyboard-response","210","268940","0.0-12.0-3.39","2d_cat_multi_stim_exp1","2022-4-27","10:25:25","25","75","3","9","10","40","30","120","67","20","[""White""]","No","Female","1580464","null","null","learn_feedback","","","learn_feedback","16.6667","60","out","","","","","","","","","","","","","","","","","","","","","","",""
"","","","","","canvas-keyboard-response","211","269002","0.0-12.0-4.39","2d_cat_multi_stim_exp1","2022-4-27","10:25:25","25","75","3","9","10","40","30","120","67","20","[""White""]","No","Female","1580464","null","null","","","","clear_screen","","","","","","","","","","","","","","","","","","","","","","","","","",""
"","","","","","canvas-keyboard-response","212","269513","0.0-12.0-0.40","2d_cat_multi_stim_exp1","2022-4-27","10:25:25","25","75","3","9","10","40","30","120","67","20","[""White""]","No","Female","1580464","null","null","","","","fixation","","","","","","","","","","","","","","","","","","","","","","","","","",""
"","","","","","canvas-keyboard-response","213","270028","0.0-12.0-1.40","2d_cat_multi_stim_exp1","2022-4-27","10:25:25","25","75","3","9","10","40","30","120","67","20","[""White""]","No","Female","1580464","null","null","","","","clear_screen","","","","","","","","","","","","","","","","","","","","","","","","","",""
"","","","","","canvas-keyboard-response","214","270753","0.0-12.0-2.40","2d_cat_multi_stim_exp1","2022-4-27","10:25:25","25","75","3","9","10","40","30","120","67","20","[""White""]","No","Female","1580464","718","u","learn","","","learn_trial","25","75","in","1","1","","","","","","","","","","","","","","","","","","","","",""
"","","","","","canvas-keyboard-response","215","271264","0.0-12.0-3.40","2d_cat_multi_stim_exp1","2022-4-27","10:25:25","25","75","3","9","10","40","30","120","67","20","[""White""]","No","Female","1580464","null","null","learn_feedback","","","learn_feedback","25","75","in","","","","","","","","","","","","","","","","","","","","","","",""
"","","","","","canvas-keyboard-response","216","271324","0.0-12.0-4.40","2d_cat_multi_stim_exp1","2022-4-27","10:25:25","25","75","3","9","10","40","30","120","67","20","[""White""]","No","Female","1580464","null","null","","","","clear_screen","","","","","","","","","","","","","","","","","","","","","","","","","",""
"","","","","","canvas-keyboard-response","217","271833","0.0-12.0-0.41","2d_cat_multi_stim_exp1","2022-4-27","10:25:25","25","75","3","9","10","40","30","120","67","20","[""White""]","No","Female","1580464","null","null","","","","fixation","","","","","","","","","","","","","","","","","","","","","","","","","",""
"","","","","","canvas-keyboard-response","218","272347","0.0-12.0-1.41","2d_cat_multi_stim_exp1","2022-4-27","10:25:25","25","75","3","9","10","40","30","120","67","20","[""White""]","No","Female","1580464","null","null","","","","clear_screen","","","","","","","","","","","","","","","","","","","","","","","","","",""
"","","","","","canvas-keyboard-response","219","273073","0.0-12.0-2.41","2d_cat_multi_stim_exp1","2022-4-27","10:25:25","25","75","3","9","10","40","30","120","67","20","[""White""]","No","Female","1580464","715","i","learn","","","learn_trial","13.3333","70","out","0","1","","","","","","","","","","","","","","","","","","","","",""
"","","","","","canvas-keyboard-response","220","273583","0.0-12.0-3.41","2d_cat_multi_stim_exp1","2022-4-27","10:25:25","25","75","3","9","10","40","30","120","67","20","[""White""]","No","Female","1580464","null","null","learn_feedback","","","learn_feedback","13.3333","70","out","","","","","","","","","","","","","","","","","","","","","","",""
"","","","","","canvas-keyboard-response","221","273643","0.0-12.0-4.41","2d_cat_multi_stim_exp1","2022-4-27","10:25:25","25","75","3","9","10","40","30","120","67","20","[""White""]","No","Female","1580464","null","null","","","","clear_screen","","","","","","","","","","","","","","","","","","","","","","","","","",""
"","","","","","canvas-keyboard-response","222","274155","0.0-12.0-0.42","2d_cat_multi_stim_exp1","2022-4-27","10:25:25","25","75","3","9","10","40","30","120","67","20","[""White""]","No","Female","1580464","null","null","","","","fixation","","","","","","","","","","","","","","","","","","","","","","","","","",""
"","","","","","canvas-keyboard-response","223","274668","0.0-12.0-1.42","2d_cat_multi_stim_exp1","2022-4-27","10:25:25","25","75","3","9","10","40","30","120","67","20","[""White""]","No","Female","1580464","null","null","","","","clear_screen","","","","","","","","","","","","","","","","","","","","","","","","","",""
"","","","","","canvas-keyboard-response","224","275257","0.0-12.0-2.42","2d_cat_multi_stim_exp1","2022-4-27","10:25:25","25","75","3","9","10","40","30","120","67","20","[""White""]","No","Female","1580464","577","u","learn","","","learn_trial","27.9518","73.393","in","1","1","","","","","","","","","","","","","","","","","","","","",""
"","","","","","canvas-keyboard-response","225","275767","0.0-12.0-3.42","2d_cat_multi_stim_exp1","2022-4-27","10:25:25","25","75","3","9","10","40","30","120","67","20","[""White""]","No","Female","1580464","null","null","learn_feedback","","","learn_feedback","27.9518","73.393","in","","","","","","","","","","","","","","","","","","","","","","",""
"","","","","","canvas-keyboard-response","226","275831","0.0-12.0-4.42","2d_cat_multi_stim_exp1","2022-4-27","10:25:25","25","75","3","9","10","40","30","120","67","20","[""White""]","No","Female","1580464","null","null","","","","clear_screen","","","","","","","","","","","","","","","","","","","","","","","","","",""
"","","","","","canvas-keyboard-response","227","276340","0.0-12.0-0.43","2d_cat_multi_stim_exp1","2022-4-27","10:25:25","25","75","3","9","10","40","30","120","67","20","[""White""]","No","Female","1580464","null","null","","","","fixation","","","","","","","","","","","","","","","","","","","","","","","","","",""
"","","","","","canvas-keyboard-response","228","276851","0.0-12.0-1.43","2d_cat_multi_stim_exp1","2022-4-27","10:25:25","25","75","3","9","10","40","30","120","67","20","[""White""]","No","Female","1580464","null","null","","","","clear_screen","","","","","","","","","","","","","","","","","","","","","","","","","",""
"","","","","","canvas-keyboard-response","229","277889","0.0-12.0-2.43","2d_cat_multi_stim_exp1","2022-4-27","10:25:25","25","75","3","9","10","40","30","120","67","20","[""White""]","No","Female","1580464","1026","u","learn","","","learn_trial","25","75","in","1","1","","","","","","","","","","","","","","","","","","","","",""
"","","","","","canvas-keyboard-response","230","278398","0.0-12.0-3.43","2d_cat_multi_stim_exp1","2022-4-27","10:25:25","25","75","3","9","10","40","30","120","67","20","[""White""]","No","Female","1580464","null","null","learn_feedback","","","learn_feedback","25","75","in","","","","","","","","","","","","","","","","","","","","","","",""
"","","","","","canvas-keyboard-response","231","278461","0.0-12.0-4.43","2d_cat_multi_stim_exp1","2022-4-27","10:25:25","25","75","3","9","10","40","30","120","67","20","[""White""]","No","Female","1580464","null","null","","","","clear_screen","","","","","","","","","","","","","","","","","","","","","","","","","",""
"","","","","","canvas-keyboard-response","232","278972","0.0-12.0-0.44","2d_cat_multi_stim_exp1","2022-4-27","10:25:25","25","75","3","9","10","40","30","120","67","20","[""White""]","No","Female","1580464","null","null","","","","fixation","","","","","","","","","","","","","","","","","","","","","","","","","",""
"","","","","","canvas-keyboard-response","233","279487","0.0-12.0-1.44","2d_cat_multi_stim_exp1","2022-4-27","10:25:25","25","75","3","9","10","40","30","120","67","20","[""White""]","No","Female","1580464","null","null","","","","clear_screen","","","","","","","","","","","","","","","","","","","","","","","","","",""
"","","","","","canvas-keyboard-response","234","280241","0.0-12.0-2.44","2d_cat_multi_stim_exp1","2022-4-27","10:25:25","25","75","3","9","10","40","30","120","67","20","[""White""]","No","Female","1580464","743","u","learn","","","learn_trial","25","75","in","1","1","","","","","","","","","","","","","","","","","","","","",""
"","","","","","canvas-keyboard-response","235","280752","0.0-12.0-3.44","2d_cat_multi_stim_exp1","2022-4-27","10:25:25","25","75","3","9","10","40","30","120","67","20","[""White""]","No","Female","1580464","null","null","learn_feedback","","","learn_feedback","25","75","in","","","","","","","","","","","","","","","","","","","","","","",""
"","","","","","canvas-keyboard-response","236","280811","0.0-12.0-4.44","2d_cat_multi_stim_exp1","2022-4-27","10:25:25","25","75","3","9","10","40","30","120","67","20","[""White""]","No","Female","1580464","null","null","","","","clear_screen","","","","","","","","","","","","","","","","","","","","","","","","","",""
"","","","","","canvas-keyboard-response","237","281322","0.0-12.0-0.45","2d_cat_multi_stim_exp1","2022-4-27","10:25:25","25","75","3","9","10","40","30","120","67","20","[""White""]","No","Female","1580464","null","null","","","","fixation","","","","","","","","","","","","","","","","","","","","","","","","","",""
"","","","","","canvas-keyboard-response","238","281833","0.0-12.0-1.45","2d_cat_multi_stim_exp1","2022-4-27","10:25:25","25","75","3","9","10","40","30","120","67","20","[""White""]","No","Female","1580464","null","null","","","","clear_screen","","","","","","","","","","","","","","","","","","","","","","","","","",""
"","","","","","canvas-keyboard-response","239","282562","0.0-12.0-2.45","2d_cat_multi_stim_exp1","2022-4-27","10:25:25","25","75","3","9","10","40","30","120","67","20","[""White""]","No","Female","1580464","717","i","learn","","","learn_trial","40","90","out","0","1","","","","","","","","","","","","","","","","","","","","",""
"","","","","","canvas-keyboard-response","240","283070","0.0-12.0-3.45","2d_cat_multi_stim_exp1","2022-4-27","10:25:25","25","75","3","9","10","40","30","120","67","20","[""White""]","No","Female","1580464","null","null","learn_feedback","","","learn_feedback","40","90","out","","","","","","","","","","","","","","","","","","","","","","",""
"","","","","","canvas-keyboard-response","241","283134","0.0-12.0-4.45","2d_cat_multi_stim_exp1","2022-4-27","10:25:25","25","75","3","9","10","40","30","120","67","20","[""White""]","No","Female","1580464","null","null","","","","clear_screen","","","","","","","","","","","","","","","","","","","","","","","","","",""
"","","","","","canvas-keyboard-response","242","283645","0.0-12.0-0.46","2d_cat_multi_stim_exp1","2022-4-27","10:25:25","25","75","3","9","10","40","30","120","67","20","[""White""]","No","Female","1580464","null","null","","","","fixation","","","","","","","","","","","","","","","","","","","","","","","","","",""
"","","","","","canvas-keyboard-response","243","284155","0.0-12.0-1.46","2d_cat_multi_stim_exp1","2022-4-27","10:25:25","25","75","3","9","10","40","30","120","67","20","[""White""]","No","Female","1580464","null","null","","","","clear_screen","","","","","","","","","","","","","","","","","","","","","","","","","",""
"","","","","","canvas-keyboard-response","244","284855","0.0-12.0-2.46","2d_cat_multi_stim_exp1","2022-4-27","10:25:25","25","75","3","9","10","40","30","120","67","20","[""White""]","No","Female","1580464","690","u","learn","","","learn_trial","16.6667","120","out","1","0","","","","","","","","","","","","","","","","","","","","",""
"","","","","","canvas-keyboard-response","245","285862","0.0-12.0-3.46","2d_cat_multi_stim_exp1","2022-4-27","10:25:25","25","75","3","9","10","40","30","120","67","20","[""White""]","No","Female","1580464","null","null","learn_feedback","","","learn_feedback","16.6667","120","out","","","","","","","","","","","","","","","","","","","","","","",""
"","","","","","canvas-keyboard-response","246","285925","0.0-12.0-4.46","2d_cat_multi_stim_exp1","2022-4-27","10:25:25","25","75","3","9","10","40","30","120","67","20","[""White""]","No","Female","1580464","null","null","","","","clear_screen","","","","","","","","","","","","","","","","","","","","","","","","","",""
"","","","","","canvas-keyboard-response","247","286436","0.0-12.0-0.47","2d_cat_multi_stim_exp1","2022-4-27","10:25:25","25","75","3","9","10","40","30","120","67","20","[""White""]","No","Female","1580464","null","null","","","","fixation","","","","","","","","","","","","","","","","","","","","","","","","","",""
"","","","","","canvas-keyboard-response","248","286948","0.0-12.0-1.47","2d_cat_multi_stim_exp1","2022-4-27","10:25:25","25","75","3","9","10","40","30","120","67","20","[""White""]","No","Female","1580464","null","null","","","","clear_screen","","","","","","","","","","","","","","","","","","","","","","","","","",""
"","","","","","canvas-keyboard-response","249","287697","0.0-12.0-2.47","2d_cat_multi_stim_exp1","2022-4-27","10:25:25","25","75","3","9","10","40","30","120","67","20","[""White""]","No","Female","1580464","740","i","learn","","","learn_trial","16.6667","50","out","0","1","","","","","","","","","","","","","","","","","","","","",""
"","","","","","canvas-keyboard-response","250","288207","0.0-12.0-3.47","2d_cat_multi_stim_exp1","2022-4-27","10:25:25","25","75","3","9","10","40","30","120","67","20","[""White""]","No","Female","1580464","null","null","learn_feedback","","","learn_feedback","16.6667","50","out","","","","","","","","","","","","","","","","","","","","","","",""
"","","","","","canvas-keyboard-response","251","288267","0.0-12.0-4.47","2d_cat_multi_stim_exp1","2022-4-27","10:25:25","25","75","3","9","10","40","30","120","67","20","[""White""]","No","Female","1580464","null","null","","","","clear_screen","","","","","","","","","","","","","","","","","","","","","","","","","",""
"","","","","","canvas-keyboard-response","252","288778","0.0-12.0-0.48","2d_cat_multi_stim_exp1","2022-4-27","10:25:25","25","75","3","9","10","40","30","120","67","20","[""White""]","No","Female","1580464","null","null","","","","fixation","","","","","","","","","","","","","","","","","","","","","","","","","",""
"","","","","","canvas-keyboard-response","253","289291","0.0-12.0-1.48","2d_cat_multi_stim_exp1","2022-4-27","10:25:25","25","75","3","9","10","40","30","120","67","20","[""White""]","No","Female","1580464","null","null","","","","clear_screen","","","","","","","","","","","","","","","","","","","","","","","","","",""
"","","","","","canvas-keyboard-response","254","289841","0.0-12.0-2.48","2d_cat_multi_stim_exp1","2022-4-27","10:25:25","25","75","3","9","10","40","30","120","67","20","[""White""]","No","Female","1580464","541","u","learn","","","learn_trial","33.3333","60","out","1","0","","","","","","","","","","","","","","","","","","","","",""
"","","","","","canvas-keyboard-response","255","290849","0.0-12.0-3.48","2d_cat_multi_stim_exp1","2022-4-27","10:25:25","25","75","3","9","10","40","30","120","67","20","[""White""]","No","Female","1580464","null","null","learn_feedback","","","learn_feedback","33.3333","60","out","","","","","","","","","","","","","","","","","","","","","","",""
"","","","","","canvas-keyboard-response","256","290908","0.0-12.0-4.48","2d_cat_multi_stim_exp1","2022-4-27","10:25:25","25","75","3","9","10","40","30","120","67","20","[""White""]","No","Female","1580464","null","null","","","","clear_screen","","","","","","","","","","","","","","","","","","","","","","","","","",""
"","","","","","canvas-keyboard-response","257","291418","0.0-12.0-0.49","2d_cat_multi_stim_exp1","2022-4-27","10:25:25","25","75","3","9","10","40","30","120","67","20","[""White""]","No","Female","1580464","null","null","","","","fixation","","","","","","","","","","","","","","","","","","","","","","","","","",""
"","","","","","canvas-keyboard-response","258","291928","0.0-12.0-1.49","2d_cat_multi_stim_exp1","2022-4-27","10:25:25","25","75","3","9","10","40","30","120","67","20","[""White""]","No","Female","1580464","null","null","","","","clear_screen","","","","","","","","","","","","","","","","","","","","","","","","","",""
"","","","","","canvas-keyboard-response","259","292849","0.0-12.0-2.49","2d_cat_multi_stim_exp1","2022-4-27","10:25:25","25","75","3","9","10","40","30","120","67","20","[""White""]","No","Female","1580464","907","u","learn","","","learn_trial","22.1081","72.6057","in","1","1","","","","","","","","","","","","","","","","","","","","",""
"","","","","","canvas-keyboard-response","260","293358","0.0-12.0-3.49","2d_cat_multi_stim_exp1","2022-4-27","10:25:25","25","75","3","9","10","40","30","120","67","20","[""White""]","No","Female","1580464","null","null","learn_feedback","","","learn_feedback","22.1081","72.6057","in","","","","","","","","","","","","","","","","","","","","","","",""
"","","","","","canvas-keyboard-response","261","293423","0.0-12.0-4.49","2d_cat_multi_stim_exp1","2022-4-27","10:25:25","25","75","3","9","10","40","30","120","67","20","[""White""]","No","Female","1580464","null","null","","","","clear_screen","","","","","","","","","","","","","","","","","","","","","","","","","",""
"","","","","","canvas-keyboard-response","262","293932","0.0-12.0-0.50","2d_cat_multi_stim_exp1","2022-4-27","10:25:25","25","75","3","9","10","40","30","120","67","20","[""White""]","No","Female","1580464","null","null","","","","fixation","","","","","","","","","","","","","","","","","","","","","","","","","",""
"","","","","","canvas-keyboard-response","263","294442","0.0-12.0-1.50","2d_cat_multi_stim_exp1","2022-4-27","10:25:25","25","75","3","9","10","40","30","120","67","20","[""White""]","No","Female","1580464","null","null","","","","clear_screen","","","","","","","","","","","","","","","","","","","","","","","","","",""
"","","","","","canvas-keyboard-response","264","295145","0.0-12.0-2.50","2d_cat_multi_stim_exp1","2022-4-27","10:25:25","25","75","3","9","10","40","30","120","67","20","[""White""]","No","Female","1580464","692","i","learn","","","learn_trial","10","50","out","0","1","","","","","","","","","","","","","","","","","","","","",""
"","","","","","canvas-keyboard-response","265","295655","0.0-12.0-3.50","2d_cat_multi_stim_exp1","2022-4-27","10:25:25","25","75","3","9","10","40","30","120","67","20","[""White""]","No","Female","1580464","null","null","learn_feedback","","","learn_feedback","10","50","out","","","","","","","","","","","","","","","","","","","","","","",""
"","","","","","canvas-keyboard-response","266","295718","0.0-12.0-4.50","2d_cat_multi_stim_exp1","2022-4-27","10:25:25","25","75","3","9","10","40","30","120","67","20","[""White""]","No","Female","1580464","null","null","","","","clear_screen","","","","","","","","","","","","","","","","","","","","","","","","","",""
"","","","","","canvas-keyboard-response","267","296227","0.0-12.0-0.51","2d_cat_multi_stim_exp1","2022-4-27","10:25:25","25","75","3","9","10","40","30","120","67","20","[""White""]","No","Female","1580464","null","null","","","","fixation","","","","","","","","","","","","","","","","","","","","","","","","","",""
"","","","","","canvas-keyboard-response","268","296737","0.0-12.0-1.51","2d_cat_multi_stim_exp1","2022-4-27","10:25:25","25","75","3","9","10","40","30","120","67","20","[""White""]","No","Female","1580464","null","null","","","","clear_screen","","","","","","","","","","","","","","","","","","","","","","","","","",""
"","","","","","canvas-keyboard-response","269","297792","0.0-12.0-2.51","2d_cat_multi_stim_exp1","2022-4-27","10:25:25","25","75","3","9","10","40","30","120","67","20","[""White""]","No","Female","1580464","1043","u","learn","","","learn_trial","25","75","in","1","1","","","","","","","","","","","","","","","","","","","","",""
"","","","","","canvas-keyboard-response","270","298302","0.0-12.0-3.51","2d_cat_multi_stim_exp1","2022-4-27","10:25:25","25","75","3","9","10","40","30","120","67","20","[""White""]","No","Female","1580464","null","null","learn_feedback","","","learn_feedback","25","75","in","","","","","","","","","","","","","","","","","","","","","","",""
"","","","","","canvas-keyboard-response","271","298364","0.0-12.0-4.51","2d_cat_multi_stim_exp1","2022-4-27","10:25:25","25","75","3","9","10","40","30","120","67","20","[""White""]","No","Female","1580464","null","null","","","","clear_screen","","","","","","","","","","","","","","","","","","","","","","","","","",""
"","","","","","canvas-keyboard-response","272","298875","0.0-12.0-0.52","2d_cat_multi_stim_exp1","2022-4-27","10:25:25","25","75","3","9","10","40","30","120","67","20","[""White""]","No","Female","1580464","null","null","","","","fixation","","","","","","","","","","","","","","","","","","","","","","","","","",""
"","","","","","canvas-keyboard-response","273","299390","0.0-12.0-1.52","2d_cat_multi_stim_exp1","2022-4-27","10:25:25","25","75","3","9","10","40","30","120","67","20","[""White""]","No","Female","1580464","null","null","","","","clear_screen","","","","","","","","","","","","","","","","","","","","","","","","","",""
"","","","","","canvas-keyboard-response","274","300408","0.0-12.0-2.52","2d_cat_multi_stim_exp1","2022-4-27","10:25:25","25","75","3","9","10","40","30","120","67","20","[""White""]","No","Female","1580464","1006","u","learn","","","learn_trial","20","50","out","1","0","","","","","","","","","","","","","","","","","","","","",""
"","","","","","canvas-keyboard-response","275","301421","0.0-12.0-3.52","2d_cat_multi_stim_exp1","2022-4-27","10:25:25","25","75","3","9","10","40","30","120","67","20","[""White""]","No","Female","1580464","null","null","learn_feedback","","","learn_feedback","20","50","out","","","","","","","","","","","","","","","","","","","","","","",""
"","","","","","canvas-keyboard-response","276","301484","0.0-12.0-4.52","2d_cat_multi_stim_exp1","2022-4-27","10:25:25","25","75","3","9","10","40","30","120","67","20","[""White""]","No","Female","1580464","null","null","","","","clear_screen","","","","","","","","","","","","","","","","","","","","","","","","","",""
"","","","","","canvas-keyboard-response","277","301996","0.0-12.0-0.53","2d_cat_multi_stim_exp1","2022-4-27","10:25:25","25","75","3","9","10","40","30","120","67","20","[""White""]","No","Female","1580464","null","null","","","","fixation","","","","","","","","","","","","","","","","","","","","","","","","","",""
"","","","","","canvas-keyboard-response","278","302510","0.0-12.0-1.53","2d_cat_multi_stim_exp1","2022-4-27","10:25:25","25","75","3","9","10","40","30","120","67","20","[""White""]","No","Female","1580464","null","null","","","","clear_screen","","","","","","","","","","","","","","","","","","","","","","","","","",""
"","","","","","canvas-keyboard-response","279","303449","0.0-12.0-2.53","2d_cat_multi_stim_exp1","2022-4-27","10:25:25","25","75","3","9","10","40","30","120","67","20","[""White""]","No","Female","1580464","929","u","learn","","","learn_trial","24.8654","83.9909","in","1","1","","","","","","","","","","","","","","","","","","","","",""
"","","","","","canvas-keyboard-response","280","303962","0.0-12.0-3.53","2d_cat_multi_stim_exp1","2022-4-27","10:25:25","25","75","3","9","10","40","30","120","67","20","[""White""]","No","Female","1580464","null","null","learn_feedback","","","learn_feedback","24.8654","83.9909","in","","","","","","","","","","","","","","","","","","","","","","",""
"","","","","","canvas-keyboard-response","281","304023","0.0-12.0-4.53","2d_cat_multi_stim_exp1","2022-4-27","10:25:25","25","75","3","9","10","40","30","120","67","20","[""White""]","No","Female","1580464","null","null","","","","clear_screen","","","","","","","","","","","","","","","","","","","","","","","","","",""
"","","","","","canvas-keyboard-response","282","304533","0.0-12.0-0.54","2d_cat_multi_stim_exp1","2022-4-27","10:25:25","25","75","3","9","10","40","30","120","67","20","[""White""]","No","Female","1580464","null","null","","","","fixation","","","","","","","","","","","","","","","","","","","","","","","","","",""
"","","","","","canvas-keyboard-response","283","305047","0.0-12.0-1.54","2d_cat_multi_stim_exp1","2022-4-27","10:25:25","25","75","3","9","10","40","30","120","67","20","[""White""]","No","Female","1580464","null","null","","","","clear_screen","","","","","","","","","","","","","","","","","","","","","","","","","",""
"","","","","","canvas-keyboard-response","284","305808","0.0-12.0-2.54","2d_cat_multi_stim_exp1","2022-4-27","10:25:25","25","75","3","9","10","40","30","120","67","20","[""White""]","No","Female","1580464","752","i","learn","","","learn_trial","20","60","out","0","1","","","","","","","","","","","","","","","","","","","","",""
"","","","","","canvas-keyboard-response","285","306319","0.0-12.0-3.54","2d_cat_multi_stim_exp1","2022-4-27","10:25:25","25","75","3","9","10","40","30","120","67","20","[""White""]","No","Female","1580464","null","null","learn_feedback","","","learn_feedback","20","60","out","","","","","","","","","","","","","","","","","","","","","","",""
"","","","","","canvas-keyboard-response","286","306380","0.0-12.0-4.54","2d_cat_multi_stim_exp1","2022-4-27","10:25:25","25","75","3","9","10","40","30","120","67","20","[""White""]","No","Female","1580464","null","null","","","","clear_screen","","","","","","","","","","","","","","","","","","","","","","","","","",""
"","","","","","canvas-keyboard-response","287","306890","0.0-12.0-0.55","2d_cat_multi_stim_exp1","2022-4-27","10:25:25","25","75","3","9","10","40","30","120","67","20","[""White""]","No","Female","1580464","null","null","","","","fixation","","","","","","","","","","","","","","","","","","","","","","","","","",""
"","","","","","canvas-keyboard-response","288","307403","0.0-12.0-1.55","2d_cat_multi_stim_exp1","2022-4-27","10:25:25","25","75","3","9","10","40","30","120","67","20","[""White""]","No","Female","1580464","null","null","","","","clear_screen","","","","","","","","","","","","","","","","","","","","","","","","","",""
"","","","","","canvas-keyboard-response","289","307905","0.0-12.0-2.55","2d_cat_multi_stim_exp1","2022-4-27","10:25:25","25","75","3","9","10","40","30","120","67","20","[""White""]","No","Female","1580464","491","i","learn","","","learn_trial","24.3324","83.7744","in","0","0","","","","","","","","","","","","","","","","","","","","",""
"","","","","","canvas-keyboard-response","290","308918","0.0-12.0-3.55","2d_cat_multi_stim_exp1","2022-4-27","10:25:25","25","75","3","9","10","40","30","120","67","20","[""White""]","No","Female","1580464","null","null","learn_feedback","","","learn_feedback","24.3324","83.7744","in","","","","","","","","","","","","","","","","","","","","","","",""
"","","","","","canvas-keyboard-response","291","308978","0.0-12.0-4.55","2d_cat_multi_stim_exp1","2022-4-27","10:25:25","25","75","3","9","10","40","30","120","67","20","[""White""]","No","Female","1580464","null","null","","","","clear_screen","","","","","","","","","","","","","","","","","","","","","","","","","",""
"","","","","","canvas-keyboard-response","292","309487","0.0-12.0-0.56","2d_cat_multi_stim_exp1","2022-4-27","10:25:25","25","75","3","9","10","40","30","120","67","20","[""White""]","No","Female","1580464","null","null","","","","fixation","","","","","","","","","","","","","","","","","","","","","","","","","",""
"","","","","","canvas-keyboard-response","293","310001","0.0-12.0-1.56","2d_cat_multi_stim_exp1","2022-4-27","10:25:25","25","75","3","9","10","40","30","120","67","20","[""White""]","No","Female","1580464","null","null","","","","clear_screen","","","","","","","","","","","","","","","","","","","","","","","","","",""
"","","","","","canvas-keyboard-response","294","310465","0.0-12.0-2.56","2d_cat_multi_stim_exp1","2022-4-27","10:25:25","25","75","3","9","10","40","30","120","67","20","[""White""]","No","Female","1580464","454","i","learn","","","learn_trial","13.3333","90","out","0","1","","","","","","","","","","","","","","","","","","","","",""
"","","","","","canvas-keyboard-response","295","310975","0.0-12.0-3.56","2d_cat_multi_stim_exp1","2022-4-27","10:25:25","25","75","3","9","10","40","30","120","67","20","[""White""]","No","Female","1580464","null","null","learn_feedback","","","learn_feedback","13.3333","90","out","","","","","","","","","","","","","","","","","","","","","","",""
"","","","","","canvas-keyboard-response","296","311038","0.0-12.0-4.56","2d_cat_multi_stim_exp1","2022-4-27","10:25:25","25","75","3","9","10","40","30","120","67","20","[""White""]","No","Female","1580464","null","null","","","","clear_screen","","","","","","","","","","","","","","","","","","","","","","","","","",""
