"success","timeout","failed_images","failed_audio","failed_video","trial_type","trial_index","time_elapsed","internal_node_id","exp_name","date","time","angle_mean_in","radius_mean_in","angle_sd_in","radius_sd_in","angle_min_out","angle_max_out","radius_min_out","radius_max_out","sub_n","age","race","ethnicity","gender","exp_duration","rt","stimulus","response","exp_trial_type","view_history","screen_id","angle","radius","distribution","choice","correct","order","angle_a","radius_a","angle_b","radius_b","angle_c","radius_c","jkl_correct","transfer_trial_type","choice_set","abc_correct","tc_correct","tc_angle","tdc_a","tdc_b","tdc_c","pair","category_a","category_b","category_c","question_order"
"true","false","[]","[]","[]","preload","0","54","0.0-0.0","2d_cat_multi_stim_exp1","2022-4-1","13:57:46","25","75","3","9","10","40","30","120","6","21","[""White""]","No","Female","1629464","","","","","","","","","","","","","","","","","","","","","","","","","","","","","","","",""
"","","","","","html-button-response","1","3006","0.0-1.0","2d_cat_multi_stim_exp1","2022-4-1","13:57:46","25","75","3","9","10","40","30","120","6","21","[""White""]","No","Female","1629464","2944","<p><b>WAIT!</b></p></p><p>Did you mean to start this experiment? Only Walker, Esther, and Sean are running participants on this experiment.</p>","0","","","","","","","","","","","","","","","","","","","","","","","","","","","","",""
"","","","","","survey-html-form","2","6204","0.0-2.0","2d_cat_multi_stim_exp1","2022-4-1","13:57:46","25","75","3","9","10","40","30","120","6","21","[""White""]","No","Female","1629464","3186","","{""response"":""6""}","enter-sub-number","","","","","","","","","","","","","","","","","","","","","","","","","","","",""
"true","","","","","fullscreen","3","9941","0.0-3.0","2d_cat_multi_stim_exp1","2022-4-1","13:57:46","25","75","3","9","10","40","30","120","6","21","[""White""]","No","Female","1629464","","","","","","","","","","","","","","","","","","","","","","","","","","","","","","","",""
"","","","","","image-button-response","4","45902","0.0-4.0","2d_cat_multi_stim_exp1","2022-4-1","13:57:46","25","75","3","9","10","40","30","120","6","21","[""White""]","No","Female","1629464","35952","consent.png","0","","","","","","","","","","","","","","","","","","","","","","","","","","","","",""
"","","","","","html-button-response","5","48190","0.0-5.0","2d_cat_multi_stim_exp1","2022-4-1","13:57:46","25","75","3","9","10","40","30","120","6","21","[""White""]","No","Female","1629464","2282","<div style= ""font-size:25px;"" <p> <strong> Welcome to the experiment! </strong><br> <p style=""color:#8B0000; font-size:25px;""><strong> Please do NOT exit full screen until you are done with the experiment. </strong> </p><p style=""font-size:25px;color:#8B0000;""> <strong> The experiment will be canceled and your data will be lost <br> if you try to go back or refresh the page at any point during the experiment.</strong> </p><br><p> <strong> Thanks in advance for your contribution to our research! </strong></p>","0","","","","","","","","","","","","","","","","","","","","","","","","","","","","",""
"","","","","","instructions","6","102157","0.0-6.0","2d_cat_multi_stim_exp1","2022-4-1","13:57:46","25","75","3","9","10","40","30","120","6","21","[""White""]","No","Female","1629464","53963","","","","[{""page_index"":0,""viewing_time"":8284},{""page_index"":1,""viewing_time"":4041},{""page_index"":2,""viewing_time"":22022},{""page_index"":3,""viewing_time"":19616}]","instructions_1","","","","","","","","","","","","","","","","","","","","","","","","","",""
"","","","","","instructions","7","104949","0.0-7.0","2d_cat_multi_stim_exp1","2022-4-1","13:57:46","25","75","3","9","10","40","30","120","6","21","[""White""]","No","Female","1629464","2788","","","","[{""page_index"":0,""viewing_time"":2787}]","Click to see the kinds of turtles that will appear in the study.","","","","","","","","","","","","","","","","","","","","","","","","","",""
"","","","","","canvas-keyboard-response","8","119969","0.0-8.0","2d_cat_multi_stim_exp1","2022-4-1","13:57:46","25","75","3","9","10","40","30","120","6","21","[""White""]","No","Female","1629464","null","","null","","","demo_range","","","","","","","","","","","","","","","","","","","","","","","","","",""
"","","","","","instructions","9","122909","0.0-9.0","2d_cat_multi_stim_exp1","2022-4-1","13:57:46","25","75","3","9","10","40","30","120","6","21","[""White""]","No","Female","1629464","2438","","","","[{""page_index"":0,""viewing_time"":2436}]","Click to see some turtles in the subspecies.","","","","","","","","","","","","","","","","","","","","","","","","","",""
"","","","","","canvas-keyboard-response","10","137928","0.0-10.0","2d_cat_multi_stim_exp1","2022-4-1","13:57:46","25","75","3","9","10","40","30","120","6","21","[""White""]","No","Female","1629464","null","","null","","","demo_in","","","","","","","","","","","","","","","","","","","","","","","","","",""
"","","","","","instructions","11","179332","0.0-11.0","2d_cat_multi_stim_exp1","2022-4-1","13:57:46","25","75","3","9","10","40","30","120","6","21","[""White""]","No","Female","1629464","40902","","","","[{""page_index"":0,""viewing_time"":16926},{""page_index"":1,""viewing_time"":17447},{""page_index"":2,""viewing_time"":6529}]","instructions_2","","","","","","","","","","","","","","","","","","","","","","","","","",""
"","","","","","instructions","12","180909","0.0-12.0","2d_cat_multi_stim_exp1","2022-4-1","13:57:46","25","75","3","9","10","40","30","120","6","21","[""White""]","No","Female","1629464","1574","","","","[{""page_index"":0,""viewing_time"":1574}]","Click to begin the first phase of the experiment.","","","","","","","","","","","","","","","","","","","","","","","","","",""
"","","","","","canvas-keyboard-response","13","181419","0.0-13.0-0.0","2d_cat_multi_stim_exp1","2022-4-1","13:57:46","25","75","3","9","10","40","30","120","6","21","[""White""]","No","Female","1629464","null","","null","","","fixation","","","","","","","","","","","","","","","","","","","","","","","","","",""
"","","","","","canvas-keyboard-response","14","181928","0.0-13.0-1.0","2d_cat_multi_stim_exp1","2022-4-1","13:57:46","25","75","3","9","10","40","30","120","6","21","[""White""]","No","Female","1629464","null","","null","","","clear_screen","","","","","","","","","","","","","","","","","","","","","","","","","",""
"","","","","","canvas-keyboard-response","15","188213","0.0-13.0-2.0","2d_cat_multi_stim_exp1","2022-4-1","13:57:46","25","75","3","9","10","40","30","120","6","21","[""White""]","No","Female","1629464","6274","","i","learn","","learn_trial","36.6667","100","out","0","1","","","","","","","","","","","","","","","","","","","","",""
"","","","","","canvas-keyboard-response","16","188724","0.0-13.0-3.0","2d_cat_multi_stim_exp1","2022-4-1","13:57:46","25","75","3","9","10","40","30","120","6","21","[""White""]","No","Female","1629464","null","","null","learn_feedback","","learn_feedback","36.6667","100","out","","","","","","","","","","","","","","","","","","","","","","",""
"","","","","","canvas-keyboard-response","17","188785","0.0-13.0-4.0","2d_cat_multi_stim_exp1","2022-4-1","13:57:46","25","75","3","9","10","40","30","120","6","21","[""White""]","No","Female","1629464","null","","null","","","clear_screen","","","","","","","","","","","","","","","","","","","","","","","","","",""
"","","","","","canvas-keyboard-response","18","189296","0.0-13.0-0.1","2d_cat_multi_stim_exp1","2022-4-1","13:57:46","25","75","3","9","10","40","30","120","6","21","[""White""]","No","Female","1629464","null","","null","","","fixation","","","","","","","","","","","","","","","","","","","","","","","","","",""
"","","","","","canvas-keyboard-response","19","189805","0.0-13.0-1.1","2d_cat_multi_stim_exp1","2022-4-1","13:57:46","25","75","3","9","10","40","30","120","6","21","[""White""]","No","Female","1629464","null","","null","","","clear_screen","","","","","","","","","","","","","","","","","","","","","","","","","",""
"","","","","","canvas-keyboard-response","20","194805","0.0-13.0-2.1","2d_cat_multi_stim_exp1","2022-4-1","13:57:46","25","75","3","9","10","40","30","120","6","21","[""White""]","No","Female","1629464","4990","","u","learn","","learn_trial","22.5729","69.7099","in","1","1","","","","","","","","","","","","","","","","","","","","",""
"","","","","","canvas-keyboard-response","21","195315","0.0-13.0-3.1","2d_cat_multi_stim_exp1","2022-4-1","13:57:46","25","75","3","9","10","40","30","120","6","21","[""White""]","No","Female","1629464","null","","null","learn_feedback","","learn_feedback","22.5729","69.7099","in","","","","","","","","","","","","","","","","","","","","","","",""
"","","","","","canvas-keyboard-response","22","195373","0.0-13.0-4.1","2d_cat_multi_stim_exp1","2022-4-1","13:57:46","25","75","3","9","10","40","30","120","6","21","[""White""]","No","Female","1629464","null","","null","","","clear_screen","","","","","","","","","","","","","","","","","","","","","","","","","",""
"","","","","","canvas-keyboard-response","23","195881","0.0-13.0-0.2","2d_cat_multi_stim_exp1","2022-4-1","13:57:46","25","75","3","9","10","40","30","120","6","21","[""White""]","No","Female","1629464","null","","null","","","fixation","","","","","","","","","","","","","","","","","","","","","","","","","",""
"","","","","","canvas-keyboard-response","24","196390","0.0-13.0-1.2","2d_cat_multi_stim_exp1","2022-4-1","13:57:46","25","75","3","9","10","40","30","120","6","21","[""White""]","No","Female","1629464","null","","null","","","clear_screen","","","","","","","","","","","","","","","","","","","","","","","","","",""
"","","","","","canvas-keyboard-response","25","200405","0.0-13.0-2.2","2d_cat_multi_stim_exp1","2022-4-1","13:57:46","25","75","3","9","10","40","30","120","6","21","[""White""]","No","Female","1629464","4005","","i","learn","","learn_trial","40","30","out","0","1","","","","","","","","","","","","","","","","","","","","",""
"","","","","","canvas-keyboard-response","26","200915","0.0-13.0-3.2","2d_cat_multi_stim_exp1","2022-4-1","13:57:46","25","75","3","9","10","40","30","120","6","21","[""White""]","No","Female","1629464","null","","null","learn_feedback","","learn_feedback","40","30","out","","","","","","","","","","","","","","","","","","","","","","",""
"","","","","","canvas-keyboard-response","27","200973","0.0-13.0-4.2","2d_cat_multi_stim_exp1","2022-4-1","13:57:46","25","75","3","9","10","40","30","120","6","21","[""White""]","No","Female","1629464","null","","null","","","clear_screen","","","","","","","","","","","","","","","","","","","","","","","","","",""
"","","","","","canvas-keyboard-response","28","201482","0.0-13.0-0.3","2d_cat_multi_stim_exp1","2022-4-1","13:57:46","25","75","3","9","10","40","30","120","6","21","[""White""]","No","Female","1629464","null","","null","","","fixation","","","","","","","","","","","","","","","","","","","","","","","","","",""
"","","","","","canvas-keyboard-response","29","201991","0.0-13.0-1.3","2d_cat_multi_stim_exp1","2022-4-1","13:57:46","25","75","3","9","10","40","30","120","6","21","[""White""]","No","Female","1629464","null","","null","","","clear_screen","","","","","","","","","","","","","","","","","","","","","","","","","",""
"","","","","","canvas-keyboard-response","30","204836","0.0-13.0-2.3","2d_cat_multi_stim_exp1","2022-4-1","13:57:46","25","75","3","9","10","40","30","120","6","21","[""White""]","No","Female","1629464","2836","","i","learn","","learn_trial","23.3333","50","out","0","1","","","","","","","","","","","","","","","","","","","","",""
"","","","","","canvas-keyboard-response","31","205346","0.0-13.0-3.3","2d_cat_multi_stim_exp1","2022-4-1","13:57:46","25","75","3","9","10","40","30","120","6","21","[""White""]","No","Female","1629464","null","","null","learn_feedback","","learn_feedback","23.3333","50","out","","","","","","","","","","","","","","","","","","","","","","",""
"","","","","","canvas-keyboard-response","32","205409","0.0-13.0-4.3","2d_cat_multi_stim_exp1","2022-4-1","13:57:46","25","75","3","9","10","40","30","120","6","21","[""White""]","No","Female","1629464","null","","null","","","clear_screen","","","","","","","","","","","","","","","","","","","","","","","","","",""
"","","","","","canvas-keyboard-response","33","205915","0.0-13.0-0.4","2d_cat_multi_stim_exp1","2022-4-1","13:57:46","25","75","3","9","10","40","30","120","6","21","[""White""]","No","Female","1629464","null","","null","","","fixation","","","","","","","","","","","","","","","","","","","","","","","","","",""
"","","","","","canvas-keyboard-response","34","206424","0.0-13.0-1.4","2d_cat_multi_stim_exp1","2022-4-1","13:57:46","25","75","3","9","10","40","30","120","6","21","[""White""]","No","Female","1629464","null","","null","","","clear_screen","","","","","","","","","","","","","","","","","","","","","","","","","",""
"","","","","","canvas-keyboard-response","35","207781","0.0-13.0-2.4","2d_cat_multi_stim_exp1","2022-4-1","13:57:46","25","75","3","9","10","40","30","120","6","21","[""White""]","No","Female","1629464","1348","","u","learn","","learn_trial","25","75","in","1","1","","","","","","","","","","","","","","","","","","","","",""
"","","","","","canvas-keyboard-response","36","208290","0.0-13.0-3.4","2d_cat_multi_stim_exp1","2022-4-1","13:57:46","25","75","3","9","10","40","30","120","6","21","[""White""]","No","Female","1629464","null","","null","learn_feedback","","learn_feedback","25","75","in","","","","","","","","","","","","","","","","","","","","","","",""
"","","","","","canvas-keyboard-response","37","208348","0.0-13.0-4.4","2d_cat_multi_stim_exp1","2022-4-1","13:57:46","25","75","3","9","10","40","30","120","6","21","[""White""]","No","Female","1629464","null","","null","","","clear_screen","","","","","","","","","","","","","","","","","","","","","","","","","",""
"","","","","","canvas-keyboard-response","38","208856","0.0-13.0-0.5","2d_cat_multi_stim_exp1","2022-4-1","13:57:46","25","75","3","9","10","40","30","120","6","21","[""White""]","No","Female","1629464","null","","null","","","fixation","","","","","","","","","","","","","","","","","","","","","","","","","",""
"","","","","","canvas-keyboard-response","39","209366","0.0-13.0-1.5","2d_cat_multi_stim_exp1","2022-4-1","13:57:46","25","75","3","9","10","40","30","120","6","21","[""White""]","No","Female","1629464","null","","null","","","clear_screen","","","","","","","","","","","","","","","","","","","","","","","","","",""
"","","","","","canvas-keyboard-response","40","212205","0.0-13.0-2.5","2d_cat_multi_stim_exp1","2022-4-1","13:57:46","25","75","3","9","10","40","30","120","6","21","[""White""]","No","Female","1629464","2830","","u","learn","","learn_trial","25","75","in","1","1","","","","","","","","","","","","","","","","","","","","",""
"","","","","","canvas-keyboard-response","41","212714","0.0-13.0-3.5","2d_cat_multi_stim_exp1","2022-4-1","13:57:46","25","75","3","9","10","40","30","120","6","21","[""White""]","No","Female","1629464","null","","null","learn_feedback","","learn_feedback","25","75","in","","","","","","","","","","","","","","","","","","","","","","",""
"","","","","","canvas-keyboard-response","42","212771","0.0-13.0-4.5","2d_cat_multi_stim_exp1","2022-4-1","13:57:46","25","75","3","9","10","40","30","120","6","21","[""White""]","No","Female","1629464","null","","null","","","clear_screen","","","","","","","","","","","","","","","","","","","","","","","","","",""
"","","","","","canvas-keyboard-response","43","213279","0.0-13.0-0.6","2d_cat_multi_stim_exp1","2022-4-1","13:57:46","25","75","3","9","10","40","30","120","6","21","[""White""]","No","Female","1629464","null","","null","","","fixation","","","","","","","","","","","","","","","","","","","","","","","","","",""
"","","","","","canvas-keyboard-response","44","213787","0.0-13.0-1.6","2d_cat_multi_stim_exp1","2022-4-1","13:57:46","25","75","3","9","10","40","30","120","6","21","[""White""]","No","Female","1629464","null","","null","","","clear_screen","","","","","","","","","","","","","","","","","","","","","","","","","",""
"","","","","","canvas-keyboard-response","45","216316","0.0-13.0-2.6","2d_cat_multi_stim_exp1","2022-4-1","13:57:46","25","75","3","9","10","40","30","120","6","21","[""White""]","No","Female","1629464","2519","","i","learn","","learn_trial","30","60","out","0","1","","","","","","","","","","","","","","","","","","","","",""
"","","","","","canvas-keyboard-response","46","216824","0.0-13.0-3.6","2d_cat_multi_stim_exp1","2022-4-1","13:57:46","25","75","3","9","10","40","30","120","6","21","[""White""]","No","Female","1629464","null","","null","learn_feedback","","learn_feedback","30","60","out","","","","","","","","","","","","","","","","","","","","","","",""
"","","","","","canvas-keyboard-response","47","216885","0.0-13.0-4.6","2d_cat_multi_stim_exp1","2022-4-1","13:57:46","25","75","3","9","10","40","30","120","6","21","[""White""]","No","Female","1629464","null","","null","","","clear_screen","","","","","","","","","","","","","","","","","","","","","","","","","",""
"","","","","","canvas-keyboard-response","48","217392","0.0-13.0-0.7","2d_cat_multi_stim_exp1","2022-4-1","13:57:46","25","75","3","9","10","40","30","120","6","21","[""White""]","No","Female","1629464","null","","null","","","fixation","","","","","","","","","","","","","","","","","","","","","","","","","",""
"","","","","","canvas-keyboard-response","49","217901","0.0-13.0-1.7","2d_cat_multi_stim_exp1","2022-4-1","13:57:46","25","75","3","9","10","40","30","120","6","21","[""White""]","No","Female","1629464","null","","null","","","clear_screen","","","","","","","","","","","","","","","","","","","","","","","","","",""
"","","","","","canvas-keyboard-response","50","218964","0.0-13.0-2.7","2d_cat_multi_stim_exp1","2022-4-1","13:57:46","25","75","3","9","10","40","30","120","6","21","[""White""]","No","Female","1629464","1055","","u","learn","","learn_trial","25","75","in","1","1","","","","","","","","","","","","","","","","","","","","",""
"","","","","","canvas-keyboard-response","51","219473","0.0-13.0-3.7","2d_cat_multi_stim_exp1","2022-4-1","13:57:46","25","75","3","9","10","40","30","120","6","21","[""White""]","No","Female","1629464","null","","null","learn_feedback","","learn_feedback","25","75","in","","","","","","","","","","","","","","","","","","","","","","",""
"","","","","","canvas-keyboard-response","52","219532","0.0-13.0-4.7","2d_cat_multi_stim_exp1","2022-4-1","13:57:46","25","75","3","9","10","40","30","120","6","21","[""White""]","No","Female","1629464","null","","null","","","clear_screen","","","","","","","","","","","","","","","","","","","","","","","","","",""
"","","","","","canvas-keyboard-response","53","220039","0.0-13.0-0.8","2d_cat_multi_stim_exp1","2022-4-1","13:57:46","25","75","3","9","10","40","30","120","6","21","[""White""]","No","Female","1629464","null","","null","","","fixation","","","","","","","","","","","","","","","","","","","","","","","","","",""
"","","","","","canvas-keyboard-response","54","220547","0.0-13.0-1.8","2d_cat_multi_stim_exp1","2022-4-1","13:57:46","25","75","3","9","10","40","30","120","6","21","[""White""]","No","Female","1629464","null","","null","","","clear_screen","","","","","","","","","","","","","","","","","","","","","","","","","",""
"","","","","","canvas-keyboard-response","55","221620","0.0-13.0-2.8","2d_cat_multi_stim_exp1","2022-4-1","13:57:46","25","75","3","9","10","40","30","120","6","21","[""White""]","No","Female","1629464","1064","","u","learn","","learn_trial","25.9271","83.5595","in","1","1","","","","","","","","","","","","","","","","","","","","",""
"","","","","","canvas-keyboard-response","56","222129","0.0-13.0-3.8","2d_cat_multi_stim_exp1","2022-4-1","13:57:46","25","75","3","9","10","40","30","120","6","21","[""White""]","No","Female","1629464","null","","null","learn_feedback","","learn_feedback","25.9271","83.5595","in","","","","","","","","","","","","","","","","","","","","","","",""
"","","","","","canvas-keyboard-response","57","222187","0.0-13.0-4.8","2d_cat_multi_stim_exp1","2022-4-1","13:57:46","25","75","3","9","10","40","30","120","6","21","[""White""]","No","Female","1629464","null","","null","","","clear_screen","","","","","","","","","","","","","","","","","","","","","","","","","",""
"","","","","","canvas-keyboard-response","58","222695","0.0-13.0-0.9","2d_cat_multi_stim_exp1","2022-4-1","13:57:46","25","75","3","9","10","40","30","120","6","21","[""White""]","No","Female","1629464","null","","null","","","fixation","","","","","","","","","","","","","","","","","","","","","","","","","",""
"","","","","","canvas-keyboard-response","59","223204","0.0-13.0-1.9","2d_cat_multi_stim_exp1","2022-4-1","13:57:46","25","75","3","9","10","40","30","120","6","21","[""White""]","No","Female","1629464","null","","null","","","clear_screen","","","","","","","","","","","","","","","","","","","","","","","","","",""
"","","","","","canvas-keyboard-response","60","224548","0.0-13.0-2.9","2d_cat_multi_stim_exp1","2022-4-1","13:57:46","25","75","3","9","10","40","30","120","6","21","[""White""]","No","Female","1629464","1336","","u","learn","","learn_trial","25","75","in","1","1","","","","","","","","","","","","","","","","","","","","",""
"","","","","","canvas-keyboard-response","61","225056","0.0-13.0-3.9","2d_cat_multi_stim_exp1","2022-4-1","13:57:46","25","75","3","9","10","40","30","120","6","21","[""White""]","No","Female","1629464","null","","null","learn_feedback","","learn_feedback","25","75","in","","","","","","","","","","","","","","","","","","","","","","",""
"","","","","","canvas-keyboard-response","62","225114","0.0-13.0-4.9","2d_cat_multi_stim_exp1","2022-4-1","13:57:46","25","75","3","9","10","40","30","120","6","21","[""White""]","No","Female","1629464","null","","null","","","clear_screen","","","","","","","","","","","","","","","","","","","","","","","","","",""
"","","","","","canvas-keyboard-response","63","225626","0.0-13.0-0.10","2d_cat_multi_stim_exp1","2022-4-1","13:57:46","25","75","3","9","10","40","30","120","6","21","[""White""]","No","Female","1629464","null","","null","","","fixation","","","","","","","","","","","","","","","","","","","","","","","","","",""
"","","","","","canvas-keyboard-response","64","226135","0.0-13.0-1.10","2d_cat_multi_stim_exp1","2022-4-1","13:57:46","25","75","3","9","10","40","30","120","6","21","[""White""]","No","Female","1629464","null","","null","","","clear_screen","","","","","","","","","","","","","","","","","","","","","","","","","",""
"","","","","","canvas-keyboard-response","65","227452","0.0-13.0-2.10","2d_cat_multi_stim_exp1","2022-4-1","13:57:46","25","75","3","9","10","40","30","120","6","21","[""White""]","No","Female","1629464","1309","","u","learn","","learn_trial","20.7574","87.7279","in","1","1","","","","","","","","","","","","","","","","","","","","",""
"","","","","","canvas-keyboard-response","66","227962","0.0-13.0-3.10","2d_cat_multi_stim_exp1","2022-4-1","13:57:46","25","75","3","9","10","40","30","120","6","21","[""White""]","No","Female","1629464","null","","null","learn_feedback","","learn_feedback","20.7574","87.7279","in","","","","","","","","","","","","","","","","","","","","","","",""
"","","","","","canvas-keyboard-response","67","228020","0.0-13.0-4.10","2d_cat_multi_stim_exp1","2022-4-1","13:57:46","25","75","3","9","10","40","30","120","6","21","[""White""]","No","Female","1629464","null","","null","","","clear_screen","","","","","","","","","","","","","","","","","","","","","","","","","",""
"","","","","","canvas-keyboard-response","68","228528","0.0-13.0-0.11","2d_cat_multi_stim_exp1","2022-4-1","13:57:46","25","75","3","9","10","40","30","120","6","21","[""White""]","No","Female","1629464","null","","null","","","fixation","","","","","","","","","","","","","","","","","","","","","","","","","",""
"","","","","","canvas-keyboard-response","69","229036","0.0-13.0-1.11","2d_cat_multi_stim_exp1","2022-4-1","13:57:46","25","75","3","9","10","40","30","120","6","21","[""White""]","No","Female","1629464","null","","null","","","clear_screen","","","","","","","","","","","","","","","","","","","","","","","","","",""
"","","","","","canvas-keyboard-response","70","230284","0.0-13.0-2.11","2d_cat_multi_stim_exp1","2022-4-1","13:57:46","25","75","3","9","10","40","30","120","6","21","[""White""]","No","Female","1629464","1238","","u","learn","","learn_trial","25","75","in","1","1","","","","","","","","","","","","","","","","","","","","",""
"","","","","","canvas-keyboard-response","71","230792","0.0-13.0-3.11","2d_cat_multi_stim_exp1","2022-4-1","13:57:46","25","75","3","9","10","40","30","120","6","21","[""White""]","No","Female","1629464","null","","null","learn_feedback","","learn_feedback","25","75","in","","","","","","","","","","","","","","","","","","","","","","",""
"","","","","","canvas-keyboard-response","72","230850","0.0-13.0-4.11","2d_cat_multi_stim_exp1","2022-4-1","13:57:46","25","75","3","9","10","40","30","120","6","21","[""White""]","No","Female","1629464","null","","null","","","clear_screen","","","","","","","","","","","","","","","","","","","","","","","","","",""
"","","","","","canvas-keyboard-response","73","231358","0.0-13.0-0.12","2d_cat_multi_stim_exp1","2022-4-1","13:57:46","25","75","3","9","10","40","30","120","6","21","[""White""]","No","Female","1629464","null","","null","","","fixation","","","","","","","","","","","","","","","","","","","","","","","","","",""
"","","","","","canvas-keyboard-response","74","231867","0.0-13.0-1.12","2d_cat_multi_stim_exp1","2022-4-1","13:57:46","25","75","3","9","10","40","30","120","6","21","[""White""]","No","Female","1629464","null","","null","","","clear_screen","","","","","","","","","","","","","","","","","","","","","","","","","",""
"","","","","","canvas-keyboard-response","75","232669","0.0-13.0-2.12","2d_cat_multi_stim_exp1","2022-4-1","13:57:46","25","75","3","9","10","40","30","120","6","21","[""White""]","No","Female","1629464","793","","i","learn","","learn_trial","33.3333","30","out","0","1","","","","","","","","","","","","","","","","","","","","",""
"","","","","","canvas-keyboard-response","76","233178","0.0-13.0-3.12","2d_cat_multi_stim_exp1","2022-4-1","13:57:46","25","75","3","9","10","40","30","120","6","21","[""White""]","No","Female","1629464","null","","null","learn_feedback","","learn_feedback","33.3333","30","out","","","","","","","","","","","","","","","","","","","","","","",""
"","","","","","canvas-keyboard-response","77","233236","0.0-13.0-4.12","2d_cat_multi_stim_exp1","2022-4-1","13:57:46","25","75","3","9","10","40","30","120","6","21","[""White""]","No","Female","1629464","null","","null","","","clear_screen","","","","","","","","","","","","","","","","","","","","","","","","","",""
"","","","","","canvas-keyboard-response","78","233744","0.0-13.0-0.13","2d_cat_multi_stim_exp1","2022-4-1","13:57:46","25","75","3","9","10","40","30","120","6","21","[""White""]","No","Female","1629464","null","","null","","","fixation","","","","","","","","","","","","","","","","","","","","","","","","","",""
"","","","","","canvas-keyboard-response","79","234255","0.0-13.0-1.13","2d_cat_multi_stim_exp1","2022-4-1","13:57:46","25","75","3","9","10","40","30","120","6","21","[""White""]","No","Female","1629464","null","","null","","","clear_screen","","","","","","","","","","","","","","","","","","","","","","","","","",""
"","","","","","canvas-keyboard-response","80","235044","0.0-13.0-2.13","2d_cat_multi_stim_exp1","2022-4-1","13:57:46","25","75","3","9","10","40","30","120","6","21","[""White""]","No","Female","1629464","781","","u","learn","","learn_trial","33.3333","90","out","1","0","","","","","","","","","","","","","","","","","","","","",""
"","","","","","canvas-keyboard-response","81","236054","0.0-13.0-3.13","2d_cat_multi_stim_exp1","2022-4-1","13:57:46","25","75","3","9","10","40","30","120","6","21","[""White""]","No","Female","1629464","null","","null","learn_feedback","","learn_feedback","33.3333","90","out","","","","","","","","","","","","","","","","","","","","","","",""
"","","","","","canvas-keyboard-response","82","236112","0.0-13.0-4.13","2d_cat_multi_stim_exp1","2022-4-1","13:57:46","25","75","3","9","10","40","30","120","6","21","[""White""]","No","Female","1629464","null","","null","","","clear_screen","","","","","","","","","","","","","","","","","","","","","","","","","",""
"","","","","","canvas-keyboard-response","83","236620","0.0-13.0-0.14","2d_cat_multi_stim_exp1","2022-4-1","13:57:46","25","75","3","9","10","40","30","120","6","21","[""White""]","No","Female","1629464","null","","null","","","fixation","","","","","","","","","","","","","","","","","","","","","","","","","",""
"","","","","","canvas-keyboard-response","84","237129","0.0-13.0-1.14","2d_cat_multi_stim_exp1","2022-4-1","13:57:46","25","75","3","9","10","40","30","120","6","21","[""White""]","No","Female","1629464","null","","null","","","clear_screen","","","","","","","","","","","","","","","","","","","","","","","","","",""
"","","","","","canvas-keyboard-response","85","238148","0.0-13.0-2.14","2d_cat_multi_stim_exp1","2022-4-1","13:57:46","25","75","3","9","10","40","30","120","6","21","[""White""]","No","Female","1629464","1011","","u","learn","","learn_trial","33.3333","80","out","1","0","","","","","","","","","","","","","","","","","","","","",""
"","","","","","canvas-keyboard-response","86","239157","0.0-13.0-3.14","2d_cat_multi_stim_exp1","2022-4-1","13:57:46","25","75","3","9","10","40","30","120","6","21","[""White""]","No","Female","1629464","null","","null","learn_feedback","","learn_feedback","33.3333","80","out","","","","","","","","","","","","","","","","","","","","","","",""
"","","","","","canvas-keyboard-response","87","239215","0.0-13.0-4.14","2d_cat_multi_stim_exp1","2022-4-1","13:57:46","25","75","3","9","10","40","30","120","6","21","[""White""]","No","Female","1629464","null","","null","","","clear_screen","","","","","","","","","","","","","","","","","","","","","","","","","",""
"","","","","","canvas-keyboard-response","88","239723","0.0-13.0-0.15","2d_cat_multi_stim_exp1","2022-4-1","13:57:46","25","75","3","9","10","40","30","120","6","21","[""White""]","No","Female","1629464","null","","null","","","fixation","","","","","","","","","","","","","","","","","","","","","","","","","",""
"","","","","","canvas-keyboard-response","89","240232","0.0-13.0-1.15","2d_cat_multi_stim_exp1","2022-4-1","13:57:46","25","75","3","9","10","40","30","120","6","21","[""White""]","No","Female","1629464","null","","null","","","clear_screen","","","","","","","","","","","","","","","","","","","","","","","","","",""
"","","","","","canvas-keyboard-response","90","241212","0.0-13.0-2.15","2d_cat_multi_stim_exp1","2022-4-1","13:57:46","25","75","3","9","10","40","30","120","6","21","[""White""]","No","Female","1629464","972","","u","learn","","learn_trial","27.5753","79.6161","in","1","1","","","","","","","","","","","","","","","","","","","","",""
"","","","","","canvas-keyboard-response","91","241721","0.0-13.0-3.15","2d_cat_multi_stim_exp1","2022-4-1","13:57:46","25","75","3","9","10","40","30","120","6","21","[""White""]","No","Female","1629464","null","","null","learn_feedback","","learn_feedback","27.5753","79.6161","in","","","","","","","","","","","","","","","","","","","","","","",""
"","","","","","canvas-keyboard-response","92","241779","0.0-13.0-4.15","2d_cat_multi_stim_exp1","2022-4-1","13:57:46","25","75","3","9","10","40","30","120","6","21","[""White""]","No","Female","1629464","null","","null","","","clear_screen","","","","","","","","","","","","","","","","","","","","","","","","","",""
"","","","","","canvas-keyboard-response","93","242286","0.0-13.0-0.16","2d_cat_multi_stim_exp1","2022-4-1","13:57:46","25","75","3","9","10","40","30","120","6","21","[""White""]","No","Female","1629464","null","","null","","","fixation","","","","","","","","","","","","","","","","","","","","","","","","","",""
"","","","","","canvas-keyboard-response","94","242795","0.0-13.0-1.16","2d_cat_multi_stim_exp1","2022-4-1","13:57:46","25","75","3","9","10","40","30","120","6","21","[""White""]","No","Female","1629464","null","","null","","","clear_screen","","","","","","","","","","","","","","","","","","","","","","","","","",""
"","","","","","canvas-keyboard-response","95","244716","0.0-13.0-2.16","2d_cat_multi_stim_exp1","2022-4-1","13:57:46","25","75","3","9","10","40","30","120","6","21","[""White""]","No","Female","1629464","1909","","i","learn","","learn_trial","13.3333","30","out","0","1","","","","","","","","","","","","","","","","","","","","",""
"","","","","","canvas-keyboard-response","96","245225","0.0-13.0-3.16","2d_cat_multi_stim_exp1","2022-4-1","13:57:46","25","75","3","9","10","40","30","120","6","21","[""White""]","No","Female","1629464","null","","null","learn_feedback","","learn_feedback","13.3333","30","out","","","","","","","","","","","","","","","","","","","","","","",""
"","","","","","canvas-keyboard-response","97","245283","0.0-13.0-4.16","2d_cat_multi_stim_exp1","2022-4-1","13:57:46","25","75","3","9","10","40","30","120","6","21","[""White""]","No","Female","1629464","null","","null","","","clear_screen","","","","","","","","","","","","","","","","","","","","","","","","","",""
"","","","","","canvas-keyboard-response","98","245791","0.0-13.0-0.17","2d_cat_multi_stim_exp1","2022-4-1","13:57:46","25","75","3","9","10","40","30","120","6","21","[""White""]","No","Female","1629464","null","","null","","","fixation","","","","","","","","","","","","","","","","","","","","","","","","","",""
"","","","","","canvas-keyboard-response","99","246301","0.0-13.0-1.17","2d_cat_multi_stim_exp1","2022-4-1","13:57:46","25","75","3","9","10","40","30","120","6","21","[""White""]","No","Female","1629464","null","","null","","","clear_screen","","","","","","","","","","","","","","","","","","","","","","","","","",""
"","","","","","canvas-keyboard-response","100","247276","0.0-13.0-2.17","2d_cat_multi_stim_exp1","2022-4-1","13:57:46","25","75","3","9","10","40","30","120","6","21","[""White""]","No","Female","1629464","966","","u","learn","","learn_trial","27.5753","70.3839","in","1","1","","","","","","","","","","","","","","","","","","","","",""
"","","","","","canvas-keyboard-response","101","247784","0.0-13.0-3.17","2d_cat_multi_stim_exp1","2022-4-1","13:57:46","25","75","3","9","10","40","30","120","6","21","[""White""]","No","Female","1629464","null","","null","learn_feedback","","learn_feedback","27.5753","70.3839","in","","","","","","","","","","","","","","","","","","","","","","",""
"","","","","","canvas-keyboard-response","102","247842","0.0-13.0-4.17","2d_cat_multi_stim_exp1","2022-4-1","13:57:46","25","75","3","9","10","40","30","120","6","21","[""White""]","No","Female","1629464","null","","null","","","clear_screen","","","","","","","","","","","","","","","","","","","","","","","","","",""
"","","","","","canvas-keyboard-response","103","248351","0.0-13.0-0.18","2d_cat_multi_stim_exp1","2022-4-1","13:57:46","25","75","3","9","10","40","30","120","6","21","[""White""]","No","Female","1629464","null","","null","","","fixation","","","","","","","","","","","","","","","","","","","","","","","","","",""
"","","","","","canvas-keyboard-response","104","248863","0.0-13.0-1.18","2d_cat_multi_stim_exp1","2022-4-1","13:57:46","25","75","3","9","10","40","30","120","6","21","[""White""]","No","Female","1629464","null","","null","","","clear_screen","","","","","","","","","","","","","","","","","","","","","","","","","",""
"","","","","","canvas-keyboard-response","105","249876","0.0-13.0-2.18","2d_cat_multi_stim_exp1","2022-4-1","13:57:46","25","75","3","9","10","40","30","120","6","21","[""White""]","No","Female","1629464","1002","","i","learn","","learn_trial","13.3333","50","out","0","1","","","","","","","","","","","","","","","","","","","","",""
"","","","","","canvas-keyboard-response","106","250387","0.0-13.0-3.18","2d_cat_multi_stim_exp1","2022-4-1","13:57:46","25","75","3","9","10","40","30","120","6","21","[""White""]","No","Female","1629464","null","","null","learn_feedback","","learn_feedback","13.3333","50","out","","","","","","","","","","","","","","","","","","","","","","",""
"","","","","","canvas-keyboard-response","107","250448","0.0-13.0-4.18","2d_cat_multi_stim_exp1","2022-4-1","13:57:46","25","75","3","9","10","40","30","120","6","21","[""White""]","No","Female","1629464","null","","null","","","clear_screen","","","","","","","","","","","","","","","","","","","","","","","","","",""
"","","","","","canvas-keyboard-response","108","250957","0.0-13.0-0.19","2d_cat_multi_stim_exp1","2022-4-1","13:57:46","25","75","3","9","10","40","30","120","6","21","[""White""]","No","Female","1629464","null","","null","","","fixation","","","","","","","","","","","","","","","","","","","","","","","","","",""
"","","","","","canvas-keyboard-response","109","251466","0.0-13.0-1.19","2d_cat_multi_stim_exp1","2022-4-1","13:57:46","25","75","3","9","10","40","30","120","6","21","[""White""]","No","Female","1629464","null","","null","","","clear_screen","","","","","","","","","","","","","","","","","","","","","","","","","",""
"","","","","","canvas-keyboard-response","110","252620","0.0-13.0-2.19","2d_cat_multi_stim_exp1","2022-4-1","13:57:46","25","75","3","9","10","40","30","120","6","21","[""White""]","No","Female","1629464","1141","","u","learn","","learn_trial","25","75","in","1","1","","","","","","","","","","","","","","","","","","","","",""
"","","","","","canvas-keyboard-response","111","253130","0.0-13.0-3.19","2d_cat_multi_stim_exp1","2022-4-1","13:57:46","25","75","3","9","10","40","30","120","6","21","[""White""]","No","Female","1629464","null","","null","learn_feedback","","learn_feedback","25","75","in","","","","","","","","","","","","","","","","","","","","","","",""
"","","","","","canvas-keyboard-response","112","253188","0.0-13.0-4.19","2d_cat_multi_stim_exp1","2022-4-1","13:57:46","25","75","3","9","10","40","30","120","6","21","[""White""]","No","Female","1629464","null","","null","","","clear_screen","","","","","","","","","","","","","","","","","","","","","","","","","",""
"","","","","","canvas-keyboard-response","113","253698","0.0-13.0-0.20","2d_cat_multi_stim_exp1","2022-4-1","13:57:46","25","75","3","9","10","40","30","120","6","21","[""White""]","No","Female","1629464","null","","null","","","fixation","","","","","","","","","","","","","","","","","","","","","","","","","",""
"","","","","","canvas-keyboard-response","114","254208","0.0-13.0-1.20","2d_cat_multi_stim_exp1","2022-4-1","13:57:46","25","75","3","9","10","40","30","120","6","21","[""White""]","No","Female","1629464","null","","null","","","clear_screen","","","","","","","","","","","","","","","","","","","","","","","","","",""
"","","","","","canvas-keyboard-response","115","254900","0.0-13.0-2.20","2d_cat_multi_stim_exp1","2022-4-1","13:57:46","25","75","3","9","10","40","30","120","6","21","[""White""]","No","Female","1629464","683","","i","learn","","learn_trial","16.6667","30","out","0","1","","","","","","","","","","","","","","","","","","","","",""
"","","","","","canvas-keyboard-response","116","255410","0.0-13.0-3.20","2d_cat_multi_stim_exp1","2022-4-1","13:57:46","25","75","3","9","10","40","30","120","6","21","[""White""]","No","Female","1629464","null","","null","learn_feedback","","learn_feedback","16.6667","30","out","","","","","","","","","","","","","","","","","","","","","","",""
"","","","","","canvas-keyboard-response","117","255468","0.0-13.0-4.20","2d_cat_multi_stim_exp1","2022-4-1","13:57:46","25","75","3","9","10","40","30","120","6","21","[""White""]","No","Female","1629464","null","","null","","","clear_screen","","","","","","","","","","","","","","","","","","","","","","","","","",""
"","","","","","canvas-keyboard-response","118","255976","0.0-13.0-0.21","2d_cat_multi_stim_exp1","2022-4-1","13:57:46","25","75","3","9","10","40","30","120","6","21","[""White""]","No","Female","1629464","null","","null","","","fixation","","","","","","","","","","","","","","","","","","","","","","","","","",""
"","","","","","canvas-keyboard-response","119","256485","0.0-13.0-1.21","2d_cat_multi_stim_exp1","2022-4-1","13:57:46","25","75","3","9","10","40","30","120","6","21","[""White""]","No","Female","1629464","null","","null","","","clear_screen","","","","","","","","","","","","","","","","","","","","","","","","","",""
"","","","","","canvas-keyboard-response","120","257268","0.0-13.0-2.21","2d_cat_multi_stim_exp1","2022-4-1","13:57:46","25","75","3","9","10","40","30","120","6","21","[""White""]","No","Female","1629464","774","","u","learn","","learn_trial","25","75","in","1","1","","","","","","","","","","","","","","","","","","","","",""
"","","","","","canvas-keyboard-response","121","257778","0.0-13.0-3.21","2d_cat_multi_stim_exp1","2022-4-1","13:57:46","25","75","3","9","10","40","30","120","6","21","[""White""]","No","Female","1629464","null","","null","learn_feedback","","learn_feedback","25","75","in","","","","","","","","","","","","","","","","","","","","","","",""
"","","","","","canvas-keyboard-response","122","257835","0.0-13.0-4.21","2d_cat_multi_stim_exp1","2022-4-1","13:57:46","25","75","3","9","10","40","30","120","6","21","[""White""]","No","Female","1629464","null","","null","","","clear_screen","","","","","","","","","","","","","","","","","","","","","","","","","",""
"","","","","","canvas-keyboard-response","123","258344","0.0-13.0-0.22","2d_cat_multi_stim_exp1","2022-4-1","13:57:46","25","75","3","9","10","40","30","120","6","21","[""White""]","No","Female","1629464","null","","null","","","fixation","","","","","","","","","","","","","","","","","","","","","","","","","",""
"","","","","","canvas-keyboard-response","124","258852","0.0-13.0-1.22","2d_cat_multi_stim_exp1","2022-4-1","13:57:46","25","75","3","9","10","40","30","120","6","21","[""White""]","No","Female","1629464","null","","null","","","clear_screen","","","","","","","","","","","","","","","","","","","","","","","","","",""
"","","","","","canvas-keyboard-response","125","259581","0.0-13.0-2.22","2d_cat_multi_stim_exp1","2022-4-1","13:57:46","25","75","3","9","10","40","30","120","6","21","[""White""]","No","Female","1629464","717","","u","learn","","learn_trial","25","75","in","1","1","","","","","","","","","","","","","","","","","","","","",""
"","","","","","canvas-keyboard-response","126","260089","0.0-13.0-3.22","2d_cat_multi_stim_exp1","2022-4-1","13:57:46","25","75","3","9","10","40","30","120","6","21","[""White""]","No","Female","1629464","null","","null","learn_feedback","","learn_feedback","25","75","in","","","","","","","","","","","","","","","","","","","","","","",""
"","","","","","canvas-keyboard-response","127","260147","0.0-13.0-4.22","2d_cat_multi_stim_exp1","2022-4-1","13:57:46","25","75","3","9","10","40","30","120","6","21","[""White""]","No","Female","1629464","null","","null","","","clear_screen","","","","","","","","","","","","","","","","","","","","","","","","","",""
"","","","","","canvas-keyboard-response","128","260656","0.0-13.0-0.23","2d_cat_multi_stim_exp1","2022-4-1","13:57:46","25","75","3","9","10","40","30","120","6","21","[""White""]","No","Female","1629464","null","","null","","","fixation","","","","","","","","","","","","","","","","","","","","","","","","","",""
"","","","","","canvas-keyboard-response","129","261164","0.0-13.0-1.23","2d_cat_multi_stim_exp1","2022-4-1","13:57:46","25","75","3","9","10","40","30","120","6","21","[""White""]","No","Female","1629464","null","","null","","","clear_screen","","","","","","","","","","","","","","","","","","","","","","","","","",""
"","","","","","canvas-keyboard-response","130","262300","0.0-13.0-2.23","2d_cat_multi_stim_exp1","2022-4-1","13:57:46","25","75","3","9","10","40","30","120","6","21","[""White""]","No","Female","1629464","1125","","u","learn","","learn_trial","27.8087","71.8376","in","1","1","","","","","","","","","","","","","","","","","","","","",""
"","","","","","canvas-keyboard-response","131","262809","0.0-13.0-3.23","2d_cat_multi_stim_exp1","2022-4-1","13:57:46","25","75","3","9","10","40","30","120","6","21","[""White""]","No","Female","1629464","null","","null","learn_feedback","","learn_feedback","27.8087","71.8376","in","","","","","","","","","","","","","","","","","","","","","","",""
"","","","","","canvas-keyboard-response","132","262867","0.0-13.0-4.23","2d_cat_multi_stim_exp1","2022-4-1","13:57:46","25","75","3","9","10","40","30","120","6","21","[""White""]","No","Female","1629464","null","","null","","","clear_screen","","","","","","","","","","","","","","","","","","","","","","","","","",""
"","","","","","canvas-keyboard-response","133","263375","0.0-13.0-0.24","2d_cat_multi_stim_exp1","2022-4-1","13:57:46","25","75","3","9","10","40","30","120","6","21","[""White""]","No","Female","1629464","null","","null","","","fixation","","","","","","","","","","","","","","","","","","","","","","","","","",""
"","","","","","canvas-keyboard-response","134","263884","0.0-13.0-1.24","2d_cat_multi_stim_exp1","2022-4-1","13:57:46","25","75","3","9","10","40","30","120","6","21","[""White""]","No","Female","1629464","null","","null","","","clear_screen","","","","","","","","","","","","","","","","","","","","","","","","","",""
"","","","","","canvas-keyboard-response","135","264988","0.0-13.0-2.24","2d_cat_multi_stim_exp1","2022-4-1","13:57:46","25","75","3","9","10","40","30","120","6","21","[""White""]","No","Female","1629464","1096","","i","learn","","learn_trial","40","120","out","0","1","","","","","","","","","","","","","","","","","","","","",""
"","","","","","canvas-keyboard-response","136","265496","0.0-13.0-3.24","2d_cat_multi_stim_exp1","2022-4-1","13:57:46","25","75","3","9","10","40","30","120","6","21","[""White""]","No","Female","1629464","null","","null","learn_feedback","","learn_feedback","40","120","out","","","","","","","","","","","","","","","","","","","","","","",""
"","","","","","canvas-keyboard-response","137","265555","0.0-13.0-4.24","2d_cat_multi_stim_exp1","2022-4-1","13:57:46","25","75","3","9","10","40","30","120","6","21","[""White""]","No","Female","1629464","null","","null","","","clear_screen","","","","","","","","","","","","","","","","","","","","","","","","","",""
"","","","","","canvas-keyboard-response","138","266063","0.0-13.0-0.25","2d_cat_multi_stim_exp1","2022-4-1","13:57:46","25","75","3","9","10","40","30","120","6","21","[""White""]","No","Female","1629464","null","","null","","","fixation","","","","","","","","","","","","","","","","","","","","","","","","","",""
"","","","","","canvas-keyboard-response","139","266571","0.0-13.0-1.25","2d_cat_multi_stim_exp1","2022-4-1","13:57:46","25","75","3","9","10","40","30","120","6","21","[""White""]","No","Female","1629464","null","","null","","","clear_screen","","","","","","","","","","","","","","","","","","","","","","","","","",""
"","","","","","canvas-keyboard-response","140","267436","0.0-13.0-2.25","2d_cat_multi_stim_exp1","2022-4-1","13:57:46","25","75","3","9","10","40","30","120","6","21","[""White""]","No","Female","1629464","856","","u","learn","","learn_trial","25","75","in","1","1","","","","","","","","","","","","","","","","","","","","",""
"","","","","","canvas-keyboard-response","141","267945","0.0-13.0-3.25","2d_cat_multi_stim_exp1","2022-4-1","13:57:46","25","75","3","9","10","40","30","120","6","21","[""White""]","No","Female","1629464","null","","null","learn_feedback","","learn_feedback","25","75","in","","","","","","","","","","","","","","","","","","","","","","",""
"","","","","","canvas-keyboard-response","142","268003","0.0-13.0-4.25","2d_cat_multi_stim_exp1","2022-4-1","13:57:46","25","75","3","9","10","40","30","120","6","21","[""White""]","No","Female","1629464","null","","null","","","clear_screen","","","","","","","","","","","","","","","","","","","","","","","","","",""
"","","","","","canvas-keyboard-response","143","268511","0.0-13.0-0.26","2d_cat_multi_stim_exp1","2022-4-1","13:57:46","25","75","3","9","10","40","30","120","6","21","[""White""]","No","Female","1629464","null","","null","","","fixation","","","","","","","","","","","","","","","","","","","","","","","","","",""
"","","","","","canvas-keyboard-response","144","269019","0.0-13.0-1.26","2d_cat_multi_stim_exp1","2022-4-1","13:57:46","25","75","3","9","10","40","30","120","6","21","[""White""]","No","Female","1629464","null","","null","","","clear_screen","","","","","","","","","","","","","","","","","","","","","","","","","",""
"","","","","","canvas-keyboard-response","145","269748","0.0-13.0-2.26","2d_cat_multi_stim_exp1","2022-4-1","13:57:46","25","75","3","9","10","40","30","120","6","21","[""White""]","No","Female","1629464","721","","u","learn","","learn_trial","22.1081","77.3943","in","1","1","","","","","","","","","","","","","","","","","","","","",""
"","","","","","canvas-keyboard-response","146","270257","0.0-13.0-3.26","2d_cat_multi_stim_exp1","2022-4-1","13:57:46","25","75","3","9","10","40","30","120","6","21","[""White""]","No","Female","1629464","null","","null","learn_feedback","","learn_feedback","22.1081","77.3943","in","","","","","","","","","","","","","","","","","","","","","","",""
"","","","","","canvas-keyboard-response","147","270315","0.0-13.0-4.26","2d_cat_multi_stim_exp1","2022-4-1","13:57:46","25","75","3","9","10","40","30","120","6","21","[""White""]","No","Female","1629464","null","","null","","","clear_screen","","","","","","","","","","","","","","","","","","","","","","","","","",""
"","","","","","canvas-keyboard-response","148","270823","0.0-13.0-0.27","2d_cat_multi_stim_exp1","2022-4-1","13:57:46","25","75","3","9","10","40","30","120","6","21","[""White""]","No","Female","1629464","null","","null","","","fixation","","","","","","","","","","","","","","","","","","","","","","","","","",""
"","","","","","canvas-keyboard-response","149","271332","0.0-13.0-1.27","2d_cat_multi_stim_exp1","2022-4-1","13:57:46","25","75","3","9","10","40","30","120","6","21","[""White""]","No","Female","1629464","null","","null","","","clear_screen","","","","","","","","","","","","","","","","","","","","","","","","","",""
"","","","","","canvas-keyboard-response","150","271972","0.0-13.0-2.27","2d_cat_multi_stim_exp1","2022-4-1","13:57:46","25","75","3","9","10","40","30","120","6","21","[""White""]","No","Female","1629464","630","","u","learn","","learn_trial","30","80","out","1","0","","","","","","","","","","","","","","","","","","","","",""
"","","","","","canvas-keyboard-response","151","272981","0.0-13.0-3.27","2d_cat_multi_stim_exp1","2022-4-1","13:57:46","25","75","3","9","10","40","30","120","6","21","[""White""]","No","Female","1629464","null","","null","learn_feedback","","learn_feedback","30","80","out","","","","","","","","","","","","","","","","","","","","","","",""
"","","","","","canvas-keyboard-response","152","273038","0.0-13.0-4.27","2d_cat_multi_stim_exp1","2022-4-1","13:57:46","25","75","3","9","10","40","30","120","6","21","[""White""]","No","Female","1629464","null","","null","","","clear_screen","","","","","","","","","","","","","","","","","","","","","","","","","",""
"","","","","","canvas-keyboard-response","153","273546","0.0-13.0-0.28","2d_cat_multi_stim_exp1","2022-4-1","13:57:46","25","75","3","9","10","40","30","120","6","21","[""White""]","No","Female","1629464","null","","null","","","fixation","","","","","","","","","","","","","","","","","","","","","","","","","",""
"","","","","","canvas-keyboard-response","154","274055","0.0-13.0-1.28","2d_cat_multi_stim_exp1","2022-4-1","13:57:46","25","75","3","9","10","40","30","120","6","21","[""White""]","No","Female","1629464","null","","null","","","clear_screen","","","","","","","","","","","","","","","","","","","","","","","","","",""
"","","","","","canvas-keyboard-response","155","274797","0.0-13.0-2.28","2d_cat_multi_stim_exp1","2022-4-1","13:57:46","25","75","3","9","10","40","30","120","6","21","[""White""]","No","Female","1629464","733","","u","learn","","learn_trial","19","75","in","1","1","","","","","","","","","","","","","","","","","","","","",""
"","","","","","canvas-keyboard-response","156","275309","0.0-13.0-3.28","2d_cat_multi_stim_exp1","2022-4-1","13:57:46","25","75","3","9","10","40","30","120","6","21","[""White""]","No","Female","1629464","null","","null","learn_feedback","","learn_feedback","19","75","in","","","","","","","","","","","","","","","","","","","","","","",""
"","","","","","canvas-keyboard-response","157","275367","0.0-13.0-4.28","2d_cat_multi_stim_exp1","2022-4-1","13:57:46","25","75","3","9","10","40","30","120","6","21","[""White""]","No","Female","1629464","null","","null","","","clear_screen","","","","","","","","","","","","","","","","","","","","","","","","","",""
"","","","","","canvas-keyboard-response","158","275875","0.0-13.0-0.29","2d_cat_multi_stim_exp1","2022-4-1","13:57:46","25","75","3","9","10","40","30","120","6","21","[""White""]","No","Female","1629464","null","","null","","","fixation","","","","","","","","","","","","","","","","","","","","","","","","","",""
"","","","","","canvas-keyboard-response","159","276383","0.0-13.0-1.29","2d_cat_multi_stim_exp1","2022-4-1","13:57:46","25","75","3","9","10","40","30","120","6","21","[""White""]","No","Female","1629464","null","","null","","","clear_screen","","","","","","","","","","","","","","","","","","","","","","","","","",""
"","","","","","canvas-keyboard-response","160","277283","0.0-13.0-2.29","2d_cat_multi_stim_exp1","2022-4-1","13:57:46","25","75","3","9","10","40","30","120","6","21","[""White""]","No","Female","1629464","892","","u","learn","","learn_trial","25","75","in","1","1","","","","","","","","","","","","","","","","","","","","",""
"","","","","","canvas-keyboard-response","161","277792","0.0-13.0-3.29","2d_cat_multi_stim_exp1","2022-4-1","13:57:46","25","75","3","9","10","40","30","120","6","21","[""White""]","No","Female","1629464","null","","null","learn_feedback","","learn_feedback","25","75","in","","","","","","","","","","","","","","","","","","","","","","",""
"","","","","","canvas-keyboard-response","162","277850","0.0-13.0-4.29","2d_cat_multi_stim_exp1","2022-4-1","13:57:46","25","75","3","9","10","40","30","120","6","21","[""White""]","No","Female","1629464","null","","null","","","clear_screen","","","","","","","","","","","","","","","","","","","","","","","","","",""
"","","","","","canvas-keyboard-response","163","278358","0.0-13.0-0.30","2d_cat_multi_stim_exp1","2022-4-1","13:57:46","25","75","3","9","10","40","30","120","6","21","[""White""]","No","Female","1629464","null","","null","","","fixation","","","","","","","","","","","","","","","","","","","","","","","","","",""
"","","","","","canvas-keyboard-response","164","278868","0.0-13.0-1.30","2d_cat_multi_stim_exp1","2022-4-1","13:57:46","25","75","3","9","10","40","30","120","6","21","[""White""]","No","Female","1629464","null","","null","","","clear_screen","","","","","","","","","","","","","","","","","","","","","","","","","",""
"","","","","","canvas-keyboard-response","165","280156","0.0-13.0-2.30","2d_cat_multi_stim_exp1","2022-4-1","13:57:46","25","75","3","9","10","40","30","120","6","21","[""White""]","No","Female","1629464","1279","","i","learn","","learn_trial","20","90","out","0","1","","","","","","","","","","","","","","","","","","","","",""
"","","","","","canvas-keyboard-response","166","280665","0.0-13.0-3.30","2d_cat_multi_stim_exp1","2022-4-1","13:57:46","25","75","3","9","10","40","30","120","6","21","[""White""]","No","Female","1629464","null","","null","learn_feedback","","learn_feedback","20","90","out","","","","","","","","","","","","","","","","","","","","","","",""
"","","","","","canvas-keyboard-response","167","280723","0.0-13.0-4.30","2d_cat_multi_stim_exp1","2022-4-1","13:57:46","25","75","3","9","10","40","30","120","6","21","[""White""]","No","Female","1629464","null","","null","","","clear_screen","","","","","","","","","","","","","","","","","","","","","","","","","",""
"","","","","","canvas-keyboard-response","168","281231","0.0-13.0-0.31","2d_cat_multi_stim_exp1","2022-4-1","13:57:46","25","75","3","9","10","40","30","120","6","21","[""White""]","No","Female","1629464","null","","null","","","fixation","","","","","","","","","","","","","","","","","","","","","","","","","",""
"","","","","","canvas-keyboard-response","169","281739","0.0-13.0-1.31","2d_cat_multi_stim_exp1","2022-4-1","13:57:46","25","75","3","9","10","40","30","120","6","21","[""White""]","No","Female","1629464","null","","null","","","clear_screen","","","","","","","","","","","","","","","","","","","","","","","","","",""
"","","","","","canvas-keyboard-response","170","282236","0.0-13.0-2.31","2d_cat_multi_stim_exp1","2022-4-1","13:57:46","25","75","3","9","10","40","30","120","6","21","[""White""]","No","Female","1629464","489","","i","learn","","learn_trial","16.6667","50","out","0","1","","","","","","","","","","","","","","","","","","","","",""
"","","","","","canvas-keyboard-response","171","282746","0.0-13.0-3.31","2d_cat_multi_stim_exp1","2022-4-1","13:57:46","25","75","3","9","10","40","30","120","6","21","[""White""]","No","Female","1629464","null","","null","learn_feedback","","learn_feedback","16.6667","50","out","","","","","","","","","","","","","","","","","","","","","","",""
"","","","","","canvas-keyboard-response","172","282807","0.0-13.0-4.31","2d_cat_multi_stim_exp1","2022-4-1","13:57:46","25","75","3","9","10","40","30","120","6","21","[""White""]","No","Female","1629464","null","","null","","","clear_screen","","","","","","","","","","","","","","","","","","","","","","","","","",""
"","","","","","canvas-keyboard-response","173","283318","0.0-13.0-0.32","2d_cat_multi_stim_exp1","2022-4-1","13:57:46","25","75","3","9","10","40","30","120","6","21","[""White""]","No","Female","1629464","null","","null","","","fixation","","","","","","","","","","","","","","","","","","","","","","","","","",""
"","","","","","canvas-keyboard-response","174","283828","0.0-13.0-1.32","2d_cat_multi_stim_exp1","2022-4-1","13:57:46","25","75","3","9","10","40","30","120","6","21","[""White""]","No","Female","1629464","null","","null","","","clear_screen","","","","","","","","","","","","","","","","","","","","","","","","","",""
"","","","","","canvas-keyboard-response","175","284468","0.0-13.0-2.32","2d_cat_multi_stim_exp1","2022-4-1","13:57:46","25","75","3","9","10","40","30","120","6","21","[""White""]","No","Female","1629464","630","","u","learn","","learn_trial","25","75","in","1","1","","","","","","","","","","","","","","","","","","","","",""
"","","","","","canvas-keyboard-response","176","284978","0.0-13.0-3.32","2d_cat_multi_stim_exp1","2022-4-1","13:57:46","25","75","3","9","10","40","30","120","6","21","[""White""]","No","Female","1629464","null","","null","learn_feedback","","learn_feedback","25","75","in","","","","","","","","","","","","","","","","","","","","","","",""
"","","","","","canvas-keyboard-response","177","285036","0.0-13.0-4.32","2d_cat_multi_stim_exp1","2022-4-1","13:57:46","25","75","3","9","10","40","30","120","6","21","[""White""]","No","Female","1629464","null","","null","","","clear_screen","","","","","","","","","","","","","","","","","","","","","","","","","",""
"","","","","","canvas-keyboard-response","178","285545","0.0-13.0-0.33","2d_cat_multi_stim_exp1","2022-4-1","13:57:46","25","75","3","9","10","40","30","120","6","21","[""White""]","No","Female","1629464","null","","null","","","fixation","","","","","","","","","","","","","","","","","","","","","","","","","",""
"","","","","","canvas-keyboard-response","179","286055","0.0-13.0-1.33","2d_cat_multi_stim_exp1","2022-4-1","13:57:46","25","75","3","9","10","40","30","120","6","21","[""White""]","No","Female","1629464","null","","null","","","clear_screen","","","","","","","","","","","","","","","","","","","","","","","","","",""
"","","","","","canvas-keyboard-response","180","286812","0.0-13.0-2.33","2d_cat_multi_stim_exp1","2022-4-1","13:57:46","25","75","3","9","10","40","30","120","6","21","[""White""]","No","Female","1629464","749","","u","learn","","learn_trial","25","75","in","1","1","","","","","","","","","","","","","","","","","","","","",""
"","","","","","canvas-keyboard-response","181","287322","0.0-13.0-3.33","2d_cat_multi_stim_exp1","2022-4-1","13:57:46","25","75","3","9","10","40","30","120","6","21","[""White""]","No","Female","1629464","null","","null","learn_feedback","","learn_feedback","25","75","in","","","","","","","","","","","","","","","","","","","","","","",""
"","","","","","canvas-keyboard-response","182","287380","0.0-13.0-4.33","2d_cat_multi_stim_exp1","2022-4-1","13:57:46","25","75","3","9","10","40","30","120","6","21","[""White""]","No","Female","1629464","null","","null","","","clear_screen","","","","","","","","","","","","","","","","","","","","","","","","","",""
"","","","","","canvas-keyboard-response","183","287890","0.0-13.0-0.34","2d_cat_multi_stim_exp1","2022-4-1","13:57:46","25","75","3","9","10","40","30","120","6","21","[""White""]","No","Female","1629464","null","","null","","","fixation","","","","","","","","","","","","","","","","","","","","","","","","","",""
"","","","","","canvas-keyboard-response","184","288399","0.0-13.0-1.34","2d_cat_multi_stim_exp1","2022-4-1","13:57:46","25","75","3","9","10","40","30","120","6","21","[""White""]","No","Female","1629464","null","","null","","","clear_screen","","","","","","","","","","","","","","","","","","","","","","","","","",""
"","","","","","canvas-keyboard-response","185","289116","0.0-13.0-2.34","2d_cat_multi_stim_exp1","2022-4-1","13:57:46","25","75","3","9","10","40","30","120","6","21","[""White""]","No","Female","1629464","709","","u","learn","","learn_trial","26.6667","80","out","1","0","","","","","","","","","","","","","","","","","","","","",""
"","","","","","canvas-keyboard-response","186","290125","0.0-13.0-3.34","2d_cat_multi_stim_exp1","2022-4-1","13:57:46","25","75","3","9","10","40","30","120","6","21","[""White""]","No","Female","1629464","null","","null","learn_feedback","","learn_feedback","26.6667","80","out","","","","","","","","","","","","","","","","","","","","","","",""
"","","","","","canvas-keyboard-response","187","290183","0.0-13.0-4.34","2d_cat_multi_stim_exp1","2022-4-1","13:57:46","25","75","3","9","10","40","30","120","6","21","[""White""]","No","Female","1629464","null","","null","","","clear_screen","","","","","","","","","","","","","","","","","","","","","","","","","",""
"","","","","","canvas-keyboard-response","188","290694","0.0-13.0-0.35","2d_cat_multi_stim_exp1","2022-4-1","13:57:46","25","75","3","9","10","40","30","120","6","21","[""White""]","No","Female","1629464","null","","null","","","fixation","","","","","","","","","","","","","","","","","","","","","","","","","",""
"","","","","","canvas-keyboard-response","189","291203","0.0-13.0-1.35","2d_cat_multi_stim_exp1","2022-4-1","13:57:46","25","75","3","9","10","40","30","120","6","21","[""White""]","No","Female","1629464","null","","null","","","clear_screen","","","","","","","","","","","","","","","","","","","","","","","","","",""
"","","","","","canvas-keyboard-response","190","292076","0.0-13.0-2.35","2d_cat_multi_stim_exp1","2022-4-1","13:57:46","25","75","3","9","10","40","30","120","6","21","[""White""]","No","Female","1629464","864","","i","learn","","learn_trial","36.6667","110","out","0","1","","","","","","","","","","","","","","","","","","","","",""
"","","","","","canvas-keyboard-response","191","292586","0.0-13.0-3.35","2d_cat_multi_stim_exp1","2022-4-1","13:57:46","25","75","3","9","10","40","30","120","6","21","[""White""]","No","Female","1629464","null","","null","learn_feedback","","learn_feedback","36.6667","110","out","","","","","","","","","","","","","","","","","","","","","","",""
"","","","","","canvas-keyboard-response","192","292644","0.0-13.0-4.35","2d_cat_multi_stim_exp1","2022-4-1","13:57:46","25","75","3","9","10","40","30","120","6","21","[""White""]","No","Female","1629464","null","","null","","","clear_screen","","","","","","","","","","","","","","","","","","","","","","","","","",""
"","","","","","canvas-keyboard-response","193","293152","0.0-13.0-0.36","2d_cat_multi_stim_exp1","2022-4-1","13:57:46","25","75","3","9","10","40","30","120","6","21","[""White""]","No","Female","1629464","null","","null","","","fixation","","","","","","","","","","","","","","","","","","","","","","","","","",""
"","","","","","canvas-keyboard-response","194","293660","0.0-13.0-1.36","2d_cat_multi_stim_exp1","2022-4-1","13:57:46","25","75","3","9","10","40","30","120","6","21","[""White""]","No","Female","1629464","null","","null","","","clear_screen","","","","","","","","","","","","","","","","","","","","","","","","","",""
"","","","","","canvas-keyboard-response","195","294548","0.0-13.0-2.36","2d_cat_multi_stim_exp1","2022-4-1","13:57:46","25","75","3","9","10","40","30","120","6","21","[""White""]","No","Female","1629464","880","","u","learn","","learn_trial","22.1081","72.6057","in","1","1","","","","","","","","","","","","","","","","","","","","",""
"","","","","","canvas-keyboard-response","196","295057","0.0-13.0-3.36","2d_cat_multi_stim_exp1","2022-4-1","13:57:46","25","75","3","9","10","40","30","120","6","21","[""White""]","No","Female","1629464","null","","null","learn_feedback","","learn_feedback","22.1081","72.6057","in","","","","","","","","","","","","","","","","","","","","","","",""
"","","","","","canvas-keyboard-response","197","295115","0.0-13.0-4.36","2d_cat_multi_stim_exp1","2022-4-1","13:57:46","25","75","3","9","10","40","30","120","6","21","[""White""]","No","Female","1629464","null","","null","","","clear_screen","","","","","","","","","","","","","","","","","","","","","","","","","",""
"","","","","","canvas-keyboard-response","198","295622","0.0-13.0-0.37","2d_cat_multi_stim_exp1","2022-4-1","13:57:46","25","75","3","9","10","40","30","120","6","21","[""White""]","No","Female","1629464","null","","null","","","fixation","","","","","","","","","","","","","","","","","","","","","","","","","",""
"","","","","","canvas-keyboard-response","199","296132","0.0-13.0-1.37","2d_cat_multi_stim_exp1","2022-4-1","13:57:46","25","75","3","9","10","40","30","120","6","21","[""White""]","No","Female","1629464","null","","null","","","clear_screen","","","","","","","","","","","","","","","","","","","","","","","","","",""
"","","","","","canvas-keyboard-response","200","296852","0.0-13.0-2.37","2d_cat_multi_stim_exp1","2022-4-1","13:57:46","25","75","3","9","10","40","30","120","6","21","[""White""]","No","Female","1629464","711","","u","learn","","learn_trial","22.2971","71.095","in","1","1","","","","","","","","","","","","","","","","","","","","",""
"","","","","","canvas-keyboard-response","201","297361","0.0-13.0-3.37","2d_cat_multi_stim_exp1","2022-4-1","13:57:46","25","75","3","9","10","40","30","120","6","21","[""White""]","No","Female","1629464","null","","null","learn_feedback","","learn_feedback","22.2971","71.095","in","","","","","","","","","","","","","","","","","","","","","","",""
"","","","","","canvas-keyboard-response","202","297419","0.0-13.0-4.37","2d_cat_multi_stim_exp1","2022-4-1","13:57:46","25","75","3","9","10","40","30","120","6","21","[""White""]","No","Female","1629464","null","","null","","","clear_screen","","","","","","","","","","","","","","","","","","","","","","","","","",""
"","","","","","canvas-keyboard-response","203","297930","0.0-13.0-0.38","2d_cat_multi_stim_exp1","2022-4-1","13:57:46","25","75","3","9","10","40","30","120","6","21","[""White""]","No","Female","1629464","null","","null","","","fixation","","","","","","","","","","","","","","","","","","","","","","","","","",""
"","","","","","canvas-keyboard-response","204","298439","0.0-13.0-1.38","2d_cat_multi_stim_exp1","2022-4-1","13:57:46","25","75","3","9","10","40","30","120","6","21","[""White""]","No","Female","1629464","null","","null","","","clear_screen","","","","","","","","","","","","","","","","","","","","","","","","","",""
"","","","","","canvas-keyboard-response","205","298996","0.0-13.0-2.38","2d_cat_multi_stim_exp1","2022-4-1","13:57:46","25","75","3","9","10","40","30","120","6","21","[""White""]","No","Female","1629464","548","","u","learn","","learn_trial","23.8209","83.2757","in","1","1","","","","","","","","","","","","","","","","","","","","",""
"","","","","","canvas-keyboard-response","206","299504","0.0-13.0-3.38","2d_cat_multi_stim_exp1","2022-4-1","13:57:46","25","75","3","9","10","40","30","120","6","21","[""White""]","No","Female","1629464","null","","null","learn_feedback","","learn_feedback","23.8209","83.2757","in","","","","","","","","","","","","","","","","","","","","","","",""
"","","","","","canvas-keyboard-response","207","299563","0.0-13.0-4.38","2d_cat_multi_stim_exp1","2022-4-1","13:57:46","25","75","3","9","10","40","30","120","6","21","[""White""]","No","Female","1629464","null","","null","","","clear_screen","","","","","","","","","","","","","","","","","","","","","","","","","",""
"","","","","","canvas-keyboard-response","208","300069","0.0-13.0-0.39","2d_cat_multi_stim_exp1","2022-4-1","13:57:46","25","75","3","9","10","40","30","120","6","21","[""White""]","No","Female","1629464","null","","null","","","fixation","","","","","","","","","","","","","","","","","","","","","","","","","",""
"","","","","","canvas-keyboard-response","209","300578","0.0-13.0-1.39","2d_cat_multi_stim_exp1","2022-4-1","13:57:46","25","75","3","9","10","40","30","120","6","21","[""White""]","No","Female","1629464","null","","null","","","clear_screen","","","","","","","","","","","","","","","","","","","","","","","","","",""
"","","","","","canvas-keyboard-response","210","301436","0.0-13.0-2.39","2d_cat_multi_stim_exp1","2022-4-1","13:57:46","25","75","3","9","10","40","30","120","6","21","[""White""]","No","Female","1629464","849","","i","learn","","learn_trial","25","93","in","0","0","","","","","","","","","","","","","","","","","","","","",""
"","","","","","canvas-keyboard-response","211","302445","0.0-13.0-3.39","2d_cat_multi_stim_exp1","2022-4-1","13:57:46","25","75","3","9","10","40","30","120","6","21","[""White""]","No","Female","1629464","null","","null","learn_feedback","","learn_feedback","25","93","in","","","","","","","","","","","","","","","","","","","","","","",""
"","","","","","canvas-keyboard-response","212","302504","0.0-13.0-4.39","2d_cat_multi_stim_exp1","2022-4-1","13:57:46","25","75","3","9","10","40","30","120","6","21","[""White""]","No","Female","1629464","null","","null","","","clear_screen","","","","","","","","","","","","","","","","","","","","","","","","","",""
"","","","","","canvas-keyboard-response","213","303011","0.0-13.0-0.40","2d_cat_multi_stim_exp1","2022-4-1","13:57:46","25","75","3","9","10","40","30","120","6","21","[""White""]","No","Female","1629464","null","","null","","","fixation","","","","","","","","","","","","","","","","","","","","","","","","","",""
"","","","","","canvas-keyboard-response","214","303520","0.0-13.0-1.40","2d_cat_multi_stim_exp1","2022-4-1","13:57:46","25","75","3","9","10","40","30","120","6","21","[""White""]","No","Female","1629464","null","","null","","","clear_screen","","","","","","","","","","","","","","","","","","","","","","","","","",""
"","","","","","canvas-keyboard-response","215","304164","0.0-13.0-2.40","2d_cat_multi_stim_exp1","2022-4-1","13:57:46","25","75","3","9","10","40","30","120","6","21","[""White""]","No","Female","1629464","634","","u","learn","","learn_trial","27.9518","76.607","in","1","1","","","","","","","","","","","","","","","","","","","","",""
"","","","","","canvas-keyboard-response","216","304673","0.0-13.0-3.40","2d_cat_multi_stim_exp1","2022-4-1","13:57:46","25","75","3","9","10","40","30","120","6","21","[""White""]","No","Female","1629464","null","","null","learn_feedback","","learn_feedback","27.9518","76.607","in","","","","","","","","","","","","","","","","","","","","","","",""
"","","","","","canvas-keyboard-response","217","304731","0.0-13.0-4.40","2d_cat_multi_stim_exp1","2022-4-1","13:57:46","25","75","3","9","10","40","30","120","6","21","[""White""]","No","Female","1629464","null","","null","","","clear_screen","","","","","","","","","","","","","","","","","","","","","","","","","",""
"","","","","","canvas-keyboard-response","218","305240","0.0-13.0-0.41","2d_cat_multi_stim_exp1","2022-4-1","13:57:46","25","75","3","9","10","40","30","120","6","21","[""White""]","No","Female","1629464","null","","null","","","fixation","","","","","","","","","","","","","","","","","","","","","","","","","",""
"","","","","","canvas-keyboard-response","219","305748","0.0-13.0-1.41","2d_cat_multi_stim_exp1","2022-4-1","13:57:46","25","75","3","9","10","40","30","120","6","21","[""White""]","No","Female","1629464","null","","null","","","clear_screen","","","","","","","","","","","","","","","","","","","","","","","","","",""
"","","","","","canvas-keyboard-response","220","306556","0.0-13.0-2.41","2d_cat_multi_stim_exp1","2022-4-1","13:57:46","25","75","3","9","10","40","30","120","6","21","[""White""]","No","Female","1629464","800","","i","learn","","learn_trial","33.3333","110","out","0","1","","","","","","","","","","","","","","","","","","","","",""
"","","","","","canvas-keyboard-response","221","307064","0.0-13.0-3.41","2d_cat_multi_stim_exp1","2022-4-1","13:57:46","25","75","3","9","10","40","30","120","6","21","[""White""]","No","Female","1629464","null","","null","learn_feedback","","learn_feedback","33.3333","110","out","","","","","","","","","","","","","","","","","","","","","","",""
"","","","","","canvas-keyboard-response","222","307122","0.0-13.0-4.41","2d_cat_multi_stim_exp1","2022-4-1","13:57:46","25","75","3","9","10","40","30","120","6","21","[""White""]","No","Female","1629464","null","","null","","","clear_screen","","","","","","","","","","","","","","","","","","","","","","","","","",""
"","","","","","canvas-keyboard-response","223","307630","0.0-13.0-0.42","2d_cat_multi_stim_exp1","2022-4-1","13:57:46","25","75","3","9","10","40","30","120","6","21","[""White""]","No","Female","1629464","null","","null","","","fixation","","","","","","","","","","","","","","","","","","","","","","","","","",""
"","","","","","canvas-keyboard-response","224","308140","0.0-13.0-1.42","2d_cat_multi_stim_exp1","2022-4-1","13:57:46","25","75","3","9","10","40","30","120","6","21","[""White""]","No","Female","1629464","null","","null","","","clear_screen","","","","","","","","","","","","","","","","","","","","","","","","","",""
"","","","","","canvas-keyboard-response","225","310732","0.0-13.0-2.42","2d_cat_multi_stim_exp1","2022-4-1","13:57:46","25","75","3","9","10","40","30","120","6","21","[""White""]","No","Female","1629464","2583","","u","learn","","learn_trial","25","75","in","1","1","","","","","","","","","","","","","","","","","","","","",""
"","","","","","canvas-keyboard-response","226","311242","0.0-13.0-3.42","2d_cat_multi_stim_exp1","2022-4-1","13:57:46","25","75","3","9","10","40","30","120","6","21","[""White""]","No","Female","1629464","null","","null","learn_feedback","","learn_feedback","25","75","in","","","","","","","","","","","","","","","","","","","","","","",""
"","","","","","canvas-keyboard-response","227","311299","0.0-13.0-4.42","2d_cat_multi_stim_exp1","2022-4-1","13:57:46","25","75","3","9","10","40","30","120","6","21","[""White""]","No","Female","1629464","null","","null","","","clear_screen","","","","","","","","","","","","","","","","","","","","","","","","","",""
"","","","","","canvas-keyboard-response","228","311808","0.0-13.0-0.43","2d_cat_multi_stim_exp1","2022-4-1","13:57:46","25","75","3","9","10","40","30","120","6","21","[""White""]","No","Female","1629464","null","","null","","","fixation","","","","","","","","","","","","","","","","","","","","","","","","","",""
"","","","","","canvas-keyboard-response","229","312317","0.0-13.0-1.43","2d_cat_multi_stim_exp1","2022-4-1","13:57:46","25","75","3","9","10","40","30","120","6","21","[""White""]","No","Female","1629464","null","","null","","","clear_screen","","","","","","","","","","","","","","","","","","","","","","","","","",""
"","","","","","canvas-keyboard-response","230","312891","0.0-13.0-2.43","2d_cat_multi_stim_exp1","2022-4-1","13:57:46","25","75","3","9","10","40","30","120","6","21","[""White""]","No","Female","1629464","567","","u","learn","","learn_trial","25.9271","66.4405","in","1","1","","","","","","","","","","","","","","","","","","","","",""
"","","","","","canvas-keyboard-response","231","313402","0.0-13.0-3.43","2d_cat_multi_stim_exp1","2022-4-1","13:57:46","25","75","3","9","10","40","30","120","6","21","[""White""]","No","Female","1629464","null","","null","learn_feedback","","learn_feedback","25.9271","66.4405","in","","","","","","","","","","","","","","","","","","","","","","",""
"","","","","","canvas-keyboard-response","232","313461","0.0-13.0-4.43","2d_cat_multi_stim_exp1","2022-4-1","13:57:46","25","75","3","9","10","40","30","120","6","21","[""White""]","No","Female","1629464","null","","null","","","clear_screen","","","","","","","","","","","","","","","","","","","","","","","","","",""
"","","","","","canvas-keyboard-response","233","313968","0.0-13.0-0.44","2d_cat_multi_stim_exp1","2022-4-1","13:57:46","25","75","3","9","10","40","30","120","6","21","[""White""]","No","Female","1629464","null","","null","","","fixation","","","","","","","","","","","","","","","","","","","","","","","","","",""
"","","","","","canvas-keyboard-response","234","314476","0.0-13.0-1.44","2d_cat_multi_stim_exp1","2022-4-1","13:57:46","25","75","3","9","10","40","30","120","6","21","[""White""]","No","Female","1629464","null","","null","","","clear_screen","","","","","","","","","","","","","","","","","","","","","","","","","",""
"","","","","","canvas-keyboard-response","235","315483","0.0-13.0-2.44","2d_cat_multi_stim_exp1","2022-4-1","13:57:46","25","75","3","9","10","40","30","120","6","21","[""White""]","No","Female","1629464","993","","i","learn","","learn_trial","40","90","out","0","1","","","","","","","","","","","","","","","","","","","","",""
"","","","","","canvas-keyboard-response","236","315992","0.0-13.0-3.44","2d_cat_multi_stim_exp1","2022-4-1","13:57:46","25","75","3","9","10","40","30","120","6","21","[""White""]","No","Female","1629464","null","","null","learn_feedback","","learn_feedback","40","90","out","","","","","","","","","","","","","","","","","","","","","","",""
"","","","","","canvas-keyboard-response","237","316051","0.0-13.0-4.44","2d_cat_multi_stim_exp1","2022-4-1","13:57:46","25","75","3","9","10","40","30","120","6","21","[""White""]","No","Female","1629464","null","","null","","","clear_screen","","","","","","","","","","","","","","","","","","","","","","","","","",""
"","","","","","canvas-keyboard-response","238","316559","0.0-13.0-0.45","2d_cat_multi_stim_exp1","2022-4-1","13:57:46","25","75","3","9","10","40","30","120","6","21","[""White""]","No","Female","1629464","null","","null","","","fixation","","","","","","","","","","","","","","","","","","","","","","","","","",""
"","","","","","canvas-keyboard-response","239","317068","0.0-13.0-1.45","2d_cat_multi_stim_exp1","2022-4-1","13:57:46","25","75","3","9","10","40","30","120","6","21","[""White""]","No","Female","1629464","null","","null","","","clear_screen","","","","","","","","","","","","","","","","","","","","","","","","","",""
"","","","","","canvas-keyboard-response","240","317732","0.0-13.0-2.45","2d_cat_multi_stim_exp1","2022-4-1","13:57:46","25","75","3","9","10","40","30","120","6","21","[""White""]","No","Female","1629464","656","","u","learn","","learn_trial","25","75","in","1","1","","","","","","","","","","","","","","","","","","","","",""
"","","","","","canvas-keyboard-response","241","318241","0.0-13.0-3.45","2d_cat_multi_stim_exp1","2022-4-1","13:57:46","25","75","3","9","10","40","30","120","6","21","[""White""]","No","Female","1629464","null","","null","learn_feedback","","learn_feedback","25","75","in","","","","","","","","","","","","","","","","","","","","","","",""
"","","","","","canvas-keyboard-response","242","318298","0.0-13.0-4.45","2d_cat_multi_stim_exp1","2022-4-1","13:57:46","25","75","3","9","10","40","30","120","6","21","[""White""]","No","Female","1629464","null","","null","","","clear_screen","","","","","","","","","","","","","","","","","","","","","","","","","",""
"","","","","","canvas-keyboard-response","243","318807","0.0-13.0-0.46","2d_cat_multi_stim_exp1","2022-4-1","13:57:46","25","75","3","9","10","40","30","120","6","21","[""White""]","No","Female","1629464","null","","null","","","fixation","","","","","","","","","","","","","","","","","","","","","","","","","",""
"","","","","","canvas-keyboard-response","244","319316","0.0-13.0-1.46","2d_cat_multi_stim_exp1","2022-4-1","13:57:46","25","75","3","9","10","40","30","120","6","21","[""White""]","No","Female","1629464","null","","null","","","clear_screen","","","","","","","","","","","","","","","","","","","","","","","","","",""
"","","","","","canvas-keyboard-response","245","320524","0.0-13.0-2.46","2d_cat_multi_stim_exp1","2022-4-1","13:57:46","25","75","3","9","10","40","30","120","6","21","[""White""]","No","Female","1629464","1199","","u","learn","","learn_trial","25","75","in","1","1","","","","","","","","","","","","","","","","","","","","",""
"","","","","","canvas-keyboard-response","246","321033","0.0-13.0-3.46","2d_cat_multi_stim_exp1","2022-4-1","13:57:46","25","75","3","9","10","40","30","120","6","21","[""White""]","No","Female","1629464","null","","null","learn_feedback","","learn_feedback","25","75","in","","","","","","","","","","","","","","","","","","","","","","",""
"","","","","","canvas-keyboard-response","247","321091","0.0-13.0-4.46","2d_cat_multi_stim_exp1","2022-4-1","13:57:46","25","75","3","9","10","40","30","120","6","21","[""White""]","No","Female","1629464","null","","null","","","clear_screen","","","","","","","","","","","","","","","","","","","","","","","","","",""
"","","","","","canvas-keyboard-response","248","321598","0.0-13.0-0.47","2d_cat_multi_stim_exp1","2022-4-1","13:57:46","25","75","3","9","10","40","30","120","6","21","[""White""]","No","Female","1629464","null","","null","","","fixation","","","","","","","","","","","","","","","","","","","","","","","","","",""
"","","","","","canvas-keyboard-response","249","322107","0.0-13.0-1.47","2d_cat_multi_stim_exp1","2022-4-1","13:57:46","25","75","3","9","10","40","30","120","6","21","[""White""]","No","Female","1629464","null","","null","","","clear_screen","","","","","","","","","","","","","","","","","","","","","","","","","",""
"","","","","","canvas-keyboard-response","250","322716","0.0-13.0-2.47","2d_cat_multi_stim_exp1","2022-4-1","13:57:46","25","75","3","9","10","40","30","120","6","21","[""White""]","No","Female","1629464","597","","u","learn","","learn_trial","22.9268","81.5052","in","1","1","","","","","","","","","","","","","","","","","","","","",""
"","","","","","canvas-keyboard-response","251","323224","0.0-13.0-3.47","2d_cat_multi_stim_exp1","2022-4-1","13:57:46","25","75","3","9","10","40","30","120","6","21","[""White""]","No","Female","1629464","null","","null","learn_feedback","","learn_feedback","22.9268","81.5052","in","","","","","","","","","","","","","","","","","","","","","","",""
"","","","","","canvas-keyboard-response","252","323283","0.0-13.0-4.47","2d_cat_multi_stim_exp1","2022-4-1","13:57:46","25","75","3","9","10","40","30","120","6","21","[""White""]","No","Female","1629464","null","","null","","","clear_screen","","","","","","","","","","","","","","","","","","","","","","","","","",""
"","","","","","canvas-keyboard-response","253","323791","0.0-13.0-0.48","2d_cat_multi_stim_exp1","2022-4-1","13:57:46","25","75","3","9","10","40","30","120","6","21","[""White""]","No","Female","1629464","null","","null","","","fixation","","","","","","","","","","","","","","","","","","","","","","","","","",""
"","","","","","canvas-keyboard-response","254","324300","0.0-13.0-1.48","2d_cat_multi_stim_exp1","2022-4-1","13:57:46","25","75","3","9","10","40","30","120","6","21","[""White""]","No","Female","1629464","null","","null","","","clear_screen","","","","","","","","","","","","","","","","","","","","","","","","","",""
"","","","","","canvas-keyboard-response","255","324948","0.0-13.0-2.48","2d_cat_multi_stim_exp1","2022-4-1","13:57:46","25","75","3","9","10","40","30","120","6","21","[""White""]","No","Female","1629464","637","","u","learn","","learn_trial","13.3333","60","out","1","0","","","","","","","","","","","","","","","","","","","","",""
"","","","","","canvas-keyboard-response","256","325957","0.0-13.0-3.48","2d_cat_multi_stim_exp1","2022-4-1","13:57:46","25","75","3","9","10","40","30","120","6","21","[""White""]","No","Female","1629464","null","","null","learn_feedback","","learn_feedback","13.3333","60","out","","","","","","","","","","","","","","","","","","","","","","",""
"","","","","","canvas-keyboard-response","257","326014","0.0-13.0-4.48","2d_cat_multi_stim_exp1","2022-4-1","13:57:46","25","75","3","9","10","40","30","120","6","21","[""White""]","No","Female","1629464","null","","null","","","clear_screen","","","","","","","","","","","","","","","","","","","","","","","","","",""
"","","","","","canvas-keyboard-response","258","326522","0.0-13.0-0.49","2d_cat_multi_stim_exp1","2022-4-1","13:57:46","25","75","3","9","10","40","30","120","6","21","[""White""]","No","Female","1629464","null","","null","","","fixation","","","","","","","","","","","","","","","","","","","","","","","","","",""
"","","","","","canvas-keyboard-response","259","327031","0.0-13.0-1.49","2d_cat_multi_stim_exp1","2022-4-1","13:57:46","25","75","3","9","10","40","30","120","6","21","[""White""]","No","Female","1629464","null","","null","","","clear_screen","","","","","","","","","","","","","","","","","","","","","","","","","",""
"","","","","","canvas-keyboard-response","260","327940","0.0-13.0-2.49","2d_cat_multi_stim_exp1","2022-4-1","13:57:46","25","75","3","9","10","40","30","120","6","21","[""White""]","No","Female","1629464","900","","i","learn","","learn_trial","31","75","in","0","0","","","","","","","","","","","","","","","","","","","","",""
"","","","","","canvas-keyboard-response","261","328949","0.0-13.0-3.49","2d_cat_multi_stim_exp1","2022-4-1","13:57:46","25","75","3","9","10","40","30","120","6","21","[""White""]","No","Female","1629464","null","","null","learn_feedback","","learn_feedback","31","75","in","","","","","","","","","","","","","","","","","","","","","","",""
"","","","","","canvas-keyboard-response","262","329008","0.0-13.0-4.49","2d_cat_multi_stim_exp1","2022-4-1","13:57:46","25","75","3","9","10","40","30","120","6","21","[""White""]","No","Female","1629464","null","","null","","","clear_screen","","","","","","","","","","","","","","","","","","","","","","","","","",""
"","","","","","canvas-keyboard-response","263","329516","0.0-13.0-0.50","2d_cat_multi_stim_exp1","2022-4-1","13:57:46","25","75","3","9","10","40","30","120","6","21","[""White""]","No","Female","1629464","null","","null","","","fixation","","","","","","","","","","","","","","","","","","","","","","","","","",""
"","","","","","canvas-keyboard-response","264","330023","0.0-13.0-1.50","2d_cat_multi_stim_exp1","2022-4-1","13:57:46","25","75","3","9","10","40","30","120","6","21","[""White""]","No","Female","1629464","null","","null","","","clear_screen","","","","","","","","","","","","","","","","","","","","","","","","","",""
"","","","","","canvas-keyboard-response","265","331004","0.0-13.0-2.50","2d_cat_multi_stim_exp1","2022-4-1","13:57:46","25","75","3","9","10","40","30","120","6","21","[""White""]","No","Female","1629464","967","","i","learn","","learn_trial","10","100","out","0","1","","","","","","","","","","","","","","","","","","","","",""
"","","","","","canvas-keyboard-response","266","331512","0.0-13.0-3.50","2d_cat_multi_stim_exp1","2022-4-1","13:57:46","25","75","3","9","10","40","30","120","6","21","[""White""]","No","Female","1629464","null","","null","learn_feedback","","learn_feedback","10","100","out","","","","","","","","","","","","","","","","","","","","","","",""
"","","","","","canvas-keyboard-response","267","331571","0.0-13.0-4.50","2d_cat_multi_stim_exp1","2022-4-1","13:57:46","25","75","3","9","10","40","30","120","6","21","[""White""]","No","Female","1629464","null","","null","","","clear_screen","","","","","","","","","","","","","","","","","","","","","","","","","",""
"","","","","","canvas-keyboard-response","268","332079","0.0-13.0-0.51","2d_cat_multi_stim_exp1","2022-4-1","13:57:46","25","75","3","9","10","40","30","120","6","21","[""White""]","No","Female","1629464","null","","null","","","fixation","","","","","","","","","","","","","","","","","","","","","","","","","",""
"","","","","","canvas-keyboard-response","269","332588","0.0-13.0-1.51","2d_cat_multi_stim_exp1","2022-4-1","13:57:46","25","75","3","9","10","40","30","120","6","21","[""White""]","No","Female","1629464","null","","null","","","clear_screen","","","","","","","","","","","","","","","","","","","","","","","","","",""
"","","","","","canvas-keyboard-response","270","334140","0.0-13.0-2.51","2d_cat_multi_stim_exp1","2022-4-1","13:57:46","25","75","3","9","10","40","30","120","6","21","[""White""]","No","Female","1629464","1544","","i","learn","","learn_trial","26.6667","60","out","0","1","","","","","","","","","","","","","","","","","","","","",""
"","","","","","canvas-keyboard-response","271","334650","0.0-13.0-3.51","2d_cat_multi_stim_exp1","2022-4-1","13:57:46","25","75","3","9","10","40","30","120","6","21","[""White""]","No","Female","1629464","null","","null","learn_feedback","","learn_feedback","26.6667","60","out","","","","","","","","","","","","","","","","","","","","","","",""
"","","","","","canvas-keyboard-response","272","334707","0.0-13.0-4.51","2d_cat_multi_stim_exp1","2022-4-1","13:57:46","25","75","3","9","10","40","30","120","6","21","[""White""]","No","Female","1629464","null","","null","","","clear_screen","","","","","","","","","","","","","","","","","","","","","","","","","",""
"","","","","","canvas-keyboard-response","273","335216","0.0-13.0-0.52","2d_cat_multi_stim_exp1","2022-4-1","13:57:46","25","75","3","9","10","40","30","120","6","21","[""White""]","No","Female","1629464","null","","null","","","fixation","","","","","","","","","","","","","","","","","","","","","","","","","",""
"","","","","","canvas-keyboard-response","274","335724","0.0-13.0-1.52","2d_cat_multi_stim_exp1","2022-4-1","13:57:46","25","75","3","9","10","40","30","120","6","21","[""White""]","No","Female","1629464","null","","null","","","clear_screen","","","","","","","","","","","","","","","","","","","","","","","","","",""
"","","","","","canvas-keyboard-response","275","336412","0.0-13.0-2.52","2d_cat_multi_stim_exp1","2022-4-1","13:57:46","25","75","3","9","10","40","30","120","6","21","[""White""]","No","Female","1629464","679","","i","learn","","learn_trial","10","40","out","0","1","","","","","","","","","","","","","","","","","","","","",""
"","","","","","canvas-keyboard-response","276","336920","0.0-13.0-3.52","2d_cat_multi_stim_exp1","2022-4-1","13:57:46","25","75","3","9","10","40","30","120","6","21","[""White""]","No","Female","1629464","null","","null","learn_feedback","","learn_feedback","10","40","out","","","","","","","","","","","","","","","","","","","","","","",""
"","","","","","canvas-keyboard-response","277","336978","0.0-13.0-4.52","2d_cat_multi_stim_exp1","2022-4-1","13:57:46","25","75","3","9","10","40","30","120","6","21","[""White""]","No","Female","1629464","null","","null","","","clear_screen","","","","","","","","","","","","","","","","","","","","","","","","","",""
"","","","","","canvas-keyboard-response","278","337486","0.0-13.0-0.53","2d_cat_multi_stim_exp1","2022-4-1","13:57:46","25","75","3","9","10","40","30","120","6","21","[""White""]","No","Female","1629464","null","","null","","","fixation","","","","","","","","","","","","","","","","","","","","","","","","","",""
"","","","","","canvas-keyboard-response","279","337994","0.0-13.0-1.53","2d_cat_multi_stim_exp1","2022-4-1","13:57:46","25","75","3","9","10","40","30","120","6","21","[""White""]","No","Female","1629464","null","","null","","","clear_screen","","","","","","","","","","","","","","","","","","","","","","","","","",""
"","","","","","canvas-keyboard-response","280","338419","0.0-13.0-2.53","2d_cat_multi_stim_exp1","2022-4-1","13:57:46","25","75","3","9","10","40","30","120","6","21","[""White""]","No","Female","1629464","413","","i","learn","","learn_trial","10","50","out","0","1","","","","","","","","","","","","","","","","","","","","",""
"","","","","","canvas-keyboard-response","281","338928","0.0-13.0-3.53","2d_cat_multi_stim_exp1","2022-4-1","13:57:46","25","75","3","9","10","40","30","120","6","21","[""White""]","No","Female","1629464","null","","null","learn_feedback","","learn_feedback","10","50","out","","","","","","","","","","","","","","","","","","","","","","",""
"","","","","","canvas-keyboard-response","282","338987","0.0-13.0-4.53","2d_cat_multi_stim_exp1","2022-4-1","13:57:46","25","75","3","9","10","40","30","120","6","21","[""White""]","No","Female","1629464","null","","null","","","clear_screen","","","","","","","","","","","","","","","","","","","","","","","","","",""
"","","","","","canvas-keyboard-response","283","339495","0.0-13.0-0.54","2d_cat_multi_stim_exp1","2022-4-1","13:57:46","25","75","3","9","10","40","30","120","6","21","[""White""]","No","Female","1629464","null","","null","","","fixation","","","","","","","","","","","","","","","","","","","","","","","","","",""
"","","","","","canvas-keyboard-response","284","340003","0.0-13.0-1.54","2d_cat_multi_stim_exp1","2022-4-1","13:57:46","25","75","3","9","10","40","30","120","6","21","[""White""]","No","Female","1629464","null","","null","","","clear_screen","","","","","","","","","","","","","","","","","","","","","","","","","",""
"","","","","","canvas-keyboard-response","285","340556","0.0-13.0-2.54","2d_cat_multi_stim_exp1","2022-4-1","13:57:46","25","75","3","9","10","40","30","120","6","21","[""White""]","No","Female","1629464","543","","u","learn","","learn_trial","25","75","in","1","1","","","","","","","","","","","","","","","","","","","","",""
"","","","","","canvas-keyboard-response","286","341064","0.0-13.0-3.54","2d_cat_multi_stim_exp1","2022-4-1","13:57:46","25","75","3","9","10","40","30","120","6","21","[""White""]","No","Female","1629464","null","","null","learn_feedback","","learn_feedback","25","75","in","","","","","","","","","","","","","","","","","","","","","","",""
"","","","","","canvas-keyboard-response","287","341122","0.0-13.0-4.54","2d_cat_multi_stim_exp1","2022-4-1","13:57:46","25","75","3","9","10","40","30","120","6","21","[""White""]","No","Female","1629464","null","","null","","","clear_screen","","","","","","","","","","","","","","","","","","","","","","","","","",""
"","","","","","canvas-keyboard-response","288","341630","0.0-13.0-0.55","2d_cat_multi_stim_exp1","2022-4-1","13:57:46","25","75","3","9","10","40","30","120","6","21","[""White""]","No","Female","1629464","null","","null","","","fixation","","","","","","","","","","","","","","","","","","","","","","","","","",""
"","","","","","canvas-keyboard-response","289","342138","0.0-13.0-1.55","2d_cat_multi_stim_exp1","2022-4-1","13:57:46","25","75","3","9","10","40","30","120","6","21","[""White""]","No","Female","1629464","null","","null","","","clear_screen","","","","","","","","","","","","","","","","","","","","","","","","","",""
"","","","","","canvas-keyboard-response","290","342924","0.0-13.0-2.55","2d_cat_multi_stim_exp1","2022-4-1","13:57:46","25","75","3","9","10","40","30","120","6","21","[""White""]","No","Female","1629464","776","","i","learn","","learn_trial","20","120","out","0","1","","","","","","","","","","","","","","","","","","","","",""
"","","","","","canvas-keyboard-response","291","343432","0.0-13.0-3.55","2d_cat_multi_stim_exp1","2022-4-1","13:57:46","25","75","3","9","10","40","30","120","6","21","[""White""]","No","Female","1629464","null","","null","learn_feedback","","learn_feedback","20","120","out","","","","","","","","","","","","","","","","","","","","","","",""
"","","","","","canvas-keyboard-response","292","343490","0.0-13.0-4.55","2d_cat_multi_stim_exp1","2022-4-1","13:57:46","25","75","3","9","10","40","30","120","6","21","[""White""]","No","Female","1629464","null","","null","","","clear_screen","","","","","","","","","","","","","","","","","","","","","","","","","",""
"","","","","","canvas-keyboard-response","293","343998","0.0-13.0-0.56","2d_cat_multi_stim_exp1","2022-4-1","13:57:46","25","75","3","9","10","40","30","120","6","21","[""White""]","No","Female","1629464","null","","null","","","fixation","","","","","","","","","","","","","","","","","","","","","","","","","",""
"","","","","","canvas-keyboard-response","294","344506","0.0-13.0-1.56","2d_cat_multi_stim_exp1","2022-4-1","13:57:46","25","75","3","9","10","40","30","120","6","21","[""White""]","No","Female","1629464","null","","null","","","clear_screen","","","","","","","","","","","","","","","","","","","","","","","","","",""
"","","","","","canvas-keyboard-response","295","345043","0.0-13.0-2.56","2d_cat_multi_stim_exp1","2022-4-1","13:57:46","25","75","3","9","10","40","30","120","6","21","[""White""]","No","Female","1629464","525","","u","learn","","learn_trial","28","75","in","1","1","","","","","","","","","","","","","","","","","","","","",""
"","","","","","canvas-keyboard-response","296","345553","0.0-13.0-3.56","2d_cat_multi_stim_exp1","2022-4-1","13:57:46","25","75","3","9","10","40","30","120","6","21","[""White""]","No","Female","1629464","null","","null","learn_feedback","","learn_feedback","28","75","in","","","","","","","","","","","","","","","","","","","","","","",""
"","","","","","canvas-keyboard-response","297","345611","0.0-13.0-4.56","2d_cat_multi_stim_exp1","2022-4-1","13:57:46","25","75","3","9","10","40","30","120","6","21","[""White""]","No","Female","1629464","null","","null","","","clear_screen","","","","","","","","","","","","","","","","","","","","","","","","","",""
