"success","timeout","failed_images","failed_audio","failed_video","trial_type","trial_index","time_elapsed","internal_node_id","exp_name","date","time","angle_mean_in","radius_mean_in","angle_sd_in","radius_sd_in","angle_min_out","angle_max_out","radius_min_out","radius_max_out","sub_n","age","race","ethnicity","gender","exp_duration","rt","response","exp_trial_type","stimulus","view_history","screen_id","angle","radius","distribution","choice","correct","order","angle_a","radius_a","angle_b","radius_b","angle_c","radius_c","jkl_correct","transfer_trial_type","choice_set","abc_correct","tc_correct","tc_angle","tdc_a","tdc_b","tdc_c","pair","category_a","category_b","category_c","question_order"
"true","false","[]","[]","[]","preload","0","20","0.0-0.0","2d_cat_multi_stim_exp1","2022-4-28","14:55:46","25","75","3","9","10","40","30","120","68","21","[""White""]","No","Female","1809499","","","","","","","","","","","","","","","","","","","","","","","","","","","","","","","",""
"","","","","","survey-html-form","1","3455","0.0-1.0","2d_cat_multi_stim_exp1","2022-4-28","14:55:46","25","75","3","9","10","40","30","120","68","21","[""White""]","No","Female","1809499","3423","{""response"":""68""}","enter-sub-number","","","","","","","","","","","","","","","","","","","","","","","","","","","","",""
"true","","","","","fullscreen","2","5802","0.0-2.0","2d_cat_multi_stim_exp1","2022-4-28","14:55:46","25","75","3","9","10","40","30","120","68","21","[""White""]","No","Female","1809499","","","","","","","","","","","","","","","","","","","","","","","","","","","","","","","",""
"","","","","","image-button-response","3","61611","0.0-3.0","2d_cat_multi_stim_exp1","2022-4-28","14:55:46","25","75","3","9","10","40","30","120","68","21","[""White""]","No","Female","1809499","55800","0","","consent.png","","","","","","","","","","","","","","","","","","","","","","","","","","","",""
"","","","","","html-button-response","4","65498","0.0-4.0","2d_cat_multi_stim_exp1","2022-4-28","14:55:46","25","75","3","9","10","40","30","120","68","21","[""White""]","No","Female","1809499","3882","0","","<div style= ""font-size:25px;"" <p> <strong> Welcome to the experiment! </strong><br> <p style=""color:#8B0000; font-size:25px;""><strong> Please do NOT exit full screen until you are done with the experiment. </strong> </p><p style=""font-size:25px;color:#8B0000;""> <strong> The experiment will be canceled and your data will be lost <br> if you try to go back or refresh the page at any point during the experiment.</strong> </p><br><p> <strong> Thanks in advance for your contribution to our research! </strong></p>","","","","","","","","","","","","","","","","","","","","","","","","","","","",""
"","","","","","instructions","5","116923","0.0-5.0","2d_cat_multi_stim_exp1","2022-4-28","14:55:46","25","75","3","9","10","40","30","120","68","21","[""White""]","No","Female","1809499","51420","","","","[{""page_index"":0,""viewing_time"":5387},{""page_index"":1,""viewing_time"":2040},{""page_index"":2,""viewing_time"":14792},{""page_index"":3,""viewing_time"":29201}]","instructions_1","","","","","","","","","","","","","","","","","","","","","","","","","",""
"","","","","","instructions","6","122466","0.0-6.0","2d_cat_multi_stim_exp1","2022-4-28","14:55:46","25","75","3","9","10","40","30","120","68","21","[""White""]","No","Female","1809499","5536","","","","[{""page_index"":0,""viewing_time"":5536}]","Click to see the kinds of turtles that will appear in the study.","","","","","","","","","","","","","","","","","","","","","","","","","",""
"","","","","","canvas-keyboard-response","7","137482","0.0-7.0","2d_cat_multi_stim_exp1","2022-4-28","14:55:46","25","75","3","9","10","40","30","120","68","21","[""White""]","No","Female","1809499","null","null","","","","demo_range","","","","","","","","","","","","","","","","","","","","","","","","","",""
"","","","","","instructions","8","140530","0.0-8.0","2d_cat_multi_stim_exp1","2022-4-28","14:55:46","25","75","3","9","10","40","30","120","68","21","[""White""]","No","Female","1809499","2545","","","","[{""page_index"":0,""viewing_time"":2545}]","Click to see some turtles in the subspecies.","","","","","","","","","","","","","","","","","","","","","","","","","",""
"","","","","","canvas-keyboard-response","9","155545","0.0-9.0","2d_cat_multi_stim_exp1","2022-4-28","14:55:46","25","75","3","9","10","40","30","120","68","21","[""White""]","No","Female","1809499","null","null","","","","demo_in","","","","","","","","","","","","","","","","","","","","","","","","","",""
"","","","","","instructions","10","202257","0.0-10.0","2d_cat_multi_stim_exp1","2022-4-28","14:55:46","25","75","3","9","10","40","30","120","68","21","[""White""]","No","Female","1809499","46210","","","","[{""page_index"":0,""viewing_time"":12810},{""page_index"":1,""viewing_time"":24928},{""page_index"":2,""viewing_time"":8471}]","instructions_2","","","","","","","","","","","","","","","","","","","","","","","","","",""
"","","","","","instructions","11","204193","0.0-11.0","2d_cat_multi_stim_exp1","2022-4-28","14:55:46","25","75","3","9","10","40","30","120","68","21","[""White""]","No","Female","1809499","1934","","","","[{""page_index"":0,""viewing_time"":1934}]","Click to begin the first phase of the experiment.","","","","","","","","","","","","","","","","","","","","","","","","","",""
"","","","","","canvas-keyboard-response","12","204704","0.0-12.0-0.0","2d_cat_multi_stim_exp1","2022-4-28","14:55:46","25","75","3","9","10","40","30","120","68","21","[""White""]","No","Female","1809499","null","null","","","","fixation","","","","","","","","","","","","","","","","","","","","","","","","","",""
"","","","","","canvas-keyboard-response","13","205213","0.0-12.0-1.0","2d_cat_multi_stim_exp1","2022-4-28","14:55:46","25","75","3","9","10","40","30","120","68","21","[""White""]","No","Female","1809499","null","null","","","","clear_screen","","","","","","","","","","","","","","","","","","","","","","","","","",""
"","","","","","canvas-keyboard-response","14","207953","0.0-12.0-2.0","2d_cat_multi_stim_exp1","2022-4-28","14:55:46","25","75","3","9","10","40","30","120","68","21","[""White""]","No","Female","1809499","2728","u","learn","","","learn_trial","20","30","out","1","0","","","","","","","","","","","","","","","","","","","","",""
"","","","","","canvas-keyboard-response","15","208968","0.0-12.0-3.0","2d_cat_multi_stim_exp1","2022-4-28","14:55:46","25","75","3","9","10","40","30","120","68","21","[""White""]","No","Female","1809499","null","null","learn_feedback","","","learn_feedback","20","30","out","","","","","","","","","","","","","","","","","","","","","","",""
"","","","","","canvas-keyboard-response","16","209030","0.0-12.0-4.0","2d_cat_multi_stim_exp1","2022-4-28","14:55:46","25","75","3","9","10","40","30","120","68","21","[""White""]","No","Female","1809499","null","null","","","","clear_screen","","","","","","","","","","","","","","","","","","","","","","","","","",""
"","","","","","canvas-keyboard-response","17","209540","0.0-12.0-0.1","2d_cat_multi_stim_exp1","2022-4-28","14:55:46","25","75","3","9","10","40","30","120","68","21","[""White""]","No","Female","1809499","null","null","","","","fixation","","","","","","","","","","","","","","","","","","","","","","","","","",""
"","","","","","canvas-keyboard-response","18","210050","0.0-12.0-1.1","2d_cat_multi_stim_exp1","2022-4-28","14:55:46","25","75","3","9","10","40","30","120","68","21","[""White""]","No","Female","1809499","null","null","","","","clear_screen","","","","","","","","","","","","","","","","","","","","","","","","","",""
"","","","","","canvas-keyboard-response","19","213129","0.0-12.0-2.1","2d_cat_multi_stim_exp1","2022-4-28","14:55:46","25","75","3","9","10","40","30","120","68","21","[""White""]","No","Female","1809499","3071","u","learn","","","learn_trial","25","75","in","1","1","","","","","","","","","","","","","","","","","","","","",""
"","","","","","canvas-keyboard-response","20","213640","0.0-12.0-3.1","2d_cat_multi_stim_exp1","2022-4-28","14:55:46","25","75","3","9","10","40","30","120","68","21","[""White""]","No","Female","1809499","null","null","learn_feedback","","","learn_feedback","25","75","in","","","","","","","","","","","","","","","","","","","","","","",""
"","","","","","canvas-keyboard-response","21","213702","0.0-12.0-4.1","2d_cat_multi_stim_exp1","2022-4-28","14:55:46","25","75","3","9","10","40","30","120","68","21","[""White""]","No","Female","1809499","null","null","","","","clear_screen","","","","","","","","","","","","","","","","","","","","","","","","","",""
"","","","","","canvas-keyboard-response","22","214211","0.0-12.0-0.2","2d_cat_multi_stim_exp1","2022-4-28","14:55:46","25","75","3","9","10","40","30","120","68","21","[""White""]","No","Female","1809499","null","null","","","","fixation","","","","","","","","","","","","","","","","","","","","","","","","","",""
"","","","","","canvas-keyboard-response","23","214721","0.0-12.0-1.2","2d_cat_multi_stim_exp1","2022-4-28","14:55:46","25","75","3","9","10","40","30","120","68","21","[""White""]","No","Female","1809499","null","null","","","","clear_screen","","","","","","","","","","","","","","","","","","","","","","","","","",""
"","","","","","canvas-keyboard-response","24","215841","0.0-12.0-2.2","2d_cat_multi_stim_exp1","2022-4-28","14:55:46","25","75","3","9","10","40","30","120","68","21","[""White""]","No","Female","1809499","1111","u","learn","","","learn_trial","22.5729","80.2901","in","1","1","","","","","","","","","","","","","","","","","","","","",""
"","","","","","canvas-keyboard-response","25","216351","0.0-12.0-3.2","2d_cat_multi_stim_exp1","2022-4-28","14:55:46","25","75","3","9","10","40","30","120","68","21","[""White""]","No","Female","1809499","null","null","learn_feedback","","","learn_feedback","22.5729","80.2901","in","","","","","","","","","","","","","","","","","","","","","","",""
"","","","","","canvas-keyboard-response","26","216412","0.0-12.0-4.2","2d_cat_multi_stim_exp1","2022-4-28","14:55:46","25","75","3","9","10","40","30","120","68","21","[""White""]","No","Female","1809499","null","null","","","","clear_screen","","","","","","","","","","","","","","","","","","","","","","","","","",""
"","","","","","canvas-keyboard-response","27","216922","0.0-12.0-0.3","2d_cat_multi_stim_exp1","2022-4-28","14:55:46","25","75","3","9","10","40","30","120","68","21","[""White""]","No","Female","1809499","null","null","","","","fixation","","","","","","","","","","","","","","","","","","","","","","","","","",""
"","","","","","canvas-keyboard-response","28","217435","0.0-12.0-1.3","2d_cat_multi_stim_exp1","2022-4-28","14:55:46","25","75","3","9","10","40","30","120","68","21","[""White""]","No","Female","1809499","null","null","","","","clear_screen","","","","","","","","","","","","","","","","","","","","","","","","","",""
"","","","","","canvas-keyboard-response","29","218417","0.0-12.0-2.3","2d_cat_multi_stim_exp1","2022-4-28","14:55:46","25","75","3","9","10","40","30","120","68","21","[""White""]","No","Female","1809499","973","i","learn","","","learn_trial","40","70","out","0","1","","","","","","","","","","","","","","","","","","","","",""
"","","","","","canvas-keyboard-response","30","218926","0.0-12.0-3.3","2d_cat_multi_stim_exp1","2022-4-28","14:55:46","25","75","3","9","10","40","30","120","68","21","[""White""]","No","Female","1809499","null","null","learn_feedback","","","learn_feedback","40","70","out","","","","","","","","","","","","","","","","","","","","","","",""
"","","","","","canvas-keyboard-response","31","218987","0.0-12.0-4.3","2d_cat_multi_stim_exp1","2022-4-28","14:55:46","25","75","3","9","10","40","30","120","68","21","[""White""]","No","Female","1809499","null","null","","","","clear_screen","","","","","","","","","","","","","","","","","","","","","","","","","",""
"","","","","","canvas-keyboard-response","32","219495","0.0-12.0-0.4","2d_cat_multi_stim_exp1","2022-4-28","14:55:46","25","75","3","9","10","40","30","120","68","21","[""White""]","No","Female","1809499","null","null","","","","fixation","","","","","","","","","","","","","","","","","","","","","","","","","",""
"","","","","","canvas-keyboard-response","33","220005","0.0-12.0-1.4","2d_cat_multi_stim_exp1","2022-4-28","14:55:46","25","75","3","9","10","40","30","120","68","21","[""White""]","No","Female","1809499","null","null","","","","clear_screen","","","","","","","","","","","","","","","","","","","","","","","","","",""
"","","","","","canvas-keyboard-response","34","220721","0.0-12.0-2.4","2d_cat_multi_stim_exp1","2022-4-28","14:55:46","25","75","3","9","10","40","30","120","68","21","[""White""]","No","Female","1809499","705","u","learn","","","learn_trial","24.8654","83.9909","in","1","1","","","","","","","","","","","","","","","","","","","","",""
"","","","","","canvas-keyboard-response","35","221232","0.0-12.0-3.4","2d_cat_multi_stim_exp1","2022-4-28","14:55:46","25","75","3","9","10","40","30","120","68","21","[""White""]","No","Female","1809499","null","null","learn_feedback","","","learn_feedback","24.8654","83.9909","in","","","","","","","","","","","","","","","","","","","","","","",""
"","","","","","canvas-keyboard-response","36","221292","0.0-12.0-4.4","2d_cat_multi_stim_exp1","2022-4-28","14:55:46","25","75","3","9","10","40","30","120","68","21","[""White""]","No","Female","1809499","null","null","","","","clear_screen","","","","","","","","","","","","","","","","","","","","","","","","","",""
"","","","","","canvas-keyboard-response","37","221801","0.0-12.0-0.5","2d_cat_multi_stim_exp1","2022-4-28","14:55:46","25","75","3","9","10","40","30","120","68","21","[""White""]","No","Female","1809499","null","null","","","","fixation","","","","","","","","","","","","","","","","","","","","","","","","","",""
"","","","","","canvas-keyboard-response","38","222307","0.0-12.0-1.5","2d_cat_multi_stim_exp1","2022-4-28","14:55:46","25","75","3","9","10","40","30","120","68","21","[""White""]","No","Female","1809499","null","null","","","","clear_screen","","","","","","","","","","","","","","","","","","","","","","","","","",""
"","","","","","canvas-keyboard-response","39","223042","0.0-12.0-2.5","2d_cat_multi_stim_exp1","2022-4-28","14:55:46","25","75","3","9","10","40","30","120","68","21","[""White""]","No","Female","1809499","726","i","learn","","","learn_trial","40","100","out","0","1","","","","","","","","","","","","","","","","","","","","",""
"","","","","","canvas-keyboard-response","40","223553","0.0-12.0-3.5","2d_cat_multi_stim_exp1","2022-4-28","14:55:46","25","75","3","9","10","40","30","120","68","21","[""White""]","No","Female","1809499","null","null","learn_feedback","","","learn_feedback","40","100","out","","","","","","","","","","","","","","","","","","","","","","",""
"","","","","","canvas-keyboard-response","41","223612","0.0-12.0-4.5","2d_cat_multi_stim_exp1","2022-4-28","14:55:46","25","75","3","9","10","40","30","120","68","21","[""White""]","No","Female","1809499","null","null","","","","clear_screen","","","","","","","","","","","","","","","","","","","","","","","","","",""
"","","","","","canvas-keyboard-response","42","224122","0.0-12.0-0.6","2d_cat_multi_stim_exp1","2022-4-28","14:55:46","25","75","3","9","10","40","30","120","68","21","[""White""]","No","Female","1809499","null","null","","","","fixation","","","","","","","","","","","","","","","","","","","","","","","","","",""
"","","","","","canvas-keyboard-response","43","224633","0.0-12.0-1.6","2d_cat_multi_stim_exp1","2022-4-28","14:55:46","25","75","3","9","10","40","30","120","68","21","[""White""]","No","Female","1809499","null","null","","","","clear_screen","","","","","","","","","","","","","","","","","","","","","","","","","",""
"","","","","","canvas-keyboard-response","44","225617","0.0-12.0-2.6","2d_cat_multi_stim_exp1","2022-4-28","14:55:46","25","75","3","9","10","40","30","120","68","21","[""White""]","No","Female","1809499","976","i","learn","","","learn_trial","30","100","out","0","1","","","","","","","","","","","","","","","","","","","","",""
"","","","","","canvas-keyboard-response","45","226127","0.0-12.0-3.6","2d_cat_multi_stim_exp1","2022-4-28","14:55:46","25","75","3","9","10","40","30","120","68","21","[""White""]","No","Female","1809499","null","null","learn_feedback","","","learn_feedback","30","100","out","","","","","","","","","","","","","","","","","","","","","","",""
"","","","","","canvas-keyboard-response","46","226186","0.0-12.0-4.6","2d_cat_multi_stim_exp1","2022-4-28","14:55:46","25","75","3","9","10","40","30","120","68","21","[""White""]","No","Female","1809499","null","null","","","","clear_screen","","","","","","","","","","","","","","","","","","","","","","","","","",""
"","","","","","canvas-keyboard-response","47","226696","0.0-12.0-0.7","2d_cat_multi_stim_exp1","2022-4-28","14:55:46","25","75","3","9","10","40","30","120","68","21","[""White""]","No","Female","1809499","null","null","","","","fixation","","","","","","","","","","","","","","","","","","","","","","","","","",""
"","","","","","canvas-keyboard-response","48","227208","0.0-12.0-1.7","2d_cat_multi_stim_exp1","2022-4-28","14:55:46","25","75","3","9","10","40","30","120","68","21","[""White""]","No","Female","1809499","null","null","","","","clear_screen","","","","","","","","","","","","","","","","","","","","","","","","","",""
"","","","","","canvas-keyboard-response","49","227872","0.0-12.0-2.7","2d_cat_multi_stim_exp1","2022-4-28","14:55:46","25","75","3","9","10","40","30","120","68","21","[""White""]","No","Female","1809499","654","i","learn","","","learn_trial","13.3333","100","out","0","1","","","","","","","","","","","","","","","","","","","","",""
"","","","","","canvas-keyboard-response","50","228381","0.0-12.0-3.7","2d_cat_multi_stim_exp1","2022-4-28","14:55:46","25","75","3","9","10","40","30","120","68","21","[""White""]","No","Female","1809499","null","null","learn_feedback","","","learn_feedback","13.3333","100","out","","","","","","","","","","","","","","","","","","","","","","",""
"","","","","","canvas-keyboard-response","51","228445","0.0-12.0-4.7","2d_cat_multi_stim_exp1","2022-4-28","14:55:46","25","75","3","9","10","40","30","120","68","21","[""White""]","No","Female","1809499","null","null","","","","clear_screen","","","","","","","","","","","","","","","","","","","","","","","","","",""
"","","","","","canvas-keyboard-response","52","228953","0.0-12.0-0.8","2d_cat_multi_stim_exp1","2022-4-28","14:55:46","25","75","3","9","10","40","30","120","68","21","[""White""]","No","Female","1809499","null","null","","","","fixation","","","","","","","","","","","","","","","","","","","","","","","","","",""
"","","","","","canvas-keyboard-response","53","229463","0.0-12.0-1.8","2d_cat_multi_stim_exp1","2022-4-28","14:55:46","25","75","3","9","10","40","30","120","68","21","[""White""]","No","Female","1809499","null","null","","","","clear_screen","","","","","","","","","","","","","","","","","","","","","","","","","",""
"","","","","","canvas-keyboard-response","54","230705","0.0-12.0-2.8","2d_cat_multi_stim_exp1","2022-4-28","14:55:46","25","75","3","9","10","40","30","120","68","21","[""White""]","No","Female","1809499","1234","i","learn","","","learn_trial","22.2971","71.095","in","0","0","","","","","","","","","","","","","","","","","","","","",""
"","","","","","canvas-keyboard-response","55","231716","0.0-12.0-3.8","2d_cat_multi_stim_exp1","2022-4-28","14:55:46","25","75","3","9","10","40","30","120","68","21","[""White""]","No","Female","1809499","null","null","learn_feedback","","","learn_feedback","22.2971","71.095","in","","","","","","","","","","","","","","","","","","","","","","",""
"","","","","","canvas-keyboard-response","56","231776","0.0-12.0-4.8","2d_cat_multi_stim_exp1","2022-4-28","14:55:46","25","75","3","9","10","40","30","120","68","21","[""White""]","No","Female","1809499","null","null","","","","clear_screen","","","","","","","","","","","","","","","","","","","","","","","","","",""
"","","","","","canvas-keyboard-response","57","232284","0.0-12.0-0.9","2d_cat_multi_stim_exp1","2022-4-28","14:55:46","25","75","3","9","10","40","30","120","68","21","[""White""]","No","Female","1809499","null","null","","","","fixation","","","","","","","","","","","","","","","","","","","","","","","","","",""
"","","","","","canvas-keyboard-response","58","232795","0.0-12.0-1.9","2d_cat_multi_stim_exp1","2022-4-28","14:55:46","25","75","3","9","10","40","30","120","68","21","[""White""]","No","Female","1809499","null","null","","","","clear_screen","","","","","","","","","","","","","","","","","","","","","","","","","",""
"","","","","","canvas-keyboard-response","59","233426","0.0-12.0-2.9","2d_cat_multi_stim_exp1","2022-4-28","14:55:46","25","75","3","9","10","40","30","120","68","21","[""White""]","No","Female","1809499","621","u","learn","","","learn_trial","25","75","in","1","1","","","","","","","","","","","","","","","","","","","","",""
"","","","","","canvas-keyboard-response","60","233935","0.0-12.0-3.9","2d_cat_multi_stim_exp1","2022-4-28","14:55:46","25","75","3","9","10","40","30","120","68","21","[""White""]","No","Female","1809499","null","null","learn_feedback","","","learn_feedback","25","75","in","","","","","","","","","","","","","","","","","","","","","","",""
"","","","","","canvas-keyboard-response","61","233994","0.0-12.0-4.9","2d_cat_multi_stim_exp1","2022-4-28","14:55:46","25","75","3","9","10","40","30","120","68","21","[""White""]","No","Female","1809499","null","null","","","","clear_screen","","","","","","","","","","","","","","","","","","","","","","","","","",""
"","","","","","canvas-keyboard-response","62","234506","0.0-12.0-0.10","2d_cat_multi_stim_exp1","2022-4-28","14:55:46","25","75","3","9","10","40","30","120","68","21","[""White""]","No","Female","1809499","null","null","","","","fixation","","","","","","","","","","","","","","","","","","","","","","","","","",""
"","","","","","canvas-keyboard-response","63","235017","0.0-12.0-1.10","2d_cat_multi_stim_exp1","2022-4-28","14:55:46","25","75","3","9","10","40","30","120","68","21","[""White""]","No","Female","1809499","null","null","","","","clear_screen","","","","","","","","","","","","","","","","","","","","","","","","","",""
"","","","","","canvas-keyboard-response","64","235689","0.0-12.0-2.10","2d_cat_multi_stim_exp1","2022-4-28","14:55:46","25","75","3","9","10","40","30","120","68","21","[""White""]","No","Female","1809499","663","i","learn","","","learn_trial","16.6667","90","out","0","1","","","","","","","","","","","","","","","","","","","","",""
"","","","","","canvas-keyboard-response","65","236199","0.0-12.0-3.10","2d_cat_multi_stim_exp1","2022-4-28","14:55:46","25","75","3","9","10","40","30","120","68","21","[""White""]","No","Female","1809499","null","null","learn_feedback","","","learn_feedback","16.6667","90","out","","","","","","","","","","","","","","","","","","","","","","",""
"","","","","","canvas-keyboard-response","66","236257","0.0-12.0-4.10","2d_cat_multi_stim_exp1","2022-4-28","14:55:46","25","75","3","9","10","40","30","120","68","21","[""White""]","No","Female","1809499","null","null","","","","clear_screen","","","","","","","","","","","","","","","","","","","","","","","","","",""
"","","","","","canvas-keyboard-response","67","236765","0.0-12.0-0.11","2d_cat_multi_stim_exp1","2022-4-28","14:55:46","25","75","3","9","10","40","30","120","68","21","[""White""]","No","Female","1809499","null","null","","","","fixation","","","","","","","","","","","","","","","","","","","","","","","","","",""
"","","","","","canvas-keyboard-response","68","237274","0.0-12.0-1.11","2d_cat_multi_stim_exp1","2022-4-28","14:55:46","25","75","3","9","10","40","30","120","68","21","[""White""]","No","Female","1809499","null","null","","","","clear_screen","","","","","","","","","","","","","","","","","","","","","","","","","",""
"","","","","","canvas-keyboard-response","69","237856","0.0-12.0-2.11","2d_cat_multi_stim_exp1","2022-4-28","14:55:46","25","75","3","9","10","40","30","120","68","21","[""White""]","No","Female","1809499","572","u","learn","","","learn_trial","25","75","in","1","1","","","","","","","","","","","","","","","","","","","","",""
"","","","","","canvas-keyboard-response","70","238367","0.0-12.0-3.11","2d_cat_multi_stim_exp1","2022-4-28","14:55:46","25","75","3","9","10","40","30","120","68","21","[""White""]","No","Female","1809499","null","null","learn_feedback","","","learn_feedback","25","75","in","","","","","","","","","","","","","","","","","","","","","","",""
"","","","","","canvas-keyboard-response","71","238426","0.0-12.0-4.11","2d_cat_multi_stim_exp1","2022-4-28","14:55:46","25","75","3","9","10","40","30","120","68","21","[""White""]","No","Female","1809499","null","null","","","","clear_screen","","","","","","","","","","","","","","","","","","","","","","","","","",""
"","","","","","canvas-keyboard-response","72","238935","0.0-12.0-0.12","2d_cat_multi_stim_exp1","2022-4-28","14:55:46","25","75","3","9","10","40","30","120","68","21","[""White""]","No","Female","1809499","null","null","","","","fixation","","","","","","","","","","","","","","","","","","","","","","","","","",""
"","","","","","canvas-keyboard-response","73","239444","0.0-12.0-1.12","2d_cat_multi_stim_exp1","2022-4-28","14:55:46","25","75","3","9","10","40","30","120","68","21","[""White""]","No","Female","1809499","null","null","","","","clear_screen","","","","","","","","","","","","","","","","","","","","","","","","","",""
"","","","","","canvas-keyboard-response","74","240544","0.0-12.0-2.12","2d_cat_multi_stim_exp1","2022-4-28","14:55:46","25","75","3","9","10","40","30","120","68","21","[""White""]","No","Female","1809499","1091","i","learn","","","learn_trial","16.6667","30","out","0","1","","","","","","","","","","","","","","","","","","","","",""
"","","","","","canvas-keyboard-response","75","241055","0.0-12.0-3.12","2d_cat_multi_stim_exp1","2022-4-28","14:55:46","25","75","3","9","10","40","30","120","68","21","[""White""]","No","Female","1809499","null","null","learn_feedback","","","learn_feedback","16.6667","30","out","","","","","","","","","","","","","","","","","","","","","","",""
"","","","","","canvas-keyboard-response","76","241114","0.0-12.0-4.12","2d_cat_multi_stim_exp1","2022-4-28","14:55:46","25","75","3","9","10","40","30","120","68","21","[""White""]","No","Female","1809499","null","null","","","","clear_screen","","","","","","","","","","","","","","","","","","","","","","","","","",""
"","","","","","canvas-keyboard-response","77","241625","0.0-12.0-0.13","2d_cat_multi_stim_exp1","2022-4-28","14:55:46","25","75","3","9","10","40","30","120","68","21","[""White""]","No","Female","1809499","null","null","","","","fixation","","","","","","","","","","","","","","","","","","","","","","","","","",""
"","","","","","canvas-keyboard-response","78","242137","0.0-12.0-1.13","2d_cat_multi_stim_exp1","2022-4-28","14:55:46","25","75","3","9","10","40","30","120","68","21","[""White""]","No","Female","1809499","null","null","","","","clear_screen","","","","","","","","","","","","","","","","","","","","","","","","","",""
"","","","","","canvas-keyboard-response","79","242963","0.0-12.0-2.13","2d_cat_multi_stim_exp1","2022-4-28","14:55:46","25","75","3","9","10","40","30","120","68","21","[""White""]","No","Female","1809499","814","i","learn","","","learn_trial","36.6667","100","out","0","1","","","","","","","","","","","","","","","","","","","","",""
"","","","","","canvas-keyboard-response","80","243472","0.0-12.0-3.13","2d_cat_multi_stim_exp1","2022-4-28","14:55:46","25","75","3","9","10","40","30","120","68","21","[""White""]","No","Female","1809499","null","null","learn_feedback","","","learn_feedback","36.6667","100","out","","","","","","","","","","","","","","","","","","","","","","",""
"","","","","","canvas-keyboard-response","81","243534","0.0-12.0-4.13","2d_cat_multi_stim_exp1","2022-4-28","14:55:46","25","75","3","9","10","40","30","120","68","21","[""White""]","No","Female","1809499","null","null","","","","clear_screen","","","","","","","","","","","","","","","","","","","","","","","","","",""
"","","","","","canvas-keyboard-response","82","244043","0.0-12.0-0.14","2d_cat_multi_stim_exp1","2022-4-28","14:55:46","25","75","3","9","10","40","30","120","68","21","[""White""]","No","Female","1809499","null","null","","","","fixation","","","","","","","","","","","","","","","","","","","","","","","","","",""
"","","","","","canvas-keyboard-response","83","244558","0.0-12.0-1.14","2d_cat_multi_stim_exp1","2022-4-28","14:55:46","25","75","3","9","10","40","30","120","68","21","[""White""]","No","Female","1809499","null","null","","","","clear_screen","","","","","","","","","","","","","","","","","","","","","","","","","",""
"","","","","","canvas-keyboard-response","84","245056","0.0-12.0-2.14","2d_cat_multi_stim_exp1","2022-4-28","14:55:46","25","75","3","9","10","40","30","120","68","21","[""White""]","No","Female","1809499","490","u","learn","","","learn_trial","25","75","in","1","1","","","","","","","","","","","","","","","","","","","","",""
"","","","","","canvas-keyboard-response","85","245568","0.0-12.0-3.14","2d_cat_multi_stim_exp1","2022-4-28","14:55:46","25","75","3","9","10","40","30","120","68","21","[""White""]","No","Female","1809499","null","null","learn_feedback","","","learn_feedback","25","75","in","","","","","","","","","","","","","","","","","","","","","","",""
"","","","","","canvas-keyboard-response","86","245630","0.0-12.0-4.14","2d_cat_multi_stim_exp1","2022-4-28","14:55:46","25","75","3","9","10","40","30","120","68","21","[""White""]","No","Female","1809499","null","null","","","","clear_screen","","","","","","","","","","","","","","","","","","","","","","","","","",""
"","","","","","canvas-keyboard-response","87","246137","0.0-12.0-0.15","2d_cat_multi_stim_exp1","2022-4-28","14:55:46","25","75","3","9","10","40","30","120","68","21","[""White""]","No","Female","1809499","null","null","","","","fixation","","","","","","","","","","","","","","","","","","","","","","","","","",""
"","","","","","canvas-keyboard-response","88","246651","0.0-12.0-1.15","2d_cat_multi_stim_exp1","2022-4-28","14:55:46","25","75","3","9","10","40","30","120","68","21","[""White""]","No","Female","1809499","null","null","","","","clear_screen","","","","","","","","","","","","","","","","","","","","","","","","","",""
"","","","","","canvas-keyboard-response","89","247362","0.0-12.0-2.15","2d_cat_multi_stim_exp1","2022-4-28","14:55:46","25","75","3","9","10","40","30","120","68","21","[""White""]","No","Female","1809499","700","u","learn","","","learn_trial","25","75","in","1","1","","","","","","","","","","","","","","","","","","","","",""
"","","","","","canvas-keyboard-response","90","247875","0.0-12.0-3.15","2d_cat_multi_stim_exp1","2022-4-28","14:55:46","25","75","3","9","10","40","30","120","68","21","[""White""]","No","Female","1809499","null","null","learn_feedback","","","learn_feedback","25","75","in","","","","","","","","","","","","","","","","","","","","","","",""
"","","","","","canvas-keyboard-response","91","247931","0.0-12.0-4.15","2d_cat_multi_stim_exp1","2022-4-28","14:55:46","25","75","3","9","10","40","30","120","68","21","[""White""]","No","Female","1809499","null","null","","","","clear_screen","","","","","","","","","","","","","","","","","","","","","","","","","",""
"","","","","","canvas-keyboard-response","92","248442","0.0-12.0-0.16","2d_cat_multi_stim_exp1","2022-4-28","14:55:46","25","75","3","9","10","40","30","120","68","21","[""White""]","No","Female","1809499","null","null","","","","fixation","","","","","","","","","","","","","","","","","","","","","","","","","",""
"","","","","","canvas-keyboard-response","93","248951","0.0-12.0-1.16","2d_cat_multi_stim_exp1","2022-4-28","14:55:46","25","75","3","9","10","40","30","120","68","21","[""White""]","No","Female","1809499","null","null","","","","clear_screen","","","","","","","","","","","","","","","","","","","","","","","","","",""
"","","","","","canvas-keyboard-response","94","249513","0.0-12.0-2.16","2d_cat_multi_stim_exp1","2022-4-28","14:55:46","25","75","3","9","10","40","30","120","68","21","[""White""]","No","Female","1809499","551","i","learn","","","learn_trial","23.3333","40","out","0","1","","","","","","","","","","","","","","","","","","","","",""
"","","","","","canvas-keyboard-response","95","250026","0.0-12.0-3.16","2d_cat_multi_stim_exp1","2022-4-28","14:55:46","25","75","3","9","10","40","30","120","68","21","[""White""]","No","Female","1809499","null","null","learn_feedback","","","learn_feedback","23.3333","40","out","","","","","","","","","","","","","","","","","","","","","","",""
"","","","","","canvas-keyboard-response","96","250086","0.0-12.0-4.16","2d_cat_multi_stim_exp1","2022-4-28","14:55:46","25","75","3","9","10","40","30","120","68","21","[""White""]","No","Female","1809499","null","null","","","","clear_screen","","","","","","","","","","","","","","","","","","","","","","","","","",""
"","","","","","canvas-keyboard-response","97","250596","0.0-12.0-0.17","2d_cat_multi_stim_exp1","2022-4-28","14:55:46","25","75","3","9","10","40","30","120","68","21","[""White""]","No","Female","1809499","null","null","","","","fixation","","","","","","","","","","","","","","","","","","","","","","","","","",""
"","","","","","canvas-keyboard-response","98","251107","0.0-12.0-1.17","2d_cat_multi_stim_exp1","2022-4-28","14:55:46","25","75","3","9","10","40","30","120","68","21","[""White""]","No","Female","1809499","null","null","","","","clear_screen","","","","","","","","","","","","","","","","","","","","","","","","","",""
"","","","","","canvas-keyboard-response","99","251553","0.0-12.0-2.17","2d_cat_multi_stim_exp1","2022-4-28","14:55:46","25","75","3","9","10","40","30","120","68","21","[""White""]","No","Female","1809499","437","u","learn","","","learn_trial","26.6667","70","out","1","0","","","","","","","","","","","","","","","","","","","","",""
"","","","","","canvas-keyboard-response","100","252564","0.0-12.0-3.17","2d_cat_multi_stim_exp1","2022-4-28","14:55:46","25","75","3","9","10","40","30","120","68","21","[""White""]","No","Female","1809499","null","null","learn_feedback","","","learn_feedback","26.6667","70","out","","","","","","","","","","","","","","","","","","","","","","",""
"","","","","","canvas-keyboard-response","101","252625","0.0-12.0-4.17","2d_cat_multi_stim_exp1","2022-4-28","14:55:46","25","75","3","9","10","40","30","120","68","21","[""White""]","No","Female","1809499","null","null","","","","clear_screen","","","","","","","","","","","","","","","","","","","","","","","","","",""
"","","","","","canvas-keyboard-response","102","253135","0.0-12.0-0.18","2d_cat_multi_stim_exp1","2022-4-28","14:55:46","25","75","3","9","10","40","30","120","68","21","[""White""]","No","Female","1809499","null","null","","","","fixation","","","","","","","","","","","","","","","","","","","","","","","","","",""
"","","","","","canvas-keyboard-response","103","253648","0.0-12.0-1.18","2d_cat_multi_stim_exp1","2022-4-28","14:55:46","25","75","3","9","10","40","30","120","68","21","[""White""]","No","Female","1809499","null","null","","","","clear_screen","","","","","","","","","","","","","","","","","","","","","","","","","",""
"","","","","","canvas-keyboard-response","104","254513","0.0-12.0-2.18","2d_cat_multi_stim_exp1","2022-4-28","14:55:46","25","75","3","9","10","40","30","120","68","21","[""White""]","No","Female","1809499","856","u","learn","","","learn_trial","25","75","in","1","1","","","","","","","","","","","","","","","","","","","","",""
"","","","","","canvas-keyboard-response","105","255022","0.0-12.0-3.18","2d_cat_multi_stim_exp1","2022-4-28","14:55:46","25","75","3","9","10","40","30","120","68","21","[""White""]","No","Female","1809499","null","null","learn_feedback","","","learn_feedback","25","75","in","","","","","","","","","","","","","","","","","","","","","","",""
"","","","","","canvas-keyboard-response","106","255085","0.0-12.0-4.18","2d_cat_multi_stim_exp1","2022-4-28","14:55:46","25","75","3","9","10","40","30","120","68","21","[""White""]","No","Female","1809499","null","null","","","","clear_screen","","","","","","","","","","","","","","","","","","","","","","","","","",""
"","","","","","canvas-keyboard-response","107","255595","0.0-12.0-0.19","2d_cat_multi_stim_exp1","2022-4-28","14:55:46","25","75","3","9","10","40","30","120","68","21","[""White""]","No","Female","1809499","null","null","","","","fixation","","","","","","","","","","","","","","","","","","","","","","","","","",""
"","","","","","canvas-keyboard-response","108","256105","0.0-12.0-1.19","2d_cat_multi_stim_exp1","2022-4-28","14:55:46","25","75","3","9","10","40","30","120","68","21","[""White""]","No","Female","1809499","null","null","","","","clear_screen","","","","","","","","","","","","","","","","","","","","","","","","","",""
"","","","","","canvas-keyboard-response","109","256705","0.0-12.0-2.19","2d_cat_multi_stim_exp1","2022-4-28","14:55:46","25","75","3","9","10","40","30","120","68","21","[""White""]","No","Female","1809499","587","i","learn","","","learn_trial","10","90","out","0","1","","","","","","","","","","","","","","","","","","","","",""
"","","","","","canvas-keyboard-response","110","257218","0.0-12.0-3.19","2d_cat_multi_stim_exp1","2022-4-28","14:55:46","25","75","3","9","10","40","30","120","68","21","[""White""]","No","Female","1809499","null","null","learn_feedback","","","learn_feedback","10","90","out","","","","","","","","","","","","","","","","","","","","","","",""
"","","","","","canvas-keyboard-response","111","257281","0.0-12.0-4.19","2d_cat_multi_stim_exp1","2022-4-28","14:55:46","25","75","3","9","10","40","30","120","68","21","[""White""]","No","Female","1809499","null","null","","","","clear_screen","","","","","","","","","","","","","","","","","","","","","","","","","",""
"","","","","","canvas-keyboard-response","112","257791","0.0-12.0-0.20","2d_cat_multi_stim_exp1","2022-4-28","14:55:46","25","75","3","9","10","40","30","120","68","21","[""White""]","No","Female","1809499","null","null","","","","fixation","","","","","","","","","","","","","","","","","","","","","","","","","",""
"","","","","","canvas-keyboard-response","113","258302","0.0-12.0-1.20","2d_cat_multi_stim_exp1","2022-4-28","14:55:46","25","75","3","9","10","40","30","120","68","21","[""White""]","No","Female","1809499","null","null","","","","clear_screen","","","","","","","","","","","","","","","","","","","","","","","","","",""
"","","","","","canvas-keyboard-response","114","259032","0.0-12.0-2.20","2d_cat_multi_stim_exp1","2022-4-28","14:55:46","25","75","3","9","10","40","30","120","68","21","[""White""]","No","Female","1809499","722","u","learn","","","learn_trial","25","75","in","1","1","","","","","","","","","","","","","","","","","","","","",""
"","","","","","canvas-keyboard-response","115","259542","0.0-12.0-3.20","2d_cat_multi_stim_exp1","2022-4-28","14:55:46","25","75","3","9","10","40","30","120","68","21","[""White""]","No","Female","1809499","null","null","learn_feedback","","","learn_feedback","25","75","in","","","","","","","","","","","","","","","","","","","","","","",""
"","","","","","canvas-keyboard-response","116","259604","0.0-12.0-4.20","2d_cat_multi_stim_exp1","2022-4-28","14:55:46","25","75","3","9","10","40","30","120","68","21","[""White""]","No","Female","1809499","null","null","","","","clear_screen","","","","","","","","","","","","","","","","","","","","","","","","","",""
"","","","","","canvas-keyboard-response","117","260114","0.0-12.0-0.21","2d_cat_multi_stim_exp1","2022-4-28","14:55:46","25","75","3","9","10","40","30","120","68","21","[""White""]","No","Female","1809499","null","null","","","","fixation","","","","","","","","","","","","","","","","","","","","","","","","","",""
"","","","","","canvas-keyboard-response","118","260627","0.0-12.0-1.21","2d_cat_multi_stim_exp1","2022-4-28","14:55:46","25","75","3","9","10","40","30","120","68","21","[""White""]","No","Female","1809499","null","null","","","","clear_screen","","","","","","","","","","","","","","","","","","","","","","","","","",""
"","","","","","canvas-keyboard-response","119","261249","0.0-12.0-2.21","2d_cat_multi_stim_exp1","2022-4-28","14:55:46","25","75","3","9","10","40","30","120","68","21","[""White""]","No","Female","1809499","614","u","learn","","","learn_trial","27.2592","69.0786","in","1","1","","","","","","","","","","","","","","","","","","","","",""
"","","","","","canvas-keyboard-response","120","261758","0.0-12.0-3.21","2d_cat_multi_stim_exp1","2022-4-28","14:55:46","25","75","3","9","10","40","30","120","68","21","[""White""]","No","Female","1809499","null","null","learn_feedback","","","learn_feedback","27.2592","69.0786","in","","","","","","","","","","","","","","","","","","","","","","",""
"","","","","","canvas-keyboard-response","121","261821","0.0-12.0-4.21","2d_cat_multi_stim_exp1","2022-4-28","14:55:46","25","75","3","9","10","40","30","120","68","21","[""White""]","No","Female","1809499","null","null","","","","clear_screen","","","","","","","","","","","","","","","","","","","","","","","","","",""
"","","","","","canvas-keyboard-response","122","262325","0.0-12.0-0.22","2d_cat_multi_stim_exp1","2022-4-28","14:55:46","25","75","3","9","10","40","30","120","68","21","[""White""]","No","Female","1809499","null","null","","","","fixation","","","","","","","","","","","","","","","","","","","","","","","","","",""
"","","","","","canvas-keyboard-response","123","262833","0.0-12.0-1.22","2d_cat_multi_stim_exp1","2022-4-28","14:55:46","25","75","3","9","10","40","30","120","68","21","[""White""]","No","Female","1809499","null","null","","","","clear_screen","","","","","","","","","","","","","","","","","","","","","","","","","",""
"","","","","","canvas-keyboard-response","124","263849","0.0-12.0-2.22","2d_cat_multi_stim_exp1","2022-4-28","14:55:46","25","75","3","9","10","40","30","120","68","21","[""White""]","No","Female","1809499","1004","u","learn","","","learn_trial","20","60","out","1","0","","","","","","","","","","","","","","","","","","","","",""
"","","","","","canvas-keyboard-response","125","264859","0.0-12.0-3.22","2d_cat_multi_stim_exp1","2022-4-28","14:55:46","25","75","3","9","10","40","30","120","68","21","[""White""]","No","Female","1809499","null","null","learn_feedback","","","learn_feedback","20","60","out","","","","","","","","","","","","","","","","","","","","","","",""
"","","","","","canvas-keyboard-response","126","264921","0.0-12.0-4.22","2d_cat_multi_stim_exp1","2022-4-28","14:55:46","25","75","3","9","10","40","30","120","68","21","[""White""]","No","Female","1809499","null","null","","","","clear_screen","","","","","","","","","","","","","","","","","","","","","","","","","",""
"","","","","","canvas-keyboard-response","127","265431","0.0-12.0-0.23","2d_cat_multi_stim_exp1","2022-4-28","14:55:46","25","75","3","9","10","40","30","120","68","21","[""White""]","No","Female","1809499","null","null","","","","fixation","","","","","","","","","","","","","","","","","","","","","","","","","",""
"","","","","","canvas-keyboard-response","128","265939","0.0-12.0-1.23","2d_cat_multi_stim_exp1","2022-4-28","14:55:46","25","75","3","9","10","40","30","120","68","21","[""White""]","No","Female","1809499","null","null","","","","clear_screen","","","","","","","","","","","","","","","","","","","","","","","","","",""
"","","","","","canvas-keyboard-response","129","267434","0.0-12.0-2.23","2d_cat_multi_stim_exp1","2022-4-28","14:55:46","25","75","3","9","10","40","30","120","68","21","[""White""]","No","Female","1809499","1484","i","learn","","","learn_trial","30","60","out","0","1","","","","","","","","","","","","","","","","","","","","",""
"","","","","","canvas-keyboard-response","130","267942","0.0-12.0-3.23","2d_cat_multi_stim_exp1","2022-4-28","14:55:46","25","75","3","9","10","40","30","120","68","21","[""White""]","No","Female","1809499","null","null","learn_feedback","","","learn_feedback","30","60","out","","","","","","","","","","","","","","","","","","","","","","",""
"","","","","","canvas-keyboard-response","131","268002","0.0-12.0-4.23","2d_cat_multi_stim_exp1","2022-4-28","14:55:46","25","75","3","9","10","40","30","120","68","21","[""White""]","No","Female","1809499","null","null","","","","clear_screen","","","","","","","","","","","","","","","","","","","","","","","","","",""
"","","","","","canvas-keyboard-response","132","268511","0.0-12.0-0.24","2d_cat_multi_stim_exp1","2022-4-28","14:55:46","25","75","3","9","10","40","30","120","68","21","[""White""]","No","Female","1809499","null","null","","","","fixation","","","","","","","","","","","","","","","","","","","","","","","","","",""
"","","","","","canvas-keyboard-response","133","269017","0.0-12.0-1.24","2d_cat_multi_stim_exp1","2022-4-28","14:55:46","25","75","3","9","10","40","30","120","68","21","[""White""]","No","Female","1809499","null","null","","","","clear_screen","","","","","","","","","","","","","","","","","","","","","","","","","",""
"","","","","","canvas-keyboard-response","134","269961","0.0-12.0-2.24","2d_cat_multi_stim_exp1","2022-4-28","14:55:46","25","75","3","9","10","40","30","120","68","21","[""White""]","No","Female","1809499","931","u","learn","","","learn_trial","25","75","in","1","1","","","","","","","","","","","","","","","","","","","","",""
"","","","","","canvas-keyboard-response","135","270469","0.0-12.0-3.24","2d_cat_multi_stim_exp1","2022-4-28","14:55:46","25","75","3","9","10","40","30","120","68","21","[""White""]","No","Female","1809499","null","null","learn_feedback","","","learn_feedback","25","75","in","","","","","","","","","","","","","","","","","","","","","","",""
"","","","","","canvas-keyboard-response","136","270530","0.0-12.0-4.24","2d_cat_multi_stim_exp1","2022-4-28","14:55:46","25","75","3","9","10","40","30","120","68","21","[""White""]","No","Female","1809499","null","null","","","","clear_screen","","","","","","","","","","","","","","","","","","","","","","","","","",""
"","","","","","canvas-keyboard-response","137","271038","0.0-12.0-0.25","2d_cat_multi_stim_exp1","2022-4-28","14:55:46","25","75","3","9","10","40","30","120","68","21","[""White""]","No","Female","1809499","null","null","","","","fixation","","","","","","","","","","","","","","","","","","","","","","","","","",""
"","","","","","canvas-keyboard-response","138","271551","0.0-12.0-1.25","2d_cat_multi_stim_exp1","2022-4-28","14:55:46","25","75","3","9","10","40","30","120","68","21","[""White""]","No","Female","1809499","null","null","","","","clear_screen","","","","","","","","","","","","","","","","","","","","","","","","","",""
"","","","","","canvas-keyboard-response","139","272297","0.0-12.0-2.25","2d_cat_multi_stim_exp1","2022-4-28","14:55:46","25","75","3","9","10","40","30","120","68","21","[""White""]","No","Female","1809499","735","u","learn","","","learn_trial","27.9518","73.393","in","1","1","","","","","","","","","","","","","","","","","","","","",""
"","","","","","canvas-keyboard-response","140","272805","0.0-12.0-3.25","2d_cat_multi_stim_exp1","2022-4-28","14:55:46","25","75","3","9","10","40","30","120","68","21","[""White""]","No","Female","1809499","null","null","learn_feedback","","","learn_feedback","27.9518","73.393","in","","","","","","","","","","","","","","","","","","","","","","",""
"","","","","","canvas-keyboard-response","141","272867","0.0-12.0-4.25","2d_cat_multi_stim_exp1","2022-4-28","14:55:46","25","75","3","9","10","40","30","120","68","21","[""White""]","No","Female","1809499","null","null","","","","clear_screen","","","","","","","","","","","","","","","","","","","","","","","","","",""
"","","","","","canvas-keyboard-response","142","273376","0.0-12.0-0.26","2d_cat_multi_stim_exp1","2022-4-28","14:55:46","25","75","3","9","10","40","30","120","68","21","[""White""]","No","Female","1809499","null","null","","","","fixation","","","","","","","","","","","","","","","","","","","","","","","","","",""
"","","","","","canvas-keyboard-response","143","273884","0.0-12.0-1.26","2d_cat_multi_stim_exp1","2022-4-28","14:55:46","25","75","3","9","10","40","30","120","68","21","[""White""]","No","Female","1809499","null","null","","","","clear_screen","","","","","","","","","","","","","","","","","","","","","","","","","",""
"","","","","","canvas-keyboard-response","144","274600","0.0-12.0-2.26","2d_cat_multi_stim_exp1","2022-4-28","14:55:46","25","75","3","9","10","40","30","120","68","21","[""White""]","No","Female","1809499","708","u","learn","","","learn_trial","25","75","in","1","1","","","","","","","","","","","","","","","","","","","","",""
"","","","","","canvas-keyboard-response","145","275110","0.0-12.0-3.26","2d_cat_multi_stim_exp1","2022-4-28","14:55:46","25","75","3","9","10","40","30","120","68","21","[""White""]","No","Female","1809499","null","null","learn_feedback","","","learn_feedback","25","75","in","","","","","","","","","","","","","","","","","","","","","","",""
"","","","","","canvas-keyboard-response","146","275170","0.0-12.0-4.26","2d_cat_multi_stim_exp1","2022-4-28","14:55:46","25","75","3","9","10","40","30","120","68","21","[""White""]","No","Female","1809499","null","null","","","","clear_screen","","","","","","","","","","","","","","","","","","","","","","","","","",""
"","","","","","canvas-keyboard-response","147","275679","0.0-12.0-0.27","2d_cat_multi_stim_exp1","2022-4-28","14:55:46","25","75","3","9","10","40","30","120","68","21","[""White""]","No","Female","1809499","null","null","","","","fixation","","","","","","","","","","","","","","","","","","","","","","","","","",""
"","","","","","canvas-keyboard-response","148","276189","0.0-12.0-1.27","2d_cat_multi_stim_exp1","2022-4-28","14:55:46","25","75","3","9","10","40","30","120","68","21","[""White""]","No","Female","1809499","null","null","","","","clear_screen","","","","","","","","","","","","","","","","","","","","","","","","","",""
"","","","","","canvas-keyboard-response","149","276753","0.0-12.0-2.27","2d_cat_multi_stim_exp1","2022-4-28","14:55:46","25","75","3","9","10","40","30","120","68","21","[""White""]","No","Female","1809499","553","i","learn","","","learn_trial","33.3333","100","out","0","1","","","","","","","","","","","","","","","","","","","","",""
"","","","","","canvas-keyboard-response","150","277262","0.0-12.0-3.27","2d_cat_multi_stim_exp1","2022-4-28","14:55:46","25","75","3","9","10","40","30","120","68","21","[""White""]","No","Female","1809499","null","null","learn_feedback","","","learn_feedback","33.3333","100","out","","","","","","","","","","","","","","","","","","","","","","",""
"","","","","","canvas-keyboard-response","151","277322","0.0-12.0-4.27","2d_cat_multi_stim_exp1","2022-4-28","14:55:46","25","75","3","9","10","40","30","120","68","21","[""White""]","No","Female","1809499","null","null","","","","clear_screen","","","","","","","","","","","","","","","","","","","","","","","","","",""
"","","","","","canvas-keyboard-response","152","277831","0.0-12.0-0.28","2d_cat_multi_stim_exp1","2022-4-28","14:55:46","25","75","3","9","10","40","30","120","68","21","[""White""]","No","Female","1809499","null","null","","","","fixation","","","","","","","","","","","","","","","","","","","","","","","","","",""
"","","","","","canvas-keyboard-response","153","278344","0.0-12.0-1.28","2d_cat_multi_stim_exp1","2022-4-28","14:55:46","25","75","3","9","10","40","30","120","68","21","[""White""]","No","Female","1809499","null","null","","","","clear_screen","","","","","","","","","","","","","","","","","","","","","","","","","",""
"","","","","","canvas-keyboard-response","154","279192","0.0-12.0-2.28","2d_cat_multi_stim_exp1","2022-4-28","14:55:46","25","75","3","9","10","40","30","120","68","21","[""White""]","No","Female","1809499","838","i","learn","","","learn_trial","13.3333","110","out","0","1","","","","","","","","","","","","","","","","","","","","",""
"","","","","","canvas-keyboard-response","155","279706","0.0-12.0-3.28","2d_cat_multi_stim_exp1","2022-4-28","14:55:46","25","75","3","9","10","40","30","120","68","21","[""White""]","No","Female","1809499","null","null","learn_feedback","","","learn_feedback","13.3333","110","out","","","","","","","","","","","","","","","","","","","","","","",""
"","","","","","canvas-keyboard-response","156","279769","0.0-12.0-4.28","2d_cat_multi_stim_exp1","2022-4-28","14:55:46","25","75","3","9","10","40","30","120","68","21","[""White""]","No","Female","1809499","null","null","","","","clear_screen","","","","","","","","","","","","","","","","","","","","","","","","","",""
"","","","","","canvas-keyboard-response","157","280279","0.0-12.0-0.29","2d_cat_multi_stim_exp1","2022-4-28","14:55:46","25","75","3","9","10","40","30","120","68","21","[""White""]","No","Female","1809499","null","null","","","","fixation","","","","","","","","","","","","","","","","","","","","","","","","","",""
"","","","","","canvas-keyboard-response","158","280792","0.0-12.0-1.29","2d_cat_multi_stim_exp1","2022-4-28","14:55:46","25","75","3","9","10","40","30","120","68","21","[""White""]","No","Female","1809499","null","null","","","","clear_screen","","","","","","","","","","","","","","","","","","","","","","","","","",""
"","","","","","canvas-keyboard-response","159","281321","0.0-12.0-2.29","2d_cat_multi_stim_exp1","2022-4-28","14:55:46","25","75","3","9","10","40","30","120","68","21","[""White""]","No","Female","1809499","520","u","learn","","","learn_trial","25","75","in","1","1","","","","","","","","","","","","","","","","","","","","",""
"","","","","","canvas-keyboard-response","160","281832","0.0-12.0-3.29","2d_cat_multi_stim_exp1","2022-4-28","14:55:46","25","75","3","9","10","40","30","120","68","21","[""White""]","No","Female","1809499","null","null","learn_feedback","","","learn_feedback","25","75","in","","","","","","","","","","","","","","","","","","","","","","",""
"","","","","","canvas-keyboard-response","161","281894","0.0-12.0-4.29","2d_cat_multi_stim_exp1","2022-4-28","14:55:46","25","75","3","9","10","40","30","120","68","21","[""White""]","No","Female","1809499","null","null","","","","clear_screen","","","","","","","","","","","","","","","","","","","","","","","","","",""
"","","","","","canvas-keyboard-response","162","282403","0.0-12.0-0.30","2d_cat_multi_stim_exp1","2022-4-28","14:55:46","25","75","3","9","10","40","30","120","68","21","[""White""]","No","Female","1809499","null","null","","","","fixation","","","","","","","","","","","","","","","","","","","","","","","","","",""
"","","","","","canvas-keyboard-response","163","282914","0.0-12.0-1.30","2d_cat_multi_stim_exp1","2022-4-28","14:55:46","25","75","3","9","10","40","30","120","68","21","[""White""]","No","Female","1809499","null","null","","","","clear_screen","","","","","","","","","","","","","","","","","","","","","","","","","",""
"","","","","","canvas-keyboard-response","164","283545","0.0-12.0-2.30","2d_cat_multi_stim_exp1","2022-4-28","14:55:46","25","75","3","9","10","40","30","120","68","21","[""White""]","No","Female","1809499","618","u","learn","","","learn_trial","23.8209","83.2757","in","1","1","","","","","","","","","","","","","","","","","","","","",""
"","","","","","canvas-keyboard-response","165","284056","0.0-12.0-3.30","2d_cat_multi_stim_exp1","2022-4-28","14:55:46","25","75","3","9","10","40","30","120","68","21","[""White""]","No","Female","1809499","null","null","learn_feedback","","","learn_feedback","23.8209","83.2757","in","","","","","","","","","","","","","","","","","","","","","","",""
"","","","","","canvas-keyboard-response","166","284115","0.0-12.0-4.30","2d_cat_multi_stim_exp1","2022-4-28","14:55:46","25","75","3","9","10","40","30","120","68","21","[""White""]","No","Female","1809499","null","null","","","","clear_screen","","","","","","","","","","","","","","","","","","","","","","","","","",""
"","","","","","canvas-keyboard-response","167","284625","0.0-12.0-0.31","2d_cat_multi_stim_exp1","2022-4-28","14:55:46","25","75","3","9","10","40","30","120","68","21","[""White""]","No","Female","1809499","null","null","","","","fixation","","","","","","","","","","","","","","","","","","","","","","","","","",""
"","","","","","canvas-keyboard-response","168","285133","0.0-12.0-1.31","2d_cat_multi_stim_exp1","2022-4-28","14:55:46","25","75","3","9","10","40","30","120","68","21","[""White""]","No","Female","1809499","null","null","","","","clear_screen","","","","","","","","","","","","","","","","","","","","","","","","","",""
"","","","","","canvas-keyboard-response","169","285729","0.0-12.0-2.31","2d_cat_multi_stim_exp1","2022-4-28","14:55:46","25","75","3","9","10","40","30","120","68","21","[""White""]","No","Female","1809499","589","u","learn","","","learn_trial","23.3333","80","out","1","0","","","","","","","","","","","","","","","","","","","","",""
"","","","","","canvas-keyboard-response","170","286740","0.0-12.0-3.31","2d_cat_multi_stim_exp1","2022-4-28","14:55:46","25","75","3","9","10","40","30","120","68","21","[""White""]","No","Female","1809499","null","null","learn_feedback","","","learn_feedback","23.3333","80","out","","","","","","","","","","","","","","","","","","","","","","",""
"","","","","","canvas-keyboard-response","171","286800","0.0-12.0-4.31","2d_cat_multi_stim_exp1","2022-4-28","14:55:46","25","75","3","9","10","40","30","120","68","21","[""White""]","No","Female","1809499","null","null","","","","clear_screen","","","","","","","","","","","","","","","","","","","","","","","","","",""
"","","","","","canvas-keyboard-response","172","287308","0.0-12.0-0.32","2d_cat_multi_stim_exp1","2022-4-28","14:55:46","25","75","3","9","10","40","30","120","68","21","[""White""]","No","Female","1809499","null","null","","","","fixation","","","","","","","","","","","","","","","","","","","","","","","","","",""
"","","","","","canvas-keyboard-response","173","287821","0.0-12.0-1.32","2d_cat_multi_stim_exp1","2022-4-28","14:55:46","25","75","3","9","10","40","30","120","68","21","[""White""]","No","Female","1809499","null","null","","","","clear_screen","","","","","","","","","","","","","","","","","","","","","","","","","",""
"","","","","","canvas-keyboard-response","174","288601","0.0-12.0-2.32","2d_cat_multi_stim_exp1","2022-4-28","14:55:46","25","75","3","9","10","40","30","120","68","21","[""White""]","No","Female","1809499","771","u","learn","","","learn_trial","27.8087","78.1624","in","1","1","","","","","","","","","","","","","","","","","","","","",""
"","","","","","canvas-keyboard-response","175","289111","0.0-12.0-3.32","2d_cat_multi_stim_exp1","2022-4-28","14:55:46","25","75","3","9","10","40","30","120","68","21","[""White""]","No","Female","1809499","null","null","learn_feedback","","","learn_feedback","27.8087","78.1624","in","","","","","","","","","","","","","","","","","","","","","","",""
"","","","","","canvas-keyboard-response","176","289173","0.0-12.0-4.32","2d_cat_multi_stim_exp1","2022-4-28","14:55:46","25","75","3","9","10","40","30","120","68","21","[""White""]","No","Female","1809499","null","null","","","","clear_screen","","","","","","","","","","","","","","","","","","","","","","","","","",""
"","","","","","canvas-keyboard-response","177","289682","0.0-12.0-0.33","2d_cat_multi_stim_exp1","2022-4-28","14:55:46","25","75","3","9","10","40","30","120","68","21","[""White""]","No","Female","1809499","null","null","","","","fixation","","","","","","","","","","","","","","","","","","","","","","","","","",""
"","","","","","canvas-keyboard-response","178","290193","0.0-12.0-1.33","2d_cat_multi_stim_exp1","2022-4-28","14:55:46","25","75","3","9","10","40","30","120","68","21","[""White""]","No","Female","1809499","null","null","","","","clear_screen","","","","","","","","","","","","","","","","","","","","","","","","","",""
"","","","","","canvas-keyboard-response","179","290913","0.0-12.0-2.33","2d_cat_multi_stim_exp1","2022-4-28","14:55:46","25","75","3","9","10","40","30","120","68","21","[""White""]","No","Female","1809499","710","u","learn","","","learn_trial","25","75","in","1","1","","","","","","","","","","","","","","","","","","","","",""
"","","","","","canvas-keyboard-response","180","291423","0.0-12.0-3.33","2d_cat_multi_stim_exp1","2022-4-28","14:55:46","25","75","3","9","10","40","30","120","68","21","[""White""]","No","Female","1809499","null","null","learn_feedback","","","learn_feedback","25","75","in","","","","","","","","","","","","","","","","","","","","","","",""
"","","","","","canvas-keyboard-response","181","291483","0.0-12.0-4.33","2d_cat_multi_stim_exp1","2022-4-28","14:55:46","25","75","3","9","10","40","30","120","68","21","[""White""]","No","Female","1809499","null","null","","","","clear_screen","","","","","","","","","","","","","","","","","","","","","","","","","",""
"","","","","","canvas-keyboard-response","182","291993","0.0-12.0-0.34","2d_cat_multi_stim_exp1","2022-4-28","14:55:46","25","75","3","9","10","40","30","120","68","21","[""White""]","No","Female","1809499","null","null","","","","fixation","","","","","","","","","","","","","","","","","","","","","","","","","",""
"","","","","","canvas-keyboard-response","183","292503","0.0-12.0-1.34","2d_cat_multi_stim_exp1","2022-4-28","14:55:46","25","75","3","9","10","40","30","120","68","21","[""White""]","No","Female","1809499","null","null","","","","clear_screen","","","","","","","","","","","","","","","","","","","","","","","","","",""
"","","","","","canvas-keyboard-response","184","293080","0.0-12.0-2.34","2d_cat_multi_stim_exp1","2022-4-28","14:55:46","25","75","3","9","10","40","30","120","68","21","[""White""]","No","Female","1809499","569","u","learn","","","learn_trial","22.2971","78.905","in","1","1","","","","","","","","","","","","","","","","","","","","",""
"","","","","","canvas-keyboard-response","185","293589","0.0-12.0-3.34","2d_cat_multi_stim_exp1","2022-4-28","14:55:46","25","75","3","9","10","40","30","120","68","21","[""White""]","No","Female","1809499","null","null","learn_feedback","","","learn_feedback","22.2971","78.905","in","","","","","","","","","","","","","","","","","","","","","","",""
"","","","","","canvas-keyboard-response","186","293651","0.0-12.0-4.34","2d_cat_multi_stim_exp1","2022-4-28","14:55:46","25","75","3","9","10","40","30","120","68","21","[""White""]","No","Female","1809499","null","null","","","","clear_screen","","","","","","","","","","","","","","","","","","","","","","","","","",""
"","","","","","canvas-keyboard-response","187","294161","0.0-12.0-0.35","2d_cat_multi_stim_exp1","2022-4-28","14:55:46","25","75","3","9","10","40","30","120","68","21","[""White""]","No","Female","1809499","null","null","","","","fixation","","","","","","","","","","","","","","","","","","","","","","","","","",""
"","","","","","canvas-keyboard-response","188","294670","0.0-12.0-1.35","2d_cat_multi_stim_exp1","2022-4-28","14:55:46","25","75","3","9","10","40","30","120","68","21","[""White""]","No","Female","1809499","null","null","","","","clear_screen","","","","","","","","","","","","","","","","","","","","","","","","","",""
"","","","","","canvas-keyboard-response","189","295153","0.0-12.0-2.35","2d_cat_multi_stim_exp1","2022-4-28","14:55:46","25","75","3","9","10","40","30","120","68","21","[""White""]","No","Female","1809499","474","u","learn","","","learn_trial","27.5753","70.3839","in","1","1","","","","","","","","","","","","","","","","","","","","",""
"","","","","","canvas-keyboard-response","190","295664","0.0-12.0-3.35","2d_cat_multi_stim_exp1","2022-4-28","14:55:46","25","75","3","9","10","40","30","120","68","21","[""White""]","No","Female","1809499","null","null","learn_feedback","","","learn_feedback","27.5753","70.3839","in","","","","","","","","","","","","","","","","","","","","","","",""
"","","","","","canvas-keyboard-response","191","295723","0.0-12.0-4.35","2d_cat_multi_stim_exp1","2022-4-28","14:55:46","25","75","3","9","10","40","30","120","68","21","[""White""]","No","Female","1809499","null","null","","","","clear_screen","","","","","","","","","","","","","","","","","","","","","","","","","",""
"","","","","","canvas-keyboard-response","192","296233","0.0-12.0-0.36","2d_cat_multi_stim_exp1","2022-4-28","14:55:46","25","75","3","9","10","40","30","120","68","21","[""White""]","No","Female","1809499","null","null","","","","fixation","","","","","","","","","","","","","","","","","","","","","","","","","",""
"","","","","","canvas-keyboard-response","193","296747","0.0-12.0-1.36","2d_cat_multi_stim_exp1","2022-4-28","14:55:46","25","75","3","9","10","40","30","120","68","21","[""White""]","No","Female","1809499","null","null","","","","clear_screen","","","","","","","","","","","","","","","","","","","","","","","","","",""
"","","","","","canvas-keyboard-response","194","297361","0.0-12.0-2.36","2d_cat_multi_stim_exp1","2022-4-28","14:55:46","25","75","3","9","10","40","30","120","68","21","[""White""]","No","Female","1809499","605","i","learn","","","learn_trial","36.6667","30","out","0","1","","","","","","","","","","","","","","","","","","","","",""
"","","","","","canvas-keyboard-response","195","297872","0.0-12.0-3.36","2d_cat_multi_stim_exp1","2022-4-28","14:55:46","25","75","3","9","10","40","30","120","68","21","[""White""]","No","Female","1809499","null","null","learn_feedback","","","learn_feedback","36.6667","30","out","","","","","","","","","","","","","","","","","","","","","","",""
"","","","","","canvas-keyboard-response","196","297934","0.0-12.0-4.36","2d_cat_multi_stim_exp1","2022-4-28","14:55:46","25","75","3","9","10","40","30","120","68","21","[""White""]","No","Female","1809499","null","null","","","","clear_screen","","","","","","","","","","","","","","","","","","","","","","","","","",""
"","","","","","canvas-keyboard-response","197","298443","0.0-12.0-0.37","2d_cat_multi_stim_exp1","2022-4-28","14:55:46","25","75","3","9","10","40","30","120","68","21","[""White""]","No","Female","1809499","null","null","","","","fixation","","","","","","","","","","","","","","","","","","","","","","","","","",""
"","","","","","canvas-keyboard-response","198","298953","0.0-12.0-1.37","2d_cat_multi_stim_exp1","2022-4-28","14:55:46","25","75","3","9","10","40","30","120","68","21","[""White""]","No","Female","1809499","null","null","","","","clear_screen","","","","","","","","","","","","","","","","","","","","","","","","","",""
"","","","","","canvas-keyboard-response","199","299409","0.0-12.0-2.37","2d_cat_multi_stim_exp1","2022-4-28","14:55:46","25","75","3","9","10","40","30","120","68","21","[""White""]","No","Female","1809499","445","i","learn","","","learn_trial","13.3333","60","out","0","1","","","","","","","","","","","","","","","","","","","","",""
"","","","","","canvas-keyboard-response","200","299916","0.0-12.0-3.37","2d_cat_multi_stim_exp1","2022-4-28","14:55:46","25","75","3","9","10","40","30","120","68","21","[""White""]","No","Female","1809499","null","null","learn_feedback","","","learn_feedback","13.3333","60","out","","","","","","","","","","","","","","","","","","","","","","",""
"","","","","","canvas-keyboard-response","201","299975","0.0-12.0-4.37","2d_cat_multi_stim_exp1","2022-4-28","14:55:46","25","75","3","9","10","40","30","120","68","21","[""White""]","No","Female","1809499","null","null","","","","clear_screen","","","","","","","","","","","","","","","","","","","","","","","","","",""
"","","","","","canvas-keyboard-response","202","300484","0.0-12.0-0.38","2d_cat_multi_stim_exp1","2022-4-28","14:55:46","25","75","3","9","10","40","30","120","68","21","[""White""]","No","Female","1809499","null","null","","","","fixation","","","","","","","","","","","","","","","","","","","","","","","","","",""
"","","","","","canvas-keyboard-response","203","300994","0.0-12.0-1.38","2d_cat_multi_stim_exp1","2022-4-28","14:55:46","25","75","3","9","10","40","30","120","68","21","[""White""]","No","Female","1809499","null","null","","","","clear_screen","","","","","","","","","","","","","","","","","","","","","","","","","",""
"","","","","","canvas-keyboard-response","204","301585","0.0-12.0-2.38","2d_cat_multi_stim_exp1","2022-4-28","14:55:46","25","75","3","9","10","40","30","120","68","21","[""White""]","No","Female","1809499","580","i","learn","","","learn_trial","23.3333","30","out","0","1","","","","","","","","","","","","","","","","","","","","",""
"","","","","","canvas-keyboard-response","205","302093","0.0-12.0-3.38","2d_cat_multi_stim_exp1","2022-4-28","14:55:46","25","75","3","9","10","40","30","120","68","21","[""White""]","No","Female","1809499","null","null","learn_feedback","","","learn_feedback","23.3333","30","out","","","","","","","","","","","","","","","","","","","","","","",""
"","","","","","canvas-keyboard-response","206","302151","0.0-12.0-4.38","2d_cat_multi_stim_exp1","2022-4-28","14:55:46","25","75","3","9","10","40","30","120","68","21","[""White""]","No","Female","1809499","null","null","","","","clear_screen","","","","","","","","","","","","","","","","","","","","","","","","","",""
"","","","","","canvas-keyboard-response","207","302660","0.0-12.0-0.39","2d_cat_multi_stim_exp1","2022-4-28","14:55:46","25","75","3","9","10","40","30","120","68","21","[""White""]","No","Female","1809499","null","null","","","","fixation","","","","","","","","","","","","","","","","","","","","","","","","","",""
"","","","","","canvas-keyboard-response","208","303173","0.0-12.0-1.39","2d_cat_multi_stim_exp1","2022-4-28","14:55:46","25","75","3","9","10","40","30","120","68","21","[""White""]","No","Female","1809499","null","null","","","","clear_screen","","","","","","","","","","","","","","","","","","","","","","","","","",""
"","","","","","canvas-keyboard-response","209","304091","0.0-12.0-2.39","2d_cat_multi_stim_exp1","2022-4-28","14:55:46","25","75","3","9","10","40","30","120","68","21","[""White""]","No","Female","1809499","906","u","learn","","","learn_trial","27.2592","80.9214","in","1","1","","","","","","","","","","","","","","","","","","","","",""
"","","","","","canvas-keyboard-response","210","304599","0.0-12.0-3.39","2d_cat_multi_stim_exp1","2022-4-28","14:55:46","25","75","3","9","10","40","30","120","68","21","[""White""]","No","Female","1809499","null","null","learn_feedback","","","learn_feedback","27.2592","80.9214","in","","","","","","","","","","","","","","","","","","","","","","",""
"","","","","","canvas-keyboard-response","211","304662","0.0-12.0-4.39","2d_cat_multi_stim_exp1","2022-4-28","14:55:46","25","75","3","9","10","40","30","120","68","21","[""White""]","No","Female","1809499","null","null","","","","clear_screen","","","","","","","","","","","","","","","","","","","","","","","","","",""
"","","","","","canvas-keyboard-response","212","305170","0.0-12.0-0.40","2d_cat_multi_stim_exp1","2022-4-28","14:55:46","25","75","3","9","10","40","30","120","68","21","[""White""]","No","Female","1809499","null","null","","","","fixation","","","","","","","","","","","","","","","","","","","","","","","","","",""
"","","","","","canvas-keyboard-response","213","305683","0.0-12.0-1.40","2d_cat_multi_stim_exp1","2022-4-28","14:55:46","25","75","3","9","10","40","30","120","68","21","[""White""]","No","Female","1809499","null","null","","","","clear_screen","","","","","","","","","","","","","","","","","","","","","","","","","",""
"","","","","","canvas-keyboard-response","214","306337","0.0-12.0-2.40","2d_cat_multi_stim_exp1","2022-4-28","14:55:46","25","75","3","9","10","40","30","120","68","21","[""White""]","No","Female","1809499","644","u","learn","","","learn_trial","26.8705","82.0365","in","1","1","","","","","","","","","","","","","","","","","","","","",""
"","","","","","canvas-keyboard-response","215","306845","0.0-12.0-3.40","2d_cat_multi_stim_exp1","2022-4-28","14:55:46","25","75","3","9","10","40","30","120","68","21","[""White""]","No","Female","1809499","null","null","learn_feedback","","","learn_feedback","26.8705","82.0365","in","","","","","","","","","","","","","","","","","","","","","","",""
"","","","","","canvas-keyboard-response","216","306904","0.0-12.0-4.40","2d_cat_multi_stim_exp1","2022-4-28","14:55:46","25","75","3","9","10","40","30","120","68","21","[""White""]","No","Female","1809499","null","null","","","","clear_screen","","","","","","","","","","","","","","","","","","","","","","","","","",""
"","","","","","canvas-keyboard-response","217","307415","0.0-12.0-0.41","2d_cat_multi_stim_exp1","2022-4-28","14:55:46","25","75","3","9","10","40","30","120","68","21","[""White""]","No","Female","1809499","null","null","","","","fixation","","","","","","","","","","","","","","","","","","","","","","","","","",""
"","","","","","canvas-keyboard-response","218","307928","0.0-12.0-1.41","2d_cat_multi_stim_exp1","2022-4-28","14:55:46","25","75","3","9","10","40","30","120","68","21","[""White""]","No","Female","1809499","null","null","","","","clear_screen","","","","","","","","","","","","","","","","","","","","","","","","","",""
"","","","","","canvas-keyboard-response","219","308489","0.0-12.0-2.41","2d_cat_multi_stim_exp1","2022-4-28","14:55:46","25","75","3","9","10","40","30","120","68","21","[""White""]","No","Female","1809499","552","i","learn","","","learn_trial","13.3333","30","out","0","1","","","","","","","","","","","","","","","","","","","","",""
"","","","","","canvas-keyboard-response","220","309000","0.0-12.0-3.41","2d_cat_multi_stim_exp1","2022-4-28","14:55:46","25","75","3","9","10","40","30","120","68","21","[""White""]","No","Female","1809499","null","null","learn_feedback","","","learn_feedback","13.3333","30","out","","","","","","","","","","","","","","","","","","","","","","",""
"","","","","","canvas-keyboard-response","221","309061","0.0-12.0-4.41","2d_cat_multi_stim_exp1","2022-4-28","14:55:46","25","75","3","9","10","40","30","120","68","21","[""White""]","No","Female","1809499","null","null","","","","clear_screen","","","","","","","","","","","","","","","","","","","","","","","","","",""
"","","","","","canvas-keyboard-response","222","309571","0.0-12.0-0.42","2d_cat_multi_stim_exp1","2022-4-28","14:55:46","25","75","3","9","10","40","30","120","68","21","[""White""]","No","Female","1809499","null","null","","","","fixation","","","","","","","","","","","","","","","","","","","","","","","","","",""
"","","","","","canvas-keyboard-response","223","310086","0.0-12.0-1.42","2d_cat_multi_stim_exp1","2022-4-28","14:55:46","25","75","3","9","10","40","30","120","68","21","[""White""]","No","Female","1809499","null","null","","","","clear_screen","","","","","","","","","","","","","","","","","","","","","","","","","",""
"","","","","","canvas-keyboard-response","224","311016","0.0-12.0-2.42","2d_cat_multi_stim_exp1","2022-4-28","14:55:46","25","75","3","9","10","40","30","120","68","21","[""White""]","No","Female","1809499","923","i","learn","","","learn_trial","40","50","out","0","1","","","","","","","","","","","","","","","","","","","","",""
"","","","","","canvas-keyboard-response","225","311525","0.0-12.0-3.42","2d_cat_multi_stim_exp1","2022-4-28","14:55:46","25","75","3","9","10","40","30","120","68","21","[""White""]","No","Female","1809499","null","null","learn_feedback","","","learn_feedback","40","50","out","","","","","","","","","","","","","","","","","","","","","","",""
"","","","","","canvas-keyboard-response","226","311583","0.0-12.0-4.42","2d_cat_multi_stim_exp1","2022-4-28","14:55:46","25","75","3","9","10","40","30","120","68","21","[""White""]","No","Female","1809499","null","null","","","","clear_screen","","","","","","","","","","","","","","","","","","","","","","","","","",""
"","","","","","canvas-keyboard-response","227","312092","0.0-12.0-0.43","2d_cat_multi_stim_exp1","2022-4-28","14:55:46","25","75","3","9","10","40","30","120","68","21","[""White""]","No","Female","1809499","null","null","","","","fixation","","","","","","","","","","","","","","","","","","","","","","","","","",""
"","","","","","canvas-keyboard-response","228","312602","0.0-12.0-1.43","2d_cat_multi_stim_exp1","2022-4-28","14:55:46","25","75","3","9","10","40","30","120","68","21","[""White""]","No","Female","1809499","null","null","","","","clear_screen","","","","","","","","","","","","","","","","","","","","","","","","","",""
"","","","","","canvas-keyboard-response","229","313337","0.0-12.0-2.43","2d_cat_multi_stim_exp1","2022-4-28","14:55:46","25","75","3","9","10","40","30","120","68","21","[""White""]","No","Female","1809499","726","u","learn","","","learn_trial","25","75","in","1","1","","","","","","","","","","","","","","","","","","","","",""
"","","","","","canvas-keyboard-response","230","313847","0.0-12.0-3.43","2d_cat_multi_stim_exp1","2022-4-28","14:55:46","25","75","3","9","10","40","30","120","68","21","[""White""]","No","Female","1809499","null","null","learn_feedback","","","learn_feedback","25","75","in","","","","","","","","","","","","","","","","","","","","","","",""
"","","","","","canvas-keyboard-response","231","313911","0.0-12.0-4.43","2d_cat_multi_stim_exp1","2022-4-28","14:55:46","25","75","3","9","10","40","30","120","68","21","[""White""]","No","Female","1809499","null","null","","","","clear_screen","","","","","","","","","","","","","","","","","","","","","","","","","",""
"","","","","","canvas-keyboard-response","232","314420","0.0-12.0-0.44","2d_cat_multi_stim_exp1","2022-4-28","14:55:46","25","75","3","9","10","40","30","120","68","21","[""White""]","No","Female","1809499","null","null","","","","fixation","","","","","","","","","","","","","","","","","","","","","","","","","",""
"","","","","","canvas-keyboard-response","233","314932","0.0-12.0-1.44","2d_cat_multi_stim_exp1","2022-4-28","14:55:46","25","75","3","9","10","40","30","120","68","21","[""White""]","No","Female","1809499","null","null","","","","clear_screen","","","","","","","","","","","","","","","","","","","","","","","","","",""
"","","","","","canvas-keyboard-response","234","315529","0.0-12.0-2.44","2d_cat_multi_stim_exp1","2022-4-28","14:55:46","25","75","3","9","10","40","30","120","68","21","[""White""]","No","Female","1809499","586","u","learn","","","learn_trial","25","75","in","1","1","","","","","","","","","","","","","","","","","","","","",""
"","","","","","canvas-keyboard-response","235","316040","0.0-12.0-3.44","2d_cat_multi_stim_exp1","2022-4-28","14:55:46","25","75","3","9","10","40","30","120","68","21","[""White""]","No","Female","1809499","null","null","learn_feedback","","","learn_feedback","25","75","in","","","","","","","","","","","","","","","","","","","","","","",""
"","","","","","canvas-keyboard-response","236","316100","0.0-12.0-4.44","2d_cat_multi_stim_exp1","2022-4-28","14:55:46","25","75","3","9","10","40","30","120","68","21","[""White""]","No","Female","1809499","null","null","","","","clear_screen","","","","","","","","","","","","","","","","","","","","","","","","","",""
"","","","","","canvas-keyboard-response","237","316612","0.0-12.0-0.45","2d_cat_multi_stim_exp1","2022-4-28","14:55:46","25","75","3","9","10","40","30","120","68","21","[""White""]","No","Female","1809499","null","null","","","","fixation","","","","","","","","","","","","","","","","","","","","","","","","","",""
"","","","","","canvas-keyboard-response","238","317124","0.0-12.0-1.45","2d_cat_multi_stim_exp1","2022-4-28","14:55:46","25","75","3","9","10","40","30","120","68","21","[""White""]","No","Female","1809499","null","null","","","","clear_screen","","","","","","","","","","","","","","","","","","","","","","","","","",""
"","","","","","canvas-keyboard-response","239","318209","0.0-12.0-2.45","2d_cat_multi_stim_exp1","2022-4-28","14:55:46","25","75","3","9","10","40","30","120","68","21","[""White""]","No","Female","1809499","1076","u","learn","","","learn_trial","25.9271","66.4405","in","1","1","","","","","","","","","","","","","","","","","","","","",""
"","","","","","canvas-keyboard-response","240","318720","0.0-12.0-3.45","2d_cat_multi_stim_exp1","2022-4-28","14:55:46","25","75","3","9","10","40","30","120","68","21","[""White""]","No","Female","1809499","null","null","learn_feedback","","","learn_feedback","25.9271","66.4405","in","","","","","","","","","","","","","","","","","","","","","","",""
"","","","","","canvas-keyboard-response","241","318783","0.0-12.0-4.45","2d_cat_multi_stim_exp1","2022-4-28","14:55:46","25","75","3","9","10","40","30","120","68","21","[""White""]","No","Female","1809499","null","null","","","","clear_screen","","","","","","","","","","","","","","","","","","","","","","","","","",""
"","","","","","canvas-keyboard-response","242","319292","0.0-12.0-0.46","2d_cat_multi_stim_exp1","2022-4-28","14:55:46","25","75","3","9","10","40","30","120","68","21","[""White""]","No","Female","1809499","null","null","","","","fixation","","","","","","","","","","","","","","","","","","","","","","","","","",""
"","","","","","canvas-keyboard-response","243","319806","0.0-12.0-1.46","2d_cat_multi_stim_exp1","2022-4-28","14:55:46","25","75","3","9","10","40","30","120","68","21","[""White""]","No","Female","1809499","null","null","","","","clear_screen","","","","","","","","","","","","","","","","","","","","","","","","","",""
"","","","","","canvas-keyboard-response","244","320546","0.0-12.0-2.46","2d_cat_multi_stim_exp1","2022-4-28","14:55:46","25","75","3","9","10","40","30","120","68","21","[""White""]","No","Female","1809499","730","u","learn","","","learn_trial","25","75","in","1","1","","","","","","","","","","","","","","","","","","","","",""
"","","","","","canvas-keyboard-response","245","321056","0.0-12.0-3.46","2d_cat_multi_stim_exp1","2022-4-28","14:55:46","25","75","3","9","10","40","30","120","68","21","[""White""]","No","Female","1809499","null","null","learn_feedback","","","learn_feedback","25","75","in","","","","","","","","","","","","","","","","","","","","","","",""
"","","","","","canvas-keyboard-response","246","321114","0.0-12.0-4.46","2d_cat_multi_stim_exp1","2022-4-28","14:55:46","25","75","3","9","10","40","30","120","68","21","[""White""]","No","Female","1809499","null","null","","","","clear_screen","","","","","","","","","","","","","","","","","","","","","","","","","",""
"","","","","","canvas-keyboard-response","247","321624","0.0-12.0-0.47","2d_cat_multi_stim_exp1","2022-4-28","14:55:46","25","75","3","9","10","40","30","120","68","21","[""White""]","No","Female","1809499","null","null","","","","fixation","","","","","","","","","","","","","","","","","","","","","","","","","",""
"","","","","","canvas-keyboard-response","248","322137","0.0-12.0-1.47","2d_cat_multi_stim_exp1","2022-4-28","14:55:46","25","75","3","9","10","40","30","120","68","21","[""White""]","No","Female","1809499","null","null","","","","clear_screen","","","","","","","","","","","","","","","","","","","","","","","","","",""
"","","","","","canvas-keyboard-response","249","322737","0.0-12.0-2.47","2d_cat_multi_stim_exp1","2022-4-28","14:55:46","25","75","3","9","10","40","30","120","68","21","[""White""]","No","Female","1809499","590","u","learn","","","learn_trial","22.9268","68.4948","in","1","1","","","","","","","","","","","","","","","","","","","","",""
"","","","","","canvas-keyboard-response","250","323251","0.0-12.0-3.47","2d_cat_multi_stim_exp1","2022-4-28","14:55:46","25","75","3","9","10","40","30","120","68","21","[""White""]","No","Female","1809499","null","null","learn_feedback","","","learn_feedback","22.9268","68.4948","in","","","","","","","","","","","","","","","","","","","","","","",""
"","","","","","canvas-keyboard-response","251","323311","0.0-12.0-4.47","2d_cat_multi_stim_exp1","2022-4-28","14:55:46","25","75","3","9","10","40","30","120","68","21","[""White""]","No","Female","1809499","null","null","","","","clear_screen","","","","","","","","","","","","","","","","","","","","","","","","","",""
"","","","","","canvas-keyboard-response","252","323820","0.0-12.0-0.48","2d_cat_multi_stim_exp1","2022-4-28","14:55:46","25","75","3","9","10","40","30","120","68","21","[""White""]","No","Female","1809499","null","null","","","","fixation","","","","","","","","","","","","","","","","","","","","","","","","","",""
"","","","","","canvas-keyboard-response","253","324333","0.0-12.0-1.48","2d_cat_multi_stim_exp1","2022-4-28","14:55:46","25","75","3","9","10","40","30","120","68","21","[""White""]","No","Female","1809499","null","null","","","","clear_screen","","","","","","","","","","","","","","","","","","","","","","","","","",""
"","","","","","canvas-keyboard-response","254","324874","0.0-12.0-2.48","2d_cat_multi_stim_exp1","2022-4-28","14:55:46","25","75","3","9","10","40","30","120","68","21","[""White""]","No","Female","1809499","533","u","learn","","","learn_trial","25.9271","83.5595","in","1","1","","","","","","","","","","","","","","","","","","","","",""
"","","","","","canvas-keyboard-response","255","325384","0.0-12.0-3.48","2d_cat_multi_stim_exp1","2022-4-28","14:55:46","25","75","3","9","10","40","30","120","68","21","[""White""]","No","Female","1809499","null","null","learn_feedback","","","learn_feedback","25.9271","83.5595","in","","","","","","","","","","","","","","","","","","","","","","",""
"","","","","","canvas-keyboard-response","256","325444","0.0-12.0-4.48","2d_cat_multi_stim_exp1","2022-4-28","14:55:46","25","75","3","9","10","40","30","120","68","21","[""White""]","No","Female","1809499","null","null","","","","clear_screen","","","","","","","","","","","","","","","","","","","","","","","","","",""
"","","","","","canvas-keyboard-response","257","325952","0.0-12.0-0.49","2d_cat_multi_stim_exp1","2022-4-28","14:55:46","25","75","3","9","10","40","30","120","68","21","[""White""]","No","Female","1809499","null","null","","","","fixation","","","","","","","","","","","","","","","","","","","","","","","","","",""
"","","","","","canvas-keyboard-response","258","326463","0.0-12.0-1.49","2d_cat_multi_stim_exp1","2022-4-28","14:55:46","25","75","3","9","10","40","30","120","68","21","[""White""]","No","Female","1809499","null","null","","","","clear_screen","","","","","","","","","","","","","","","","","","","","","","","","","",""
"","","","","","canvas-keyboard-response","259","327002","0.0-12.0-2.49","2d_cat_multi_stim_exp1","2022-4-28","14:55:46","25","75","3","9","10","40","30","120","68","21","[""White""]","No","Female","1809499","528","u","learn","","","learn_trial","24.8654","66.0091","in","1","1","","","","","","","","","","","","","","","","","","","","",""
"","","","","","canvas-keyboard-response","260","327512","0.0-12.0-3.49","2d_cat_multi_stim_exp1","2022-4-28","14:55:46","25","75","3","9","10","40","30","120","68","21","[""White""]","No","Female","1809499","null","null","learn_feedback","","","learn_feedback","24.8654","66.0091","in","","","","","","","","","","","","","","","","","","","","","","",""
"","","","","","canvas-keyboard-response","261","327575","0.0-12.0-4.49","2d_cat_multi_stim_exp1","2022-4-28","14:55:46","25","75","3","9","10","40","30","120","68","21","[""White""]","No","Female","1809499","null","null","","","","clear_screen","","","","","","","","","","","","","","","","","","","","","","","","","",""
"","","","","","canvas-keyboard-response","262","328086","0.0-12.0-0.50","2d_cat_multi_stim_exp1","2022-4-28","14:55:46","25","75","3","9","10","40","30","120","68","21","[""White""]","No","Female","1809499","null","null","","","","fixation","","","","","","","","","","","","","","","","","","","","","","","","","",""
"","","","","","canvas-keyboard-response","263","328596","0.0-12.0-1.50","2d_cat_multi_stim_exp1","2022-4-28","14:55:46","25","75","3","9","10","40","30","120","68","21","[""White""]","No","Female","1809499","null","null","","","","clear_screen","","","","","","","","","","","","","","","","","","","","","","","","","",""
"","","","","","canvas-keyboard-response","264","329217","0.0-12.0-2.50","2d_cat_multi_stim_exp1","2022-4-28","14:55:46","25","75","3","9","10","40","30","120","68","21","[""White""]","No","Female","1809499","611","i","learn","","","learn_trial","20","110","out","0","1","","","","","","","","","","","","","","","","","","","","",""
"","","","","","canvas-keyboard-response","265","329727","0.0-12.0-3.50","2d_cat_multi_stim_exp1","2022-4-28","14:55:46","25","75","3","9","10","40","30","120","68","21","[""White""]","No","Female","1809499","null","null","learn_feedback","","","learn_feedback","20","110","out","","","","","","","","","","","","","","","","","","","","","","",""
"","","","","","canvas-keyboard-response","266","329790","0.0-12.0-4.50","2d_cat_multi_stim_exp1","2022-4-28","14:55:46","25","75","3","9","10","40","30","120","68","21","[""White""]","No","Female","1809499","null","null","","","","clear_screen","","","","","","","","","","","","","","","","","","","","","","","","","",""
"","","","","","canvas-keyboard-response","267","330298","0.0-12.0-0.51","2d_cat_multi_stim_exp1","2022-4-28","14:55:46","25","75","3","9","10","40","30","120","68","21","[""White""]","No","Female","1809499","null","null","","","","fixation","","","","","","","","","","","","","","","","","","","","","","","","","",""
"","","","","","canvas-keyboard-response","268","330809","0.0-12.0-1.51","2d_cat_multi_stim_exp1","2022-4-28","14:55:46","25","75","3","9","10","40","30","120","68","21","[""White""]","No","Female","1809499","null","null","","","","clear_screen","","","","","","","","","","","","","","","","","","","","","","","","","",""
"","","","","","canvas-keyboard-response","269","331513","0.0-12.0-2.51","2d_cat_multi_stim_exp1","2022-4-28","14:55:46","25","75","3","9","10","40","30","120","68","21","[""White""]","No","Female","1809499","695","i","learn","","","learn_trial","40","110","out","0","1","","","","","","","","","","","","","","","","","","","","",""
"","","","","","canvas-keyboard-response","270","332022","0.0-12.0-3.51","2d_cat_multi_stim_exp1","2022-4-28","14:55:46","25","75","3","9","10","40","30","120","68","21","[""White""]","No","Female","1809499","null","null","learn_feedback","","","learn_feedback","40","110","out","","","","","","","","","","","","","","","","","","","","","","",""
"","","","","","canvas-keyboard-response","271","332082","0.0-12.0-4.51","2d_cat_multi_stim_exp1","2022-4-28","14:55:46","25","75","3","9","10","40","30","120","68","21","[""White""]","No","Female","1809499","null","null","","","","clear_screen","","","","","","","","","","","","","","","","","","","","","","","","","",""
"","","","","","canvas-keyboard-response","272","332592","0.0-12.0-0.52","2d_cat_multi_stim_exp1","2022-4-28","14:55:46","25","75","3","9","10","40","30","120","68","21","[""White""]","No","Female","1809499","null","null","","","","fixation","","","","","","","","","","","","","","","","","","","","","","","","","",""
"","","","","","canvas-keyboard-response","273","333103","0.0-12.0-1.52","2d_cat_multi_stim_exp1","2022-4-28","14:55:46","25","75","3","9","10","40","30","120","68","21","[""White""]","No","Female","1809499","null","null","","","","clear_screen","","","","","","","","","","","","","","","","","","","","","","","","","",""
"","","","","","canvas-keyboard-response","274","333833","0.0-12.0-2.52","2d_cat_multi_stim_exp1","2022-4-28","14:55:46","25","75","3","9","10","40","30","120","68","21","[""White""]","No","Female","1809499","721","i","learn","","","learn_trial","40","40","out","0","1","","","","","","","","","","","","","","","","","","","","",""
"","","","","","canvas-keyboard-response","275","334343","0.0-12.0-3.52","2d_cat_multi_stim_exp1","2022-4-28","14:55:46","25","75","3","9","10","40","30","120","68","21","[""White""]","No","Female","1809499","null","null","learn_feedback","","","learn_feedback","40","40","out","","","","","","","","","","","","","","","","","","","","","","",""
"","","","","","canvas-keyboard-response","276","334403","0.0-12.0-4.52","2d_cat_multi_stim_exp1","2022-4-28","14:55:46","25","75","3","9","10","40","30","120","68","21","[""White""]","No","Female","1809499","null","null","","","","clear_screen","","","","","","","","","","","","","","","","","","","","","","","","","",""
"","","","","","canvas-keyboard-response","277","334914","0.0-12.0-0.53","2d_cat_multi_stim_exp1","2022-4-28","14:55:46","25","75","3","9","10","40","30","120","68","21","[""White""]","No","Female","1809499","null","null","","","","fixation","","","","","","","","","","","","","","","","","","","","","","","","","",""
"","","","","","canvas-keyboard-response","278","335426","0.0-12.0-1.53","2d_cat_multi_stim_exp1","2022-4-28","14:55:46","25","75","3","9","10","40","30","120","68","21","[""White""]","No","Female","1809499","null","null","","","","clear_screen","","","","","","","","","","","","","","","","","","","","","","","","","",""
"","","","","","canvas-keyboard-response","279","337529","0.0-12.0-2.53","2d_cat_multi_stim_exp1","2022-4-28","14:55:46","25","75","3","9","10","40","30","120","68","21","[""White""]","No","Female","1809499","2094","u","learn","","","learn_trial","22.1081","77.3943","in","1","1","","","","","","","","","","","","","","","","","","","","",""
"","","","","","canvas-keyboard-response","280","338039","0.0-12.0-3.53","2d_cat_multi_stim_exp1","2022-4-28","14:55:46","25","75","3","9","10","40","30","120","68","21","[""White""]","No","Female","1809499","null","null","learn_feedback","","","learn_feedback","22.1081","77.3943","in","","","","","","","","","","","","","","","","","","","","","","",""
"","","","","","canvas-keyboard-response","281","338100","0.0-12.0-4.53","2d_cat_multi_stim_exp1","2022-4-28","14:55:46","25","75","3","9","10","40","30","120","68","21","[""White""]","No","Female","1809499","null","null","","","","clear_screen","","","","","","","","","","","","","","","","","","","","","","","","","",""
"","","","","","canvas-keyboard-response","282","338611","0.0-12.0-0.54","2d_cat_multi_stim_exp1","2022-4-28","14:55:46","25","75","3","9","10","40","30","120","68","21","[""White""]","No","Female","1809499","null","null","","","","fixation","","","","","","","","","","","","","","","","","","","","","","","","","",""
"","","","","","canvas-keyboard-response","283","339122","0.0-12.0-1.54","2d_cat_multi_stim_exp1","2022-4-28","14:55:46","25","75","3","9","10","40","30","120","68","21","[""White""]","No","Female","1809499","null","null","","","","clear_screen","","","","","","","","","","","","","","","","","","","","","","","","","",""
"","","","","","canvas-keyboard-response","284","339713","0.0-12.0-2.54","2d_cat_multi_stim_exp1","2022-4-28","14:55:46","25","75","3","9","10","40","30","120","68","21","[""White""]","No","Female","1809499","583","u","learn","","","learn_trial","25","75","in","1","1","","","","","","","","","","","","","","","","","","","","",""
"","","","","","canvas-keyboard-response","285","340225","0.0-12.0-3.54","2d_cat_multi_stim_exp1","2022-4-28","14:55:46","25","75","3","9","10","40","30","120","68","21","[""White""]","No","Female","1809499","null","null","learn_feedback","","","learn_feedback","25","75","in","","","","","","","","","","","","","","","","","","","","","","",""
"","","","","","canvas-keyboard-response","286","340284","0.0-12.0-4.54","2d_cat_multi_stim_exp1","2022-4-28","14:55:46","25","75","3","9","10","40","30","120","68","21","[""White""]","No","Female","1809499","null","null","","","","clear_screen","","","","","","","","","","","","","","","","","","","","","","","","","",""
"","","","","","canvas-keyboard-response","287","340793","0.0-12.0-0.55","2d_cat_multi_stim_exp1","2022-4-28","14:55:46","25","75","3","9","10","40","30","120","68","21","[""White""]","No","Female","1809499","null","null","","","","fixation","","","","","","","","","","","","","","","","","","","","","","","","","",""
"","","","","","canvas-keyboard-response","288","341300","0.0-12.0-1.55","2d_cat_multi_stim_exp1","2022-4-28","14:55:46","25","75","3","9","10","40","30","120","68","21","[""White""]","No","Female","1809499","null","null","","","","clear_screen","","","","","","","","","","","","","","","","","","","","","","","","","",""
"","","","","","canvas-keyboard-response","289","342705","0.0-12.0-2.55","2d_cat_multi_stim_exp1","2022-4-28","14:55:46","25","75","3","9","10","40","30","120","68","21","[""White""]","No","Female","1809499","1394","i","learn","","","learn_trial","20","90","out","0","1","","","","","","","","","","","","","","","","","","","","",""
"","","","","","canvas-keyboard-response","290","343216","0.0-12.0-3.55","2d_cat_multi_stim_exp1","2022-4-28","14:55:46","25","75","3","9","10","40","30","120","68","21","[""White""]","No","Female","1809499","null","null","learn_feedback","","","learn_feedback","20","90","out","","","","","","","","","","","","","","","","","","","","","","",""
"","","","","","canvas-keyboard-response","291","343277","0.0-12.0-4.55","2d_cat_multi_stim_exp1","2022-4-28","14:55:46","25","75","3","9","10","40","30","120","68","21","[""White""]","No","Female","1809499","null","null","","","","clear_screen","","","","","","","","","","","","","","","","","","","","","","","","","",""
"","","","","","canvas-keyboard-response","292","343786","0.0-12.0-0.56","2d_cat_multi_stim_exp1","2022-4-28","14:55:46","25","75","3","9","10","40","30","120","68","21","[""White""]","No","Female","1809499","null","null","","","","fixation","","","","","","","","","","","","","","","","","","","","","","","","","",""
"","","","","","canvas-keyboard-response","293","344298","0.0-12.0-1.56","2d_cat_multi_stim_exp1","2022-4-28","14:55:46","25","75","3","9","10","40","30","120","68","21","[""White""]","No","Female","1809499","null","null","","","","clear_screen","","","","","","","","","","","","","","","","","","","","","","","","","",""
"","","","","","canvas-keyboard-response","294","345073","0.0-12.0-2.56","2d_cat_multi_stim_exp1","2022-4-28","14:55:46","25","75","3","9","10","40","30","120","68","21","[""White""]","No","Female","1809499","760","u","learn","","","learn_trial","26.6667","60","out","1","0","","","","","","","","","","","","","","","","","","","","",""
"","","","","","canvas-keyboard-response","295","346086","0.0-12.0-3.56","2d_cat_multi_stim_exp1","2022-4-28","14:55:46","25","75","3","9","10","40","30","120","68","21","[""White""]","No","Female","1809499","null","null","learn_feedback","","","learn_feedback","26.6667","60","out","","","","","","","","","","","","","","","","","","","","","","",""
"","","","","","canvas-keyboard-response","296","346147","0.0-12.0-4.56","2d_cat_multi_stim_exp1","2022-4-28","14:55:46","25","75","3","9","10","40","30","120","68","21","[""White""]","No","Female","1809499","null","null","","","","clear_screen","","","","","","","","","","","","","","","","","","","","","","","","","",""
