"success","timeout","failed_images","failed_audio","failed_video","trial_type","trial_index","time_elapsed","internal_node_id","exp_name","date","time","angle_mean_in","radius_mean_in","angle_sd_in","radius_sd_in","angle_min_out","angle_max_out","radius_min_out","radius_max_out","sub_n","age","race","ethnicity","gender","exp_duration","rt","response","exp_trial_type","stimulus","view_history","screen_id","angle","radius","distribution","choice","correct","order","angle_a","radius_a","angle_b","radius_b","jkl_correct","transfer_trial_type","choice_set","abc_correct","tc_correct","tc_angle","tdc_a","tdc_b","tdc_c","pair","category_a","category_b","category_c","angle_c","radius_c","question_order"
"true","false","[]","[]","[]","preload","0","32","0.0-0.0","2d_cat_multi_stim_exp1","2022-5-3","15:4:24","25","75","3","9","10","40","30","120","83","19","[""White""]","No","Female","2994270","","","","","","","","","","","","","","","","","","","","","","","","","","","","","","","",""
"","","","","","survey-html-form","1","1790","0.0-1.0","2d_cat_multi_stim_exp1","2022-5-3","15:4:24","25","75","3","9","10","40","30","120","83","19","[""White""]","No","Female","2994270","1739","{""response"":""83""}","enter-sub-number","","","","","","","","","","","","","","","","","","","","","","","","","","","","",""
"true","","","","","fullscreen","2","3503","0.0-2.0","2d_cat_multi_stim_exp1","2022-5-3","15:4:24","25","75","3","9","10","40","30","120","83","19","[""White""]","No","Female","2994270","","","","","","","","","","","","","","","","","","","","","","","","","","","","","","","",""
"","","","","","image-button-response","3","995253","0.0-3.0","2d_cat_multi_stim_exp1","2022-5-3","15:4:24","25","75","3","9","10","40","30","120","83","19","[""White""]","No","Female","2994270","991742","0","","consent.png","","","","","","","","","","","","","","","","","","","","","","","","","","","",""
"","","","","","html-button-response","4","999988","0.0-4.0","2d_cat_multi_stim_exp1","2022-5-3","15:4:24","25","75","3","9","10","40","30","120","83","19","[""White""]","No","Female","2994270","4732","0","","<div style= ""font-size:25px;"" <p> <strong> Welcome to the experiment! </strong><br> <p style=""color:#8B0000; font-size:25px;""><strong> Please do NOT exit full screen until you are done with the experiment. </strong> </p><p style=""font-size:25px;color:#8B0000;""> <strong> The experiment will be canceled and your data will be lost <br> if you try to go back or refresh the page at any point during the experiment.</strong> </p><br><p> <strong> Thanks in advance for your contribution to our research! </strong></p>","","","","","","","","","","","","","","","","","","","","","","","","","","","",""
"","","","","","instructions","5","1054172","0.0-5.0","2d_cat_multi_stim_exp1","2022-5-3","15:4:24","25","75","3","9","10","40","30","120","83","19","[""White""]","No","Female","2994270","54179","","","","[{""page_index"":0,""viewing_time"":3060},{""page_index"":1,""viewing_time"":2463},{""page_index"":2,""viewing_time"":17433},{""page_index"":3,""viewing_time"":28320},{""page_index"":2,""viewing_time"":1624},{""page_index"":3,""viewing_time"":1279}]","instructions_1","","","","","","","","","","","","","","","","","","","","","","","","","",""
"","","","","","instructions","6","1056060","0.0-6.0","2d_cat_multi_stim_exp1","2022-5-3","15:4:24","25","75","3","9","10","40","30","120","83","19","[""White""]","No","Female","2994270","1884","","","","[{""page_index"":0,""viewing_time"":1884}]","Click to see the kinds of turtles that will appear in the study.","","","","","","","","","","","","","","","","","","","","","","","","","",""
"","","","","","canvas-keyboard-response","7","1071083","0.0-7.0","2d_cat_multi_stim_exp1","2022-5-3","15:4:24","25","75","3","9","10","40","30","120","83","19","[""White""]","No","Female","2994270","null","null","","","","demo_range","","","","","","","","","","","","","","","","","","","","","","","","","",""
"","","","","","instructions","8","1078069","0.0-8.0","2d_cat_multi_stim_exp1","2022-5-3","15:4:24","25","75","3","9","10","40","30","120","83","19","[""White""]","No","Female","2994270","6484","","","","[{""page_index"":0,""viewing_time"":6484}]","Click to see some turtles in the subspecies.","","","","","","","","","","","","","","","","","","","","","","","","","",""
"","","","","","canvas-keyboard-response","9","1093090","0.0-9.0","2d_cat_multi_stim_exp1","2022-5-3","15:4:24","25","75","3","9","10","40","30","120","83","19","[""White""]","No","Female","2994270","null","null","","","","demo_in","","","","","","","","","","","","","","","","","","","","","","","","","",""
"","","","","","instructions","10","1124236","0.0-10.0","2d_cat_multi_stim_exp1","2022-5-3","15:4:24","25","75","3","9","10","40","30","120","83","19","[""White""]","No","Female","2994270","30644","","","","[{""page_index"":0,""viewing_time"":8917},{""page_index"":1,""viewing_time"":18758},{""page_index"":2,""viewing_time"":2969}]","instructions_2","","","","","","","","","","","","","","","","","","","","","","","","","",""
"","","","","","instructions","11","1125371","0.0-11.0","2d_cat_multi_stim_exp1","2022-5-3","15:4:24","25","75","3","9","10","40","30","120","83","19","[""White""]","No","Female","2994270","1134","","","","[{""page_index"":0,""viewing_time"":1134}]","Click to begin the first phase of the experiment.","","","","","","","","","","","","","","","","","","","","","","","","","",""
"","","","","","canvas-keyboard-response","12","1125884","0.0-12.0-0.0","2d_cat_multi_stim_exp1","2022-5-3","15:4:24","25","75","3","9","10","40","30","120","83","19","[""White""]","No","Female","2994270","null","null","","","","fixation","","","","","","","","","","","","","","","","","","","","","","","","","",""
"","","","","","canvas-keyboard-response","13","1126393","0.0-12.0-1.0","2d_cat_multi_stim_exp1","2022-5-3","15:4:24","25","75","3","9","10","40","30","120","83","19","[""White""]","No","Female","2994270","null","null","","","","clear_screen","","","","","","","","","","","","","","","","","","","","","","","","","",""
"","","","","","canvas-keyboard-response","14","1127786","0.0-12.0-2.0","2d_cat_multi_stim_exp1","2022-5-3","15:4:24","25","75","3","9","10","40","30","120","83","19","[""White""]","No","Female","2994270","1380","i","learn","","","learn_trial","30","70","out","0","1","","","","","","","","","","","","","","","","","","","","",""
"","","","","","canvas-keyboard-response","15","1128298","0.0-12.0-3.0","2d_cat_multi_stim_exp1","2022-5-3","15:4:24","25","75","3","9","10","40","30","120","83","19","[""White""]","No","Female","2994270","null","null","learn_feedback","","","learn_feedback","30","70","out","","","","","","","","","","","","","","","","","","","","","","",""
"","","","","","canvas-keyboard-response","16","1128360","0.0-12.0-4.0","2d_cat_multi_stim_exp1","2022-5-3","15:4:24","25","75","3","9","10","40","30","120","83","19","[""White""]","No","Female","2994270","null","null","","","","clear_screen","","","","","","","","","","","","","","","","","","","","","","","","","",""
"","","","","","canvas-keyboard-response","17","1128870","0.0-12.0-0.1","2d_cat_multi_stim_exp1","2022-5-3","15:4:24","25","75","3","9","10","40","30","120","83","19","[""White""]","No","Female","2994270","null","null","","","","fixation","","","","","","","","","","","","","","","","","","","","","","","","","",""
"","","","","","canvas-keyboard-response","18","1129381","0.0-12.0-1.1","2d_cat_multi_stim_exp1","2022-5-3","15:4:24","25","75","3","9","10","40","30","120","83","19","[""White""]","No","Female","2994270","null","null","","","","clear_screen","","","","","","","","","","","","","","","","","","","","","","","","","",""
"","","","","","canvas-keyboard-response","19","1130041","0.0-12.0-2.1","2d_cat_multi_stim_exp1","2022-5-3","15:4:24","25","75","3","9","10","40","30","120","83","19","[""White""]","No","Female","2994270","650","i","learn","","","learn_trial","23.8209","66.7243","in","0","0","","","","","","","","","","","","","","","","","","","","",""
"","","","","","canvas-keyboard-response","20","1131052","0.0-12.0-3.1","2d_cat_multi_stim_exp1","2022-5-3","15:4:24","25","75","3","9","10","40","30","120","83","19","[""White""]","No","Female","2994270","null","null","learn_feedback","","","learn_feedback","23.8209","66.7243","in","","","","","","","","","","","","","","","","","","","","","","",""
"","","","","","canvas-keyboard-response","21","1131112","0.0-12.0-4.1","2d_cat_multi_stim_exp1","2022-5-3","15:4:24","25","75","3","9","10","40","30","120","83","19","[""White""]","No","Female","2994270","null","null","","","","clear_screen","","","","","","","","","","","","","","","","","","","","","","","","","",""
"","","","","","canvas-keyboard-response","22","1131621","0.0-12.0-0.2","2d_cat_multi_stim_exp1","2022-5-3","15:4:24","25","75","3","9","10","40","30","120","83","19","[""White""]","No","Female","2994270","null","null","","","","fixation","","","","","","","","","","","","","","","","","","","","","","","","","",""
"","","","","","canvas-keyboard-response","23","1132130","0.0-12.0-1.2","2d_cat_multi_stim_exp1","2022-5-3","15:4:24","25","75","3","9","10","40","30","120","83","19","[""White""]","No","Female","2994270","null","null","","","","clear_screen","","","","","","","","","","","","","","","","","","","","","","","","","",""
"","","","","","canvas-keyboard-response","24","1134065","0.0-12.0-2.2","2d_cat_multi_stim_exp1","2022-5-3","15:4:24","25","75","3","9","10","40","30","120","83","19","[""White""]","No","Female","2994270","1925","i","learn","","","learn_trial","26.6667","100","out","0","1","","","","","","","","","","","","","","","","","","","","",""
"","","","","","canvas-keyboard-response","25","1134576","0.0-12.0-3.2","2d_cat_multi_stim_exp1","2022-5-3","15:4:24","25","75","3","9","10","40","30","120","83","19","[""White""]","No","Female","2994270","null","null","learn_feedback","","","learn_feedback","26.6667","100","out","","","","","","","","","","","","","","","","","","","","","","",""
"","","","","","canvas-keyboard-response","26","1134635","0.0-12.0-4.2","2d_cat_multi_stim_exp1","2022-5-3","15:4:24","25","75","3","9","10","40","30","120","83","19","[""White""]","No","Female","2994270","null","null","","","","clear_screen","","","","","","","","","","","","","","","","","","","","","","","","","",""
"","","","","","canvas-keyboard-response","27","1135145","0.0-12.0-0.3","2d_cat_multi_stim_exp1","2022-5-3","15:4:24","25","75","3","9","10","40","30","120","83","19","[""White""]","No","Female","2994270","null","null","","","","fixation","","","","","","","","","","","","","","","","","","","","","","","","","",""
"","","","","","canvas-keyboard-response","28","1135655","0.0-12.0-1.3","2d_cat_multi_stim_exp1","2022-5-3","15:4:24","25","75","3","9","10","40","30","120","83","19","[""White""]","No","Female","2994270","null","null","","","","clear_screen","","","","","","","","","","","","","","","","","","","","","","","","","",""
"","","","","","canvas-keyboard-response","29","1136169","0.0-12.0-2.3","2d_cat_multi_stim_exp1","2022-5-3","15:4:24","25","75","3","9","10","40","30","120","83","19","[""White""]","No","Female","2994270","504","u","learn","","","learn_trial","27.2592","80.9214","in","1","1","","","","","","","","","","","","","","","","","","","","",""
"","","","","","canvas-keyboard-response","30","1136683","0.0-12.0-3.3","2d_cat_multi_stim_exp1","2022-5-3","15:4:24","25","75","3","9","10","40","30","120","83","19","[""White""]","No","Female","2994270","null","null","learn_feedback","","","learn_feedback","27.2592","80.9214","in","","","","","","","","","","","","","","","","","","","","","","",""
"","","","","","canvas-keyboard-response","31","1136748","0.0-12.0-4.3","2d_cat_multi_stim_exp1","2022-5-3","15:4:24","25","75","3","9","10","40","30","120","83","19","[""White""]","No","Female","2994270","null","null","","","","clear_screen","","","","","","","","","","","","","","","","","","","","","","","","","",""
"","","","","","canvas-keyboard-response","32","1137257","0.0-12.0-0.4","2d_cat_multi_stim_exp1","2022-5-3","15:4:24","25","75","3","9","10","40","30","120","83","19","[""White""]","No","Female","2994270","null","null","","","","fixation","","","","","","","","","","","","","","","","","","","","","","","","","",""
"","","","","","canvas-keyboard-response","33","1137767","0.0-12.0-1.4","2d_cat_multi_stim_exp1","2022-5-3","15:4:24","25","75","3","9","10","40","30","120","83","19","[""White""]","No","Female","2994270","null","null","","","","clear_screen","","","","","","","","","","","","","","","","","","","","","","","","","",""
"","","","","","canvas-keyboard-response","34","1139282","0.0-12.0-2.4","2d_cat_multi_stim_exp1","2022-5-3","15:4:24","25","75","3","9","10","40","30","120","83","19","[""White""]","No","Female","2994270","1505","i","learn","","","learn_trial","40","100","out","0","1","","","","","","","","","","","","","","","","","","","","",""
"","","","","","canvas-keyboard-response","35","1139791","0.0-12.0-3.4","2d_cat_multi_stim_exp1","2022-5-3","15:4:24","25","75","3","9","10","40","30","120","83","19","[""White""]","No","Female","2994270","null","null","learn_feedback","","","learn_feedback","40","100","out","","","","","","","","","","","","","","","","","","","","","","",""
"","","","","","canvas-keyboard-response","36","1139850","0.0-12.0-4.4","2d_cat_multi_stim_exp1","2022-5-3","15:4:24","25","75","3","9","10","40","30","120","83","19","[""White""]","No","Female","2994270","null","null","","","","clear_screen","","","","","","","","","","","","","","","","","","","","","","","","","",""
"","","","","","canvas-keyboard-response","37","1140359","0.0-12.0-0.5","2d_cat_multi_stim_exp1","2022-5-3","15:4:24","25","75","3","9","10","40","30","120","83","19","[""White""]","No","Female","2994270","null","null","","","","fixation","","","","","","","","","","","","","","","","","","","","","","","","","",""
"","","","","","canvas-keyboard-response","38","1140868","0.0-12.0-1.5","2d_cat_multi_stim_exp1","2022-5-3","15:4:24","25","75","3","9","10","40","30","120","83","19","[""White""]","No","Female","2994270","null","null","","","","clear_screen","","","","","","","","","","","","","","","","","","","","","","","","","",""
"","","","","","canvas-keyboard-response","39","1141401","0.0-12.0-2.5","2d_cat_multi_stim_exp1","2022-5-3","15:4:24","25","75","3","9","10","40","30","120","83","19","[""White""]","No","Female","2994270","524","u","learn","","","learn_trial","22.0121","74.1932","in","1","1","","","","","","","","","","","","","","","","","","","","",""
"","","","","","canvas-keyboard-response","40","1141910","0.0-12.0-3.5","2d_cat_multi_stim_exp1","2022-5-3","15:4:24","25","75","3","9","10","40","30","120","83","19","[""White""]","No","Female","2994270","null","null","learn_feedback","","","learn_feedback","22.0121","74.1932","in","","","","","","","","","","","","","","","","","","","","","","",""
"","","","","","canvas-keyboard-response","41","1141969","0.0-12.0-4.5","2d_cat_multi_stim_exp1","2022-5-3","15:4:24","25","75","3","9","10","40","30","120","83","19","[""White""]","No","Female","2994270","null","null","","","","clear_screen","","","","","","","","","","","","","","","","","","","","","","","","","",""
"","","","","","canvas-keyboard-response","42","1142479","0.0-12.0-0.6","2d_cat_multi_stim_exp1","2022-5-3","15:4:24","25","75","3","9","10","40","30","120","83","19","[""White""]","No","Female","2994270","null","null","","","","fixation","","","","","","","","","","","","","","","","","","","","","","","","","",""
"","","","","","canvas-keyboard-response","43","1142988","0.0-12.0-1.6","2d_cat_multi_stim_exp1","2022-5-3","15:4:24","25","75","3","9","10","40","30","120","83","19","[""White""]","No","Female","2994270","null","null","","","","clear_screen","","","","","","","","","","","","","","","","","","","","","","","","","",""
"","","","","","canvas-keyboard-response","44","1143826","0.0-12.0-2.6","2d_cat_multi_stim_exp1","2022-5-3","15:4:24","25","75","3","9","10","40","30","120","83","19","[""White""]","No","Female","2994270","827","i","learn","","","learn_trial","20","110","out","0","1","","","","","","","","","","","","","","","","","","","","",""
"","","","","","canvas-keyboard-response","45","1144335","0.0-12.0-3.6","2d_cat_multi_stim_exp1","2022-5-3","15:4:24","25","75","3","9","10","40","30","120","83","19","[""White""]","No","Female","2994270","null","null","learn_feedback","","","learn_feedback","20","110","out","","","","","","","","","","","","","","","","","","","","","","",""
"","","","","","canvas-keyboard-response","46","1144394","0.0-12.0-4.6","2d_cat_multi_stim_exp1","2022-5-3","15:4:24","25","75","3","9","10","40","30","120","83","19","[""White""]","No","Female","2994270","null","null","","","","clear_screen","","","","","","","","","","","","","","","","","","","","","","","","","",""
"","","","","","canvas-keyboard-response","47","1144903","0.0-12.0-0.7","2d_cat_multi_stim_exp1","2022-5-3","15:4:24","25","75","3","9","10","40","30","120","83","19","[""White""]","No","Female","2994270","null","null","","","","fixation","","","","","","","","","","","","","","","","","","","","","","","","","",""
"","","","","","canvas-keyboard-response","48","1145412","0.0-12.0-1.7","2d_cat_multi_stim_exp1","2022-5-3","15:4:24","25","75","3","9","10","40","30","120","83","19","[""White""]","No","Female","2994270","null","null","","","","clear_screen","","","","","","","","","","","","","","","","","","","","","","","","","",""
"","","","","","canvas-keyboard-response","49","1145817","0.0-12.0-2.7","2d_cat_multi_stim_exp1","2022-5-3","15:4:24","25","75","3","9","10","40","30","120","83","19","[""White""]","No","Female","2994270","394","u","learn","","","learn_trial","27.5753","70.3839","in","1","1","","","","","","","","","","","","","","","","","","","","",""
"","","","","","canvas-keyboard-response","50","1146327","0.0-12.0-3.7","2d_cat_multi_stim_exp1","2022-5-3","15:4:24","25","75","3","9","10","40","30","120","83","19","[""White""]","No","Female","2994270","null","null","learn_feedback","","","learn_feedback","27.5753","70.3839","in","","","","","","","","","","","","","","","","","","","","","","",""
"","","","","","canvas-keyboard-response","51","1146386","0.0-12.0-4.7","2d_cat_multi_stim_exp1","2022-5-3","15:4:24","25","75","3","9","10","40","30","120","83","19","[""White""]","No","Female","2994270","null","null","","","","clear_screen","","","","","","","","","","","","","","","","","","","","","","","","","",""
"","","","","","canvas-keyboard-response","52","1146895","0.0-12.0-0.8","2d_cat_multi_stim_exp1","2022-5-3","15:4:24","25","75","3","9","10","40","30","120","83","19","[""White""]","No","Female","2994270","null","null","","","","fixation","","","","","","","","","","","","","","","","","","","","","","","","","",""
"","","","","","canvas-keyboard-response","53","1147405","0.0-12.0-1.8","2d_cat_multi_stim_exp1","2022-5-3","15:4:24","25","75","3","9","10","40","30","120","83","19","[""White""]","No","Female","2994270","null","null","","","","clear_screen","","","","","","","","","","","","","","","","","","","","","","","","","",""
"","","","","","canvas-keyboard-response","54","1148481","0.0-12.0-2.8","2d_cat_multi_stim_exp1","2022-5-3","15:4:24","25","75","3","9","10","40","30","120","83","19","[""White""]","No","Female","2994270","1067","u","learn","","","learn_trial","26.4216","82.9254","in","1","1","","","","","","","","","","","","","","","","","","","","",""
"","","","","","canvas-keyboard-response","55","1148991","0.0-12.0-3.8","2d_cat_multi_stim_exp1","2022-5-3","15:4:24","25","75","3","9","10","40","30","120","83","19","[""White""]","No","Female","2994270","null","null","learn_feedback","","","learn_feedback","26.4216","82.9254","in","","","","","","","","","","","","","","","","","","","","","","",""
"","","","","","canvas-keyboard-response","56","1149051","0.0-12.0-4.8","2d_cat_multi_stim_exp1","2022-5-3","15:4:24","25","75","3","9","10","40","30","120","83","19","[""White""]","No","Female","2994270","null","null","","","","clear_screen","","","","","","","","","","","","","","","","","","","","","","","","","",""
"","","","","","canvas-keyboard-response","57","1149560","0.0-12.0-0.9","2d_cat_multi_stim_exp1","2022-5-3","15:4:24","25","75","3","9","10","40","30","120","83","19","[""White""]","No","Female","2994270","null","null","","","","fixation","","","","","","","","","","","","","","","","","","","","","","","","","",""
"","","","","","canvas-keyboard-response","58","1150069","0.0-12.0-1.9","2d_cat_multi_stim_exp1","2022-5-3","15:4:24","25","75","3","9","10","40","30","120","83","19","[""White""]","No","Female","2994270","null","null","","","","clear_screen","","","","","","","","","","","","","","","","","","","","","","","","","",""
"","","","","","canvas-keyboard-response","59","1150680","0.0-12.0-2.9","2d_cat_multi_stim_exp1","2022-5-3","15:4:24","25","75","3","9","10","40","30","120","83","19","[""White""]","No","Female","2994270","600","i","learn","","","learn_trial","24.8654","83.9909","in","0","0","","","","","","","","","","","","","","","","","","","","",""
"","","","","","canvas-keyboard-response","60","1151690","0.0-12.0-3.9","2d_cat_multi_stim_exp1","2022-5-3","15:4:24","25","75","3","9","10","40","30","120","83","19","[""White""]","No","Female","2994270","null","null","learn_feedback","","","learn_feedback","24.8654","83.9909","in","","","","","","","","","","","","","","","","","","","","","","",""
"","","","","","canvas-keyboard-response","61","1151749","0.0-12.0-4.9","2d_cat_multi_stim_exp1","2022-5-3","15:4:24","25","75","3","9","10","40","30","120","83","19","[""White""]","No","Female","2994270","null","null","","","","clear_screen","","","","","","","","","","","","","","","","","","","","","","","","","",""
"","","","","","canvas-keyboard-response","62","1152258","0.0-12.0-0.10","2d_cat_multi_stim_exp1","2022-5-3","15:4:24","25","75","3","9","10","40","30","120","83","19","[""White""]","No","Female","2994270","null","null","","","","fixation","","","","","","","","","","","","","","","","","","","","","","","","","",""
"","","","","","canvas-keyboard-response","63","1152767","0.0-12.0-1.10","2d_cat_multi_stim_exp1","2022-5-3","15:4:24","25","75","3","9","10","40","30","120","83","19","[""White""]","No","Female","2994270","null","null","","","","clear_screen","","","","","","","","","","","","","","","","","","","","","","","","","",""
"","","","","","canvas-keyboard-response","64","1153481","0.0-12.0-2.10","2d_cat_multi_stim_exp1","2022-5-3","15:4:24","25","75","3","9","10","40","30","120","83","19","[""White""]","No","Female","2994270","704","u","learn","","","learn_trial","25","75","in","1","1","","","","","","","","","","","","","","","","","","","","",""
"","","","","","canvas-keyboard-response","65","1153992","0.0-12.0-3.10","2d_cat_multi_stim_exp1","2022-5-3","15:4:24","25","75","3","9","10","40","30","120","83","19","[""White""]","No","Female","2994270","null","null","learn_feedback","","","learn_feedback","25","75","in","","","","","","","","","","","","","","","","","","","","","","",""
"","","","","","canvas-keyboard-response","66","1154050","0.0-12.0-4.10","2d_cat_multi_stim_exp1","2022-5-3","15:4:24","25","75","3","9","10","40","30","120","83","19","[""White""]","No","Female","2994270","null","null","","","","clear_screen","","","","","","","","","","","","","","","","","","","","","","","","","",""
"","","","","","canvas-keyboard-response","67","1154558","0.0-12.0-0.11","2d_cat_multi_stim_exp1","2022-5-3","15:4:24","25","75","3","9","10","40","30","120","83","19","[""White""]","No","Female","2994270","null","null","","","","fixation","","","","","","","","","","","","","","","","","","","","","","","","","",""
"","","","","","canvas-keyboard-response","68","1155068","0.0-12.0-1.11","2d_cat_multi_stim_exp1","2022-5-3","15:4:24","25","75","3","9","10","40","30","120","83","19","[""White""]","No","Female","2994270","null","null","","","","clear_screen","","","","","","","","","","","","","","","","","","","","","","","","","",""
"","","","","","canvas-keyboard-response","69","1155497","0.0-12.0-2.11","2d_cat_multi_stim_exp1","2022-5-3","15:4:24","25","75","3","9","10","40","30","120","83","19","[""White""]","No","Female","2994270","419","u","learn","","","learn_trial","13.3333","100","out","1","0","","","","","","","","","","","","","","","","","","","","",""
"","","","","","canvas-keyboard-response","70","1156507","0.0-12.0-3.11","2d_cat_multi_stim_exp1","2022-5-3","15:4:24","25","75","3","9","10","40","30","120","83","19","[""White""]","No","Female","2994270","null","null","learn_feedback","","","learn_feedback","13.3333","100","out","","","","","","","","","","","","","","","","","","","","","","",""
"","","","","","canvas-keyboard-response","71","1156566","0.0-12.0-4.11","2d_cat_multi_stim_exp1","2022-5-3","15:4:24","25","75","3","9","10","40","30","120","83","19","[""White""]","No","Female","2994270","null","null","","","","clear_screen","","","","","","","","","","","","","","","","","","","","","","","","","",""
"","","","","","canvas-keyboard-response","72","1157075","0.0-12.0-0.12","2d_cat_multi_stim_exp1","2022-5-3","15:4:24","25","75","3","9","10","40","30","120","83","19","[""White""]","No","Female","2994270","null","null","","","","fixation","","","","","","","","","","","","","","","","","","","","","","","","","",""
"","","","","","canvas-keyboard-response","73","1157587","0.0-12.0-1.12","2d_cat_multi_stim_exp1","2022-5-3","15:4:24","25","75","3","9","10","40","30","120","83","19","[""White""]","No","Female","2994270","null","null","","","","clear_screen","","","","","","","","","","","","","","","","","","","","","","","","","",""
"","","","","","canvas-keyboard-response","74","1158152","0.0-12.0-2.12","2d_cat_multi_stim_exp1","2022-5-3","15:4:24","25","75","3","9","10","40","30","120","83","19","[""White""]","No","Female","2994270","556","u","learn","","","learn_trial","26.6667","80","out","1","0","","","","","","","","","","","","","","","","","","","","",""
"","","","","","canvas-keyboard-response","75","1159163","0.0-12.0-3.12","2d_cat_multi_stim_exp1","2022-5-3","15:4:24","25","75","3","9","10","40","30","120","83","19","[""White""]","No","Female","2994270","null","null","learn_feedback","","","learn_feedback","26.6667","80","out","","","","","","","","","","","","","","","","","","","","","","",""
"","","","","","canvas-keyboard-response","76","1159222","0.0-12.0-4.12","2d_cat_multi_stim_exp1","2022-5-3","15:4:24","25","75","3","9","10","40","30","120","83","19","[""White""]","No","Female","2994270","null","null","","","","clear_screen","","","","","","","","","","","","","","","","","","","","","","","","","",""
"","","","","","canvas-keyboard-response","77","1159730","0.0-12.0-0.13","2d_cat_multi_stim_exp1","2022-5-3","15:4:24","25","75","3","9","10","40","30","120","83","19","[""White""]","No","Female","2994270","null","null","","","","fixation","","","","","","","","","","","","","","","","","","","","","","","","","",""
"","","","","","canvas-keyboard-response","78","1160240","0.0-12.0-1.13","2d_cat_multi_stim_exp1","2022-5-3","15:4:24","25","75","3","9","10","40","30","120","83","19","[""White""]","No","Female","2994270","null","null","","","","clear_screen","","","","","","","","","","","","","","","","","","","","","","","","","",""
"","","","","","canvas-keyboard-response","79","1160985","0.0-12.0-2.13","2d_cat_multi_stim_exp1","2022-5-3","15:4:24","25","75","3","9","10","40","30","120","83","19","[""White""]","No","Female","2994270","735","i","learn","","","learn_trial","23.3333","110","out","0","1","","","","","","","","","","","","","","","","","","","","",""
"","","","","","canvas-keyboard-response","80","1161494","0.0-12.0-3.13","2d_cat_multi_stim_exp1","2022-5-3","15:4:24","25","75","3","9","10","40","30","120","83","19","[""White""]","No","Female","2994270","null","null","learn_feedback","","","learn_feedback","23.3333","110","out","","","","","","","","","","","","","","","","","","","","","","",""
"","","","","","canvas-keyboard-response","81","1161553","0.0-12.0-4.13","2d_cat_multi_stim_exp1","2022-5-3","15:4:24","25","75","3","9","10","40","30","120","83","19","[""White""]","No","Female","2994270","null","null","","","","clear_screen","","","","","","","","","","","","","","","","","","","","","","","","","",""
"","","","","","canvas-keyboard-response","82","1162062","0.0-12.0-0.14","2d_cat_multi_stim_exp1","2022-5-3","15:4:24","25","75","3","9","10","40","30","120","83","19","[""White""]","No","Female","2994270","null","null","","","","fixation","","","","","","","","","","","","","","","","","","","","","","","","","",""
"","","","","","canvas-keyboard-response","83","1162571","0.0-12.0-1.14","2d_cat_multi_stim_exp1","2022-5-3","15:4:24","25","75","3","9","10","40","30","120","83","19","[""White""]","No","Female","2994270","null","null","","","","clear_screen","","","","","","","","","","","","","","","","","","","","","","","","","",""
"","","","","","canvas-keyboard-response","84","1163433","0.0-12.0-2.14","2d_cat_multi_stim_exp1","2022-5-3","15:4:24","25","75","3","9","10","40","30","120","83","19","[""White""]","No","Female","2994270","851","u","learn","","","learn_trial","23.3333","80","out","1","0","","","","","","","","","","","","","","","","","","","","",""
"","","","","","canvas-keyboard-response","85","1164442","0.0-12.0-3.14","2d_cat_multi_stim_exp1","2022-5-3","15:4:24","25","75","3","9","10","40","30","120","83","19","[""White""]","No","Female","2994270","null","null","learn_feedback","","","learn_feedback","23.3333","80","out","","","","","","","","","","","","","","","","","","","","","","",""
"","","","","","canvas-keyboard-response","86","1164501","0.0-12.0-4.14","2d_cat_multi_stim_exp1","2022-5-3","15:4:24","25","75","3","9","10","40","30","120","83","19","[""White""]","No","Female","2994270","null","null","","","","clear_screen","","","","","","","","","","","","","","","","","","","","","","","","","",""
"","","","","","canvas-keyboard-response","87","1165011","0.0-12.0-0.15","2d_cat_multi_stim_exp1","2022-5-3","15:4:24","25","75","3","9","10","40","30","120","83","19","[""White""]","No","Female","2994270","null","null","","","","fixation","","","","","","","","","","","","","","","","","","","","","","","","","",""
"","","","","","canvas-keyboard-response","88","1165523","0.0-12.0-1.15","2d_cat_multi_stim_exp1","2022-5-3","15:4:24","25","75","3","9","10","40","30","120","83","19","[""White""]","No","Female","2994270","null","null","","","","clear_screen","","","","","","","","","","","","","","","","","","","","","","","","","",""
"","","","","","canvas-keyboard-response","89","1167505","0.0-12.0-2.15","2d_cat_multi_stim_exp1","2022-5-3","15:4:24","25","75","3","9","10","40","30","120","83","19","[""White""]","No","Female","2994270","1972","u","learn","","","learn_trial","25","75","in","1","1","","","","","","","","","","","","","","","","","","","","",""
"","","","","","canvas-keyboard-response","90","1168015","0.0-12.0-3.15","2d_cat_multi_stim_exp1","2022-5-3","15:4:24","25","75","3","9","10","40","30","120","83","19","[""White""]","No","Female","2994270","null","null","learn_feedback","","","learn_feedback","25","75","in","","","","","","","","","","","","","","","","","","","","","","",""
"","","","","","canvas-keyboard-response","91","1168073","0.0-12.0-4.15","2d_cat_multi_stim_exp1","2022-5-3","15:4:24","25","75","3","9","10","40","30","120","83","19","[""White""]","No","Female","2994270","null","null","","","","clear_screen","","","","","","","","","","","","","","","","","","","","","","","","","",""
"","","","","","canvas-keyboard-response","92","1168583","0.0-12.0-0.16","2d_cat_multi_stim_exp1","2022-5-3","15:4:24","25","75","3","9","10","40","30","120","83","19","[""White""]","No","Female","2994270","null","null","","","","fixation","","","","","","","","","","","","","","","","","","","","","","","","","",""
"","","","","","canvas-keyboard-response","93","1169093","0.0-12.0-1.16","2d_cat_multi_stim_exp1","2022-5-3","15:4:24","25","75","3","9","10","40","30","120","83","19","[""White""]","No","Female","2994270","null","null","","","","clear_screen","","","","","","","","","","","","","","","","","","","","","","","","","",""
"","","","","","canvas-keyboard-response","94","1170248","0.0-12.0-2.16","2d_cat_multi_stim_exp1","2022-5-3","15:4:24","25","75","3","9","10","40","30","120","83","19","[""White""]","No","Female","2994270","1147","u","learn","","","learn_trial","25","75","in","1","1","","","","","","","","","","","","","","","","","","","","",""
"","","","","","canvas-keyboard-response","95","1170758","0.0-12.0-3.16","2d_cat_multi_stim_exp1","2022-5-3","15:4:24","25","75","3","9","10","40","30","120","83","19","[""White""]","No","Female","2994270","null","null","learn_feedback","","","learn_feedback","25","75","in","","","","","","","","","","","","","","","","","","","","","","",""
"","","","","","canvas-keyboard-response","96","1170817","0.0-12.0-4.16","2d_cat_multi_stim_exp1","2022-5-3","15:4:24","25","75","3","9","10","40","30","120","83","19","[""White""]","No","Female","2994270","null","null","","","","clear_screen","","","","","","","","","","","","","","","","","","","","","","","","","",""
"","","","","","canvas-keyboard-response","97","1171326","0.0-12.0-0.17","2d_cat_multi_stim_exp1","2022-5-3","15:4:24","25","75","3","9","10","40","30","120","83","19","[""White""]","No","Female","2994270","null","null","","","","fixation","","","","","","","","","","","","","","","","","","","","","","","","","",""
"","","","","","canvas-keyboard-response","98","1171835","0.0-12.0-1.17","2d_cat_multi_stim_exp1","2022-5-3","15:4:24","25","75","3","9","10","40","30","120","83","19","[""White""]","No","Female","2994270","null","null","","","","clear_screen","","","","","","","","","","","","","","","","","","","","","","","","","",""
"","","","","","canvas-keyboard-response","99","1194938","0.0-12.0-2.17","2d_cat_multi_stim_exp1","2022-5-3","15:4:24","25","75","3","9","10","40","30","120","83","19","[""White""]","No","Female","2994270","23090","i","learn","","","learn_trial","36.6667","70","out","0","1","","","","","","","","","","","","","","","","","","","","",""
"","","","","","canvas-keyboard-response","100","1195451","0.0-12.0-3.17","2d_cat_multi_stim_exp1","2022-5-3","15:4:24","25","75","3","9","10","40","30","120","83","19","[""White""]","No","Female","2994270","null","null","learn_feedback","","","learn_feedback","36.6667","70","out","","","","","","","","","","","","","","","","","","","","","","",""
"","","","","","canvas-keyboard-response","101","1195511","0.0-12.0-4.17","2d_cat_multi_stim_exp1","2022-5-3","15:4:24","25","75","3","9","10","40","30","120","83","19","[""White""]","No","Female","2994270","null","null","","","","clear_screen","","","","","","","","","","","","","","","","","","","","","","","","","",""
"","","","","","canvas-keyboard-response","102","1196022","0.0-12.0-0.18","2d_cat_multi_stim_exp1","2022-5-3","15:4:24","25","75","3","9","10","40","30","120","83","19","[""White""]","No","Female","2994270","null","null","","","","fixation","","","","","","","","","","","","","","","","","","","","","","","","","",""
"","","","","","canvas-keyboard-response","103","1196533","0.0-12.0-1.18","2d_cat_multi_stim_exp1","2022-5-3","15:4:24","25","75","3","9","10","40","30","120","83","19","[""White""]","No","Female","2994270","null","null","","","","clear_screen","","","","","","","","","","","","","","","","","","","","","","","","","",""
"","","","","","canvas-keyboard-response","104","1207392","0.0-12.0-2.18","2d_cat_multi_stim_exp1","2022-5-3","15:4:24","25","75","3","9","10","40","30","120","83","19","[""White""]","No","Female","2994270","10849","u","learn","","","learn_trial","22.5729","80.2901","in","1","1","","","","","","","","","","","","","","","","","","","","",""
"","","","","","canvas-keyboard-response","105","1207903","0.0-12.0-3.18","2d_cat_multi_stim_exp1","2022-5-3","15:4:24","25","75","3","9","10","40","30","120","83","19","[""White""]","No","Female","2994270","null","null","learn_feedback","","","learn_feedback","22.5729","80.2901","in","","","","","","","","","","","","","","","","","","","","","","",""
"","","","","","canvas-keyboard-response","106","1207962","0.0-12.0-4.18","2d_cat_multi_stim_exp1","2022-5-3","15:4:24","25","75","3","9","10","40","30","120","83","19","[""White""]","No","Female","2994270","null","null","","","","clear_screen","","","","","","","","","","","","","","","","","","","","","","","","","",""
"","","","","","canvas-keyboard-response","107","1208472","0.0-12.0-0.19","2d_cat_multi_stim_exp1","2022-5-3","15:4:24","25","75","3","9","10","40","30","120","83","19","[""White""]","No","Female","2994270","null","null","","","","fixation","","","","","","","","","","","","","","","","","","","","","","","","","",""
"","","","","","canvas-keyboard-response","108","1208981","0.0-12.0-1.19","2d_cat_multi_stim_exp1","2022-5-3","15:4:24","25","75","3","9","10","40","30","120","83","19","[""White""]","No","Female","2994270","null","null","","","","clear_screen","","","","","","","","","","","","","","","","","","","","","","","","","",""
"","","","","","canvas-keyboard-response","109","1209657","0.0-12.0-2.19","2d_cat_multi_stim_exp1","2022-5-3","15:4:24","25","75","3","9","10","40","30","120","83","19","[""White""]","No","Female","2994270","664","i","learn","","","learn_trial","19","75","in","0","0","","","","","","","","","","","","","","","","","","","","",""
"","","","","","canvas-keyboard-response","110","1210668","0.0-12.0-3.19","2d_cat_multi_stim_exp1","2022-5-3","15:4:24","25","75","3","9","10","40","30","120","83","19","[""White""]","No","Female","2994270","null","null","learn_feedback","","","learn_feedback","19","75","in","","","","","","","","","","","","","","","","","","","","","","",""
"","","","","","canvas-keyboard-response","111","1210727","0.0-12.0-4.19","2d_cat_multi_stim_exp1","2022-5-3","15:4:24","25","75","3","9","10","40","30","120","83","19","[""White""]","No","Female","2994270","null","null","","","","clear_screen","","","","","","","","","","","","","","","","","","","","","","","","","",""
"","","","","","canvas-keyboard-response","112","1211236","0.0-12.0-0.20","2d_cat_multi_stim_exp1","2022-5-3","15:4:24","25","75","3","9","10","40","30","120","83","19","[""White""]","No","Female","2994270","null","null","","","","fixation","","","","","","","","","","","","","","","","","","","","","","","","","",""
"","","","","","canvas-keyboard-response","113","1211746","0.0-12.0-1.20","2d_cat_multi_stim_exp1","2022-5-3","15:4:24","25","75","3","9","10","40","30","120","83","19","[""White""]","No","Female","2994270","null","null","","","","clear_screen","","","","","","","","","","","","","","","","","","","","","","","","","",""
"","","","","","canvas-keyboard-response","114","1213130","0.0-12.0-2.20","2d_cat_multi_stim_exp1","2022-5-3","15:4:24","25","75","3","9","10","40","30","120","83","19","[""White""]","No","Female","2994270","1374","u","learn","","","learn_trial","33.3333","30","out","1","0","","","","","","","","","","","","","","","","","","","","",""
"","","","","","canvas-keyboard-response","115","1214139","0.0-12.0-3.20","2d_cat_multi_stim_exp1","2022-5-3","15:4:24","25","75","3","9","10","40","30","120","83","19","[""White""]","No","Female","2994270","null","null","learn_feedback","","","learn_feedback","33.3333","30","out","","","","","","","","","","","","","","","","","","","","","","",""
"","","","","","canvas-keyboard-response","116","1214198","0.0-12.0-4.20","2d_cat_multi_stim_exp1","2022-5-3","15:4:24","25","75","3","9","10","40","30","120","83","19","[""White""]","No","Female","2994270","null","null","","","","clear_screen","","","","","","","","","","","","","","","","","","","","","","","","","",""
"","","","","","canvas-keyboard-response","117","1214707","0.0-12.0-0.21","2d_cat_multi_stim_exp1","2022-5-3","15:4:24","25","75","3","9","10","40","30","120","83","19","[""White""]","No","Female","2994270","null","null","","","","fixation","","","","","","","","","","","","","","","","","","","","","","","","","",""
"","","","","","canvas-keyboard-response","118","1215216","0.0-12.0-1.21","2d_cat_multi_stim_exp1","2022-5-3","15:4:24","25","75","3","9","10","40","30","120","83","19","[""White""]","No","Female","2994270","null","null","","","","clear_screen","","","","","","","","","","","","","","","","","","","","","","","","","",""
"","","","","","canvas-keyboard-response","119","1216400","0.0-12.0-2.21","2d_cat_multi_stim_exp1","2022-5-3","15:4:24","25","75","3","9","10","40","30","120","83","19","[""White""]","No","Female","2994270","1175","u","learn","","","learn_trial","24.3324","83.7744","in","1","1","","","","","","","","","","","","","","","","","","","","",""
"","","","","","canvas-keyboard-response","120","1216910","0.0-12.0-3.21","2d_cat_multi_stim_exp1","2022-5-3","15:4:24","25","75","3","9","10","40","30","120","83","19","[""White""]","No","Female","2994270","null","null","learn_feedback","","","learn_feedback","24.3324","83.7744","in","","","","","","","","","","","","","","","","","","","","","","",""
"","","","","","canvas-keyboard-response","121","1216969","0.0-12.0-4.21","2d_cat_multi_stim_exp1","2022-5-3","15:4:24","25","75","3","9","10","40","30","120","83","19","[""White""]","No","Female","2994270","null","null","","","","clear_screen","","","","","","","","","","","","","","","","","","","","","","","","","",""
"","","","","","canvas-keyboard-response","122","1217478","0.0-12.0-0.22","2d_cat_multi_stim_exp1","2022-5-3","15:4:24","25","75","3","9","10","40","30","120","83","19","[""White""]","No","Female","2994270","null","null","","","","fixation","","","","","","","","","","","","","","","","","","","","","","","","","",""
"","","","","","canvas-keyboard-response","123","1217988","0.0-12.0-1.22","2d_cat_multi_stim_exp1","2022-5-3","15:4:24","25","75","3","9","10","40","30","120","83","19","[""White""]","No","Female","2994270","null","null","","","","clear_screen","","","","","","","","","","","","","","","","","","","","","","","","","",""
"","","","","","canvas-keyboard-response","124","1221736","0.0-12.0-2.22","2d_cat_multi_stim_exp1","2022-5-3","15:4:24","25","75","3","9","10","40","30","120","83","19","[""White""]","No","Female","2994270","3739","u","learn","","","learn_trial","25","75","in","1","1","","","","","","","","","","","","","","","","","","","","",""
"","","","","","canvas-keyboard-response","125","1222245","0.0-12.0-3.22","2d_cat_multi_stim_exp1","2022-5-3","15:4:24","25","75","3","9","10","40","30","120","83","19","[""White""]","No","Female","2994270","null","null","learn_feedback","","","learn_feedback","25","75","in","","","","","","","","","","","","","","","","","","","","","","",""
"","","","","","canvas-keyboard-response","126","1222305","0.0-12.0-4.22","2d_cat_multi_stim_exp1","2022-5-3","15:4:24","25","75","3","9","10","40","30","120","83","19","[""White""]","No","Female","2994270","null","null","","","","clear_screen","","","","","","","","","","","","","","","","","","","","","","","","","",""
"","","","","","canvas-keyboard-response","127","1222813","0.0-12.0-0.23","2d_cat_multi_stim_exp1","2022-5-3","15:4:24","25","75","3","9","10","40","30","120","83","19","[""White""]","No","Female","2994270","null","null","","","","fixation","","","","","","","","","","","","","","","","","","","","","","","","","",""
"","","","","","canvas-keyboard-response","128","1223323","0.0-12.0-1.23","2d_cat_multi_stim_exp1","2022-5-3","15:4:24","25","75","3","9","10","40","30","120","83","19","[""White""]","No","Female","2994270","null","null","","","","clear_screen","","","","","","","","","","","","","","","","","","","","","","","","","",""
"","","","","","canvas-keyboard-response","129","1226296","0.0-12.0-2.23","2d_cat_multi_stim_exp1","2022-5-3","15:4:24","25","75","3","9","10","40","30","120","83","19","[""White""]","No","Female","2994270","2963","u","learn","","","learn_trial","26.8705","82.0365","in","1","1","","","","","","","","","","","","","","","","","","","","",""
"","","","","","canvas-keyboard-response","130","1226806","0.0-12.0-3.23","2d_cat_multi_stim_exp1","2022-5-3","15:4:24","25","75","3","9","10","40","30","120","83","19","[""White""]","No","Female","2994270","null","null","learn_feedback","","","learn_feedback","26.8705","82.0365","in","","","","","","","","","","","","","","","","","","","","","","",""
"","","","","","canvas-keyboard-response","131","1226866","0.0-12.0-4.23","2d_cat_multi_stim_exp1","2022-5-3","15:4:24","25","75","3","9","10","40","30","120","83","19","[""White""]","No","Female","2994270","null","null","","","","clear_screen","","","","","","","","","","","","","","","","","","","","","","","","","",""
"","","","","","canvas-keyboard-response","132","1227374","0.0-12.0-0.24","2d_cat_multi_stim_exp1","2022-5-3","15:4:24","25","75","3","9","10","40","30","120","83","19","[""White""]","No","Female","2994270","null","null","","","","fixation","","","","","","","","","","","","","","","","","","","","","","","","","",""
"","","","","","canvas-keyboard-response","133","1227884","0.0-12.0-1.24","2d_cat_multi_stim_exp1","2022-5-3","15:4:24","25","75","3","9","10","40","30","120","83","19","[""White""]","No","Female","2994270","null","null","","","","clear_screen","","","","","","","","","","","","","","","","","","","","","","","","","",""
"","","","","","canvas-keyboard-response","134","1229568","0.0-12.0-2.24","2d_cat_multi_stim_exp1","2022-5-3","15:4:24","25","75","3","9","10","40","30","120","83","19","[""White""]","No","Female","2994270","1674","i","learn","","","learn_trial","20","40","out","0","1","","","","","","","","","","","","","","","","","","","","",""
"","","","","","canvas-keyboard-response","135","1230079","0.0-12.0-3.24","2d_cat_multi_stim_exp1","2022-5-3","15:4:24","25","75","3","9","10","40","30","120","83","19","[""White""]","No","Female","2994270","null","null","learn_feedback","","","learn_feedback","20","40","out","","","","","","","","","","","","","","","","","","","","","","",""
"","","","","","canvas-keyboard-response","136","1230137","0.0-12.0-4.24","2d_cat_multi_stim_exp1","2022-5-3","15:4:24","25","75","3","9","10","40","30","120","83","19","[""White""]","No","Female","2994270","null","null","","","","clear_screen","","","","","","","","","","","","","","","","","","","","","","","","","",""
"","","","","","canvas-keyboard-response","137","1230647","0.0-12.0-0.25","2d_cat_multi_stim_exp1","2022-5-3","15:4:24","25","75","3","9","10","40","30","120","83","19","[""White""]","No","Female","2994270","null","null","","","","fixation","","","","","","","","","","","","","","","","","","","","","","","","","",""
"","","","","","canvas-keyboard-response","138","1231159","0.0-12.0-1.25","2d_cat_multi_stim_exp1","2022-5-3","15:4:24","25","75","3","9","10","40","30","120","83","19","[""White""]","No","Female","2994270","null","null","","","","clear_screen","","","","","","","","","","","","","","","","","","","","","","","","","",""
"","","","","","canvas-keyboard-response","139","1231912","0.0-12.0-2.25","2d_cat_multi_stim_exp1","2022-5-3","15:4:24","25","75","3","9","10","40","30","120","83","19","[""White""]","No","Female","2994270","744","u","learn","","","learn_trial","22.9268","68.4948","in","1","1","","","","","","","","","","","","","","","","","","","","",""
"","","","","","canvas-keyboard-response","140","1232422","0.0-12.0-3.25","2d_cat_multi_stim_exp1","2022-5-3","15:4:24","25","75","3","9","10","40","30","120","83","19","[""White""]","No","Female","2994270","null","null","learn_feedback","","","learn_feedback","22.9268","68.4948","in","","","","","","","","","","","","","","","","","","","","","","",""
"","","","","","canvas-keyboard-response","141","1232481","0.0-12.0-4.25","2d_cat_multi_stim_exp1","2022-5-3","15:4:24","25","75","3","9","10","40","30","120","83","19","[""White""]","No","Female","2994270","null","null","","","","clear_screen","","","","","","","","","","","","","","","","","","","","","","","","","",""
"","","","","","canvas-keyboard-response","142","1232990","0.0-12.0-0.26","2d_cat_multi_stim_exp1","2022-5-3","15:4:24","25","75","3","9","10","40","30","120","83","19","[""White""]","No","Female","2994270","null","null","","","","fixation","","","","","","","","","","","","","","","","","","","","","","","","","",""
"","","","","","canvas-keyboard-response","143","1233499","0.0-12.0-1.26","2d_cat_multi_stim_exp1","2022-5-3","15:4:24","25","75","3","9","10","40","30","120","83","19","[""White""]","No","Female","2994270","null","null","","","","clear_screen","","","","","","","","","","","","","","","","","","","","","","","","","",""
"","","","","","canvas-keyboard-response","144","1312161","0.0-12.0-2.26","2d_cat_multi_stim_exp1","2022-5-3","15:4:24","25","75","3","9","10","40","30","120","83","19","[""White""]","No","Female","2994270","78651","i","learn","","","learn_trial","10","40","out","0","1","","","","","","","","","","","","","","","","","","","","",""
"","","","","","canvas-keyboard-response","145","1312673","0.0-12.0-3.26","2d_cat_multi_stim_exp1","2022-5-3","15:4:24","25","75","3","9","10","40","30","120","83","19","[""White""]","No","Female","2994270","null","null","learn_feedback","","","learn_feedback","10","40","out","","","","","","","","","","","","","","","","","","","","","","",""
"","","","","","canvas-keyboard-response","146","1312733","0.0-12.0-4.26","2d_cat_multi_stim_exp1","2022-5-3","15:4:24","25","75","3","9","10","40","30","120","83","19","[""White""]","No","Female","2994270","null","null","","","","clear_screen","","","","","","","","","","","","","","","","","","","","","","","","","",""
"","","","","","canvas-keyboard-response","147","1313244","0.0-12.0-0.27","2d_cat_multi_stim_exp1","2022-5-3","15:4:24","25","75","3","9","10","40","30","120","83","19","[""White""]","No","Female","2994270","null","null","","","","fixation","","","","","","","","","","","","","","","","","","","","","","","","","",""
"","","","","","canvas-keyboard-response","148","1313755","0.0-12.0-1.27","2d_cat_multi_stim_exp1","2022-5-3","15:4:24","25","75","3","9","10","40","30","120","83","19","[""White""]","No","Female","2994270","null","null","","","","clear_screen","","","","","","","","","","","","","","","","","","","","","","","","","",""
"","","","","","canvas-keyboard-response","149","1314584","0.0-12.0-2.27","2d_cat_multi_stim_exp1","2022-5-3","15:4:24","25","75","3","9","10","40","30","120","83","19","[""White""]","No","Female","2994270","819","u","learn","","","learn_trial","23.3473","82.5112","in","1","1","","","","","","","","","","","","","","","","","","","","",""
"","","","","","canvas-keyboard-response","150","1315096","0.0-12.0-3.27","2d_cat_multi_stim_exp1","2022-5-3","15:4:24","25","75","3","9","10","40","30","120","83","19","[""White""]","No","Female","2994270","null","null","learn_feedback","","","learn_feedback","23.3473","82.5112","in","","","","","","","","","","","","","","","","","","","","","","",""
"","","","","","canvas-keyboard-response","151","1315156","0.0-12.0-4.27","2d_cat_multi_stim_exp1","2022-5-3","15:4:24","25","75","3","9","10","40","30","120","83","19","[""White""]","No","Female","2994270","null","null","","","","clear_screen","","","","","","","","","","","","","","","","","","","","","","","","","",""
"","","","","","canvas-keyboard-response","152","1315668","0.0-12.0-0.28","2d_cat_multi_stim_exp1","2022-5-3","15:4:24","25","75","3","9","10","40","30","120","83","19","[""White""]","No","Female","2994270","null","null","","","","fixation","","","","","","","","","","","","","","","","","","","","","","","","","",""
"","","","","","canvas-keyboard-response","153","1316180","0.0-12.0-1.28","2d_cat_multi_stim_exp1","2022-5-3","15:4:24","25","75","3","9","10","40","30","120","83","19","[""White""]","No","Female","2994270","null","null","","","","clear_screen","","","","","","","","","","","","","","","","","","","","","","","","","",""
"","","","","","canvas-keyboard-response","154","1317304","0.0-12.0-2.28","2d_cat_multi_stim_exp1","2022-5-3","15:4:24","25","75","3","9","10","40","30","120","83","19","[""White""]","No","Female","2994270","1112","u","learn","","","learn_trial","22.0121","75.8068","in","1","1","","","","","","","","","","","","","","","","","","","","",""
"","","","","","canvas-keyboard-response","155","1317814","0.0-12.0-3.28","2d_cat_multi_stim_exp1","2022-5-3","15:4:24","25","75","3","9","10","40","30","120","83","19","[""White""]","No","Female","2994270","null","null","learn_feedback","","","learn_feedback","22.0121","75.8068","in","","","","","","","","","","","","","","","","","","","","","","",""
"","","","","","canvas-keyboard-response","156","1317874","0.0-12.0-4.28","2d_cat_multi_stim_exp1","2022-5-3","15:4:24","25","75","3","9","10","40","30","120","83","19","[""White""]","No","Female","2994270","null","null","","","","clear_screen","","","","","","","","","","","","","","","","","","","","","","","","","",""
"","","","","","canvas-keyboard-response","157","1318384","0.0-12.0-0.29","2d_cat_multi_stim_exp1","2022-5-3","15:4:24","25","75","3","9","10","40","30","120","83","19","[""White""]","No","Female","2994270","null","null","","","","fixation","","","","","","","","","","","","","","","","","","","","","","","","","",""
"","","","","","canvas-keyboard-response","158","1318894","0.0-12.0-1.29","2d_cat_multi_stim_exp1","2022-5-3","15:4:24","25","75","3","9","10","40","30","120","83","19","[""White""]","No","Female","2994270","null","null","","","","clear_screen","","","","","","","","","","","","","","","","","","","","","","","","","",""
"","","","","","canvas-keyboard-response","159","1319872","0.0-12.0-2.29","2d_cat_multi_stim_exp1","2022-5-3","15:4:24","25","75","3","9","10","40","30","120","83","19","[""White""]","No","Female","2994270","968","i","learn","","","learn_trial","27.9518","73.393","in","0","0","","","","","","","","","","","","","","","","","","","","",""
"","","","","","canvas-keyboard-response","160","1320883","0.0-12.0-3.29","2d_cat_multi_stim_exp1","2022-5-3","15:4:24","25","75","3","9","10","40","30","120","83","19","[""White""]","No","Female","2994270","null","null","learn_feedback","","","learn_feedback","27.9518","73.393","in","","","","","","","","","","","","","","","","","","","","","","",""
"","","","","","canvas-keyboard-response","161","1320942","0.0-12.0-4.29","2d_cat_multi_stim_exp1","2022-5-3","15:4:24","25","75","3","9","10","40","30","120","83","19","[""White""]","No","Female","2994270","null","null","","","","clear_screen","","","","","","","","","","","","","","","","","","","","","","","","","",""
"","","","","","canvas-keyboard-response","162","1321450","0.0-12.0-0.30","2d_cat_multi_stim_exp1","2022-5-3","15:4:24","25","75","3","9","10","40","30","120","83","19","[""White""]","No","Female","2994270","null","null","","","","fixation","","","","","","","","","","","","","","","","","","","","","","","","","",""
"","","","","","canvas-keyboard-response","163","1321961","0.0-12.0-1.30","2d_cat_multi_stim_exp1","2022-5-3","15:4:24","25","75","3","9","10","40","30","120","83","19","[""White""]","No","Female","2994270","null","null","","","","clear_screen","","","","","","","","","","","","","","","","","","","","","","","","","",""
"","","","","","canvas-keyboard-response","164","1322504","0.0-12.0-2.30","2d_cat_multi_stim_exp1","2022-5-3","15:4:24","25","75","3","9","10","40","30","120","83","19","[""White""]","No","Female","2994270","533","u","learn","","","learn_trial","23.3333","90","out","1","0","","","","","","","","","","","","","","","","","","","","",""
"","","","","","canvas-keyboard-response","165","1323513","0.0-12.0-3.30","2d_cat_multi_stim_exp1","2022-5-3","15:4:24","25","75","3","9","10","40","30","120","83","19","[""White""]","No","Female","2994270","null","null","learn_feedback","","","learn_feedback","23.3333","90","out","","","","","","","","","","","","","","","","","","","","","","",""
"","","","","","canvas-keyboard-response","166","1323573","0.0-12.0-4.30","2d_cat_multi_stim_exp1","2022-5-3","15:4:24","25","75","3","9","10","40","30","120","83","19","[""White""]","No","Female","2994270","null","null","","","","clear_screen","","","","","","","","","","","","","","","","","","","","","","","","","",""
"","","","","","canvas-keyboard-response","167","1324081","0.0-12.0-0.31","2d_cat_multi_stim_exp1","2022-5-3","15:4:24","25","75","3","9","10","40","30","120","83","19","[""White""]","No","Female","2994270","null","null","","","","fixation","","","","","","","","","","","","","","","","","","","","","","","","","",""
"","","","","","canvas-keyboard-response","168","1324592","0.0-12.0-1.31","2d_cat_multi_stim_exp1","2022-5-3","15:4:24","25","75","3","9","10","40","30","120","83","19","[""White""]","No","Female","2994270","null","null","","","","clear_screen","","","","","","","","","","","","","","","","","","","","","","","","","",""
"","","","","","canvas-keyboard-response","169","1325224","0.0-12.0-2.31","2d_cat_multi_stim_exp1","2022-5-3","15:4:24","25","75","3","9","10","40","30","120","83","19","[""White""]","No","Female","2994270","622","u","learn","","","learn_trial","16.6667","80","out","1","0","","","","","","","","","","","","","","","","","","","","",""
"","","","","","canvas-keyboard-response","170","1326234","0.0-12.0-3.31","2d_cat_multi_stim_exp1","2022-5-3","15:4:24","25","75","3","9","10","40","30","120","83","19","[""White""]","No","Female","2994270","null","null","learn_feedback","","","learn_feedback","16.6667","80","out","","","","","","","","","","","","","","","","","","","","","","",""
"","","","","","canvas-keyboard-response","171","1326293","0.0-12.0-4.31","2d_cat_multi_stim_exp1","2022-5-3","15:4:24","25","75","3","9","10","40","30","120","83","19","[""White""]","No","Female","2994270","null","null","","","","clear_screen","","","","","","","","","","","","","","","","","","","","","","","","","",""
"","","","","","canvas-keyboard-response","172","1326802","0.0-12.0-0.32","2d_cat_multi_stim_exp1","2022-5-3","15:4:24","25","75","3","9","10","40","30","120","83","19","[""White""]","No","Female","2994270","null","null","","","","fixation","","","","","","","","","","","","","","","","","","","","","","","","","",""
"","","","","","canvas-keyboard-response","173","1327311","0.0-12.0-1.32","2d_cat_multi_stim_exp1","2022-5-3","15:4:24","25","75","3","9","10","40","30","120","83","19","[""White""]","No","Female","2994270","null","null","","","","clear_screen","","","","","","","","","","","","","","","","","","","","","","","","","",""
"","","","","","canvas-keyboard-response","174","1327951","0.0-12.0-2.32","2d_cat_multi_stim_exp1","2022-5-3","15:4:24","25","75","3","9","10","40","30","120","83","19","[""White""]","No","Female","2994270","630","i","learn","","","learn_trial","13.3333","50","out","0","1","","","","","","","","","","","","","","","","","","","","",""
"","","","","","canvas-keyboard-response","175","1328461","0.0-12.0-3.32","2d_cat_multi_stim_exp1","2022-5-3","15:4:24","25","75","3","9","10","40","30","120","83","19","[""White""]","No","Female","2994270","null","null","learn_feedback","","","learn_feedback","13.3333","50","out","","","","","","","","","","","","","","","","","","","","","","",""
"","","","","","canvas-keyboard-response","176","1328521","0.0-12.0-4.32","2d_cat_multi_stim_exp1","2022-5-3","15:4:24","25","75","3","9","10","40","30","120","83","19","[""White""]","No","Female","2994270","null","null","","","","clear_screen","","","","","","","","","","","","","","","","","","","","","","","","","",""
"","","","","","canvas-keyboard-response","177","1329029","0.0-12.0-0.33","2d_cat_multi_stim_exp1","2022-5-3","15:4:24","25","75","3","9","10","40","30","120","83","19","[""White""]","No","Female","2994270","null","null","","","","fixation","","","","","","","","","","","","","","","","","","","","","","","","","",""
"","","","","","canvas-keyboard-response","178","1329539","0.0-12.0-1.33","2d_cat_multi_stim_exp1","2022-5-3","15:4:24","25","75","3","9","10","40","30","120","83","19","[""White""]","No","Female","2994270","null","null","","","","clear_screen","","","","","","","","","","","","","","","","","","","","","","","","","",""
"","","","","","canvas-keyboard-response","179","1330256","0.0-12.0-2.33","2d_cat_multi_stim_exp1","2022-5-3","15:4:24","25","75","3","9","10","40","30","120","83","19","[""White""]","No","Female","2994270","708","u","learn","","","learn_trial","25","75","in","1","1","","","","","","","","","","","","","","","","","","","","",""
"","","","","","canvas-keyboard-response","180","1330766","0.0-12.0-3.33","2d_cat_multi_stim_exp1","2022-5-3","15:4:24","25","75","3","9","10","40","30","120","83","19","[""White""]","No","Female","2994270","null","null","learn_feedback","","","learn_feedback","25","75","in","","","","","","","","","","","","","","","","","","","","","","",""
"","","","","","canvas-keyboard-response","181","1330825","0.0-12.0-4.33","2d_cat_multi_stim_exp1","2022-5-3","15:4:24","25","75","3","9","10","40","30","120","83","19","[""White""]","No","Female","2994270","null","null","","","","clear_screen","","","","","","","","","","","","","","","","","","","","","","","","","",""
"","","","","","canvas-keyboard-response","182","1331334","0.0-12.0-0.34","2d_cat_multi_stim_exp1","2022-5-3","15:4:24","25","75","3","9","10","40","30","120","83","19","[""White""]","No","Female","2994270","null","null","","","","fixation","","","","","","","","","","","","","","","","","","","","","","","","","",""
"","","","","","canvas-keyboard-response","183","1331844","0.0-12.0-1.34","2d_cat_multi_stim_exp1","2022-5-3","15:4:24","25","75","3","9","10","40","30","120","83","19","[""White""]","No","Female","2994270","null","null","","","","clear_screen","","","","","","","","","","","","","","","","","","","","","","","","","",""
"","","","","","canvas-keyboard-response","184","1332392","0.0-12.0-2.34","2d_cat_multi_stim_exp1","2022-5-3","15:4:24","25","75","3","9","10","40","30","120","83","19","[""White""]","No","Female","2994270","537","u","learn","","","learn_trial","25","75","in","1","1","","","","","","","","","","","","","","","","","","","","",""
"","","","","","canvas-keyboard-response","185","1332902","0.0-12.0-3.34","2d_cat_multi_stim_exp1","2022-5-3","15:4:24","25","75","3","9","10","40","30","120","83","19","[""White""]","No","Female","2994270","null","null","learn_feedback","","","learn_feedback","25","75","in","","","","","","","","","","","","","","","","","","","","","","",""
"","","","","","canvas-keyboard-response","186","1332961","0.0-12.0-4.34","2d_cat_multi_stim_exp1","2022-5-3","15:4:24","25","75","3","9","10","40","30","120","83","19","[""White""]","No","Female","2994270","null","null","","","","clear_screen","","","","","","","","","","","","","","","","","","","","","","","","","",""
"","","","","","canvas-keyboard-response","187","1333470","0.0-12.0-0.35","2d_cat_multi_stim_exp1","2022-5-3","15:4:24","25","75","3","9","10","40","30","120","83","19","[""White""]","No","Female","2994270","null","null","","","","fixation","","","","","","","","","","","","","","","","","","","","","","","","","",""
"","","","","","canvas-keyboard-response","188","1333979","0.0-12.0-1.35","2d_cat_multi_stim_exp1","2022-5-3","15:4:24","25","75","3","9","10","40","30","120","83","19","[""White""]","No","Female","2994270","null","null","","","","clear_screen","","","","","","","","","","","","","","","","","","","","","","","","","",""
"","","","","","canvas-keyboard-response","189","1334535","0.0-12.0-2.35","2d_cat_multi_stim_exp1","2022-5-3","15:4:24","25","75","3","9","10","40","30","120","83","19","[""White""]","No","Female","2994270","546","u","learn","","","learn_trial","25","75","in","1","1","","","","","","","","","","","","","","","","","","","","",""
"","","","","","canvas-keyboard-response","190","1335046","0.0-12.0-3.35","2d_cat_multi_stim_exp1","2022-5-3","15:4:24","25","75","3","9","10","40","30","120","83","19","[""White""]","No","Female","2994270","null","null","learn_feedback","","","learn_feedback","25","75","in","","","","","","","","","","","","","","","","","","","","","","",""
"","","","","","canvas-keyboard-response","191","1335104","0.0-12.0-4.35","2d_cat_multi_stim_exp1","2022-5-3","15:4:24","25","75","3","9","10","40","30","120","83","19","[""White""]","No","Female","2994270","null","null","","","","clear_screen","","","","","","","","","","","","","","","","","","","","","","","","","",""
"","","","","","canvas-keyboard-response","192","1335613","0.0-12.0-0.36","2d_cat_multi_stim_exp1","2022-5-3","15:4:24","25","75","3","9","10","40","30","120","83","19","[""White""]","No","Female","2994270","null","null","","","","fixation","","","","","","","","","","","","","","","","","","","","","","","","","",""
"","","","","","canvas-keyboard-response","193","1336122","0.0-12.0-1.36","2d_cat_multi_stim_exp1","2022-5-3","15:4:24","25","75","3","9","10","40","30","120","83","19","[""White""]","No","Female","2994270","null","null","","","","clear_screen","","","","","","","","","","","","","","","","","","","","","","","","","",""
"","","","","","canvas-keyboard-response","194","1336784","0.0-12.0-2.36","2d_cat_multi_stim_exp1","2022-5-3","15:4:24","25","75","3","9","10","40","30","120","83","19","[""White""]","No","Female","2994270","651","u","learn","","","learn_trial","27.5753","79.6161","in","1","1","","","","","","","","","","","","","","","","","","","","",""
"","","","","","canvas-keyboard-response","195","1337293","0.0-12.0-3.36","2d_cat_multi_stim_exp1","2022-5-3","15:4:24","25","75","3","9","10","40","30","120","83","19","[""White""]","No","Female","2994270","null","null","learn_feedback","","","learn_feedback","27.5753","79.6161","in","","","","","","","","","","","","","","","","","","","","","","",""
"","","","","","canvas-keyboard-response","196","1337351","0.0-12.0-4.36","2d_cat_multi_stim_exp1","2022-5-3","15:4:24","25","75","3","9","10","40","30","120","83","19","[""White""]","No","Female","2994270","null","null","","","","clear_screen","","","","","","","","","","","","","","","","","","","","","","","","","",""
"","","","","","canvas-keyboard-response","197","1337861","0.0-12.0-0.37","2d_cat_multi_stim_exp1","2022-5-3","15:4:24","25","75","3","9","10","40","30","120","83","19","[""White""]","No","Female","2994270","null","null","","","","fixation","","","","","","","","","","","","","","","","","","","","","","","","","",""
"","","","","","canvas-keyboard-response","198","1338371","0.0-12.0-1.37","2d_cat_multi_stim_exp1","2022-5-3","15:4:24","25","75","3","9","10","40","30","120","83","19","[""White""]","No","Female","2994270","null","null","","","","clear_screen","","","","","","","","","","","","","","","","","","","","","","","","","",""
"","","","","","canvas-keyboard-response","199","1339000","0.0-12.0-2.37","2d_cat_multi_stim_exp1","2022-5-3","15:4:24","25","75","3","9","10","40","30","120","83","19","[""White""]","No","Female","2994270","618","u","learn","","","learn_trial","25","75","in","1","1","","","","","","","","","","","","","","","","","","","","",""
"","","","","","canvas-keyboard-response","200","1339510","0.0-12.0-3.37","2d_cat_multi_stim_exp1","2022-5-3","15:4:24","25","75","3","9","10","40","30","120","83","19","[""White""]","No","Female","2994270","null","null","learn_feedback","","","learn_feedback","25","75","in","","","","","","","","","","","","","","","","","","","","","","",""
"","","","","","canvas-keyboard-response","201","1339568","0.0-12.0-4.37","2d_cat_multi_stim_exp1","2022-5-3","15:4:24","25","75","3","9","10","40","30","120","83","19","[""White""]","No","Female","2994270","null","null","","","","clear_screen","","","","","","","","","","","","","","","","","","","","","","","","","",""
"","","","","","canvas-keyboard-response","202","1340077","0.0-12.0-0.38","2d_cat_multi_stim_exp1","2022-5-3","15:4:24","25","75","3","9","10","40","30","120","83","19","[""White""]","No","Female","2994270","null","null","","","","fixation","","","","","","","","","","","","","","","","","","","","","","","","","",""
"","","","","","canvas-keyboard-response","203","1340587","0.0-12.0-1.38","2d_cat_multi_stim_exp1","2022-5-3","15:4:24","25","75","3","9","10","40","30","120","83","19","[""White""]","No","Female","2994270","null","null","","","","clear_screen","","","","","","","","","","","","","","","","","","","","","","","","","",""
"","","","","","canvas-keyboard-response","204","1341703","0.0-12.0-2.38","2d_cat_multi_stim_exp1","2022-5-3","15:4:24","25","75","3","9","10","40","30","120","83","19","[""White""]","No","Female","2994270","1107","i","learn","","","learn_trial","20","30","out","0","1","","","","","","","","","","","","","","","","","","","","",""
"","","","","","canvas-keyboard-response","205","1342213","0.0-12.0-3.38","2d_cat_multi_stim_exp1","2022-5-3","15:4:24","25","75","3","9","10","40","30","120","83","19","[""White""]","No","Female","2994270","null","null","learn_feedback","","","learn_feedback","20","30","out","","","","","","","","","","","","","","","","","","","","","","",""
"","","","","","canvas-keyboard-response","206","1342273","0.0-12.0-4.38","2d_cat_multi_stim_exp1","2022-5-3","15:4:24","25","75","3","9","10","40","30","120","83","19","[""White""]","No","Female","2994270","null","null","","","","clear_screen","","","","","","","","","","","","","","","","","","","","","","","","","",""
"","","","","","canvas-keyboard-response","207","1342781","0.0-12.0-0.39","2d_cat_multi_stim_exp1","2022-5-3","15:4:24","25","75","3","9","10","40","30","120","83","19","[""White""]","No","Female","2994270","null","null","","","","fixation","","","","","","","","","","","","","","","","","","","","","","","","","",""
"","","","","","canvas-keyboard-response","208","1343291","0.0-12.0-1.39","2d_cat_multi_stim_exp1","2022-5-3","15:4:24","25","75","3","9","10","40","30","120","83","19","[""White""]","No","Female","2994270","null","null","","","","clear_screen","","","","","","","","","","","","","","","","","","","","","","","","","",""
"","","","","","canvas-keyboard-response","209","1344367","0.0-12.0-2.39","2d_cat_multi_stim_exp1","2022-5-3","15:4:24","25","75","3","9","10","40","30","120","83","19","[""White""]","No","Female","2994270","1066","u","learn","","","learn_trial","13.3333","30","out","1","0","","","","","","","","","","","","","","","","","","","","",""
"","","","","","canvas-keyboard-response","210","1345377","0.0-12.0-3.39","2d_cat_multi_stim_exp1","2022-5-3","15:4:24","25","75","3","9","10","40","30","120","83","19","[""White""]","No","Female","2994270","null","null","learn_feedback","","","learn_feedback","13.3333","30","out","","","","","","","","","","","","","","","","","","","","","","",""
"","","","","","canvas-keyboard-response","211","1345436","0.0-12.0-4.39","2d_cat_multi_stim_exp1","2022-5-3","15:4:24","25","75","3","9","10","40","30","120","83","19","[""White""]","No","Female","2994270","null","null","","","","clear_screen","","","","","","","","","","","","","","","","","","","","","","","","","",""
"","","","","","canvas-keyboard-response","212","1345945","0.0-12.0-0.40","2d_cat_multi_stim_exp1","2022-5-3","15:4:24","25","75","3","9","10","40","30","120","83","19","[""White""]","No","Female","2994270","null","null","","","","fixation","","","","","","","","","","","","","","","","","","","","","","","","","",""
"","","","","","canvas-keyboard-response","213","1346455","0.0-12.0-1.40","2d_cat_multi_stim_exp1","2022-5-3","15:4:24","25","75","3","9","10","40","30","120","83","19","[""White""]","No","Female","2994270","null","null","","","","clear_screen","","","","","","","","","","","","","","","","","","","","","","","","","",""
"","","","","","canvas-keyboard-response","214","1347224","0.0-12.0-2.40","2d_cat_multi_stim_exp1","2022-5-3","15:4:24","25","75","3","9","10","40","30","120","83","19","[""White""]","No","Female","2994270","759","u","learn","","","learn_trial","40","90","out","1","0","","","","","","","","","","","","","","","","","","","","",""
"","","","","","canvas-keyboard-response","215","1348238","0.0-12.0-3.40","2d_cat_multi_stim_exp1","2022-5-3","15:4:24","25","75","3","9","10","40","30","120","83","19","[""White""]","No","Female","2994270","null","null","learn_feedback","","","learn_feedback","40","90","out","","","","","","","","","","","","","","","","","","","","","","",""
"","","","","","canvas-keyboard-response","216","1348296","0.0-12.0-4.40","2d_cat_multi_stim_exp1","2022-5-3","15:4:24","25","75","3","9","10","40","30","120","83","19","[""White""]","No","Female","2994270","null","null","","","","clear_screen","","","","","","","","","","","","","","","","","","","","","","","","","",""
"","","","","","canvas-keyboard-response","217","1348805","0.0-12.0-0.41","2d_cat_multi_stim_exp1","2022-5-3","15:4:24","25","75","3","9","10","40","30","120","83","19","[""White""]","No","Female","2994270","null","null","","","","fixation","","","","","","","","","","","","","","","","","","","","","","","","","",""
"","","","","","canvas-keyboard-response","218","1349315","0.0-12.0-1.41","2d_cat_multi_stim_exp1","2022-5-3","15:4:24","25","75","3","9","10","40","30","120","83","19","[""White""]","No","Female","2994270","null","null","","","","clear_screen","","","","","","","","","","","","","","","","","","","","","","","","","",""
"","","","","","canvas-keyboard-response","219","1350120","0.0-12.0-2.41","2d_cat_multi_stim_exp1","2022-5-3","15:4:24","25","75","3","9","10","40","30","120","83","19","[""White""]","No","Female","2994270","795","u","learn","","","learn_trial","25","75","in","1","1","","","","","","","","","","","","","","","","","","","","",""
"","","","","","canvas-keyboard-response","220","1350629","0.0-12.0-3.41","2d_cat_multi_stim_exp1","2022-5-3","15:4:24","25","75","3","9","10","40","30","120","83","19","[""White""]","No","Female","2994270","null","null","learn_feedback","","","learn_feedback","25","75","in","","","","","","","","","","","","","","","","","","","","","","",""
"","","","","","canvas-keyboard-response","221","1350688","0.0-12.0-4.41","2d_cat_multi_stim_exp1","2022-5-3","15:4:24","25","75","3","9","10","40","30","120","83","19","[""White""]","No","Female","2994270","null","null","","","","clear_screen","","","","","","","","","","","","","","","","","","","","","","","","","",""
"","","","","","canvas-keyboard-response","222","1351197","0.0-12.0-0.42","2d_cat_multi_stim_exp1","2022-5-3","15:4:24","25","75","3","9","10","40","30","120","83","19","[""White""]","No","Female","2994270","null","null","","","","fixation","","","","","","","","","","","","","","","","","","","","","","","","","",""
"","","","","","canvas-keyboard-response","223","1351707","0.0-12.0-1.42","2d_cat_multi_stim_exp1","2022-5-3","15:4:24","25","75","3","9","10","40","30","120","83","19","[""White""]","No","Female","2994270","null","null","","","","clear_screen","","","","","","","","","","","","","","","","","","","","","","","","","",""
"","","","","","canvas-keyboard-response","224","1352695","0.0-12.0-2.42","2d_cat_multi_stim_exp1","2022-5-3","15:4:24","25","75","3","9","10","40","30","120","83","19","[""White""]","No","Female","2994270","980","u","learn","","","learn_trial","30","90","out","1","0","","","","","","","","","","","","","","","","","","","","",""
"","","","","","canvas-keyboard-response","225","1353706","0.0-12.0-3.42","2d_cat_multi_stim_exp1","2022-5-3","15:4:24","25","75","3","9","10","40","30","120","83","19","[""White""]","No","Female","2994270","null","null","learn_feedback","","","learn_feedback","30","90","out","","","","","","","","","","","","","","","","","","","","","","",""
"","","","","","canvas-keyboard-response","226","1353765","0.0-12.0-4.42","2d_cat_multi_stim_exp1","2022-5-3","15:4:24","25","75","3","9","10","40","30","120","83","19","[""White""]","No","Female","2994270","null","null","","","","clear_screen","","","","","","","","","","","","","","","","","","","","","","","","","",""
"","","","","","canvas-keyboard-response","227","1354274","0.0-12.0-0.43","2d_cat_multi_stim_exp1","2022-5-3","15:4:24","25","75","3","9","10","40","30","120","83","19","[""White""]","No","Female","2994270","null","null","","","","fixation","","","","","","","","","","","","","","","","","","","","","","","","","",""
"","","","","","canvas-keyboard-response","228","1354784","0.0-12.0-1.43","2d_cat_multi_stim_exp1","2022-5-3","15:4:24","25","75","3","9","10","40","30","120","83","19","[""White""]","No","Female","2994270","null","null","","","","clear_screen","","","","","","","","","","","","","","","","","","","","","","","","","",""
"","","","","","canvas-keyboard-response","229","1355623","0.0-12.0-2.43","2d_cat_multi_stim_exp1","2022-5-3","15:4:24","25","75","3","9","10","40","30","120","83","19","[""White""]","No","Female","2994270","831","u","learn","","","learn_trial","33.3333","80","out","1","0","","","","","","","","","","","","","","","","","","","","",""
"","","","","","canvas-keyboard-response","230","1356635","0.0-12.0-3.43","2d_cat_multi_stim_exp1","2022-5-3","15:4:24","25","75","3","9","10","40","30","120","83","19","[""White""]","No","Female","2994270","null","null","learn_feedback","","","learn_feedback","33.3333","80","out","","","","","","","","","","","","","","","","","","","","","","",""
"","","","","","canvas-keyboard-response","231","1356697","0.0-12.0-4.43","2d_cat_multi_stim_exp1","2022-5-3","15:4:24","25","75","3","9","10","40","30","120","83","19","[""White""]","No","Female","2994270","null","null","","","","clear_screen","","","","","","","","","","","","","","","","","","","","","","","","","",""
"","","","","","canvas-keyboard-response","232","1357209","0.0-12.0-0.44","2d_cat_multi_stim_exp1","2022-5-3","15:4:24","25","75","3","9","10","40","30","120","83","19","[""White""]","No","Female","2994270","null","null","","","","fixation","","","","","","","","","","","","","","","","","","","","","","","","","",""
"","","","","","canvas-keyboard-response","233","1357720","0.0-12.0-1.44","2d_cat_multi_stim_exp1","2022-5-3","15:4:24","25","75","3","9","10","40","30","120","83","19","[""White""]","No","Female","2994270","null","null","","","","clear_screen","","","","","","","","","","","","","","","","","","","","","","","","","",""
"","","","","","canvas-keyboard-response","234","1358408","0.0-12.0-2.44","2d_cat_multi_stim_exp1","2022-5-3","15:4:24","25","75","3","9","10","40","30","120","83","19","[""White""]","No","Female","2994270","677","u","learn","","","learn_trial","24.8654","66.0091","in","1","1","","","","","","","","","","","","","","","","","","","","",""
"","","","","","canvas-keyboard-response","235","1358918","0.0-12.0-3.44","2d_cat_multi_stim_exp1","2022-5-3","15:4:24","25","75","3","9","10","40","30","120","83","19","[""White""]","No","Female","2994270","null","null","learn_feedback","","","learn_feedback","24.8654","66.0091","in","","","","","","","","","","","","","","","","","","","","","","",""
"","","","","","canvas-keyboard-response","236","1358977","0.0-12.0-4.44","2d_cat_multi_stim_exp1","2022-5-3","15:4:24","25","75","3","9","10","40","30","120","83","19","[""White""]","No","Female","2994270","null","null","","","","clear_screen","","","","","","","","","","","","","","","","","","","","","","","","","",""
"","","","","","canvas-keyboard-response","237","1359486","0.0-12.0-0.45","2d_cat_multi_stim_exp1","2022-5-3","15:4:24","25","75","3","9","10","40","30","120","83","19","[""White""]","No","Female","2994270","null","null","","","","fixation","","","","","","","","","","","","","","","","","","","","","","","","","",""
"","","","","","canvas-keyboard-response","238","1359997","0.0-12.0-1.45","2d_cat_multi_stim_exp1","2022-5-3","15:4:24","25","75","3","9","10","40","30","120","83","19","[""White""]","No","Female","2994270","null","null","","","","clear_screen","","","","","","","","","","","","","","","","","","","","","","","","","",""
"","","","","","canvas-keyboard-response","239","1362192","0.0-12.0-2.45","2d_cat_multi_stim_exp1","2022-5-3","15:4:24","25","75","3","9","10","40","30","120","83","19","[""White""]","No","Female","2994270","2185","u","learn","","","learn_trial","30","100","out","1","0","","","","","","","","","","","","","","","","","","","","",""
"","","","","","canvas-keyboard-response","240","1363202","0.0-12.0-3.45","2d_cat_multi_stim_exp1","2022-5-3","15:4:24","25","75","3","9","10","40","30","120","83","19","[""White""]","No","Female","2994270","null","null","learn_feedback","","","learn_feedback","30","100","out","","","","","","","","","","","","","","","","","","","","","","",""
"","","","","","canvas-keyboard-response","241","1363262","0.0-12.0-4.45","2d_cat_multi_stim_exp1","2022-5-3","15:4:24","25","75","3","9","10","40","30","120","83","19","[""White""]","No","Female","2994270","null","null","","","","clear_screen","","","","","","","","","","","","","","","","","","","","","","","","","",""
"","","","","","canvas-keyboard-response","242","1363772","0.0-12.0-0.46","2d_cat_multi_stim_exp1","2022-5-3","15:4:24","25","75","3","9","10","40","30","120","83","19","[""White""]","No","Female","2994270","null","null","","","","fixation","","","","","","","","","","","","","","","","","","","","","","","","","",""
"","","","","","canvas-keyboard-response","243","1364282","0.0-12.0-1.46","2d_cat_multi_stim_exp1","2022-5-3","15:4:24","25","75","3","9","10","40","30","120","83","19","[""White""]","No","Female","2994270","null","null","","","","clear_screen","","","","","","","","","","","","","","","","","","","","","","","","","",""
"","","","","","canvas-keyboard-response","244","1364960","0.0-12.0-2.46","2d_cat_multi_stim_exp1","2022-5-3","15:4:24","25","75","3","9","10","40","30","120","83","19","[""White""]","No","Female","2994270","667","u","learn","","","learn_trial","36.6667","50","out","1","0","","","","","","","","","","","","","","","","","","","","",""
"","","","","","canvas-keyboard-response","245","1365970","0.0-12.0-3.46","2d_cat_multi_stim_exp1","2022-5-3","15:4:24","25","75","3","9","10","40","30","120","83","19","[""White""]","No","Female","2994270","null","null","learn_feedback","","","learn_feedback","36.6667","50","out","","","","","","","","","","","","","","","","","","","","","","",""
"","","","","","canvas-keyboard-response","246","1366029","0.0-12.0-4.46","2d_cat_multi_stim_exp1","2022-5-3","15:4:24","25","75","3","9","10","40","30","120","83","19","[""White""]","No","Female","2994270","null","null","","","","clear_screen","","","","","","","","","","","","","","","","","","","","","","","","","",""
"","","","","","canvas-keyboard-response","247","1366538","0.0-12.0-0.47","2d_cat_multi_stim_exp1","2022-5-3","15:4:24","25","75","3","9","10","40","30","120","83","19","[""White""]","No","Female","2994270","null","null","","","","fixation","","","","","","","","","","","","","","","","","","","","","","","","","",""
"","","","","","canvas-keyboard-response","248","1367048","0.0-12.0-1.47","2d_cat_multi_stim_exp1","2022-5-3","15:4:24","25","75","3","9","10","40","30","120","83","19","[""White""]","No","Female","2994270","null","null","","","","clear_screen","","","","","","","","","","","","","","","","","","","","","","","","","",""
"","","","","","canvas-keyboard-response","249","1367752","0.0-12.0-2.47","2d_cat_multi_stim_exp1","2022-5-3","15:4:24","25","75","3","9","10","40","30","120","83","19","[""White""]","No","Female","2994270","693","i","learn","","","learn_trial","20","120","out","0","1","","","","","","","","","","","","","","","","","","","","",""
"","","","","","canvas-keyboard-response","250","1368262","0.0-12.0-3.47","2d_cat_multi_stim_exp1","2022-5-3","15:4:24","25","75","3","9","10","40","30","120","83","19","[""White""]","No","Female","2994270","null","null","learn_feedback","","","learn_feedback","20","120","out","","","","","","","","","","","","","","","","","","","","","","",""
"","","","","","canvas-keyboard-response","251","1368320","0.0-12.0-4.47","2d_cat_multi_stim_exp1","2022-5-3","15:4:24","25","75","3","9","10","40","30","120","83","19","[""White""]","No","Female","2994270","null","null","","","","clear_screen","","","","","","","","","","","","","","","","","","","","","","","","","",""
"","","","","","canvas-keyboard-response","252","1368830","0.0-12.0-0.48","2d_cat_multi_stim_exp1","2022-5-3","15:4:24","25","75","3","9","10","40","30","120","83","19","[""White""]","No","Female","2994270","null","null","","","","fixation","","","","","","","","","","","","","","","","","","","","","","","","","",""
"","","","","","canvas-keyboard-response","253","1369338","0.0-12.0-1.48","2d_cat_multi_stim_exp1","2022-5-3","15:4:24","25","75","3","9","10","40","30","120","83","19","[""White""]","No","Female","2994270","null","null","","","","clear_screen","","","","","","","","","","","","","","","","","","","","","","","","","",""
"","","","","","canvas-keyboard-response","254","1370127","0.0-12.0-2.48","2d_cat_multi_stim_exp1","2022-5-3","15:4:24","25","75","3","9","10","40","30","120","83","19","[""White""]","No","Female","2994270","779","u","learn","","","learn_trial","22.9268","81.5052","in","1","1","","","","","","","","","","","","","","","","","","","","",""
"","","","","","canvas-keyboard-response","255","1370637","0.0-12.0-3.48","2d_cat_multi_stim_exp1","2022-5-3","15:4:24","25","75","3","9","10","40","30","120","83","19","[""White""]","No","Female","2994270","null","null","learn_feedback","","","learn_feedback","22.9268","81.5052","in","","","","","","","","","","","","","","","","","","","","","","",""
"","","","","","canvas-keyboard-response","256","1370697","0.0-12.0-4.48","2d_cat_multi_stim_exp1","2022-5-3","15:4:24","25","75","3","9","10","40","30","120","83","19","[""White""]","No","Female","2994270","null","null","","","","clear_screen","","","","","","","","","","","","","","","","","","","","","","","","","",""
"","","","","","canvas-keyboard-response","257","1371205","0.0-12.0-0.49","2d_cat_multi_stim_exp1","2022-5-3","15:4:24","25","75","3","9","10","40","30","120","83","19","[""White""]","No","Female","2994270","null","null","","","","fixation","","","","","","","","","","","","","","","","","","","","","","","","","",""
"","","","","","canvas-keyboard-response","258","1371716","0.0-12.0-1.49","2d_cat_multi_stim_exp1","2022-5-3","15:4:24","25","75","3","9","10","40","30","120","83","19","[""White""]","No","Female","2994270","null","null","","","","clear_screen","","","","","","","","","","","","","","","","","","","","","","","","","",""
"","","","","","canvas-keyboard-response","259","1372848","0.0-12.0-2.49","2d_cat_multi_stim_exp1","2022-5-3","15:4:24","25","75","3","9","10","40","30","120","83","19","[""White""]","No","Female","2994270","1121","u","learn","","","learn_trial","25","75","in","1","1","","","","","","","","","","","","","","","","","","","","",""
"","","","","","canvas-keyboard-response","260","1373358","0.0-12.0-3.49","2d_cat_multi_stim_exp1","2022-5-3","15:4:24","25","75","3","9","10","40","30","120","83","19","[""White""]","No","Female","2994270","null","null","learn_feedback","","","learn_feedback","25","75","in","","","","","","","","","","","","","","","","","","","","","","",""
"","","","","","canvas-keyboard-response","261","1373416","0.0-12.0-4.49","2d_cat_multi_stim_exp1","2022-5-3","15:4:24","25","75","3","9","10","40","30","120","83","19","[""White""]","No","Female","2994270","null","null","","","","clear_screen","","","","","","","","","","","","","","","","","","","","","","","","","",""
"","","","","","canvas-keyboard-response","262","1373929","0.0-12.0-0.50","2d_cat_multi_stim_exp1","2022-5-3","15:4:24","25","75","3","9","10","40","30","120","83","19","[""White""]","No","Female","2994270","null","null","","","","fixation","","","","","","","","","","","","","","","","","","","","","","","","","",""
"","","","","","canvas-keyboard-response","263","1374438","0.0-12.0-1.50","2d_cat_multi_stim_exp1","2022-5-3","15:4:24","25","75","3","9","10","40","30","120","83","19","[""White""]","No","Female","2994270","null","null","","","","clear_screen","","","","","","","","","","","","","","","","","","","","","","","","","",""
"","","","","","canvas-keyboard-response","264","1375448","0.0-12.0-2.50","2d_cat_multi_stim_exp1","2022-5-3","15:4:24","25","75","3","9","10","40","30","120","83","19","[""White""]","No","Female","2994270","999","i","learn","","","learn_trial","40","80","out","0","1","","","","","","","","","","","","","","","","","","","","",""
"","","","","","canvas-keyboard-response","265","1375958","0.0-12.0-3.50","2d_cat_multi_stim_exp1","2022-5-3","15:4:24","25","75","3","9","10","40","30","120","83","19","[""White""]","No","Female","2994270","null","null","learn_feedback","","","learn_feedback","40","80","out","","","","","","","","","","","","","","","","","","","","","","",""
"","","","","","canvas-keyboard-response","266","1376017","0.0-12.0-4.50","2d_cat_multi_stim_exp1","2022-5-3","15:4:24","25","75","3","9","10","40","30","120","83","19","[""White""]","No","Female","2994270","null","null","","","","clear_screen","","","","","","","","","","","","","","","","","","","","","","","","","",""
"","","","","","canvas-keyboard-response","267","1376527","0.0-12.0-0.51","2d_cat_multi_stim_exp1","2022-5-3","15:4:24","25","75","3","9","10","40","30","120","83","19","[""White""]","No","Female","2994270","null","null","","","","fixation","","","","","","","","","","","","","","","","","","","","","","","","","",""
"","","","","","canvas-keyboard-response","268","1377037","0.0-12.0-1.51","2d_cat_multi_stim_exp1","2022-5-3","15:4:24","25","75","3","9","10","40","30","120","83","19","[""White""]","No","Female","2994270","null","null","","","","clear_screen","","","","","","","","","","","","","","","","","","","","","","","","","",""
"","","","","","canvas-keyboard-response","269","1377647","0.0-12.0-2.51","2d_cat_multi_stim_exp1","2022-5-3","15:4:24","25","75","3","9","10","40","30","120","83","19","[""White""]","No","Female","2994270","601","u","learn","","","learn_trial","25","75","in","1","1","","","","","","","","","","","","","","","","","","","","",""
"","","","","","canvas-keyboard-response","270","1378156","0.0-12.0-3.51","2d_cat_multi_stim_exp1","2022-5-3","15:4:24","25","75","3","9","10","40","30","120","83","19","[""White""]","No","Female","2994270","null","null","learn_feedback","","","learn_feedback","25","75","in","","","","","","","","","","","","","","","","","","","","","","",""
"","","","","","canvas-keyboard-response","271","1378216","0.0-12.0-4.51","2d_cat_multi_stim_exp1","2022-5-3","15:4:24","25","75","3","9","10","40","30","120","83","19","[""White""]","No","Female","2994270","null","null","","","","clear_screen","","","","","","","","","","","","","","","","","","","","","","","","","",""
"","","","","","canvas-keyboard-response","272","1378726","0.0-12.0-0.52","2d_cat_multi_stim_exp1","2022-5-3","15:4:24","25","75","3","9","10","40","30","120","83","19","[""White""]","No","Female","2994270","null","null","","","","fixation","","","","","","","","","","","","","","","","","","","","","","","","","",""
"","","","","","canvas-keyboard-response","273","1379235","0.0-12.0-1.52","2d_cat_multi_stim_exp1","2022-5-3","15:4:24","25","75","3","9","10","40","30","120","83","19","[""White""]","No","Female","2994270","null","null","","","","clear_screen","","","","","","","","","","","","","","","","","","","","","","","","","",""
"","","","","","canvas-keyboard-response","274","1380207","0.0-12.0-2.52","2d_cat_multi_stim_exp1","2022-5-3","15:4:24","25","75","3","9","10","40","30","120","83","19","[""White""]","No","Female","2994270","963","i","learn","","","learn_trial","20","90","out","0","1","","","","","","","","","","","","","","","","","","","","",""
"","","","","","canvas-keyboard-response","275","1380717","0.0-12.0-3.52","2d_cat_multi_stim_exp1","2022-5-3","15:4:24","25","75","3","9","10","40","30","120","83","19","[""White""]","No","Female","2994270","null","null","learn_feedback","","","learn_feedback","20","90","out","","","","","","","","","","","","","","","","","","","","","","",""
"","","","","","canvas-keyboard-response","276","1380776","0.0-12.0-4.52","2d_cat_multi_stim_exp1","2022-5-3","15:4:24","25","75","3","9","10","40","30","120","83","19","[""White""]","No","Female","2994270","null","null","","","","clear_screen","","","","","","","","","","","","","","","","","","","","","","","","","",""
"","","","","","canvas-keyboard-response","277","1381286","0.0-12.0-0.53","2d_cat_multi_stim_exp1","2022-5-3","15:4:24","25","75","3","9","10","40","30","120","83","19","[""White""]","No","Female","2994270","null","null","","","","fixation","","","","","","","","","","","","","","","","","","","","","","","","","",""
"","","","","","canvas-keyboard-response","278","1381795","0.0-12.0-1.53","2d_cat_multi_stim_exp1","2022-5-3","15:4:24","25","75","3","9","10","40","30","120","83","19","[""White""]","No","Female","2994270","null","null","","","","clear_screen","","","","","","","","","","","","","","","","","","","","","","","","","",""
"","","","","","canvas-keyboard-response","279","1382783","0.0-12.0-2.53","2d_cat_multi_stim_exp1","2022-5-3","15:4:24","25","75","3","9","10","40","30","120","83","19","[""White""]","No","Female","2994270","978","u","learn","","","learn_trial","26.6667","60","out","1","0","","","","","","","","","","","","","","","","","","","","",""
"","","","","","canvas-keyboard-response","280","1383793","0.0-12.0-3.53","2d_cat_multi_stim_exp1","2022-5-3","15:4:24","25","75","3","9","10","40","30","120","83","19","[""White""]","No","Female","2994270","null","null","learn_feedback","","","learn_feedback","26.6667","60","out","","","","","","","","","","","","","","","","","","","","","","",""
"","","","","","canvas-keyboard-response","281","1383851","0.0-12.0-4.53","2d_cat_multi_stim_exp1","2022-5-3","15:4:24","25","75","3","9","10","40","30","120","83","19","[""White""]","No","Female","2994270","null","null","","","","clear_screen","","","","","","","","","","","","","","","","","","","","","","","","","",""
"","","","","","canvas-keyboard-response","282","1384361","0.0-12.0-0.54","2d_cat_multi_stim_exp1","2022-5-3","15:4:24","25","75","3","9","10","40","30","120","83","19","[""White""]","No","Female","2994270","null","null","","","","fixation","","","","","","","","","","","","","","","","","","","","","","","","","",""
"","","","","","canvas-keyboard-response","283","1384870","0.0-12.0-1.54","2d_cat_multi_stim_exp1","2022-5-3","15:4:24","25","75","3","9","10","40","30","120","83","19","[""White""]","No","Female","2994270","null","null","","","","clear_screen","","","","","","","","","","","","","","","","","","","","","","","","","",""
"","","","","","canvas-keyboard-response","284","1385768","0.0-12.0-2.54","2d_cat_multi_stim_exp1","2022-5-3","15:4:24","25","75","3","9","10","40","30","120","83","19","[""White""]","No","Female","2994270","888","i","learn","","","learn_trial","23.3333","120","out","0","1","","","","","","","","","","","","","","","","","","","","",""
"","","","","","canvas-keyboard-response","285","1386278","0.0-12.0-3.54","2d_cat_multi_stim_exp1","2022-5-3","15:4:24","25","75","3","9","10","40","30","120","83","19","[""White""]","No","Female","2994270","null","null","learn_feedback","","","learn_feedback","23.3333","120","out","","","","","","","","","","","","","","","","","","","","","","",""
"","","","","","canvas-keyboard-response","286","1386337","0.0-12.0-4.54","2d_cat_multi_stim_exp1","2022-5-3","15:4:24","25","75","3","9","10","40","30","120","83","19","[""White""]","No","Female","2994270","null","null","","","","clear_screen","","","","","","","","","","","","","","","","","","","","","","","","","",""
"","","","","","canvas-keyboard-response","287","1386849","0.0-12.0-0.55","2d_cat_multi_stim_exp1","2022-5-3","15:4:24","25","75","3","9","10","40","30","120","83","19","[""White""]","No","Female","2994270","null","null","","","","fixation","","","","","","","","","","","","","","","","","","","","","","","","","",""
"","","","","","canvas-keyboard-response","288","1387358","0.0-12.0-1.55","2d_cat_multi_stim_exp1","2022-5-3","15:4:24","25","75","3","9","10","40","30","120","83","19","[""White""]","No","Female","2994270","null","null","","","","clear_screen","","","","","","","","","","","","","","","","","","","","","","","","","",""
"","","","","","canvas-keyboard-response","289","1388143","0.0-12.0-2.55","2d_cat_multi_stim_exp1","2022-5-3","15:4:24","25","75","3","9","10","40","30","120","83","19","[""White""]","No","Female","2994270","776","u","learn","","","learn_trial","27.8087","71.8376","in","1","1","","","","","","","","","","","","","","","","","","","","",""
"","","","","","canvas-keyboard-response","290","1388652","0.0-12.0-3.55","2d_cat_multi_stim_exp1","2022-5-3","15:4:24","25","75","3","9","10","40","30","120","83","19","[""White""]","No","Female","2994270","null","null","learn_feedback","","","learn_feedback","27.8087","71.8376","in","","","","","","","","","","","","","","","","","","","","","","",""
"","","","","","canvas-keyboard-response","291","1388711","0.0-12.0-4.55","2d_cat_multi_stim_exp1","2022-5-3","15:4:24","25","75","3","9","10","40","30","120","83","19","[""White""]","No","Female","2994270","null","null","","","","clear_screen","","","","","","","","","","","","","","","","","","","","","","","","","",""
"","","","","","canvas-keyboard-response","292","1389220","0.0-12.0-0.56","2d_cat_multi_stim_exp1","2022-5-3","15:4:24","25","75","3","9","10","40","30","120","83","19","[""White""]","No","Female","2994270","null","null","","","","fixation","","","","","","","","","","","","","","","","","","","","","","","","","",""
"","","","","","canvas-keyboard-response","293","1389730","0.0-12.0-1.56","2d_cat_multi_stim_exp1","2022-5-3","15:4:24","25","75","3","9","10","40","30","120","83","19","[""White""]","No","Female","2994270","null","null","","","","clear_screen","","","","","","","","","","","","","","","","","","","","","","","","","",""
"","","","","","canvas-keyboard-response","294","1390528","0.0-12.0-2.56","2d_cat_multi_stim_exp1","2022-5-3","15:4:24","25","75","3","9","10","40","30","120","83","19","[""White""]","No","Female","2994270","787","u","learn","","","learn_trial","31","75","in","1","1","","","","","","","","","","","","","","","","","","","","",""
"","","","","","canvas-keyboard-response","295","1391037","0.0-12.0-3.56","2d_cat_multi_stim_exp1","2022-5-3","15:4:24","25","75","3","9","10","40","30","120","83","19","[""White""]","No","Female","2994270","null","null","learn_feedback","","","learn_feedback","31","75","in","","","","","","","","","","","","","","","","","","","","","","",""
"","","","","","canvas-keyboard-response","296","1391096","0.0-12.0-4.56","2d_cat_multi_stim_exp1","2022-5-3","15:4:24","25","75","3","9","10","40","30","120","83","19","[""White""]","No","Female","2994270","null","null","","","","clear_screen","","","","","","","","","","","","","","","","","","","","","","","","","",""
