"success","timeout","failed_images","failed_audio","failed_video","trial_type","trial_index","time_elapsed","internal_node_id","exp_name","date","time","angle_mean_in","radius_mean_in","angle_sd_in","radius_sd_in","angle_min_out","angle_max_out","radius_min_out","radius_max_out","sub_n","age","race","ethnicity","gender","exp_duration","rt","response","exp_trial_type","stimulus","view_history","screen_id","angle","radius","distribution","choice","correct","order","angle_a","radius_a","angle_b","radius_b","angle_c","radius_c","jkl_correct","transfer_trial_type","choice_set","abc_correct","tc_correct","tc_angle","tdc_a","tdc_b","tdc_c","pair","category_a","category_b","category_c","question_order"
"true","false","[]","[]","[]","preload","0","19","0.0-0.0","2d_cat_multi_stim_exp1","2022-4-15","15:15:0","25","75","3","9","10","40","30","120","43","19","[""Asian""]","No","Female","2067466","","","","","","","","","","","","","","","","","","","","","","","","","","","","","","","",""
"","","","","","survey-html-form","1","2027","0.0-1.0","2d_cat_multi_stim_exp1","2022-4-15","15:15:0","25","75","3","9","10","40","30","120","43","19","[""Asian""]","No","Female","2067466","1996","{""response"":""43""}","enter-sub-number","","","","","","","","","","","","","","","","","","","","","","","","","","","","",""
"true","","","","","fullscreen","2","4511","0.0-2.0","2d_cat_multi_stim_exp1","2022-4-15","15:15:0","25","75","3","9","10","40","30","120","43","19","[""Asian""]","No","Female","2067466","","","","","","","","","","","","","","","","","","","","","","","","","","","","","","","",""
"","","","","","image-button-response","3","16968","0.0-3.0","2d_cat_multi_stim_exp1","2022-4-15","15:15:0","25","75","3","9","10","40","30","120","43","19","[""Asian""]","No","Female","2067466","12448","0","","consent.png","","","","","","","","","","","","","","","","","","","","","","","","","","","",""
"","","","","","html-button-response","4","22846","0.0-4.0","2d_cat_multi_stim_exp1","2022-4-15","15:15:0","25","75","3","9","10","40","30","120","43","19","[""Asian""]","No","Female","2067466","5874","0","","<div style= ""font-size:25px;"" <p> <strong> Welcome to the experiment! </strong><br> <p style=""color:#8B0000; font-size:25px;""><strong> Please do NOT exit full screen until you are done with the experiment. </strong> </p><p style=""font-size:25px;color:#8B0000;""> <strong> The experiment will be canceled and your data will be lost <br> if you try to go back or refresh the page at any point during the experiment.</strong> </p><br><p> <strong> Thanks in advance for your contribution to our research! </strong></p>","","","","","","","","","","","","","","","","","","","","","","","","","","","",""
"","","","","","instructions","5","57141","0.0-5.0","2d_cat_multi_stim_exp1","2022-4-15","15:15:0","25","75","3","9","10","40","30","120","43","19","[""Asian""]","No","Female","2067466","34291","","","","[{""page_index"":0,""viewing_time"":9708},{""page_index"":1,""viewing_time"":2639},{""page_index"":2,""viewing_time"":8776},{""page_index"":3,""viewing_time"":13168}]","instructions_1","","","","","","","","","","","","","","","","","","","","","","","","","",""
"","","","","","instructions","6","59279","0.0-6.0","2d_cat_multi_stim_exp1","2022-4-15","15:15:0","25","75","3","9","10","40","30","120","43","19","[""Asian""]","No","Female","2067466","2133","","","","[{""page_index"":0,""viewing_time"":2133}]","Click to see the kinds of turtles that will appear in the study.","","","","","","","","","","","","","","","","","","","","","","","","","",""
"","","","","","canvas-keyboard-response","7","74300","0.0-7.0","2d_cat_multi_stim_exp1","2022-4-15","15:15:0","25","75","3","9","10","40","30","120","43","19","[""Asian""]","No","Female","2067466","null","null","","","","demo_range","","","","","","","","","","","","","","","","","","","","","","","","","",""
"","","","","","instructions","8","76614","0.0-8.0","2d_cat_multi_stim_exp1","2022-4-15","15:15:0","25","75","3","9","10","40","30","120","43","19","[""Asian""]","No","Female","2067466","1811","","","","[{""page_index"":0,""viewing_time"":1810}]","Click to see some turtles in the subspecies.","","","","","","","","","","","","","","","","","","","","","","","","","",""
"","","","","","canvas-keyboard-response","9","91632","0.0-9.0","2d_cat_multi_stim_exp1","2022-4-15","15:15:0","25","75","3","9","10","40","30","120","43","19","[""Asian""]","No","Female","2067466","null","null","","","","demo_in","","","","","","","","","","","","","","","","","","","","","","","","","",""
"","","","","","instructions","10","114711","0.0-10.0","2d_cat_multi_stim_exp1","2022-4-15","15:15:0","25","75","3","9","10","40","30","120","43","19","[""Asian""]","No","Female","2067466","22576","","","","[{""page_index"":0,""viewing_time"":4528},{""page_index"":1,""viewing_time"":10408},{""page_index"":2,""viewing_time"":7639}]","instructions_2","","","","","","","","","","","","","","","","","","","","","","","","","",""
"","","","","","instructions","11","116087","0.0-11.0","2d_cat_multi_stim_exp1","2022-4-15","15:15:0","25","75","3","9","10","40","30","120","43","19","[""Asian""]","No","Female","2067466","1372","","","","[{""page_index"":0,""viewing_time"":1372}]","Click to begin the first phase of the experiment.","","","","","","","","","","","","","","","","","","","","","","","","","",""
"","","","","","canvas-keyboard-response","12","116597","0.0-12.0-0.0","2d_cat_multi_stim_exp1","2022-4-15","15:15:0","25","75","3","9","10","40","30","120","43","19","[""Asian""]","No","Female","2067466","null","null","","","","fixation","","","","","","","","","","","","","","","","","","","","","","","","","",""
"","","","","","canvas-keyboard-response","13","117109","0.0-12.0-1.0","2d_cat_multi_stim_exp1","2022-4-15","15:15:0","25","75","3","9","10","40","30","120","43","19","[""Asian""]","No","Female","2067466","null","null","","","","clear_screen","","","","","","","","","","","","","","","","","","","","","","","","","",""
"","","","","","canvas-keyboard-response","14","119070","0.0-12.0-2.0","2d_cat_multi_stim_exp1","2022-4-15","15:15:0","25","75","3","9","10","40","30","120","43","19","[""Asian""]","No","Female","2067466","1953","i","learn","","","learn_trial","40","120","out","0","1","","","","","","","","","","","","","","","","","","","","",""
"","","","","","canvas-keyboard-response","15","119585","0.0-12.0-3.0","2d_cat_multi_stim_exp1","2022-4-15","15:15:0","25","75","3","9","10","40","30","120","43","19","[""Asian""]","No","Female","2067466","null","null","learn_feedback","","","learn_feedback","40","120","out","","","","","","","","","","","","","","","","","","","","","","",""
"","","","","","canvas-keyboard-response","16","119648","0.0-12.0-4.0","2d_cat_multi_stim_exp1","2022-4-15","15:15:0","25","75","3","9","10","40","30","120","43","19","[""Asian""]","No","Female","2067466","null","null","","","","clear_screen","","","","","","","","","","","","","","","","","","","","","","","","","",""
"","","","","","canvas-keyboard-response","17","120160","0.0-12.0-0.1","2d_cat_multi_stim_exp1","2022-4-15","15:15:0","25","75","3","9","10","40","30","120","43","19","[""Asian""]","No","Female","2067466","null","null","","","","fixation","","","","","","","","","","","","","","","","","","","","","","","","","",""
"","","","","","canvas-keyboard-response","18","120676","0.0-12.0-1.1","2d_cat_multi_stim_exp1","2022-4-15","15:15:0","25","75","3","9","10","40","30","120","43","19","[""Asian""]","No","Female","2067466","null","null","","","","clear_screen","","","","","","","","","","","","","","","","","","","","","","","","","",""
"","","","","","canvas-keyboard-response","19","121815","0.0-12.0-2.1","2d_cat_multi_stim_exp1","2022-4-15","15:15:0","25","75","3","9","10","40","30","120","43","19","[""Asian""]","No","Female","2067466","1130","u","learn","","","learn_trial","16.6667","110","out","1","0","","","","","","","","","","","","","","","","","","","","",""
"","","","","","canvas-keyboard-response","20","122828","0.0-12.0-3.1","2d_cat_multi_stim_exp1","2022-4-15","15:15:0","25","75","3","9","10","40","30","120","43","19","[""Asian""]","No","Female","2067466","null","null","learn_feedback","","","learn_feedback","16.6667","110","out","","","","","","","","","","","","","","","","","","","","","","",""
"","","","","","canvas-keyboard-response","21","122891","0.0-12.0-4.1","2d_cat_multi_stim_exp1","2022-4-15","15:15:0","25","75","3","9","10","40","30","120","43","19","[""Asian""]","No","Female","2067466","null","null","","","","clear_screen","","","","","","","","","","","","","","","","","","","","","","","","","",""
"","","","","","canvas-keyboard-response","22","123401","0.0-12.0-0.2","2d_cat_multi_stim_exp1","2022-4-15","15:15:0","25","75","3","9","10","40","30","120","43","19","[""Asian""]","No","Female","2067466","null","null","","","","fixation","","","","","","","","","","","","","","","","","","","","","","","","","",""
"","","","","","canvas-keyboard-response","23","123915","0.0-12.0-1.2","2d_cat_multi_stim_exp1","2022-4-15","15:15:0","25","75","3","9","10","40","30","120","43","19","[""Asian""]","No","Female","2067466","null","null","","","","clear_screen","","","","","","","","","","","","","","","","","","","","","","","","","",""
"","","","","","canvas-keyboard-response","24","124766","0.0-12.0-2.2","2d_cat_multi_stim_exp1","2022-4-15","15:15:0","25","75","3","9","10","40","30","120","43","19","[""Asian""]","No","Female","2067466","842","u","learn","","","learn_trial","23.3333","50","out","1","0","","","","","","","","","","","","","","","","","","","","",""
"","","","","","canvas-keyboard-response","25","125778","0.0-12.0-3.2","2d_cat_multi_stim_exp1","2022-4-15","15:15:0","25","75","3","9","10","40","30","120","43","19","[""Asian""]","No","Female","2067466","null","null","learn_feedback","","","learn_feedback","23.3333","50","out","","","","","","","","","","","","","","","","","","","","","","",""
"","","","","","canvas-keyboard-response","26","125839","0.0-12.0-4.2","2d_cat_multi_stim_exp1","2022-4-15","15:15:0","25","75","3","9","10","40","30","120","43","19","[""Asian""]","No","Female","2067466","null","null","","","","clear_screen","","","","","","","","","","","","","","","","","","","","","","","","","",""
"","","","","","canvas-keyboard-response","27","126350","0.0-12.0-0.3","2d_cat_multi_stim_exp1","2022-4-15","15:15:0","25","75","3","9","10","40","30","120","43","19","[""Asian""]","No","Female","2067466","null","null","","","","fixation","","","","","","","","","","","","","","","","","","","","","","","","","",""
"","","","","","canvas-keyboard-response","28","126861","0.0-12.0-1.3","2d_cat_multi_stim_exp1","2022-4-15","15:15:0","25","75","3","9","10","40","30","120","43","19","[""Asian""]","No","Female","2067466","null","null","","","","clear_screen","","","","","","","","","","","","","","","","","","","","","","","","","",""
"","","","","","canvas-keyboard-response","29","127798","0.0-12.0-2.3","2d_cat_multi_stim_exp1","2022-4-15","15:15:0","25","75","3","9","10","40","30","120","43","19","[""Asian""]","No","Female","2067466","928","u","learn","","","learn_trial","30","50","out","1","0","","","","","","","","","","","","","","","","","","","","",""
"","","","","","canvas-keyboard-response","30","128809","0.0-12.0-3.3","2d_cat_multi_stim_exp1","2022-4-15","15:15:0","25","75","3","9","10","40","30","120","43","19","[""Asian""]","No","Female","2067466","null","null","learn_feedback","","","learn_feedback","30","50","out","","","","","","","","","","","","","","","","","","","","","","",""
"","","","","","canvas-keyboard-response","31","128871","0.0-12.0-4.3","2d_cat_multi_stim_exp1","2022-4-15","15:15:0","25","75","3","9","10","40","30","120","43","19","[""Asian""]","No","Female","2067466","null","null","","","","clear_screen","","","","","","","","","","","","","","","","","","","","","","","","","",""
"","","","","","canvas-keyboard-response","32","129385","0.0-12.0-0.4","2d_cat_multi_stim_exp1","2022-4-15","15:15:0","25","75","3","9","10","40","30","120","43","19","[""Asian""]","No","Female","2067466","null","null","","","","fixation","","","","","","","","","","","","","","","","","","","","","","","","","",""
"","","","","","canvas-keyboard-response","33","129899","0.0-12.0-1.4","2d_cat_multi_stim_exp1","2022-4-15","15:15:0","25","75","3","9","10","40","30","120","43","19","[""Asian""]","No","Female","2067466","null","null","","","","clear_screen","","","","","","","","","","","","","","","","","","","","","","","","","",""
"","","","","","canvas-keyboard-response","34","130991","0.0-12.0-2.4","2d_cat_multi_stim_exp1","2022-4-15","15:15:0","25","75","3","9","10","40","30","120","43","19","[""Asian""]","No","Female","2067466","1081","i","learn","","","learn_trial","23.3333","90","out","0","1","","","","","","","","","","","","","","","","","","","","",""
"","","","","","canvas-keyboard-response","35","131502","0.0-12.0-3.4","2d_cat_multi_stim_exp1","2022-4-15","15:15:0","25","75","3","9","10","40","30","120","43","19","[""Asian""]","No","Female","2067466","null","null","learn_feedback","","","learn_feedback","23.3333","90","out","","","","","","","","","","","","","","","","","","","","","","",""
"","","","","","canvas-keyboard-response","36","131561","0.0-12.0-4.4","2d_cat_multi_stim_exp1","2022-4-15","15:15:0","25","75","3","9","10","40","30","120","43","19","[""Asian""]","No","Female","2067466","null","null","","","","clear_screen","","","","","","","","","","","","","","","","","","","","","","","","","",""
"","","","","","canvas-keyboard-response","37","132072","0.0-12.0-0.5","2d_cat_multi_stim_exp1","2022-4-15","15:15:0","25","75","3","9","10","40","30","120","43","19","[""Asian""]","No","Female","2067466","null","null","","","","fixation","","","","","","","","","","","","","","","","","","","","","","","","","",""
"","","","","","canvas-keyboard-response","38","132587","0.0-12.0-1.5","2d_cat_multi_stim_exp1","2022-4-15","15:15:0","25","75","3","9","10","40","30","120","43","19","[""Asian""]","No","Female","2067466","null","null","","","","clear_screen","","","","","","","","","","","","","","","","","","","","","","","","","",""
"","","","","","canvas-keyboard-response","39","134094","0.0-12.0-2.5","2d_cat_multi_stim_exp1","2022-4-15","15:15:0","25","75","3","9","10","40","30","120","43","19","[""Asian""]","No","Female","2067466","1497","i","learn","","","learn_trial","25","75","in","0","0","","","","","","","","","","","","","","","","","","","","",""
"","","","","","canvas-keyboard-response","40","135106","0.0-12.0-3.5","2d_cat_multi_stim_exp1","2022-4-15","15:15:0","25","75","3","9","10","40","30","120","43","19","[""Asian""]","No","Female","2067466","null","null","learn_feedback","","","learn_feedback","25","75","in","","","","","","","","","","","","","","","","","","","","","","",""
"","","","","","canvas-keyboard-response","41","135164","0.0-12.0-4.5","2d_cat_multi_stim_exp1","2022-4-15","15:15:0","25","75","3","9","10","40","30","120","43","19","[""Asian""]","No","Female","2067466","null","null","","","","clear_screen","","","","","","","","","","","","","","","","","","","","","","","","","",""
"","","","","","canvas-keyboard-response","42","135674","0.0-12.0-0.6","2d_cat_multi_stim_exp1","2022-4-15","15:15:0","25","75","3","9","10","40","30","120","43","19","[""Asian""]","No","Female","2067466","null","null","","","","fixation","","","","","","","","","","","","","","","","","","","","","","","","","",""
"","","","","","canvas-keyboard-response","43","136185","0.0-12.0-1.6","2d_cat_multi_stim_exp1","2022-4-15","15:15:0","25","75","3","9","10","40","30","120","43","19","[""Asian""]","No","Female","2067466","null","null","","","","clear_screen","","","","","","","","","","","","","","","","","","","","","","","","","",""
"","","","","","canvas-keyboard-response","44","137214","0.0-12.0-2.6","2d_cat_multi_stim_exp1","2022-4-15","15:15:0","25","75","3","9","10","40","30","120","43","19","[""Asian""]","No","Female","2067466","1018","u","learn","","","learn_trial","25","75","in","1","1","","","","","","","","","","","","","","","","","","","","",""
"","","","","","canvas-keyboard-response","45","137722","0.0-12.0-3.6","2d_cat_multi_stim_exp1","2022-4-15","15:15:0","25","75","3","9","10","40","30","120","43","19","[""Asian""]","No","Female","2067466","null","null","learn_feedback","","","learn_feedback","25","75","in","","","","","","","","","","","","","","","","","","","","","","",""
"","","","","","canvas-keyboard-response","46","137781","0.0-12.0-4.6","2d_cat_multi_stim_exp1","2022-4-15","15:15:0","25","75","3","9","10","40","30","120","43","19","[""Asian""]","No","Female","2067466","null","null","","","","clear_screen","","","","","","","","","","","","","","","","","","","","","","","","","",""
"","","","","","canvas-keyboard-response","47","138287","0.0-12.0-0.7","2d_cat_multi_stim_exp1","2022-4-15","15:15:0","25","75","3","9","10","40","30","120","43","19","[""Asian""]","No","Female","2067466","null","null","","","","fixation","","","","","","","","","","","","","","","","","","","","","","","","","",""
"","","","","","canvas-keyboard-response","48","138802","0.0-12.0-1.7","2d_cat_multi_stim_exp1","2022-4-15","15:15:0","25","75","3","9","10","40","30","120","43","19","[""Asian""]","No","Female","2067466","null","null","","","","clear_screen","","","","","","","","","","","","","","","","","","","","","","","","","",""
"","","","","","canvas-keyboard-response","49","139487","0.0-12.0-2.7","2d_cat_multi_stim_exp1","2022-4-15","15:15:0","25","75","3","9","10","40","30","120","43","19","[""Asian""]","No","Female","2067466","676","u","learn","","","learn_trial","22.1081","77.3943","in","1","1","","","","","","","","","","","","","","","","","","","","",""
"","","","","","canvas-keyboard-response","50","139999","0.0-12.0-3.7","2d_cat_multi_stim_exp1","2022-4-15","15:15:0","25","75","3","9","10","40","30","120","43","19","[""Asian""]","No","Female","2067466","null","null","learn_feedback","","","learn_feedback","22.1081","77.3943","in","","","","","","","","","","","","","","","","","","","","","","",""
"","","","","","canvas-keyboard-response","51","140062","0.0-12.0-4.7","2d_cat_multi_stim_exp1","2022-4-15","15:15:0","25","75","3","9","10","40","30","120","43","19","[""Asian""]","No","Female","2067466","null","null","","","","clear_screen","","","","","","","","","","","","","","","","","","","","","","","","","",""
"","","","","","canvas-keyboard-response","52","140572","0.0-12.0-0.8","2d_cat_multi_stim_exp1","2022-4-15","15:15:0","25","75","3","9","10","40","30","120","43","19","[""Asian""]","No","Female","2067466","null","null","","","","fixation","","","","","","","","","","","","","","","","","","","","","","","","","",""
"","","","","","canvas-keyboard-response","53","141084","0.0-12.0-1.8","2d_cat_multi_stim_exp1","2022-4-15","15:15:0","25","75","3","9","10","40","30","120","43","19","[""Asian""]","No","Female","2067466","null","null","","","","clear_screen","","","","","","","","","","","","","","","","","","","","","","","","","",""
"","","","","","canvas-keyboard-response","54","142022","0.0-12.0-2.8","2d_cat_multi_stim_exp1","2022-4-15","15:15:0","25","75","3","9","10","40","30","120","43","19","[""Asian""]","No","Female","2067466","928","u","learn","","","learn_trial","16.6667","70","out","1","0","","","","","","","","","","","","","","","","","","","","",""
"","","","","","canvas-keyboard-response","55","143034","0.0-12.0-3.8","2d_cat_multi_stim_exp1","2022-4-15","15:15:0","25","75","3","9","10","40","30","120","43","19","[""Asian""]","No","Female","2067466","null","null","learn_feedback","","","learn_feedback","16.6667","70","out","","","","","","","","","","","","","","","","","","","","","","",""
"","","","","","canvas-keyboard-response","56","143093","0.0-12.0-4.8","2d_cat_multi_stim_exp1","2022-4-15","15:15:0","25","75","3","9","10","40","30","120","43","19","[""Asian""]","No","Female","2067466","null","null","","","","clear_screen","","","","","","","","","","","","","","","","","","","","","","","","","",""
"","","","","","canvas-keyboard-response","57","143603","0.0-12.0-0.9","2d_cat_multi_stim_exp1","2022-4-15","15:15:0","25","75","3","9","10","40","30","120","43","19","[""Asian""]","No","Female","2067466","null","null","","","","fixation","","","","","","","","","","","","","","","","","","","","","","","","","",""
"","","","","","canvas-keyboard-response","58","144113","0.0-12.0-1.9","2d_cat_multi_stim_exp1","2022-4-15","15:15:0","25","75","3","9","10","40","30","120","43","19","[""Asian""]","No","Female","2067466","null","null","","","","clear_screen","","","","","","","","","","","","","","","","","","","","","","","","","",""
"","","","","","canvas-keyboard-response","59","146350","0.0-12.0-2.9","2d_cat_multi_stim_exp1","2022-4-15","15:15:0","25","75","3","9","10","40","30","120","43","19","[""Asian""]","No","Female","2067466","2227","u","learn","","","learn_trial","25","75","in","1","1","","","","","","","","","","","","","","","","","","","","",""
"","","","","","canvas-keyboard-response","60","146862","0.0-12.0-3.9","2d_cat_multi_stim_exp1","2022-4-15","15:15:0","25","75","3","9","10","40","30","120","43","19","[""Asian""]","No","Female","2067466","null","null","learn_feedback","","","learn_feedback","25","75","in","","","","","","","","","","","","","","","","","","","","","","",""
"","","","","","canvas-keyboard-response","61","146923","0.0-12.0-4.9","2d_cat_multi_stim_exp1","2022-4-15","15:15:0","25","75","3","9","10","40","30","120","43","19","[""Asian""]","No","Female","2067466","null","null","","","","clear_screen","","","","","","","","","","","","","","","","","","","","","","","","","",""
"","","","","","canvas-keyboard-response","62","147431","0.0-12.0-0.10","2d_cat_multi_stim_exp1","2022-4-15","15:15:0","25","75","3","9","10","40","30","120","43","19","[""Asian""]","No","Female","2067466","null","null","","","","fixation","","","","","","","","","","","","","","","","","","","","","","","","","",""
"","","","","","canvas-keyboard-response","63","147943","0.0-12.0-1.10","2d_cat_multi_stim_exp1","2022-4-15","15:15:0","25","75","3","9","10","40","30","120","43","19","[""Asian""]","No","Female","2067466","null","null","","","","clear_screen","","","","","","","","","","","","","","","","","","","","","","","","","",""
"","","","","","canvas-keyboard-response","64","149006","0.0-12.0-2.10","2d_cat_multi_stim_exp1","2022-4-15","15:15:0","25","75","3","9","10","40","30","120","43","19","[""Asian""]","No","Female","2067466","1051","u","learn","","","learn_trial","29.2426","87.7279","in","1","1","","","","","","","","","","","","","","","","","","","","",""
"","","","","","canvas-keyboard-response","65","149515","0.0-12.0-3.10","2d_cat_multi_stim_exp1","2022-4-15","15:15:0","25","75","3","9","10","40","30","120","43","19","[""Asian""]","No","Female","2067466","null","null","learn_feedback","","","learn_feedback","29.2426","87.7279","in","","","","","","","","","","","","","","","","","","","","","","",""
"","","","","","canvas-keyboard-response","66","149577","0.0-12.0-4.10","2d_cat_multi_stim_exp1","2022-4-15","15:15:0","25","75","3","9","10","40","30","120","43","19","[""Asian""]","No","Female","2067466","null","null","","","","clear_screen","","","","","","","","","","","","","","","","","","","","","","","","","",""
"","","","","","canvas-keyboard-response","67","150083","0.0-12.0-0.11","2d_cat_multi_stim_exp1","2022-4-15","15:15:0","25","75","3","9","10","40","30","120","43","19","[""Asian""]","No","Female","2067466","null","null","","","","fixation","","","","","","","","","","","","","","","","","","","","","","","","","",""
"","","","","","canvas-keyboard-response","68","150594","0.0-12.0-1.11","2d_cat_multi_stim_exp1","2022-4-15","15:15:0","25","75","3","9","10","40","30","120","43","19","[""Asian""]","No","Female","2067466","null","null","","","","clear_screen","","","","","","","","","","","","","","","","","","","","","","","","","",""
"","","","","","canvas-keyboard-response","69","152998","0.0-12.0-2.11","2d_cat_multi_stim_exp1","2022-4-15","15:15:0","25","75","3","9","10","40","30","120","43","19","[""Asian""]","No","Female","2067466","2396","i","learn","","","learn_trial","36.6667","70","out","0","1","","","","","","","","","","","","","","","","","","","","",""
"","","","","","canvas-keyboard-response","70","153507","0.0-12.0-3.11","2d_cat_multi_stim_exp1","2022-4-15","15:15:0","25","75","3","9","10","40","30","120","43","19","[""Asian""]","No","Female","2067466","null","null","learn_feedback","","","learn_feedback","36.6667","70","out","","","","","","","","","","","","","","","","","","","","","","",""
"","","","","","canvas-keyboard-response","71","153570","0.0-12.0-4.11","2d_cat_multi_stim_exp1","2022-4-15","15:15:0","25","75","3","9","10","40","30","120","43","19","[""Asian""]","No","Female","2067466","null","null","","","","clear_screen","","","","","","","","","","","","","","","","","","","","","","","","","",""
"","","","","","canvas-keyboard-response","72","154078","0.0-12.0-0.12","2d_cat_multi_stim_exp1","2022-4-15","15:15:0","25","75","3","9","10","40","30","120","43","19","[""Asian""]","No","Female","2067466","null","null","","","","fixation","","","","","","","","","","","","","","","","","","","","","","","","","",""
"","","","","","canvas-keyboard-response","73","154589","0.0-12.0-1.12","2d_cat_multi_stim_exp1","2022-4-15","15:15:0","25","75","3","9","10","40","30","120","43","19","[""Asian""]","No","Female","2067466","null","null","","","","clear_screen","","","","","","","","","","","","","","","","","","","","","","","","","",""
"","","","","","canvas-keyboard-response","74","157014","0.0-12.0-2.12","2d_cat_multi_stim_exp1","2022-4-15","15:15:0","25","75","3","9","10","40","30","120","43","19","[""Asian""]","No","Female","2067466","2416","i","learn","","","learn_trial","16.6667","80","out","0","1","","","","","","","","","","","","","","","","","","","","",""
"","","","","","canvas-keyboard-response","75","157523","0.0-12.0-3.12","2d_cat_multi_stim_exp1","2022-4-15","15:15:0","25","75","3","9","10","40","30","120","43","19","[""Asian""]","No","Female","2067466","null","null","learn_feedback","","","learn_feedback","16.6667","80","out","","","","","","","","","","","","","","","","","","","","","","",""
"","","","","","canvas-keyboard-response","76","157582","0.0-12.0-4.12","2d_cat_multi_stim_exp1","2022-4-15","15:15:0","25","75","3","9","10","40","30","120","43","19","[""Asian""]","No","Female","2067466","null","null","","","","clear_screen","","","","","","","","","","","","","","","","","","","","","","","","","",""
"","","","","","canvas-keyboard-response","77","158092","0.0-12.0-0.13","2d_cat_multi_stim_exp1","2022-4-15","15:15:0","25","75","3","9","10","40","30","120","43","19","[""Asian""]","No","Female","2067466","null","null","","","","fixation","","","","","","","","","","","","","","","","","","","","","","","","","",""
"","","","","","canvas-keyboard-response","78","158602","0.0-12.0-1.13","2d_cat_multi_stim_exp1","2022-4-15","15:15:0","25","75","3","9","10","40","30","120","43","19","[""Asian""]","No","Female","2067466","null","null","","","","clear_screen","","","","","","","","","","","","","","","","","","","","","","","","","",""
"","","","","","canvas-keyboard-response","79","160607","0.0-12.0-2.13","2d_cat_multi_stim_exp1","2022-4-15","15:15:0","25","75","3","9","10","40","30","120","43","19","[""Asian""]","No","Female","2067466","1993","u","learn","","","learn_trial","25","75","in","1","1","","","","","","","","","","","","","","","","","","","","",""
"","","","","","canvas-keyboard-response","80","161118","0.0-12.0-3.13","2d_cat_multi_stim_exp1","2022-4-15","15:15:0","25","75","3","9","10","40","30","120","43","19","[""Asian""]","No","Female","2067466","null","null","learn_feedback","","","learn_feedback","25","75","in","","","","","","","","","","","","","","","","","","","","","","",""
"","","","","","canvas-keyboard-response","81","161181","0.0-12.0-4.13","2d_cat_multi_stim_exp1","2022-4-15","15:15:0","25","75","3","9","10","40","30","120","43","19","[""Asian""]","No","Female","2067466","null","null","","","","clear_screen","","","","","","","","","","","","","","","","","","","","","","","","","",""
"","","","","","canvas-keyboard-response","82","161693","0.0-12.0-0.14","2d_cat_multi_stim_exp1","2022-4-15","15:15:0","25","75","3","9","10","40","30","120","43","19","[""Asian""]","No","Female","2067466","null","null","","","","fixation","","","","","","","","","","","","","","","","","","","","","","","","","",""
"","","","","","canvas-keyboard-response","83","162204","0.0-12.0-1.14","2d_cat_multi_stim_exp1","2022-4-15","15:15:0","25","75","3","9","10","40","30","120","43","19","[""Asian""]","No","Female","2067466","null","null","","","","clear_screen","","","","","","","","","","","","","","","","","","","","","","","","","",""
"","","","","","canvas-keyboard-response","84","163742","0.0-12.0-2.14","2d_cat_multi_stim_exp1","2022-4-15","15:15:0","25","75","3","9","10","40","30","120","43","19","[""Asian""]","No","Female","2067466","1523","u","learn","","","learn_trial","20","90","out","1","0","","","","","","","","","","","","","","","","","","","","",""
"","","","","","canvas-keyboard-response","85","164754","0.0-12.0-3.14","2d_cat_multi_stim_exp1","2022-4-15","15:15:0","25","75","3","9","10","40","30","120","43","19","[""Asian""]","No","Female","2067466","null","null","learn_feedback","","","learn_feedback","20","90","out","","","","","","","","","","","","","","","","","","","","","","",""
"","","","","","canvas-keyboard-response","86","164814","0.0-12.0-4.14","2d_cat_multi_stim_exp1","2022-4-15","15:15:0","25","75","3","9","10","40","30","120","43","19","[""Asian""]","No","Female","2067466","null","null","","","","clear_screen","","","","","","","","","","","","","","","","","","","","","","","","","",""
"","","","","","canvas-keyboard-response","87","165322","0.0-12.0-0.15","2d_cat_multi_stim_exp1","2022-4-15","15:15:0","25","75","3","9","10","40","30","120","43","19","[""Asian""]","No","Female","2067466","null","null","","","","fixation","","","","","","","","","","","","","","","","","","","","","","","","","",""
"","","","","","canvas-keyboard-response","88","165835","0.0-12.0-1.15","2d_cat_multi_stim_exp1","2022-4-15","15:15:0","25","75","3","9","10","40","30","120","43","19","[""Asian""]","No","Female","2067466","null","null","","","","clear_screen","","","","","","","","","","","","","","","","","","","","","","","","","",""
"","","","","","canvas-keyboard-response","89","167520","0.0-12.0-2.15","2d_cat_multi_stim_exp1","2022-4-15","15:15:0","25","75","3","9","10","40","30","120","43","19","[""Asian""]","No","Female","2067466","1675","u","learn","","","learn_trial","25","75","in","1","1","","","","","","","","","","","","","","","","","","","","",""
"","","","","","canvas-keyboard-response","90","168028","0.0-12.0-3.15","2d_cat_multi_stim_exp1","2022-4-15","15:15:0","25","75","3","9","10","40","30","120","43","19","[""Asian""]","No","Female","2067466","null","null","learn_feedback","","","learn_feedback","25","75","in","","","","","","","","","","","","","","","","","","","","","","",""
"","","","","","canvas-keyboard-response","91","168088","0.0-12.0-4.15","2d_cat_multi_stim_exp1","2022-4-15","15:15:0","25","75","3","9","10","40","30","120","43","19","[""Asian""]","No","Female","2067466","null","null","","","","clear_screen","","","","","","","","","","","","","","","","","","","","","","","","","",""
"","","","","","canvas-keyboard-response","92","168597","0.0-12.0-0.16","2d_cat_multi_stim_exp1","2022-4-15","15:15:0","25","75","3","9","10","40","30","120","43","19","[""Asian""]","No","Female","2067466","null","null","","","","fixation","","","","","","","","","","","","","","","","","","","","","","","","","",""
"","","","","","canvas-keyboard-response","93","169109","0.0-12.0-1.16","2d_cat_multi_stim_exp1","2022-4-15","15:15:0","25","75","3","9","10","40","30","120","43","19","[""Asian""]","No","Female","2067466","null","null","","","","clear_screen","","","","","","","","","","","","","","","","","","","","","","","","","",""
"","","","","","canvas-keyboard-response","94","172582","0.0-12.0-2.16","2d_cat_multi_stim_exp1","2022-4-15","15:15:0","25","75","3","9","10","40","30","120","43","19","[""Asian""]","No","Female","2067466","3463","i","learn","","","learn_trial","30","80","out","0","1","","","","","","","","","","","","","","","","","","","","",""
"","","","","","canvas-keyboard-response","95","173094","0.0-12.0-3.16","2d_cat_multi_stim_exp1","2022-4-15","15:15:0","25","75","3","9","10","40","30","120","43","19","[""Asian""]","No","Female","2067466","null","null","learn_feedback","","","learn_feedback","30","80","out","","","","","","","","","","","","","","","","","","","","","","",""
"","","","","","canvas-keyboard-response","96","173155","0.0-12.0-4.16","2d_cat_multi_stim_exp1","2022-4-15","15:15:0","25","75","3","9","10","40","30","120","43","19","[""Asian""]","No","Female","2067466","null","null","","","","clear_screen","","","","","","","","","","","","","","","","","","","","","","","","","",""
"","","","","","canvas-keyboard-response","97","173663","0.0-12.0-0.17","2d_cat_multi_stim_exp1","2022-4-15","15:15:0","25","75","3","9","10","40","30","120","43","19","[""Asian""]","No","Female","2067466","null","null","","","","fixation","","","","","","","","","","","","","","","","","","","","","","","","","",""
"","","","","","canvas-keyboard-response","98","174174","0.0-12.0-1.17","2d_cat_multi_stim_exp1","2022-4-15","15:15:0","25","75","3","9","10","40","30","120","43","19","[""Asian""]","No","Female","2067466","null","null","","","","clear_screen","","","","","","","","","","","","","","","","","","","","","","","","","",""
"","","","","","canvas-keyboard-response","99","175438","0.0-12.0-2.17","2d_cat_multi_stim_exp1","2022-4-15","15:15:0","25","75","3","9","10","40","30","120","43","19","[""Asian""]","No","Female","2067466","1254","u","learn","","","learn_trial","22.2971","71.095","in","1","1","","","","","","","","","","","","","","","","","","","","",""
"","","","","","canvas-keyboard-response","100","175949","0.0-12.0-3.17","2d_cat_multi_stim_exp1","2022-4-15","15:15:0","25","75","3","9","10","40","30","120","43","19","[""Asian""]","No","Female","2067466","null","null","learn_feedback","","","learn_feedback","22.2971","71.095","in","","","","","","","","","","","","","","","","","","","","","","",""
"","","","","","canvas-keyboard-response","101","176009","0.0-12.0-4.17","2d_cat_multi_stim_exp1","2022-4-15","15:15:0","25","75","3","9","10","40","30","120","43","19","[""Asian""]","No","Female","2067466","null","null","","","","clear_screen","","","","","","","","","","","","","","","","","","","","","","","","","",""
"","","","","","canvas-keyboard-response","102","176517","0.0-12.0-0.18","2d_cat_multi_stim_exp1","2022-4-15","15:15:0","25","75","3","9","10","40","30","120","43","19","[""Asian""]","No","Female","2067466","null","null","","","","fixation","","","","","","","","","","","","","","","","","","","","","","","","","",""
"","","","","","canvas-keyboard-response","103","177031","0.0-12.0-1.18","2d_cat_multi_stim_exp1","2022-4-15","15:15:0","25","75","3","9","10","40","30","120","43","19","[""Asian""]","No","Female","2067466","null","null","","","","clear_screen","","","","","","","","","","","","","","","","","","","","","","","","","",""
"","","","","","canvas-keyboard-response","104","179552","0.0-12.0-2.18","2d_cat_multi_stim_exp1","2022-4-15","15:15:0","25","75","3","9","10","40","30","120","43","19","[""Asian""]","No","Female","2067466","2512","i","learn","","","learn_trial","22.0121","75.8068","in","0","0","","","","","","","","","","","","","","","","","","","","",""
"","","","","","canvas-keyboard-response","105","180563","0.0-12.0-3.18","2d_cat_multi_stim_exp1","2022-4-15","15:15:0","25","75","3","9","10","40","30","120","43","19","[""Asian""]","No","Female","2067466","null","null","learn_feedback","","","learn_feedback","22.0121","75.8068","in","","","","","","","","","","","","","","","","","","","","","","",""
"","","","","","canvas-keyboard-response","106","180625","0.0-12.0-4.18","2d_cat_multi_stim_exp1","2022-4-15","15:15:0","25","75","3","9","10","40","30","120","43","19","[""Asian""]","No","Female","2067466","null","null","","","","clear_screen","","","","","","","","","","","","","","","","","","","","","","","","","",""
"","","","","","canvas-keyboard-response","107","181135","0.0-12.0-0.19","2d_cat_multi_stim_exp1","2022-4-15","15:15:0","25","75","3","9","10","40","30","120","43","19","[""Asian""]","No","Female","2067466","null","null","","","","fixation","","","","","","","","","","","","","","","","","","","","","","","","","",""
"","","","","","canvas-keyboard-response","108","181648","0.0-12.0-1.19","2d_cat_multi_stim_exp1","2022-4-15","15:15:0","25","75","3","9","10","40","30","120","43","19","[""Asian""]","No","Female","2067466","null","null","","","","clear_screen","","","","","","","","","","","","","","","","","","","","","","","","","",""
"","","","","","canvas-keyboard-response","109","184062","0.0-12.0-2.19","2d_cat_multi_stim_exp1","2022-4-15","15:15:0","25","75","3","9","10","40","30","120","43","19","[""Asian""]","No","Female","2067466","2400","i","learn","","","learn_trial","33.3333","40","out","0","1","","","","","","","","","","","","","","","","","","","","",""
"","","","","","canvas-keyboard-response","110","184571","0.0-12.0-3.19","2d_cat_multi_stim_exp1","2022-4-15","15:15:0","25","75","3","9","10","40","30","120","43","19","[""Asian""]","No","Female","2067466","null","null","learn_feedback","","","learn_feedback","33.3333","40","out","","","","","","","","","","","","","","","","","","","","","","",""
"","","","","","canvas-keyboard-response","111","184631","0.0-12.0-4.19","2d_cat_multi_stim_exp1","2022-4-15","15:15:0","25","75","3","9","10","40","30","120","43","19","[""Asian""]","No","Female","2067466","null","null","","","","clear_screen","","","","","","","","","","","","","","","","","","","","","","","","","",""
"","","","","","canvas-keyboard-response","112","185143","0.0-12.0-0.20","2d_cat_multi_stim_exp1","2022-4-15","15:15:0","25","75","3","9","10","40","30","120","43","19","[""Asian""]","No","Female","2067466","null","null","","","","fixation","","","","","","","","","","","","","","","","","","","","","","","","","",""
"","","","","","canvas-keyboard-response","113","185654","0.0-12.0-1.20","2d_cat_multi_stim_exp1","2022-4-15","15:15:0","25","75","3","9","10","40","30","120","43","19","[""Asian""]","No","Female","2067466","null","null","","","","clear_screen","","","","","","","","","","","","","","","","","","","","","","","","","",""
"","","","","","canvas-keyboard-response","114","186903","0.0-12.0-2.20","2d_cat_multi_stim_exp1","2022-4-15","15:15:0","25","75","3","9","10","40","30","120","43","19","[""Asian""]","No","Female","2067466","1238","i","learn","","","learn_trial","13.3333","60","out","0","1","","","","","","","","","","","","","","","","","","","","",""
"","","","","","canvas-keyboard-response","115","187411","0.0-12.0-3.20","2d_cat_multi_stim_exp1","2022-4-15","15:15:0","25","75","3","9","10","40","30","120","43","19","[""Asian""]","No","Female","2067466","null","null","learn_feedback","","","learn_feedback","13.3333","60","out","","","","","","","","","","","","","","","","","","","","","","",""
"","","","","","canvas-keyboard-response","116","187475","0.0-12.0-4.20","2d_cat_multi_stim_exp1","2022-4-15","15:15:0","25","75","3","9","10","40","30","120","43","19","[""Asian""]","No","Female","2067466","null","null","","","","clear_screen","","","","","","","","","","","","","","","","","","","","","","","","","",""
"","","","","","canvas-keyboard-response","117","187983","0.0-12.0-0.21","2d_cat_multi_stim_exp1","2022-4-15","15:15:0","25","75","3","9","10","40","30","120","43","19","[""Asian""]","No","Female","2067466","null","null","","","","fixation","","","","","","","","","","","","","","","","","","","","","","","","","",""
"","","","","","canvas-keyboard-response","118","188493","0.0-12.0-1.21","2d_cat_multi_stim_exp1","2022-4-15","15:15:0","25","75","3","9","10","40","30","120","43","19","[""Asian""]","No","Female","2067466","null","null","","","","clear_screen","","","","","","","","","","","","","","","","","","","","","","","","","",""
"","","","","","canvas-keyboard-response","119","189279","0.0-12.0-2.21","2d_cat_multi_stim_exp1","2022-4-15","15:15:0","25","75","3","9","10","40","30","120","43","19","[""Asian""]","No","Female","2067466","775","i","learn","","","learn_trial","10","50","out","0","1","","","","","","","","","","","","","","","","","","","","",""
"","","","","","canvas-keyboard-response","120","189788","0.0-12.0-3.21","2d_cat_multi_stim_exp1","2022-4-15","15:15:0","25","75","3","9","10","40","30","120","43","19","[""Asian""]","No","Female","2067466","null","null","learn_feedback","","","learn_feedback","10","50","out","","","","","","","","","","","","","","","","","","","","","","",""
"","","","","","canvas-keyboard-response","121","189851","0.0-12.0-4.21","2d_cat_multi_stim_exp1","2022-4-15","15:15:0","25","75","3","9","10","40","30","120","43","19","[""Asian""]","No","Female","2067466","null","null","","","","clear_screen","","","","","","","","","","","","","","","","","","","","","","","","","",""
"","","","","","canvas-keyboard-response","122","190356","0.0-12.0-0.22","2d_cat_multi_stim_exp1","2022-4-15","15:15:0","25","75","3","9","10","40","30","120","43","19","[""Asian""]","No","Female","2067466","null","null","","","","fixation","","","","","","","","","","","","","","","","","","","","","","","","","",""
"","","","","","canvas-keyboard-response","123","190871","0.0-12.0-1.22","2d_cat_multi_stim_exp1","2022-4-15","15:15:0","25","75","3","9","10","40","30","120","43","19","[""Asian""]","No","Female","2067466","null","null","","","","clear_screen","","","","","","","","","","","","","","","","","","","","","","","","","",""
"","","","","","canvas-keyboard-response","124","193822","0.0-12.0-2.22","2d_cat_multi_stim_exp1","2022-4-15","15:15:0","25","75","3","9","10","40","30","120","43","19","[""Asian""]","No","Female","2067466","2945","i","learn","","","learn_trial","16.6667","100","out","0","1","","","","","","","","","","","","","","","","","","","","",""
"","","","","","canvas-keyboard-response","125","194331","0.0-12.0-3.22","2d_cat_multi_stim_exp1","2022-4-15","15:15:0","25","75","3","9","10","40","30","120","43","19","[""Asian""]","No","Female","2067466","null","null","learn_feedback","","","learn_feedback","16.6667","100","out","","","","","","","","","","","","","","","","","","","","","","",""
"","","","","","canvas-keyboard-response","126","194390","0.0-12.0-4.22","2d_cat_multi_stim_exp1","2022-4-15","15:15:0","25","75","3","9","10","40","30","120","43","19","[""Asian""]","No","Female","2067466","null","null","","","","clear_screen","","","","","","","","","","","","","","","","","","","","","","","","","",""
"","","","","","canvas-keyboard-response","127","194900","0.0-12.0-0.23","2d_cat_multi_stim_exp1","2022-4-15","15:15:0","25","75","3","9","10","40","30","120","43","19","[""Asian""]","No","Female","2067466","null","null","","","","fixation","","","","","","","","","","","","","","","","","","","","","","","","","",""
"","","","","","canvas-keyboard-response","128","195415","0.0-12.0-1.23","2d_cat_multi_stim_exp1","2022-4-15","15:15:0","25","75","3","9","10","40","30","120","43","19","[""Asian""]","No","Female","2067466","null","null","","","","clear_screen","","","","","","","","","","","","","","","","","","","","","","","","","",""
"","","","","","canvas-keyboard-response","129","196670","0.0-12.0-2.23","2d_cat_multi_stim_exp1","2022-4-15","15:15:0","25","75","3","9","10","40","30","120","43","19","[""Asian""]","No","Female","2067466","1247","u","learn","","","learn_trial","25","75","in","1","1","","","","","","","","","","","","","","","","","","","","",""
"","","","","","canvas-keyboard-response","130","197182","0.0-12.0-3.23","2d_cat_multi_stim_exp1","2022-4-15","15:15:0","25","75","3","9","10","40","30","120","43","19","[""Asian""]","No","Female","2067466","null","null","learn_feedback","","","learn_feedback","25","75","in","","","","","","","","","","","","","","","","","","","","","","",""
"","","","","","canvas-keyboard-response","131","197243","0.0-12.0-4.23","2d_cat_multi_stim_exp1","2022-4-15","15:15:0","25","75","3","9","10","40","30","120","43","19","[""Asian""]","No","Female","2067466","null","null","","","","clear_screen","","","","","","","","","","","","","","","","","","","","","","","","","",""
"","","","","","canvas-keyboard-response","132","197753","0.0-12.0-0.24","2d_cat_multi_stim_exp1","2022-4-15","15:15:0","25","75","3","9","10","40","30","120","43","19","[""Asian""]","No","Female","2067466","null","null","","","","fixation","","","","","","","","","","","","","","","","","","","","","","","","","",""
"","","","","","canvas-keyboard-response","133","198264","0.0-12.0-1.24","2d_cat_multi_stim_exp1","2022-4-15","15:15:0","25","75","3","9","10","40","30","120","43","19","[""Asian""]","No","Female","2067466","null","null","","","","clear_screen","","","","","","","","","","","","","","","","","","","","","","","","","",""
"","","","","","canvas-keyboard-response","134","199398","0.0-12.0-2.24","2d_cat_multi_stim_exp1","2022-4-15","15:15:0","25","75","3","9","10","40","30","120","43","19","[""Asian""]","No","Female","2067466","1126","i","learn","","","learn_trial","13.3333","50","out","0","1","","","","","","","","","","","","","","","","","","","","",""
"","","","","","canvas-keyboard-response","135","199909","0.0-12.0-3.24","2d_cat_multi_stim_exp1","2022-4-15","15:15:0","25","75","3","9","10","40","30","120","43","19","[""Asian""]","No","Female","2067466","null","null","learn_feedback","","","learn_feedback","13.3333","50","out","","","","","","","","","","","","","","","","","","","","","","",""
"","","","","","canvas-keyboard-response","136","199971","0.0-12.0-4.24","2d_cat_multi_stim_exp1","2022-4-15","15:15:0","25","75","3","9","10","40","30","120","43","19","[""Asian""]","No","Female","2067466","null","null","","","","clear_screen","","","","","","","","","","","","","","","","","","","","","","","","","",""
"","","","","","canvas-keyboard-response","137","200480","0.0-12.0-0.25","2d_cat_multi_stim_exp1","2022-4-15","15:15:0","25","75","3","9","10","40","30","120","43","19","[""Asian""]","No","Female","2067466","null","null","","","","fixation","","","","","","","","","","","","","","","","","","","","","","","","","",""
"","","","","","canvas-keyboard-response","138","200994","0.0-12.0-1.25","2d_cat_multi_stim_exp1","2022-4-15","15:15:0","25","75","3","9","10","40","30","120","43","19","[""Asian""]","No","Female","2067466","null","null","","","","clear_screen","","","","","","","","","","","","","","","","","","","","","","","","","",""
"","","","","","canvas-keyboard-response","139","201974","0.0-12.0-2.25","2d_cat_multi_stim_exp1","2022-4-15","15:15:0","25","75","3","9","10","40","30","120","43","19","[""Asian""]","No","Female","2067466","969","u","learn","","","learn_trial","25","75","in","1","1","","","","","","","","","","","","","","","","","","","","",""
"","","","","","canvas-keyboard-response","140","202487","0.0-12.0-3.25","2d_cat_multi_stim_exp1","2022-4-15","15:15:0","25","75","3","9","10","40","30","120","43","19","[""Asian""]","No","Female","2067466","null","null","learn_feedback","","","learn_feedback","25","75","in","","","","","","","","","","","","","","","","","","","","","","",""
"","","","","","canvas-keyboard-response","141","202550","0.0-12.0-4.25","2d_cat_multi_stim_exp1","2022-4-15","15:15:0","25","75","3","9","10","40","30","120","43","19","[""Asian""]","No","Female","2067466","null","null","","","","clear_screen","","","","","","","","","","","","","","","","","","","","","","","","","",""
"","","","","","canvas-keyboard-response","142","203059","0.0-12.0-0.26","2d_cat_multi_stim_exp1","2022-4-15","15:15:0","25","75","3","9","10","40","30","120","43","19","[""Asian""]","No","Female","2067466","null","null","","","","fixation","","","","","","","","","","","","","","","","","","","","","","","","","",""
"","","","","","canvas-keyboard-response","143","203574","0.0-12.0-1.26","2d_cat_multi_stim_exp1","2022-4-15","15:15:0","25","75","3","9","10","40","30","120","43","19","[""Asian""]","No","Female","2067466","null","null","","","","clear_screen","","","","","","","","","","","","","","","","","","","","","","","","","",""
"","","","","","canvas-keyboard-response","144","205974","0.0-12.0-2.26","2d_cat_multi_stim_exp1","2022-4-15","15:15:0","25","75","3","9","10","40","30","120","43","19","[""Asian""]","No","Female","2067466","2391","i","learn","","","learn_trial","25","75","in","0","0","","","","","","","","","","","","","","","","","","","","",""
"","","","","","canvas-keyboard-response","145","206984","0.0-12.0-3.26","2d_cat_multi_stim_exp1","2022-4-15","15:15:0","25","75","3","9","10","40","30","120","43","19","[""Asian""]","No","Female","2067466","null","null","learn_feedback","","","learn_feedback","25","75","in","","","","","","","","","","","","","","","","","","","","","","",""
"","","","","","canvas-keyboard-response","146","207042","0.0-12.0-4.26","2d_cat_multi_stim_exp1","2022-4-15","15:15:0","25","75","3","9","10","40","30","120","43","19","[""Asian""]","No","Female","2067466","null","null","","","","clear_screen","","","","","","","","","","","","","","","","","","","","","","","","","",""
"","","","","","canvas-keyboard-response","147","207555","0.0-12.0-0.27","2d_cat_multi_stim_exp1","2022-4-15","15:15:0","25","75","3","9","10","40","30","120","43","19","[""Asian""]","No","Female","2067466","null","null","","","","fixation","","","","","","","","","","","","","","","","","","","","","","","","","",""
"","","","","","canvas-keyboard-response","148","208066","0.0-12.0-1.27","2d_cat_multi_stim_exp1","2022-4-15","15:15:0","25","75","3","9","10","40","30","120","43","19","[""Asian""]","No","Female","2067466","null","null","","","","clear_screen","","","","","","","","","","","","","","","","","","","","","","","","","",""
"","","","","","canvas-keyboard-response","149","210461","0.0-12.0-2.27","2d_cat_multi_stim_exp1","2022-4-15","15:15:0","25","75","3","9","10","40","30","120","43","19","[""Asian""]","No","Female","2067466","2388","i","learn","","","learn_trial","36.6667","100","out","0","1","","","","","","","","","","","","","","","","","","","","",""
"","","","","","canvas-keyboard-response","150","210969","0.0-12.0-3.27","2d_cat_multi_stim_exp1","2022-4-15","15:15:0","25","75","3","9","10","40","30","120","43","19","[""Asian""]","No","Female","2067466","null","null","learn_feedback","","","learn_feedback","36.6667","100","out","","","","","","","","","","","","","","","","","","","","","","",""
"","","","","","canvas-keyboard-response","151","211030","0.0-12.0-4.27","2d_cat_multi_stim_exp1","2022-4-15","15:15:0","25","75","3","9","10","40","30","120","43","19","[""Asian""]","No","Female","2067466","null","null","","","","clear_screen","","","","","","","","","","","","","","","","","","","","","","","","","",""
"","","","","","canvas-keyboard-response","152","211539","0.0-12.0-0.28","2d_cat_multi_stim_exp1","2022-4-15","15:15:0","25","75","3","9","10","40","30","120","43","19","[""Asian""]","No","Female","2067466","null","null","","","","fixation","","","","","","","","","","","","","","","","","","","","","","","","","",""
"","","","","","canvas-keyboard-response","153","212052","0.0-12.0-1.28","2d_cat_multi_stim_exp1","2022-4-15","15:15:0","25","75","3","9","10","40","30","120","43","19","[""Asian""]","No","Female","2067466","null","null","","","","clear_screen","","","","","","","","","","","","","","","","","","","","","","","","","",""
"","","","","","canvas-keyboard-response","154","213198","0.0-12.0-2.28","2d_cat_multi_stim_exp1","2022-4-15","15:15:0","25","75","3","9","10","40","30","120","43","19","[""Asian""]","No","Female","2067466","1138","i","learn","","","learn_trial","10","80","out","0","1","","","","","","","","","","","","","","","","","","","","",""
"","","","","","canvas-keyboard-response","155","213708","0.0-12.0-3.28","2d_cat_multi_stim_exp1","2022-4-15","15:15:0","25","75","3","9","10","40","30","120","43","19","[""Asian""]","No","Female","2067466","null","null","learn_feedback","","","learn_feedback","10","80","out","","","","","","","","","","","","","","","","","","","","","","",""
"","","","","","canvas-keyboard-response","156","213770","0.0-12.0-4.28","2d_cat_multi_stim_exp1","2022-4-15","15:15:0","25","75","3","9","10","40","30","120","43","19","[""Asian""]","No","Female","2067466","null","null","","","","clear_screen","","","","","","","","","","","","","","","","","","","","","","","","","",""
"","","","","","canvas-keyboard-response","157","214281","0.0-12.0-0.29","2d_cat_multi_stim_exp1","2022-4-15","15:15:0","25","75","3","9","10","40","30","120","43","19","[""Asian""]","No","Female","2067466","null","null","","","","fixation","","","","","","","","","","","","","","","","","","","","","","","","","",""
"","","","","","canvas-keyboard-response","158","214792","0.0-12.0-1.29","2d_cat_multi_stim_exp1","2022-4-15","15:15:0","25","75","3","9","10","40","30","120","43","19","[""Asian""]","No","Female","2067466","null","null","","","","clear_screen","","","","","","","","","","","","","","","","","","","","","","","","","",""
"","","","","","canvas-keyboard-response","159","216766","0.0-12.0-2.29","2d_cat_multi_stim_exp1","2022-4-15","15:15:0","25","75","3","9","10","40","30","120","43","19","[""Asian""]","No","Female","2067466","1965","u","learn","","","learn_trial","27.8087","78.1624","in","1","1","","","","","","","","","","","","","","","","","","","","",""
"","","","","","canvas-keyboard-response","160","217277","0.0-12.0-3.29","2d_cat_multi_stim_exp1","2022-4-15","15:15:0","25","75","3","9","10","40","30","120","43","19","[""Asian""]","No","Female","2067466","null","null","learn_feedback","","","learn_feedback","27.8087","78.1624","in","","","","","","","","","","","","","","","","","","","","","","",""
"","","","","","canvas-keyboard-response","161","217337","0.0-12.0-4.29","2d_cat_multi_stim_exp1","2022-4-15","15:15:0","25","75","3","9","10","40","30","120","43","19","[""Asian""]","No","Female","2067466","null","null","","","","clear_screen","","","","","","","","","","","","","","","","","","","","","","","","","",""
"","","","","","canvas-keyboard-response","162","217848","0.0-12.0-0.30","2d_cat_multi_stim_exp1","2022-4-15","15:15:0","25","75","3","9","10","40","30","120","43","19","[""Asian""]","No","Female","2067466","null","null","","","","fixation","","","","","","","","","","","","","","","","","","","","","","","","","",""
"","","","","","canvas-keyboard-response","163","218361","0.0-12.0-1.30","2d_cat_multi_stim_exp1","2022-4-15","15:15:0","25","75","3","9","10","40","30","120","43","19","[""Asian""]","No","Female","2067466","null","null","","","","clear_screen","","","","","","","","","","","","","","","","","","","","","","","","","",""
"","","","","","canvas-keyboard-response","164","219799","0.0-12.0-2.30","2d_cat_multi_stim_exp1","2022-4-15","15:15:0","25","75","3","9","10","40","30","120","43","19","[""Asian""]","No","Female","2067466","1426","u","learn","","","learn_trial","31","75","in","1","1","","","","","","","","","","","","","","","","","","","","",""
"","","","","","canvas-keyboard-response","165","220312","0.0-12.0-3.30","2d_cat_multi_stim_exp1","2022-4-15","15:15:0","25","75","3","9","10","40","30","120","43","19","[""Asian""]","No","Female","2067466","null","null","learn_feedback","","","learn_feedback","31","75","in","","","","","","","","","","","","","","","","","","","","","","",""
"","","","","","canvas-keyboard-response","166","220372","0.0-12.0-4.30","2d_cat_multi_stim_exp1","2022-4-15","15:15:0","25","75","3","9","10","40","30","120","43","19","[""Asian""]","No","Female","2067466","null","null","","","","clear_screen","","","","","","","","","","","","","","","","","","","","","","","","","",""
"","","","","","canvas-keyboard-response","167","220885","0.0-12.0-0.31","2d_cat_multi_stim_exp1","2022-4-15","15:15:0","25","75","3","9","10","40","30","120","43","19","[""Asian""]","No","Female","2067466","null","null","","","","fixation","","","","","","","","","","","","","","","","","","","","","","","","","",""
"","","","","","canvas-keyboard-response","168","221396","0.0-12.0-1.31","2d_cat_multi_stim_exp1","2022-4-15","15:15:0","25","75","3","9","10","40","30","120","43","19","[""Asian""]","No","Female","2067466","null","null","","","","clear_screen","","","","","","","","","","","","","","","","","","","","","","","","","",""
"","","","","","canvas-keyboard-response","169","223158","0.0-12.0-2.31","2d_cat_multi_stim_exp1","2022-4-15","15:15:0","25","75","3","9","10","40","30","120","43","19","[""Asian""]","No","Female","2067466","1752","u","learn","","","learn_trial","27.8087","71.8376","in","1","1","","","","","","","","","","","","","","","","","","","","",""
"","","","","","canvas-keyboard-response","170","223668","0.0-12.0-3.31","2d_cat_multi_stim_exp1","2022-4-15","15:15:0","25","75","3","9","10","40","30","120","43","19","[""Asian""]","No","Female","2067466","null","null","learn_feedback","","","learn_feedback","27.8087","71.8376","in","","","","","","","","","","","","","","","","","","","","","","",""
"","","","","","canvas-keyboard-response","171","223731","0.0-12.0-4.31","2d_cat_multi_stim_exp1","2022-4-15","15:15:0","25","75","3","9","10","40","30","120","43","19","[""Asian""]","No","Female","2067466","null","null","","","","clear_screen","","","","","","","","","","","","","","","","","","","","","","","","","",""
"","","","","","canvas-keyboard-response","172","224242","0.0-12.0-0.32","2d_cat_multi_stim_exp1","2022-4-15","15:15:0","25","75","3","9","10","40","30","120","43","19","[""Asian""]","No","Female","2067466","null","null","","","","fixation","","","","","","","","","","","","","","","","","","","","","","","","","",""
"","","","","","canvas-keyboard-response","173","224755","0.0-12.0-1.32","2d_cat_multi_stim_exp1","2022-4-15","15:15:0","25","75","3","9","10","40","30","120","43","19","[""Asian""]","No","Female","2067466","null","null","","","","clear_screen","","","","","","","","","","","","","","","","","","","","","","","","","",""
"","","","","","canvas-keyboard-response","174","225855","0.0-12.0-2.32","2d_cat_multi_stim_exp1","2022-4-15","15:15:0","25","75","3","9","10","40","30","120","43","19","[""Asian""]","No","Female","2067466","1090","i","learn","","","learn_trial","26.6667","50","out","0","1","","","","","","","","","","","","","","","","","","","","",""
"","","","","","canvas-keyboard-response","175","226365","0.0-12.0-3.32","2d_cat_multi_stim_exp1","2022-4-15","15:15:0","25","75","3","9","10","40","30","120","43","19","[""Asian""]","No","Female","2067466","null","null","learn_feedback","","","learn_feedback","26.6667","50","out","","","","","","","","","","","","","","","","","","","","","","",""
"","","","","","canvas-keyboard-response","176","226425","0.0-12.0-4.32","2d_cat_multi_stim_exp1","2022-4-15","15:15:0","25","75","3","9","10","40","30","120","43","19","[""Asian""]","No","Female","2067466","null","null","","","","clear_screen","","","","","","","","","","","","","","","","","","","","","","","","","",""
"","","","","","canvas-keyboard-response","177","226937","0.0-12.0-0.33","2d_cat_multi_stim_exp1","2022-4-15","15:15:0","25","75","3","9","10","40","30","120","43","19","[""Asian""]","No","Female","2067466","null","null","","","","fixation","","","","","","","","","","","","","","","","","","","","","","","","","",""
"","","","","","canvas-keyboard-response","178","227450","0.0-12.0-1.33","2d_cat_multi_stim_exp1","2022-4-15","15:15:0","25","75","3","9","10","40","30","120","43","19","[""Asian""]","No","Female","2067466","null","null","","","","clear_screen","","","","","","","","","","","","","","","","","","","","","","","","","",""
"","","","","","canvas-keyboard-response","179","228966","0.0-12.0-2.33","2d_cat_multi_stim_exp1","2022-4-15","15:15:0","25","75","3","9","10","40","30","120","43","19","[""Asian""]","No","Female","2067466","1506","i","learn","","","learn_trial","40","70","out","0","1","","","","","","","","","","","","","","","","","","","","",""
"","","","","","canvas-keyboard-response","180","229476","0.0-12.0-3.33","2d_cat_multi_stim_exp1","2022-4-15","15:15:0","25","75","3","9","10","40","30","120","43","19","[""Asian""]","No","Female","2067466","null","null","learn_feedback","","","learn_feedback","40","70","out","","","","","","","","","","","","","","","","","","","","","","",""
"","","","","","canvas-keyboard-response","181","229535","0.0-12.0-4.33","2d_cat_multi_stim_exp1","2022-4-15","15:15:0","25","75","3","9","10","40","30","120","43","19","[""Asian""]","No","Female","2067466","null","null","","","","clear_screen","","","","","","","","","","","","","","","","","","","","","","","","","",""
"","","","","","canvas-keyboard-response","182","230044","0.0-12.0-0.34","2d_cat_multi_stim_exp1","2022-4-15","15:15:0","25","75","3","9","10","40","30","120","43","19","[""Asian""]","No","Female","2067466","null","null","","","","fixation","","","","","","","","","","","","","","","","","","","","","","","","","",""
"","","","","","canvas-keyboard-response","183","230555","0.0-12.0-1.34","2d_cat_multi_stim_exp1","2022-4-15","15:15:0","25","75","3","9","10","40","30","120","43","19","[""Asian""]","No","Female","2067466","null","null","","","","clear_screen","","","","","","","","","","","","","","","","","","","","","","","","","",""
"","","","","","canvas-keyboard-response","184","231871","0.0-12.0-2.34","2d_cat_multi_stim_exp1","2022-4-15","15:15:0","25","75","3","9","10","40","30","120","43","19","[""Asian""]","No","Female","2067466","1306","i","learn","","","learn_trial","25","75","in","0","0","","","","","","","","","","","","","","","","","","","","",""
"","","","","","canvas-keyboard-response","185","232879","0.0-12.0-3.34","2d_cat_multi_stim_exp1","2022-4-15","15:15:0","25","75","3","9","10","40","30","120","43","19","[""Asian""]","No","Female","2067466","null","null","learn_feedback","","","learn_feedback","25","75","in","","","","","","","","","","","","","","","","","","","","","","",""
"","","","","","canvas-keyboard-response","186","232942","0.0-12.0-4.34","2d_cat_multi_stim_exp1","2022-4-15","15:15:0","25","75","3","9","10","40","30","120","43","19","[""Asian""]","No","Female","2067466","null","null","","","","clear_screen","","","","","","","","","","","","","","","","","","","","","","","","","",""
"","","","","","canvas-keyboard-response","187","233453","0.0-12.0-0.35","2d_cat_multi_stim_exp1","2022-4-15","15:15:0","25","75","3","9","10","40","30","120","43","19","[""Asian""]","No","Female","2067466","null","null","","","","fixation","","","","","","","","","","","","","","","","","","","","","","","","","",""
"","","","","","canvas-keyboard-response","188","233965","0.0-12.0-1.35","2d_cat_multi_stim_exp1","2022-4-15","15:15:0","25","75","3","9","10","40","30","120","43","19","[""Asian""]","No","Female","2067466","null","null","","","","clear_screen","","","","","","","","","","","","","","","","","","","","","","","","","",""
"","","","","","canvas-keyboard-response","189","236295","0.0-12.0-2.35","2d_cat_multi_stim_exp1","2022-4-15","15:15:0","25","75","3","9","10","40","30","120","43","19","[""Asian""]","No","Female","2067466","2318","u","learn","","","learn_trial","13.3333","100","out","1","0","","","","","","","","","","","","","","","","","","","","",""
"","","","","","canvas-keyboard-response","190","237306","0.0-12.0-3.35","2d_cat_multi_stim_exp1","2022-4-15","15:15:0","25","75","3","9","10","40","30","120","43","19","[""Asian""]","No","Female","2067466","null","null","learn_feedback","","","learn_feedback","13.3333","100","out","","","","","","","","","","","","","","","","","","","","","","",""
"","","","","","canvas-keyboard-response","191","237367","0.0-12.0-4.35","2d_cat_multi_stim_exp1","2022-4-15","15:15:0","25","75","3","9","10","40","30","120","43","19","[""Asian""]","No","Female","2067466","null","null","","","","clear_screen","","","","","","","","","","","","","","","","","","","","","","","","","",""
"","","","","","canvas-keyboard-response","192","237877","0.0-12.0-0.36","2d_cat_multi_stim_exp1","2022-4-15","15:15:0","25","75","3","9","10","40","30","120","43","19","[""Asian""]","No","Female","2067466","null","null","","","","fixation","","","","","","","","","","","","","","","","","","","","","","","","","",""
"","","","","","canvas-keyboard-response","193","238388","0.0-12.0-1.36","2d_cat_multi_stim_exp1","2022-4-15","15:15:0","25","75","3","9","10","40","30","120","43","19","[""Asian""]","No","Female","2067466","null","null","","","","clear_screen","","","","","","","","","","","","","","","","","","","","","","","","","",""
"","","","","","canvas-keyboard-response","194","239391","0.0-12.0-2.36","2d_cat_multi_stim_exp1","2022-4-15","15:15:0","25","75","3","9","10","40","30","120","43","19","[""Asian""]","No","Female","2067466","992","u","learn","","","learn_trial","30","110","out","1","0","","","","","","","","","","","","","","","","","","","","",""
"","","","","","canvas-keyboard-response","195","240399","0.0-12.0-3.36","2d_cat_multi_stim_exp1","2022-4-15","15:15:0","25","75","3","9","10","40","30","120","43","19","[""Asian""]","No","Female","2067466","null","null","learn_feedback","","","learn_feedback","30","110","out","","","","","","","","","","","","","","","","","","","","","","",""
"","","","","","canvas-keyboard-response","196","240458","0.0-12.0-4.36","2d_cat_multi_stim_exp1","2022-4-15","15:15:0","25","75","3","9","10","40","30","120","43","19","[""Asian""]","No","Female","2067466","null","null","","","","clear_screen","","","","","","","","","","","","","","","","","","","","","","","","","",""
"","","","","","canvas-keyboard-response","197","240967","0.0-12.0-0.37","2d_cat_multi_stim_exp1","2022-4-15","15:15:0","25","75","3","9","10","40","30","120","43","19","[""Asian""]","No","Female","2067466","null","null","","","","fixation","","","","","","","","","","","","","","","","","","","","","","","","","",""
"","","","","","canvas-keyboard-response","198","241478","0.0-12.0-1.37","2d_cat_multi_stim_exp1","2022-4-15","15:15:0","25","75","3","9","10","40","30","120","43","19","[""Asian""]","No","Female","2067466","null","null","","","","clear_screen","","","","","","","","","","","","","","","","","","","","","","","","","",""
"","","","","","canvas-keyboard-response","199","242975","0.0-12.0-2.37","2d_cat_multi_stim_exp1","2022-4-15","15:15:0","25","75","3","9","10","40","30","120","43","19","[""Asian""]","No","Female","2067466","1489","i","learn","","","learn_trial","25","75","in","0","0","","","","","","","","","","","","","","","","","","","","",""
"","","","","","canvas-keyboard-response","200","243984","0.0-12.0-3.37","2d_cat_multi_stim_exp1","2022-4-15","15:15:0","25","75","3","9","10","40","30","120","43","19","[""Asian""]","No","Female","2067466","null","null","learn_feedback","","","learn_feedback","25","75","in","","","","","","","","","","","","","","","","","","","","","","",""
"","","","","","canvas-keyboard-response","201","244043","0.0-12.0-4.37","2d_cat_multi_stim_exp1","2022-4-15","15:15:0","25","75","3","9","10","40","30","120","43","19","[""Asian""]","No","Female","2067466","null","null","","","","clear_screen","","","","","","","","","","","","","","","","","","","","","","","","","",""
"","","","","","canvas-keyboard-response","202","244554","0.0-12.0-0.38","2d_cat_multi_stim_exp1","2022-4-15","15:15:0","25","75","3","9","10","40","30","120","43","19","[""Asian""]","No","Female","2067466","null","null","","","","fixation","","","","","","","","","","","","","","","","","","","","","","","","","",""
"","","","","","canvas-keyboard-response","203","245067","0.0-12.0-1.38","2d_cat_multi_stim_exp1","2022-4-15","15:15:0","25","75","3","9","10","40","30","120","43","19","[""Asian""]","No","Female","2067466","null","null","","","","clear_screen","","","","","","","","","","","","","","","","","","","","","","","","","",""
"","","","","","canvas-keyboard-response","204","246750","0.0-12.0-2.38","2d_cat_multi_stim_exp1","2022-4-15","15:15:0","25","75","3","9","10","40","30","120","43","19","[""Asian""]","No","Female","2067466","1674","i","learn","","","learn_trial","40","30","out","0","1","","","","","","","","","","","","","","","","","","","","",""
"","","","","","canvas-keyboard-response","205","247259","0.0-12.0-3.38","2d_cat_multi_stim_exp1","2022-4-15","15:15:0","25","75","3","9","10","40","30","120","43","19","[""Asian""]","No","Female","2067466","null","null","learn_feedback","","","learn_feedback","40","30","out","","","","","","","","","","","","","","","","","","","","","","",""
"","","","","","canvas-keyboard-response","206","247319","0.0-12.0-4.38","2d_cat_multi_stim_exp1","2022-4-15","15:15:0","25","75","3","9","10","40","30","120","43","19","[""Asian""]","No","Female","2067466","null","null","","","","clear_screen","","","","","","","","","","","","","","","","","","","","","","","","","",""
"","","","","","canvas-keyboard-response","207","247827","0.0-12.0-0.39","2d_cat_multi_stim_exp1","2022-4-15","15:15:0","25","75","3","9","10","40","30","120","43","19","[""Asian""]","No","Female","2067466","null","null","","","","fixation","","","","","","","","","","","","","","","","","","","","","","","","","",""
"","","","","","canvas-keyboard-response","208","248337","0.0-12.0-1.39","2d_cat_multi_stim_exp1","2022-4-15","15:15:0","25","75","3","9","10","40","30","120","43","19","[""Asian""]","No","Female","2067466","null","null","","","","clear_screen","","","","","","","","","","","","","","","","","","","","","","","","","",""
"","","","","","canvas-keyboard-response","209","251103","0.0-12.0-2.39","2d_cat_multi_stim_exp1","2022-4-15","15:15:0","25","75","3","9","10","40","30","120","43","19","[""Asian""]","No","Female","2067466","2758","u","learn","","","learn_trial","40","100","out","1","0","","","","","","","","","","","","","","","","","","","","",""
"","","","","","canvas-keyboard-response","210","252117","0.0-12.0-3.39","2d_cat_multi_stim_exp1","2022-4-15","15:15:0","25","75","3","9","10","40","30","120","43","19","[""Asian""]","No","Female","2067466","null","null","learn_feedback","","","learn_feedback","40","100","out","","","","","","","","","","","","","","","","","","","","","","",""
"","","","","","canvas-keyboard-response","211","252179","0.0-12.0-4.39","2d_cat_multi_stim_exp1","2022-4-15","15:15:0","25","75","3","9","10","40","30","120","43","19","[""Asian""]","No","Female","2067466","null","null","","","","clear_screen","","","","","","","","","","","","","","","","","","","","","","","","","",""
"","","","","","canvas-keyboard-response","212","252689","0.0-12.0-0.40","2d_cat_multi_stim_exp1","2022-4-15","15:15:0","25","75","3","9","10","40","30","120","43","19","[""Asian""]","No","Female","2067466","null","null","","","","fixation","","","","","","","","","","","","","","","","","","","","","","","","","",""
"","","","","","canvas-keyboard-response","213","253204","0.0-12.0-1.40","2d_cat_multi_stim_exp1","2022-4-15","15:15:0","25","75","3","9","10","40","30","120","43","19","[""Asian""]","No","Female","2067466","null","null","","","","clear_screen","","","","","","","","","","","","","","","","","","","","","","","","","",""
"","","","","","canvas-keyboard-response","214","254591","0.0-12.0-2.40","2d_cat_multi_stim_exp1","2022-4-15","15:15:0","25","75","3","9","10","40","30","120","43","19","[""Asian""]","No","Female","2067466","1379","u","learn","","","learn_trial","25","75","in","1","1","","","","","","","","","","","","","","","","","","","","",""
"","","","","","canvas-keyboard-response","215","255099","0.0-12.0-3.40","2d_cat_multi_stim_exp1","2022-4-15","15:15:0","25","75","3","9","10","40","30","120","43","19","[""Asian""]","No","Female","2067466","null","null","learn_feedback","","","learn_feedback","25","75","in","","","","","","","","","","","","","","","","","","","","","","",""
"","","","","","canvas-keyboard-response","216","255159","0.0-12.0-4.40","2d_cat_multi_stim_exp1","2022-4-15","15:15:0","25","75","3","9","10","40","30","120","43","19","[""Asian""]","No","Female","2067466","null","null","","","","clear_screen","","","","","","","","","","","","","","","","","","","","","","","","","",""
"","","","","","canvas-keyboard-response","217","255669","0.0-12.0-0.41","2d_cat_multi_stim_exp1","2022-4-15","15:15:0","25","75","3","9","10","40","30","120","43","19","[""Asian""]","No","Female","2067466","null","null","","","","fixation","","","","","","","","","","","","","","","","","","","","","","","","","",""
"","","","","","canvas-keyboard-response","218","256182","0.0-12.0-1.41","2d_cat_multi_stim_exp1","2022-4-15","15:15:0","25","75","3","9","10","40","30","120","43","19","[""Asian""]","No","Female","2067466","null","null","","","","clear_screen","","","","","","","","","","","","","","","","","","","","","","","","","",""
"","","","","","canvas-keyboard-response","219","257198","0.0-12.0-2.41","2d_cat_multi_stim_exp1","2022-4-15","15:15:0","25","75","3","9","10","40","30","120","43","19","[""Asian""]","No","Female","2067466","1008","i","learn","","","learn_trial","25","75","in","0","0","","","","","","","","","","","","","","","","","","","","",""
"","","","","","canvas-keyboard-response","220","258207","0.0-12.0-3.41","2d_cat_multi_stim_exp1","2022-4-15","15:15:0","25","75","3","9","10","40","30","120","43","19","[""Asian""]","No","Female","2067466","null","null","learn_feedback","","","learn_feedback","25","75","in","","","","","","","","","","","","","","","","","","","","","","",""
"","","","","","canvas-keyboard-response","221","258267","0.0-12.0-4.41","2d_cat_multi_stim_exp1","2022-4-15","15:15:0","25","75","3","9","10","40","30","120","43","19","[""Asian""]","No","Female","2067466","null","null","","","","clear_screen","","","","","","","","","","","","","","","","","","","","","","","","","",""
"","","","","","canvas-keyboard-response","222","258777","0.0-12.0-0.42","2d_cat_multi_stim_exp1","2022-4-15","15:15:0","25","75","3","9","10","40","30","120","43","19","[""Asian""]","No","Female","2067466","null","null","","","","fixation","","","","","","","","","","","","","","","","","","","","","","","","","",""
"","","","","","canvas-keyboard-response","223","259289","0.0-12.0-1.42","2d_cat_multi_stim_exp1","2022-4-15","15:15:0","25","75","3","9","10","40","30","120","43","19","[""Asian""]","No","Female","2067466","null","null","","","","clear_screen","","","","","","","","","","","","","","","","","","","","","","","","","",""
"","","","","","canvas-keyboard-response","224","260382","0.0-12.0-2.42","2d_cat_multi_stim_exp1","2022-4-15","15:15:0","25","75","3","9","10","40","30","120","43","19","[""Asian""]","No","Female","2067466","1081","i","learn","","","learn_trial","23.3473","67.4888","in","0","0","","","","","","","","","","","","","","","","","","","","",""
"","","","","","canvas-keyboard-response","225","261394","0.0-12.0-3.42","2d_cat_multi_stim_exp1","2022-4-15","15:15:0","25","75","3","9","10","40","30","120","43","19","[""Asian""]","No","Female","2067466","null","null","learn_feedback","","","learn_feedback","23.3473","67.4888","in","","","","","","","","","","","","","","","","","","","","","","",""
"","","","","","canvas-keyboard-response","226","261457","0.0-12.0-4.42","2d_cat_multi_stim_exp1","2022-4-15","15:15:0","25","75","3","9","10","40","30","120","43","19","[""Asian""]","No","Female","2067466","null","null","","","","clear_screen","","","","","","","","","","","","","","","","","","","","","","","","","",""
"","","","","","canvas-keyboard-response","227","261969","0.0-12.0-0.43","2d_cat_multi_stim_exp1","2022-4-15","15:15:0","25","75","3","9","10","40","30","120","43","19","[""Asian""]","No","Female","2067466","null","null","","","","fixation","","","","","","","","","","","","","","","","","","","","","","","","","",""
"","","","","","canvas-keyboard-response","228","262480","0.0-12.0-1.43","2d_cat_multi_stim_exp1","2022-4-15","15:15:0","25","75","3","9","10","40","30","120","43","19","[""Asian""]","No","Female","2067466","null","null","","","","clear_screen","","","","","","","","","","","","","","","","","","","","","","","","","",""
"","","","","","canvas-keyboard-response","229","264110","0.0-12.0-2.43","2d_cat_multi_stim_exp1","2022-4-15","15:15:0","25","75","3","9","10","40","30","120","43","19","[""Asian""]","No","Female","2067466","1617","u","learn","","","learn_trial","25","75","in","1","1","","","","","","","","","","","","","","","","","","","","",""
"","","","","","canvas-keyboard-response","230","264622","0.0-12.0-3.43","2d_cat_multi_stim_exp1","2022-4-15","15:15:0","25","75","3","9","10","40","30","120","43","19","[""Asian""]","No","Female","2067466","null","null","learn_feedback","","","learn_feedback","25","75","in","","","","","","","","","","","","","","","","","","","","","","",""
"","","","","","canvas-keyboard-response","231","264685","0.0-12.0-4.43","2d_cat_multi_stim_exp1","2022-4-15","15:15:0","25","75","3","9","10","40","30","120","43","19","[""Asian""]","No","Female","2067466","null","null","","","","clear_screen","","","","","","","","","","","","","","","","","","","","","","","","","",""
"","","","","","canvas-keyboard-response","232","265195","0.0-12.0-0.44","2d_cat_multi_stim_exp1","2022-4-15","15:15:0","25","75","3","9","10","40","30","120","43","19","[""Asian""]","No","Female","2067466","null","null","","","","fixation","","","","","","","","","","","","","","","","","","","","","","","","","",""
"","","","","","canvas-keyboard-response","233","265705","0.0-12.0-1.44","2d_cat_multi_stim_exp1","2022-4-15","15:15:0","25","75","3","9","10","40","30","120","43","19","[""Asian""]","No","Female","2067466","null","null","","","","clear_screen","","","","","","","","","","","","","","","","","","","","","","","","","",""
"","","","","","canvas-keyboard-response","234","266982","0.0-12.0-2.44","2d_cat_multi_stim_exp1","2022-4-15","15:15:0","25","75","3","9","10","40","30","120","43","19","[""Asian""]","No","Female","2067466","1264","i","learn","","","learn_trial","23.3333","120","out","0","1","","","","","","","","","","","","","","","","","","","","",""
"","","","","","canvas-keyboard-response","235","267493","0.0-12.0-3.44","2d_cat_multi_stim_exp1","2022-4-15","15:15:0","25","75","3","9","10","40","30","120","43","19","[""Asian""]","No","Female","2067466","null","null","learn_feedback","","","learn_feedback","23.3333","120","out","","","","","","","","","","","","","","","","","","","","","","",""
"","","","","","canvas-keyboard-response","236","267553","0.0-12.0-4.44","2d_cat_multi_stim_exp1","2022-4-15","15:15:0","25","75","3","9","10","40","30","120","43","19","[""Asian""]","No","Female","2067466","null","null","","","","clear_screen","","","","","","","","","","","","","","","","","","","","","","","","","",""
"","","","","","canvas-keyboard-response","237","268063","0.0-12.0-0.45","2d_cat_multi_stim_exp1","2022-4-15","15:15:0","25","75","3","9","10","40","30","120","43","19","[""Asian""]","No","Female","2067466","null","null","","","","fixation","","","","","","","","","","","","","","","","","","","","","","","","","",""
"","","","","","canvas-keyboard-response","238","268572","0.0-12.0-1.45","2d_cat_multi_stim_exp1","2022-4-15","15:15:0","25","75","3","9","10","40","30","120","43","19","[""Asian""]","No","Female","2067466","null","null","","","","clear_screen","","","","","","","","","","","","","","","","","","","","","","","","","",""
"","","","","","canvas-keyboard-response","239","269518","0.0-12.0-2.45","2d_cat_multi_stim_exp1","2022-4-15","15:15:0","25","75","3","9","10","40","30","120","43","19","[""Asian""]","No","Female","2067466","936","i","learn","","","learn_trial","40","50","out","0","1","","","","","","","","","","","","","","","","","","","","",""
"","","","","","canvas-keyboard-response","240","270030","0.0-12.0-3.45","2d_cat_multi_stim_exp1","2022-4-15","15:15:0","25","75","3","9","10","40","30","120","43","19","[""Asian""]","No","Female","2067466","null","null","learn_feedback","","","learn_feedback","40","50","out","","","","","","","","","","","","","","","","","","","","","","",""
"","","","","","canvas-keyboard-response","241","270091","0.0-12.0-4.45","2d_cat_multi_stim_exp1","2022-4-15","15:15:0","25","75","3","9","10","40","30","120","43","19","[""Asian""]","No","Female","2067466","null","null","","","","clear_screen","","","","","","","","","","","","","","","","","","","","","","","","","",""
"","","","","","canvas-keyboard-response","242","270600","0.0-12.0-0.46","2d_cat_multi_stim_exp1","2022-4-15","15:15:0","25","75","3","9","10","40","30","120","43","19","[""Asian""]","No","Female","2067466","null","null","","","","fixation","","","","","","","","","","","","","","","","","","","","","","","","","",""
"","","","","","canvas-keyboard-response","243","271112","0.0-12.0-1.46","2d_cat_multi_stim_exp1","2022-4-15","15:15:0","25","75","3","9","10","40","30","120","43","19","[""Asian""]","No","Female","2067466","null","null","","","","clear_screen","","","","","","","","","","","","","","","","","","","","","","","","","",""
"","","","","","canvas-keyboard-response","244","274046","0.0-12.0-2.46","2d_cat_multi_stim_exp1","2022-4-15","15:15:0","25","75","3","9","10","40","30","120","43","19","[""Asian""]","No","Female","2067466","2922","u","learn","","","learn_trial","22.9268","68.4948","in","1","1","","","","","","","","","","","","","","","","","","","","",""
"","","","","","canvas-keyboard-response","245","274554","0.0-12.0-3.46","2d_cat_multi_stim_exp1","2022-4-15","15:15:0","25","75","3","9","10","40","30","120","43","19","[""Asian""]","No","Female","2067466","null","null","learn_feedback","","","learn_feedback","22.9268","68.4948","in","","","","","","","","","","","","","","","","","","","","","","",""
"","","","","","canvas-keyboard-response","246","274618","0.0-12.0-4.46","2d_cat_multi_stim_exp1","2022-4-15","15:15:0","25","75","3","9","10","40","30","120","43","19","[""Asian""]","No","Female","2067466","null","null","","","","clear_screen","","","","","","","","","","","","","","","","","","","","","","","","","",""
"","","","","","canvas-keyboard-response","247","275129","0.0-12.0-0.47","2d_cat_multi_stim_exp1","2022-4-15","15:15:0","25","75","3","9","10","40","30","120","43","19","[""Asian""]","No","Female","2067466","null","null","","","","fixation","","","","","","","","","","","","","","","","","","","","","","","","","",""
"","","","","","canvas-keyboard-response","248","275643","0.0-12.0-1.47","2d_cat_multi_stim_exp1","2022-4-15","15:15:0","25","75","3","9","10","40","30","120","43","19","[""Asian""]","No","Female","2067466","null","null","","","","clear_screen","","","","","","","","","","","","","","","","","","","","","","","","","",""
"","","","","","canvas-keyboard-response","249","277639","0.0-12.0-2.47","2d_cat_multi_stim_exp1","2022-4-15","15:15:0","25","75","3","9","10","40","30","120","43","19","[""Asian""]","No","Female","2067466","1984","u","learn","","","learn_trial","26.6667","110","out","1","0","","","","","","","","","","","","","","","","","","","","",""
"","","","","","canvas-keyboard-response","250","278650","0.0-12.0-3.47","2d_cat_multi_stim_exp1","2022-4-15","15:15:0","25","75","3","9","10","40","30","120","43","19","[""Asian""]","No","Female","2067466","null","null","learn_feedback","","","learn_feedback","26.6667","110","out","","","","","","","","","","","","","","","","","","","","","","",""
"","","","","","canvas-keyboard-response","251","278711","0.0-12.0-4.47","2d_cat_multi_stim_exp1","2022-4-15","15:15:0","25","75","3","9","10","40","30","120","43","19","[""Asian""]","No","Female","2067466","null","null","","","","clear_screen","","","","","","","","","","","","","","","","","","","","","","","","","",""
"","","","","","canvas-keyboard-response","252","279218","0.0-12.0-0.48","2d_cat_multi_stim_exp1","2022-4-15","15:15:0","25","75","3","9","10","40","30","120","43","19","[""Asian""]","No","Female","2067466","null","null","","","","fixation","","","","","","","","","","","","","","","","","","","","","","","","","",""
"","","","","","canvas-keyboard-response","253","279729","0.0-12.0-1.48","2d_cat_multi_stim_exp1","2022-4-15","15:15:0","25","75","3","9","10","40","30","120","43","19","[""Asian""]","No","Female","2067466","null","null","","","","clear_screen","","","","","","","","","","","","","","","","","","","","","","","","","",""
"","","","","","canvas-keyboard-response","254","280782","0.0-12.0-2.48","2d_cat_multi_stim_exp1","2022-4-15","15:15:0","25","75","3","9","10","40","30","120","43","19","[""Asian""]","No","Female","2067466","1044","u","learn","","","learn_trial","25","75","in","1","1","","","","","","","","","","","","","","","","","","","","",""
"","","","","","canvas-keyboard-response","255","281292","0.0-12.0-3.48","2d_cat_multi_stim_exp1","2022-4-15","15:15:0","25","75","3","9","10","40","30","120","43","19","[""Asian""]","No","Female","2067466","null","null","learn_feedback","","","learn_feedback","25","75","in","","","","","","","","","","","","","","","","","","","","","","",""
"","","","","","canvas-keyboard-response","256","281352","0.0-12.0-4.48","2d_cat_multi_stim_exp1","2022-4-15","15:15:0","25","75","3","9","10","40","30","120","43","19","[""Asian""]","No","Female","2067466","null","null","","","","clear_screen","","","","","","","","","","","","","","","","","","","","","","","","","",""
"","","","","","canvas-keyboard-response","257","281862","0.0-12.0-0.49","2d_cat_multi_stim_exp1","2022-4-15","15:15:0","25","75","3","9","10","40","30","120","43","19","[""Asian""]","No","Female","2067466","null","null","","","","fixation","","","","","","","","","","","","","","","","","","","","","","","","","",""
"","","","","","canvas-keyboard-response","258","282371","0.0-12.0-1.49","2d_cat_multi_stim_exp1","2022-4-15","15:15:0","25","75","3","9","10","40","30","120","43","19","[""Asian""]","No","Female","2067466","null","null","","","","clear_screen","","","","","","","","","","","","","","","","","","","","","","","","","",""
"","","","","","canvas-keyboard-response","259","284206","0.0-12.0-2.49","2d_cat_multi_stim_exp1","2022-4-15","15:15:0","25","75","3","9","10","40","30","120","43","19","[""Asian""]","No","Female","2067466","1825","i","learn","","","learn_trial","10","60","out","0","1","","","","","","","","","","","","","","","","","","","","",""
"","","","","","canvas-keyboard-response","260","284718","0.0-12.0-3.49","2d_cat_multi_stim_exp1","2022-4-15","15:15:0","25","75","3","9","10","40","30","120","43","19","[""Asian""]","No","Female","2067466","null","null","learn_feedback","","","learn_feedback","10","60","out","","","","","","","","","","","","","","","","","","","","","","",""
"","","","","","canvas-keyboard-response","261","284780","0.0-12.0-4.49","2d_cat_multi_stim_exp1","2022-4-15","15:15:0","25","75","3","9","10","40","30","120","43","19","[""Asian""]","No","Female","2067466","null","null","","","","clear_screen","","","","","","","","","","","","","","","","","","","","","","","","","",""
"","","","","","canvas-keyboard-response","262","285288","0.0-12.0-0.50","2d_cat_multi_stim_exp1","2022-4-15","15:15:0","25","75","3","9","10","40","30","120","43","19","[""Asian""]","No","Female","2067466","null","null","","","","fixation","","","","","","","","","","","","","","","","","","","","","","","","","",""
"","","","","","canvas-keyboard-response","263","285800","0.0-12.0-1.50","2d_cat_multi_stim_exp1","2022-4-15","15:15:0","25","75","3","9","10","40","30","120","43","19","[""Asian""]","No","Female","2067466","null","null","","","","clear_screen","","","","","","","","","","","","","","","","","","","","","","","","","",""
"","","","","","canvas-keyboard-response","264","287862","0.0-12.0-2.50","2d_cat_multi_stim_exp1","2022-4-15","15:15:0","25","75","3","9","10","40","30","120","43","19","[""Asian""]","No","Female","2067466","2053","i","learn","","","learn_trial","30","30","out","0","1","","","","","","","","","","","","","","","","","","","","",""
"","","","","","canvas-keyboard-response","265","288374","0.0-12.0-3.50","2d_cat_multi_stim_exp1","2022-4-15","15:15:0","25","75","3","9","10","40","30","120","43","19","[""Asian""]","No","Female","2067466","null","null","learn_feedback","","","learn_feedback","30","30","out","","","","","","","","","","","","","","","","","","","","","","",""
"","","","","","canvas-keyboard-response","266","288434","0.0-12.0-4.50","2d_cat_multi_stim_exp1","2022-4-15","15:15:0","25","75","3","9","10","40","30","120","43","19","[""Asian""]","No","Female","2067466","null","null","","","","clear_screen","","","","","","","","","","","","","","","","","","","","","","","","","",""
"","","","","","canvas-keyboard-response","267","288944","0.0-12.0-0.51","2d_cat_multi_stim_exp1","2022-4-15","15:15:0","25","75","3","9","10","40","30","120","43","19","[""Asian""]","No","Female","2067466","null","null","","","","fixation","","","","","","","","","","","","","","","","","","","","","","","","","",""
"","","","","","canvas-keyboard-response","268","289458","0.0-12.0-1.51","2d_cat_multi_stim_exp1","2022-4-15","15:15:0","25","75","3","9","10","40","30","120","43","19","[""Asian""]","No","Female","2067466","null","null","","","","clear_screen","","","","","","","","","","","","","","","","","","","","","","","","","",""
"","","","","","canvas-keyboard-response","269","291598","0.0-12.0-2.51","2d_cat_multi_stim_exp1","2022-4-15","15:15:0","25","75","3","9","10","40","30","120","43","19","[""Asian""]","No","Female","2067466","2130","i","learn","","","learn_trial","26.4216","82.9254","in","0","0","","","","","","","","","","","","","","","","","","","","",""
"","","","","","canvas-keyboard-response","270","292609","0.0-12.0-3.51","2d_cat_multi_stim_exp1","2022-4-15","15:15:0","25","75","3","9","10","40","30","120","43","19","[""Asian""]","No","Female","2067466","null","null","learn_feedback","","","learn_feedback","26.4216","82.9254","in","","","","","","","","","","","","","","","","","","","","","","",""
"","","","","","canvas-keyboard-response","271","292669","0.0-12.0-4.51","2d_cat_multi_stim_exp1","2022-4-15","15:15:0","25","75","3","9","10","40","30","120","43","19","[""Asian""]","No","Female","2067466","null","null","","","","clear_screen","","","","","","","","","","","","","","","","","","","","","","","","","",""
"","","","","","canvas-keyboard-response","272","293182","0.0-12.0-0.52","2d_cat_multi_stim_exp1","2022-4-15","15:15:0","25","75","3","9","10","40","30","120","43","19","[""Asian""]","No","Female","2067466","null","null","","","","fixation","","","","","","","","","","","","","","","","","","","","","","","","","",""
"","","","","","canvas-keyboard-response","273","293696","0.0-12.0-1.52","2d_cat_multi_stim_exp1","2022-4-15","15:15:0","25","75","3","9","10","40","30","120","43","19","[""Asian""]","No","Female","2067466","null","null","","","","clear_screen","","","","","","","","","","","","","","","","","","","","","","","","","",""
"","","","","","canvas-keyboard-response","274","295071","0.0-12.0-2.52","2d_cat_multi_stim_exp1","2022-4-15","15:15:0","25","75","3","9","10","40","30","120","43","19","[""Asian""]","No","Female","2067466","1361","u","learn","","","learn_trial","20.7574","87.7279","in","1","1","","","","","","","","","","","","","","","","","","","","",""
"","","","","","canvas-keyboard-response","275","295583","0.0-12.0-3.52","2d_cat_multi_stim_exp1","2022-4-15","15:15:0","25","75","3","9","10","40","30","120","43","19","[""Asian""]","No","Female","2067466","null","null","learn_feedback","","","learn_feedback","20.7574","87.7279","in","","","","","","","","","","","","","","","","","","","","","","",""
"","","","","","canvas-keyboard-response","276","295643","0.0-12.0-4.52","2d_cat_multi_stim_exp1","2022-4-15","15:15:0","25","75","3","9","10","40","30","120","43","19","[""Asian""]","No","Female","2067466","null","null","","","","clear_screen","","","","","","","","","","","","","","","","","","","","","","","","","",""
"","","","","","canvas-keyboard-response","277","296154","0.0-12.0-0.53","2d_cat_multi_stim_exp1","2022-4-15","15:15:0","25","75","3","9","10","40","30","120","43","19","[""Asian""]","No","Female","2067466","null","null","","","","fixation","","","","","","","","","","","","","","","","","","","","","","","","","",""
"","","","","","canvas-keyboard-response","278","296665","0.0-12.0-1.53","2d_cat_multi_stim_exp1","2022-4-15","15:15:0","25","75","3","9","10","40","30","120","43","19","[""Asian""]","No","Female","2067466","null","null","","","","clear_screen","","","","","","","","","","","","","","","","","","","","","","","","","",""
"","","","","","canvas-keyboard-response","279","298734","0.0-12.0-2.53","2d_cat_multi_stim_exp1","2022-4-15","15:15:0","25","75","3","9","10","40","30","120","43","19","[""Asian""]","No","Female","2067466","2058","i","learn","","","learn_trial","25","75","in","0","0","","","","","","","","","","","","","","","","","","","","",""
"","","","","","canvas-keyboard-response","280","299746","0.0-12.0-3.53","2d_cat_multi_stim_exp1","2022-4-15","15:15:0","25","75","3","9","10","40","30","120","43","19","[""Asian""]","No","Female","2067466","null","null","learn_feedback","","","learn_feedback","25","75","in","","","","","","","","","","","","","","","","","","","","","","",""
"","","","","","canvas-keyboard-response","281","299802","0.0-12.0-4.53","2d_cat_multi_stim_exp1","2022-4-15","15:15:0","25","75","3","9","10","40","30","120","43","19","[""Asian""]","No","Female","2067466","null","null","","","","clear_screen","","","","","","","","","","","","","","","","","","","","","","","","","",""
"","","","","","canvas-keyboard-response","282","300312","0.0-12.0-0.54","2d_cat_multi_stim_exp1","2022-4-15","15:15:0","25","75","3","9","10","40","30","120","43","19","[""Asian""]","No","Female","2067466","null","null","","","","fixation","","","","","","","","","","","","","","","","","","","","","","","","","",""
"","","","","","canvas-keyboard-response","283","300824","0.0-12.0-1.54","2d_cat_multi_stim_exp1","2022-4-15","15:15:0","25","75","3","9","10","40","30","120","43","19","[""Asian""]","No","Female","2067466","null","null","","","","clear_screen","","","","","","","","","","","","","","","","","","","","","","","","","",""
"","","","","","canvas-keyboard-response","284","303814","0.0-12.0-2.54","2d_cat_multi_stim_exp1","2022-4-15","15:15:0","25","75","3","9","10","40","30","120","43","19","[""Asian""]","No","Female","2067466","2980","i","learn","","","learn_trial","25","75","in","0","0","","","","","","","","","","","","","","","","","","","","",""
"","","","","","canvas-keyboard-response","285","304826","0.0-12.0-3.54","2d_cat_multi_stim_exp1","2022-4-15","15:15:0","25","75","3","9","10","40","30","120","43","19","[""Asian""]","No","Female","2067466","null","null","learn_feedback","","","learn_feedback","25","75","in","","","","","","","","","","","","","","","","","","","","","","",""
"","","","","","canvas-keyboard-response","286","304887","0.0-12.0-4.54","2d_cat_multi_stim_exp1","2022-4-15","15:15:0","25","75","3","9","10","40","30","120","43","19","[""Asian""]","No","Female","2067466","null","null","","","","clear_screen","","","","","","","","","","","","","","","","","","","","","","","","","",""
"","","","","","canvas-keyboard-response","287","305397","0.0-12.0-0.55","2d_cat_multi_stim_exp1","2022-4-15","15:15:0","25","75","3","9","10","40","30","120","43","19","[""Asian""]","No","Female","2067466","null","null","","","","fixation","","","","","","","","","","","","","","","","","","","","","","","","","",""
"","","","","","canvas-keyboard-response","288","305907","0.0-12.0-1.55","2d_cat_multi_stim_exp1","2022-4-15","15:15:0","25","75","3","9","10","40","30","120","43","19","[""Asian""]","No","Female","2067466","null","null","","","","clear_screen","","","","","","","","","","","","","","","","","","","","","","","","","",""
"","","","","","canvas-keyboard-response","289","307888","0.0-12.0-2.55","2d_cat_multi_stim_exp1","2022-4-15","15:15:0","25","75","3","9","10","40","30","120","43","19","[""Asian""]","No","Female","2067466","1971","i","learn","","","learn_trial","10","90","out","0","1","","","","","","","","","","","","","","","","","","","","",""
"","","","","","canvas-keyboard-response","290","308398","0.0-12.0-3.55","2d_cat_multi_stim_exp1","2022-4-15","15:15:0","25","75","3","9","10","40","30","120","43","19","[""Asian""]","No","Female","2067466","null","null","learn_feedback","","","learn_feedback","10","90","out","","","","","","","","","","","","","","","","","","","","","","",""
"","","","","","canvas-keyboard-response","291","308461","0.0-12.0-4.55","2d_cat_multi_stim_exp1","2022-4-15","15:15:0","25","75","3","9","10","40","30","120","43","19","[""Asian""]","No","Female","2067466","null","null","","","","clear_screen","","","","","","","","","","","","","","","","","","","","","","","","","",""
"","","","","","canvas-keyboard-response","292","308971","0.0-12.0-0.56","2d_cat_multi_stim_exp1","2022-4-15","15:15:0","25","75","3","9","10","40","30","120","43","19","[""Asian""]","No","Female","2067466","null","null","","","","fixation","","","","","","","","","","","","","","","","","","","","","","","","","",""
"","","","","","canvas-keyboard-response","293","309482","0.0-12.0-1.56","2d_cat_multi_stim_exp1","2022-4-15","15:15:0","25","75","3","9","10","40","30","120","43","19","[""Asian""]","No","Female","2067466","null","null","","","","clear_screen","","","","","","","","","","","","","","","","","","","","","","","","","",""
"","","","","","canvas-keyboard-response","294","312407","0.0-12.0-2.56","2d_cat_multi_stim_exp1","2022-4-15","15:15:0","25","75","3","9","10","40","30","120","43","19","[""Asian""]","No","Female","2067466","2911","u","learn","","","learn_trial","26.8705","82.0365","in","1","1","","","","","","","","","","","","","","","","","","","","",""
"","","","","","canvas-keyboard-response","295","312918","0.0-12.0-3.56","2d_cat_multi_stim_exp1","2022-4-15","15:15:0","25","75","3","9","10","40","30","120","43","19","[""Asian""]","No","Female","2067466","null","null","learn_feedback","","","learn_feedback","26.8705","82.0365","in","","","","","","","","","","","","","","","","","","","","","","",""
"","","","","","canvas-keyboard-response","296","312980","0.0-12.0-4.56","2d_cat_multi_stim_exp1","2022-4-15","15:15:0","25","75","3","9","10","40","30","120","43","19","[""Asian""]","No","Female","2067466","null","null","","","","clear_screen","","","","","","","","","","","","","","","","","","","","","","","","","",""
"","","","","","canvas-keyboard-response","297","313489","0.0-12.0-0.57","2d_cat_multi_stim_exp1","2022-4-15","15:15:0","25","75","3","9","10","40","30","120","43","19","[""Asian""]","No","Female","2067466","null","null","","","","fixation","","","","","","","","","","","","","","","","","","","","","","","","","",""
