"success","timeout","failed_images","failed_audio","failed_video","trial_type","trial_index","time_elapsed","internal_node_id","exp_name","date","time","angle_mean_in","radius_mean_in","angle_sd_in","radius_sd_in","angle_min_out","angle_max_out","radius_min_out","radius_max_out","sub_n","age","race","ethnicity","gender","exp_duration","rt","response","exp_trial_type","stimulus","view_history","screen_id","angle","radius","distribution","choice","correct","order","angle_a","radius_a","angle_b","radius_b","angle_c","radius_c","jkl_correct","transfer_trial_type","choice_set","abc_correct","tc_correct","tc_angle","tdc_a","tdc_b","tdc_c","pair","category_a","category_b","category_c","question_order"
"true","false","[]","[]","[]","preload","0","40","0.0-0.0","2d_cat_multi_stim_exp1","2022-5-4","15:42:8","25","75","3","9","10","40","30","120","95","20","[""White""]","Prefer not to say","Nonbinary/third gender","3439327","","","","","","","","","","","","","","","","","","","","","","","","","","","","","","","",""
"","","","","","survey-html-form","1","1656","0.0-1.0","2d_cat_multi_stim_exp1","2022-5-4","15:42:8","25","75","3","9","10","40","30","120","95","20","[""White""]","Prefer not to say","Nonbinary/third gender","3439327","1595","{""response"":""95""}","enter-sub-number","","","","","","","","","","","","","","","","","","","","","","","","","","","","",""
"true","","","","","fullscreen","2","3240","0.0-2.0","2d_cat_multi_stim_exp1","2022-5-4","15:42:8","25","75","3","9","10","40","30","120","95","20","[""White""]","Prefer not to say","Nonbinary/third gender","3439327","","","","","","","","","","","","","","","","","","","","","","","","","","","","","","","",""
"","","","","","image-button-response","3","1241850","0.0-3.0","2d_cat_multi_stim_exp1","2022-5-4","15:42:8","25","75","3","9","10","40","30","120","95","20","[""White""]","Prefer not to say","Nonbinary/third gender","3439327","1238603","0","","consent.png","","","","","","","","","","","","","","","","","","","","","","","","","","","",""
"","","","","","html-button-response","4","1246802","0.0-4.0","2d_cat_multi_stim_exp1","2022-5-4","15:42:8","25","75","3","9","10","40","30","120","95","20","[""White""]","Prefer not to say","Nonbinary/third gender","3439327","4947","0","","<div style= ""font-size:25px;"" <p> <strong> Welcome to the experiment! </strong><br> <p style=""color:#8B0000; font-size:25px;""><strong> Please do NOT exit full screen until you are done with the experiment. </strong> </p><p style=""font-size:25px;color:#8B0000;""> <strong> The experiment will be canceled and your data will be lost <br> if you try to go back or refresh the page at any point during the experiment.</strong> </p><br><p> <strong> Thanks in advance for your contribution to our research! </strong></p>","","","","","","","","","","","","","","","","","","","","","","","","","","","",""
"","","","","","instructions","5","1292673","0.0-5.0","2d_cat_multi_stim_exp1","2022-5-4","15:42:8","25","75","3","9","10","40","30","120","95","20","[""White""]","Prefer not to say","Nonbinary/third gender","3439327","45868","","","","[{""page_index"":0,""viewing_time"":5668},{""page_index"":1,""viewing_time"":2104},{""page_index"":2,""viewing_time"":12655},{""page_index"":3,""viewing_time"":25440}]","instructions_1","","","","","","","","","","","","","","","","","","","","","","","","","",""
"","","","","","instructions","6","1295386","0.0-6.0","2d_cat_multi_stim_exp1","2022-5-4","15:42:8","25","75","3","9","10","40","30","120","95","20","[""White""]","Prefer not to say","Nonbinary/third gender","3439327","2709","","","","[{""page_index"":0,""viewing_time"":2708}]","Click to see the kinds of turtles that will appear in the study.","","","","","","","","","","","","","","","","","","","","","","","","","",""
"","","","","","canvas-keyboard-response","7","1310404","0.0-7.0","2d_cat_multi_stim_exp1","2022-5-4","15:42:8","25","75","3","9","10","40","30","120","95","20","[""White""]","Prefer not to say","Nonbinary/third gender","3439327","null","null","","","","demo_range","","","","","","","","","","","","","","","","","","","","","","","","","",""
"","","","","","instructions","8","1313857","0.0-8.0","2d_cat_multi_stim_exp1","2022-5-4","15:42:8","25","75","3","9","10","40","30","120","95","20","[""White""]","Prefer not to say","Nonbinary/third gender","3439327","2951","","","","[{""page_index"":0,""viewing_time"":2951}]","Click to see some turtles in the subspecies.","","","","","","","","","","","","","","","","","","","","","","","","","",""
"","","","","","canvas-keyboard-response","9","1328873","0.0-9.0","2d_cat_multi_stim_exp1","2022-5-4","15:42:8","25","75","3","9","10","40","30","120","95","20","[""White""]","Prefer not to say","Nonbinary/third gender","3439327","null","null","","","","demo_in","","","","","","","","","","","","","","","","","","","","","","","","","",""
"","","","","","instructions","10","1364536","0.0-10.0","2d_cat_multi_stim_exp1","2022-5-4","15:42:8","25","75","3","9","10","40","30","120","95","20","[""White""]","Prefer not to say","Nonbinary/third gender","3439327","35161","","","","[{""page_index"":0,""viewing_time"":9153},{""page_index"":1,""viewing_time"":17200},{""page_index"":2,""viewing_time"":8808}]","instructions_2","","","","","","","","","","","","","","","","","","","","","","","","","",""
"","","","","","instructions","11","1366216","0.0-11.0","2d_cat_multi_stim_exp1","2022-5-4","15:42:8","25","75","3","9","10","40","30","120","95","20","[""White""]","Prefer not to say","Nonbinary/third gender","3439327","1678","","","","[{""page_index"":0,""viewing_time"":1678}]","Click to begin the first phase of the experiment.","","","","","","","","","","","","","","","","","","","","","","","","","",""
"","","","","","canvas-keyboard-response","12","1366727","0.0-12.0-0.0","2d_cat_multi_stim_exp1","2022-5-4","15:42:8","25","75","3","9","10","40","30","120","95","20","[""White""]","Prefer not to say","Nonbinary/third gender","3439327","null","null","","","","fixation","","","","","","","","","","","","","","","","","","","","","","","","","",""
"","","","","","canvas-keyboard-response","13","1367236","0.0-12.0-1.0","2d_cat_multi_stim_exp1","2022-5-4","15:42:8","25","75","3","9","10","40","30","120","95","20","[""White""]","Prefer not to say","Nonbinary/third gender","3439327","null","null","","","","clear_screen","","","","","","","","","","","","","","","","","","","","","","","","","",""
"","","","","","canvas-keyboard-response","14","1370946","0.0-12.0-2.0","2d_cat_multi_stim_exp1","2022-5-4","15:42:8","25","75","3","9","10","40","30","120","95","20","[""White""]","Prefer not to say","Nonbinary/third gender","3439327","3698","i","learn","","","learn_trial","20","90","out","0","1","","","","","","","","","","","","","","","","","","","","",""
"","","","","","canvas-keyboard-response","15","1371460","0.0-12.0-3.0","2d_cat_multi_stim_exp1","2022-5-4","15:42:8","25","75","3","9","10","40","30","120","95","20","[""White""]","Prefer not to say","Nonbinary/third gender","3439327","null","null","learn_feedback","","","learn_feedback","20","90","out","","","","","","","","","","","","","","","","","","","","","","",""
"","","","","","canvas-keyboard-response","16","1371518","0.0-12.0-4.0","2d_cat_multi_stim_exp1","2022-5-4","15:42:8","25","75","3","9","10","40","30","120","95","20","[""White""]","Prefer not to say","Nonbinary/third gender","3439327","null","null","","","","clear_screen","","","","","","","","","","","","","","","","","","","","","","","","","",""
"","","","","","canvas-keyboard-response","17","1372026","0.0-12.0-0.1","2d_cat_multi_stim_exp1","2022-5-4","15:42:8","25","75","3","9","10","40","30","120","95","20","[""White""]","Prefer not to say","Nonbinary/third gender","3439327","null","null","","","","fixation","","","","","","","","","","","","","","","","","","","","","","","","","",""
"","","","","","canvas-keyboard-response","18","1372535","0.0-12.0-1.1","2d_cat_multi_stim_exp1","2022-5-4","15:42:8","25","75","3","9","10","40","30","120","95","20","[""White""]","Prefer not to say","Nonbinary/third gender","3439327","null","null","","","","clear_screen","","","","","","","","","","","","","","","","","","","","","","","","","",""
"","","","","","canvas-keyboard-response","19","1373537","0.0-12.0-2.1","2d_cat_multi_stim_exp1","2022-5-4","15:42:8","25","75","3","9","10","40","30","120","95","20","[""White""]","Prefer not to say","Nonbinary/third gender","3439327","993","u","learn","","","learn_trial","25","75","in","1","1","","","","","","","","","","","","","","","","","","","","",""
"","","","","","canvas-keyboard-response","20","1374048","0.0-12.0-3.1","2d_cat_multi_stim_exp1","2022-5-4","15:42:8","25","75","3","9","10","40","30","120","95","20","[""White""]","Prefer not to say","Nonbinary/third gender","3439327","null","null","learn_feedback","","","learn_feedback","25","75","in","","","","","","","","","","","","","","","","","","","","","","",""
"","","","","","canvas-keyboard-response","21","1374106","0.0-12.0-4.1","2d_cat_multi_stim_exp1","2022-5-4","15:42:8","25","75","3","9","10","40","30","120","95","20","[""White""]","Prefer not to say","Nonbinary/third gender","3439327","null","null","","","","clear_screen","","","","","","","","","","","","","","","","","","","","","","","","","",""
"","","","","","canvas-keyboard-response","22","1374614","0.0-12.0-0.2","2d_cat_multi_stim_exp1","2022-5-4","15:42:8","25","75","3","9","10","40","30","120","95","20","[""White""]","Prefer not to say","Nonbinary/third gender","3439327","null","null","","","","fixation","","","","","","","","","","","","","","","","","","","","","","","","","",""
"","","","","","canvas-keyboard-response","23","1375122","0.0-12.0-1.2","2d_cat_multi_stim_exp1","2022-5-4","15:42:8","25","75","3","9","10","40","30","120","95","20","[""White""]","Prefer not to say","Nonbinary/third gender","3439327","null","null","","","","clear_screen","","","","","","","","","","","","","","","","","","","","","","","","","",""
"","","","","","canvas-keyboard-response","24","1375930","0.0-12.0-2.2","2d_cat_multi_stim_exp1","2022-5-4","15:42:8","25","75","3","9","10","40","30","120","95","20","[""White""]","Prefer not to say","Nonbinary/third gender","3439327","798","u","learn","","","learn_trial","33.3333","100","out","1","0","","","","","","","","","","","","","","","","","","","","",""
"","","","","","canvas-keyboard-response","25","1376939","0.0-12.0-3.2","2d_cat_multi_stim_exp1","2022-5-4","15:42:8","25","75","3","9","10","40","30","120","95","20","[""White""]","Prefer not to say","Nonbinary/third gender","3439327","null","null","learn_feedback","","","learn_feedback","33.3333","100","out","","","","","","","","","","","","","","","","","","","","","","",""
"","","","","","canvas-keyboard-response","26","1376998","0.0-12.0-4.2","2d_cat_multi_stim_exp1","2022-5-4","15:42:8","25","75","3","9","10","40","30","120","95","20","[""White""]","Prefer not to say","Nonbinary/third gender","3439327","null","null","","","","clear_screen","","","","","","","","","","","","","","","","","","","","","","","","","",""
"","","","","","canvas-keyboard-response","27","1377507","0.0-12.0-0.3","2d_cat_multi_stim_exp1","2022-5-4","15:42:8","25","75","3","9","10","40","30","120","95","20","[""White""]","Prefer not to say","Nonbinary/third gender","3439327","null","null","","","","fixation","","","","","","","","","","","","","","","","","","","","","","","","","",""
"","","","","","canvas-keyboard-response","28","1378015","0.0-12.0-1.3","2d_cat_multi_stim_exp1","2022-5-4","15:42:8","25","75","3","9","10","40","30","120","95","20","[""White""]","Prefer not to say","Nonbinary/third gender","3439327","null","null","","","","clear_screen","","","","","","","","","","","","","","","","","","","","","","","","","",""
"","","","","","canvas-keyboard-response","29","1380978","0.0-12.0-2.3","2d_cat_multi_stim_exp1","2022-5-4","15:42:8","25","75","3","9","10","40","30","120","95","20","[""White""]","Prefer not to say","Nonbinary/third gender","3439327","2953","u","learn","","","learn_trial","24.8654","66.0091","in","1","1","","","","","","","","","","","","","","","","","","","","",""
"","","","","","canvas-keyboard-response","30","1381490","0.0-12.0-3.3","2d_cat_multi_stim_exp1","2022-5-4","15:42:8","25","75","3","9","10","40","30","120","95","20","[""White""]","Prefer not to say","Nonbinary/third gender","3439327","null","null","learn_feedback","","","learn_feedback","24.8654","66.0091","in","","","","","","","","","","","","","","","","","","","","","","",""
"","","","","","canvas-keyboard-response","31","1381550","0.0-12.0-4.3","2d_cat_multi_stim_exp1","2022-5-4","15:42:8","25","75","3","9","10","40","30","120","95","20","[""White""]","Prefer not to say","Nonbinary/third gender","3439327","null","null","","","","clear_screen","","","","","","","","","","","","","","","","","","","","","","","","","",""
"","","","","","canvas-keyboard-response","32","1382059","0.0-12.0-0.4","2d_cat_multi_stim_exp1","2022-5-4","15:42:8","25","75","3","9","10","40","30","120","95","20","[""White""]","Prefer not to say","Nonbinary/third gender","3439327","null","null","","","","fixation","","","","","","","","","","","","","","","","","","","","","","","","","",""
"","","","","","canvas-keyboard-response","33","1382569","0.0-12.0-1.4","2d_cat_multi_stim_exp1","2022-5-4","15:42:8","25","75","3","9","10","40","30","120","95","20","[""White""]","Prefer not to say","Nonbinary/third gender","3439327","null","null","","","","clear_screen","","","","","","","","","","","","","","","","","","","","","","","","","",""
"","","","","","canvas-keyboard-response","34","1383785","0.0-12.0-2.4","2d_cat_multi_stim_exp1","2022-5-4","15:42:8","25","75","3","9","10","40","30","120","95","20","[""White""]","Prefer not to say","Nonbinary/third gender","3439327","1207","i","learn","","","learn_trial","36.6667","50","out","0","1","","","","","","","","","","","","","","","","","","","","",""
"","","","","","canvas-keyboard-response","35","1384295","0.0-12.0-3.4","2d_cat_multi_stim_exp1","2022-5-4","15:42:8","25","75","3","9","10","40","30","120","95","20","[""White""]","Prefer not to say","Nonbinary/third gender","3439327","null","null","learn_feedback","","","learn_feedback","36.6667","50","out","","","","","","","","","","","","","","","","","","","","","","",""
"","","","","","canvas-keyboard-response","36","1384353","0.0-12.0-4.4","2d_cat_multi_stim_exp1","2022-5-4","15:42:8","25","75","3","9","10","40","30","120","95","20","[""White""]","Prefer not to say","Nonbinary/third gender","3439327","null","null","","","","clear_screen","","","","","","","","","","","","","","","","","","","","","","","","","",""
"","","","","","canvas-keyboard-response","37","1384862","0.0-12.0-0.5","2d_cat_multi_stim_exp1","2022-5-4","15:42:8","25","75","3","9","10","40","30","120","95","20","[""White""]","Prefer not to say","Nonbinary/third gender","3439327","null","null","","","","fixation","","","","","","","","","","","","","","","","","","","","","","","","","",""
"","","","","","canvas-keyboard-response","38","1385371","0.0-12.0-1.5","2d_cat_multi_stim_exp1","2022-5-4","15:42:8","25","75","3","9","10","40","30","120","95","20","[""White""]","Prefer not to say","Nonbinary/third gender","3439327","null","null","","","","clear_screen","","","","","","","","","","","","","","","","","","","","","","","","","",""
"","","","","","canvas-keyboard-response","39","1388354","0.0-12.0-2.5","2d_cat_multi_stim_exp1","2022-5-4","15:42:8","25","75","3","9","10","40","30","120","95","20","[""White""]","Prefer not to say","Nonbinary/third gender","3439327","2970","u","learn","","","learn_trial","25","75","in","1","1","","","","","","","","","","","","","","","","","","","","",""
"","","","","","canvas-keyboard-response","40","1388864","0.0-12.0-3.5","2d_cat_multi_stim_exp1","2022-5-4","15:42:8","25","75","3","9","10","40","30","120","95","20","[""White""]","Prefer not to say","Nonbinary/third gender","3439327","null","null","learn_feedback","","","learn_feedback","25","75","in","","","","","","","","","","","","","","","","","","","","","","",""
"","","","","","canvas-keyboard-response","41","1388923","0.0-12.0-4.5","2d_cat_multi_stim_exp1","2022-5-4","15:42:8","25","75","3","9","10","40","30","120","95","20","[""White""]","Prefer not to say","Nonbinary/third gender","3439327","null","null","","","","clear_screen","","","","","","","","","","","","","","","","","","","","","","","","","",""
"","","","","","canvas-keyboard-response","42","1389432","0.0-12.0-0.6","2d_cat_multi_stim_exp1","2022-5-4","15:42:8","25","75","3","9","10","40","30","120","95","20","[""White""]","Prefer not to say","Nonbinary/third gender","3439327","null","null","","","","fixation","","","","","","","","","","","","","","","","","","","","","","","","","",""
"","","","","","canvas-keyboard-response","43","1389941","0.0-12.0-1.6","2d_cat_multi_stim_exp1","2022-5-4","15:42:8","25","75","3","9","10","40","30","120","95","20","[""White""]","Prefer not to say","Nonbinary/third gender","3439327","null","null","","","","clear_screen","","","","","","","","","","","","","","","","","","","","","","","","","",""
"","","","","","canvas-keyboard-response","44","1391496","0.0-12.0-2.6","2d_cat_multi_stim_exp1","2022-5-4","15:42:8","25","75","3","9","10","40","30","120","95","20","[""White""]","Prefer not to say","Nonbinary/third gender","3439327","1547","i","learn","","","learn_trial","13.3333","70","out","0","1","","","","","","","","","","","","","","","","","","","","",""
"","","","","","canvas-keyboard-response","45","1392006","0.0-12.0-3.6","2d_cat_multi_stim_exp1","2022-5-4","15:42:8","25","75","3","9","10","40","30","120","95","20","[""White""]","Prefer not to say","Nonbinary/third gender","3439327","null","null","learn_feedback","","","learn_feedback","13.3333","70","out","","","","","","","","","","","","","","","","","","","","","","",""
"","","","","","canvas-keyboard-response","46","1392064","0.0-12.0-4.6","2d_cat_multi_stim_exp1","2022-5-4","15:42:8","25","75","3","9","10","40","30","120","95","20","[""White""]","Prefer not to say","Nonbinary/third gender","3439327","null","null","","","","clear_screen","","","","","","","","","","","","","","","","","","","","","","","","","",""
"","","","","","canvas-keyboard-response","47","1392572","0.0-12.0-0.7","2d_cat_multi_stim_exp1","2022-5-4","15:42:8","25","75","3","9","10","40","30","120","95","20","[""White""]","Prefer not to say","Nonbinary/third gender","3439327","null","null","","","","fixation","","","","","","","","","","","","","","","","","","","","","","","","","",""
"","","","","","canvas-keyboard-response","48","1393081","0.0-12.0-1.7","2d_cat_multi_stim_exp1","2022-5-4","15:42:8","25","75","3","9","10","40","30","120","95","20","[""White""]","Prefer not to say","Nonbinary/third gender","3439327","null","null","","","","clear_screen","","","","","","","","","","","","","","","","","","","","","","","","","",""
"","","","","","canvas-keyboard-response","49","1394145","0.0-12.0-2.7","2d_cat_multi_stim_exp1","2022-5-4","15:42:8","25","75","3","9","10","40","30","120","95","20","[""White""]","Prefer not to say","Nonbinary/third gender","3439327","1056","i","learn","","","learn_trial","16.6667","70","out","0","1","","","","","","","","","","","","","","","","","","","","",""
"","","","","","canvas-keyboard-response","50","1394653","0.0-12.0-3.7","2d_cat_multi_stim_exp1","2022-5-4","15:42:8","25","75","3","9","10","40","30","120","95","20","[""White""]","Prefer not to say","Nonbinary/third gender","3439327","null","null","learn_feedback","","","learn_feedback","16.6667","70","out","","","","","","","","","","","","","","","","","","","","","","",""
"","","","","","canvas-keyboard-response","51","1394712","0.0-12.0-4.7","2d_cat_multi_stim_exp1","2022-5-4","15:42:8","25","75","3","9","10","40","30","120","95","20","[""White""]","Prefer not to say","Nonbinary/third gender","3439327","null","null","","","","clear_screen","","","","","","","","","","","","","","","","","","","","","","","","","",""
"","","","","","canvas-keyboard-response","52","1395219","0.0-12.0-0.8","2d_cat_multi_stim_exp1","2022-5-4","15:42:8","25","75","3","9","10","40","30","120","95","20","[""White""]","Prefer not to say","Nonbinary/third gender","3439327","null","null","","","","fixation","","","","","","","","","","","","","","","","","","","","","","","","","",""
"","","","","","canvas-keyboard-response","53","1395728","0.0-12.0-1.8","2d_cat_multi_stim_exp1","2022-5-4","15:42:8","25","75","3","9","10","40","30","120","95","20","[""White""]","Prefer not to say","Nonbinary/third gender","3439327","null","null","","","","clear_screen","","","","","","","","","","","","","","","","","","","","","","","","","",""
"","","","","","canvas-keyboard-response","54","1397105","0.0-12.0-2.8","2d_cat_multi_stim_exp1","2022-5-4","15:42:8","25","75","3","9","10","40","30","120","95","20","[""White""]","Prefer not to say","Nonbinary/third gender","3439327","1369","u","learn","","","learn_trial","25","75","in","1","1","","","","","","","","","","","","","","","","","","","","",""
"","","","","","canvas-keyboard-response","55","1397614","0.0-12.0-3.8","2d_cat_multi_stim_exp1","2022-5-4","15:42:8","25","75","3","9","10","40","30","120","95","20","[""White""]","Prefer not to say","Nonbinary/third gender","3439327","null","null","learn_feedback","","","learn_feedback","25","75","in","","","","","","","","","","","","","","","","","","","","","","",""
"","","","","","canvas-keyboard-response","56","1397672","0.0-12.0-4.8","2d_cat_multi_stim_exp1","2022-5-4","15:42:8","25","75","3","9","10","40","30","120","95","20","[""White""]","Prefer not to say","Nonbinary/third gender","3439327","null","null","","","","clear_screen","","","","","","","","","","","","","","","","","","","","","","","","","",""
"","","","","","canvas-keyboard-response","57","1398180","0.0-12.0-0.9","2d_cat_multi_stim_exp1","2022-5-4","15:42:8","25","75","3","9","10","40","30","120","95","20","[""White""]","Prefer not to say","Nonbinary/third gender","3439327","null","null","","","","fixation","","","","","","","","","","","","","","","","","","","","","","","","","",""
"","","","","","canvas-keyboard-response","58","1398689","0.0-12.0-1.9","2d_cat_multi_stim_exp1","2022-5-4","15:42:8","25","75","3","9","10","40","30","120","95","20","[""White""]","Prefer not to say","Nonbinary/third gender","3439327","null","null","","","","clear_screen","","","","","","","","","","","","","","","","","","","","","","","","","",""
"","","","","","canvas-keyboard-response","59","1399648","0.0-12.0-2.9","2d_cat_multi_stim_exp1","2022-5-4","15:42:8","25","75","3","9","10","40","30","120","95","20","[""White""]","Prefer not to say","Nonbinary/third gender","3439327","949","i","learn","","","learn_trial","16.6667","30","out","0","1","","","","","","","","","","","","","","","","","","","","",""
"","","","","","canvas-keyboard-response","60","1400157","0.0-12.0-3.9","2d_cat_multi_stim_exp1","2022-5-4","15:42:8","25","75","3","9","10","40","30","120","95","20","[""White""]","Prefer not to say","Nonbinary/third gender","3439327","null","null","learn_feedback","","","learn_feedback","16.6667","30","out","","","","","","","","","","","","","","","","","","","","","","",""
"","","","","","canvas-keyboard-response","61","1400216","0.0-12.0-4.9","2d_cat_multi_stim_exp1","2022-5-4","15:42:8","25","75","3","9","10","40","30","120","95","20","[""White""]","Prefer not to say","Nonbinary/third gender","3439327","null","null","","","","clear_screen","","","","","","","","","","","","","","","","","","","","","","","","","",""
"","","","","","canvas-keyboard-response","62","1400723","0.0-12.0-0.10","2d_cat_multi_stim_exp1","2022-5-4","15:42:8","25","75","3","9","10","40","30","120","95","20","[""White""]","Prefer not to say","Nonbinary/third gender","3439327","null","null","","","","fixation","","","","","","","","","","","","","","","","","","","","","","","","","",""
"","","","","","canvas-keyboard-response","63","1401233","0.0-12.0-1.10","2d_cat_multi_stim_exp1","2022-5-4","15:42:8","25","75","3","9","10","40","30","120","95","20","[""White""]","Prefer not to say","Nonbinary/third gender","3439327","null","null","","","","clear_screen","","","","","","","","","","","","","","","","","","","","","","","","","",""
"","","","","","canvas-keyboard-response","64","1402449","0.0-12.0-2.10","2d_cat_multi_stim_exp1","2022-5-4","15:42:8","25","75","3","9","10","40","30","120","95","20","[""White""]","Prefer not to say","Nonbinary/third gender","3439327","1208","i","learn","","","learn_trial","33.3333","110","out","0","1","","","","","","","","","","","","","","","","","","","","",""
"","","","","","canvas-keyboard-response","65","1402959","0.0-12.0-3.10","2d_cat_multi_stim_exp1","2022-5-4","15:42:8","25","75","3","9","10","40","30","120","95","20","[""White""]","Prefer not to say","Nonbinary/third gender","3439327","null","null","learn_feedback","","","learn_feedback","33.3333","110","out","","","","","","","","","","","","","","","","","","","","","","",""
"","","","","","canvas-keyboard-response","66","1403017","0.0-12.0-4.10","2d_cat_multi_stim_exp1","2022-5-4","15:42:8","25","75","3","9","10","40","30","120","95","20","[""White""]","Prefer not to say","Nonbinary/third gender","3439327","null","null","","","","clear_screen","","","","","","","","","","","","","","","","","","","","","","","","","",""
"","","","","","canvas-keyboard-response","67","1403525","0.0-12.0-0.11","2d_cat_multi_stim_exp1","2022-5-4","15:42:8","25","75","3","9","10","40","30","120","95","20","[""White""]","Prefer not to say","Nonbinary/third gender","3439327","null","null","","","","fixation","","","","","","","","","","","","","","","","","","","","","","","","","",""
"","","","","","canvas-keyboard-response","68","1404034","0.0-12.0-1.11","2d_cat_multi_stim_exp1","2022-5-4","15:42:8","25","75","3","9","10","40","30","120","95","20","[""White""]","Prefer not to say","Nonbinary/third gender","3439327","null","null","","","","clear_screen","","","","","","","","","","","","","","","","","","","","","","","","","",""
"","","","","","canvas-keyboard-response","69","1404864","0.0-12.0-2.11","2d_cat_multi_stim_exp1","2022-5-4","15:42:8","25","75","3","9","10","40","30","120","95","20","[""White""]","Prefer not to say","Nonbinary/third gender","3439327","823","i","learn","","","learn_trial","20","120","out","0","1","","","","","","","","","","","","","","","","","","","","",""
"","","","","","canvas-keyboard-response","70","1405373","0.0-12.0-3.11","2d_cat_multi_stim_exp1","2022-5-4","15:42:8","25","75","3","9","10","40","30","120","95","20","[""White""]","Prefer not to say","Nonbinary/third gender","3439327","null","null","learn_feedback","","","learn_feedback","20","120","out","","","","","","","","","","","","","","","","","","","","","","",""
"","","","","","canvas-keyboard-response","71","1405431","0.0-12.0-4.11","2d_cat_multi_stim_exp1","2022-5-4","15:42:8","25","75","3","9","10","40","30","120","95","20","[""White""]","Prefer not to say","Nonbinary/third gender","3439327","null","null","","","","clear_screen","","","","","","","","","","","","","","","","","","","","","","","","","",""
"","","","","","canvas-keyboard-response","72","1405939","0.0-12.0-0.12","2d_cat_multi_stim_exp1","2022-5-4","15:42:8","25","75","3","9","10","40","30","120","95","20","[""White""]","Prefer not to say","Nonbinary/third gender","3439327","null","null","","","","fixation","","","","","","","","","","","","","","","","","","","","","","","","","",""
"","","","","","canvas-keyboard-response","73","1406451","0.0-12.0-1.12","2d_cat_multi_stim_exp1","2022-5-4","15:42:8","25","75","3","9","10","40","30","120","95","20","[""White""]","Prefer not to say","Nonbinary/third gender","3439327","null","null","","","","clear_screen","","","","","","","","","","","","","","","","","","","","","","","","","",""
"","","","","","canvas-keyboard-response","74","1407337","0.0-12.0-2.12","2d_cat_multi_stim_exp1","2022-5-4","15:42:8","25","75","3","9","10","40","30","120","95","20","[""White""]","Prefer not to say","Nonbinary/third gender","3439327","878","i","learn","","","learn_trial","10","110","out","0","1","","","","","","","","","","","","","","","","","","","","",""
"","","","","","canvas-keyboard-response","75","1407845","0.0-12.0-3.12","2d_cat_multi_stim_exp1","2022-5-4","15:42:8","25","75","3","9","10","40","30","120","95","20","[""White""]","Prefer not to say","Nonbinary/third gender","3439327","null","null","learn_feedback","","","learn_feedback","10","110","out","","","","","","","","","","","","","","","","","","","","","","",""
"","","","","","canvas-keyboard-response","76","1407903","0.0-12.0-4.12","2d_cat_multi_stim_exp1","2022-5-4","15:42:8","25","75","3","9","10","40","30","120","95","20","[""White""]","Prefer not to say","Nonbinary/third gender","3439327","null","null","","","","clear_screen","","","","","","","","","","","","","","","","","","","","","","","","","",""
"","","","","","canvas-keyboard-response","77","1408412","0.0-12.0-0.13","2d_cat_multi_stim_exp1","2022-5-4","15:42:8","25","75","3","9","10","40","30","120","95","20","[""White""]","Prefer not to say","Nonbinary/third gender","3439327","null","null","","","","fixation","","","","","","","","","","","","","","","","","","","","","","","","","",""
"","","","","","canvas-keyboard-response","78","1408919","0.0-12.0-1.13","2d_cat_multi_stim_exp1","2022-5-4","15:42:8","25","75","3","9","10","40","30","120","95","20","[""White""]","Prefer not to say","Nonbinary/third gender","3439327","null","null","","","","clear_screen","","","","","","","","","","","","","","","","","","","","","","","","","",""
"","","","","","canvas-keyboard-response","79","1410920","0.0-12.0-2.13","2d_cat_multi_stim_exp1","2022-5-4","15:42:8","25","75","3","9","10","40","30","120","95","20","[""White""]","Prefer not to say","Nonbinary/third gender","3439327","1992","i","learn","","","learn_trial","22.2971","71.095","in","0","0","","","","","","","","","","","","","","","","","","","","",""
"","","","","","canvas-keyboard-response","80","1411930","0.0-12.0-3.13","2d_cat_multi_stim_exp1","2022-5-4","15:42:8","25","75","3","9","10","40","30","120","95","20","[""White""]","Prefer not to say","Nonbinary/third gender","3439327","null","null","learn_feedback","","","learn_feedback","22.2971","71.095","in","","","","","","","","","","","","","","","","","","","","","","",""
"","","","","","canvas-keyboard-response","81","1411988","0.0-12.0-4.13","2d_cat_multi_stim_exp1","2022-5-4","15:42:8","25","75","3","9","10","40","30","120","95","20","[""White""]","Prefer not to say","Nonbinary/third gender","3439327","null","null","","","","clear_screen","","","","","","","","","","","","","","","","","","","","","","","","","",""
"","","","","","canvas-keyboard-response","82","1412496","0.0-12.0-0.14","2d_cat_multi_stim_exp1","2022-5-4","15:42:8","25","75","3","9","10","40","30","120","95","20","[""White""]","Prefer not to say","Nonbinary/third gender","3439327","null","null","","","","fixation","","","","","","","","","","","","","","","","","","","","","","","","","",""
"","","","","","canvas-keyboard-response","83","1413004","0.0-12.0-1.14","2d_cat_multi_stim_exp1","2022-5-4","15:42:8","25","75","3","9","10","40","30","120","95","20","[""White""]","Prefer not to say","Nonbinary/third gender","3439327","null","null","","","","clear_screen","","","","","","","","","","","","","","","","","","","","","","","","","",""
"","","","","","canvas-keyboard-response","84","1414857","0.0-12.0-2.14","2d_cat_multi_stim_exp1","2022-5-4","15:42:8","25","75","3","9","10","40","30","120","95","20","[""White""]","Prefer not to say","Nonbinary/third gender","3439327","1844","u","learn","","","learn_trial","27.5753","79.6161","in","1","1","","","","","","","","","","","","","","","","","","","","",""
"","","","","","canvas-keyboard-response","85","1415365","0.0-12.0-3.14","2d_cat_multi_stim_exp1","2022-5-4","15:42:8","25","75","3","9","10","40","30","120","95","20","[""White""]","Prefer not to say","Nonbinary/third gender","3439327","null","null","learn_feedback","","","learn_feedback","27.5753","79.6161","in","","","","","","","","","","","","","","","","","","","","","","",""
"","","","","","canvas-keyboard-response","86","1415423","0.0-12.0-4.14","2d_cat_multi_stim_exp1","2022-5-4","15:42:8","25","75","3","9","10","40","30","120","95","20","[""White""]","Prefer not to say","Nonbinary/third gender","3439327","null","null","","","","clear_screen","","","","","","","","","","","","","","","","","","","","","","","","","",""
"","","","","","canvas-keyboard-response","87","1415932","0.0-12.0-0.15","2d_cat_multi_stim_exp1","2022-5-4","15:42:8","25","75","3","9","10","40","30","120","95","20","[""White""]","Prefer not to say","Nonbinary/third gender","3439327","null","null","","","","fixation","","","","","","","","","","","","","","","","","","","","","","","","","",""
"","","","","","canvas-keyboard-response","88","1416443","0.0-12.0-1.15","2d_cat_multi_stim_exp1","2022-5-4","15:42:8","25","75","3","9","10","40","30","120","95","20","[""White""]","Prefer not to say","Nonbinary/third gender","3439327","null","null","","","","clear_screen","","","","","","","","","","","","","","","","","","","","","","","","","",""
"","","","","","canvas-keyboard-response","89","1417545","0.0-12.0-2.15","2d_cat_multi_stim_exp1","2022-5-4","15:42:8","25","75","3","9","10","40","30","120","95","20","[""White""]","Prefer not to say","Nonbinary/third gender","3439327","1094","i","learn","","","learn_trial","29.2426","62.2721","in","0","0","","","","","","","","","","","","","","","","","","","","",""
"","","","","","canvas-keyboard-response","90","1418554","0.0-12.0-3.15","2d_cat_multi_stim_exp1","2022-5-4","15:42:8","25","75","3","9","10","40","30","120","95","20","[""White""]","Prefer not to say","Nonbinary/third gender","3439327","null","null","learn_feedback","","","learn_feedback","29.2426","62.2721","in","","","","","","","","","","","","","","","","","","","","","","",""
"","","","","","canvas-keyboard-response","91","1418611","0.0-12.0-4.15","2d_cat_multi_stim_exp1","2022-5-4","15:42:8","25","75","3","9","10","40","30","120","95","20","[""White""]","Prefer not to say","Nonbinary/third gender","3439327","null","null","","","","clear_screen","","","","","","","","","","","","","","","","","","","","","","","","","",""
"","","","","","canvas-keyboard-response","92","1419120","0.0-12.0-0.16","2d_cat_multi_stim_exp1","2022-5-4","15:42:8","25","75","3","9","10","40","30","120","95","20","[""White""]","Prefer not to say","Nonbinary/third gender","3439327","null","null","","","","fixation","","","","","","","","","","","","","","","","","","","","","","","","","",""
"","","","","","canvas-keyboard-response","93","1419629","0.0-12.0-1.16","2d_cat_multi_stim_exp1","2022-5-4","15:42:8","25","75","3","9","10","40","30","120","95","20","[""White""]","Prefer not to say","Nonbinary/third gender","3439327","null","null","","","","clear_screen","","","","","","","","","","","","","","","","","","","","","","","","","",""
"","","","","","canvas-keyboard-response","94","1423409","0.0-12.0-2.16","2d_cat_multi_stim_exp1","2022-5-4","15:42:8","25","75","3","9","10","40","30","120","95","20","[""White""]","Prefer not to say","Nonbinary/third gender","3439327","3771","u","learn","","","learn_trial","40","30","out","1","0","","","","","","","","","","","","","","","","","","","","",""
"","","","","","canvas-keyboard-response","95","1424419","0.0-12.0-3.16","2d_cat_multi_stim_exp1","2022-5-4","15:42:8","25","75","3","9","10","40","30","120","95","20","[""White""]","Prefer not to say","Nonbinary/third gender","3439327","null","null","learn_feedback","","","learn_feedback","40","30","out","","","","","","","","","","","","","","","","","","","","","","",""
"","","","","","canvas-keyboard-response","96","1424477","0.0-12.0-4.16","2d_cat_multi_stim_exp1","2022-5-4","15:42:8","25","75","3","9","10","40","30","120","95","20","[""White""]","Prefer not to say","Nonbinary/third gender","3439327","null","null","","","","clear_screen","","","","","","","","","","","","","","","","","","","","","","","","","",""
"","","","","","canvas-keyboard-response","97","1424985","0.0-12.0-0.17","2d_cat_multi_stim_exp1","2022-5-4","15:42:8","25","75","3","9","10","40","30","120","95","20","[""White""]","Prefer not to say","Nonbinary/third gender","3439327","null","null","","","","fixation","","","","","","","","","","","","","","","","","","","","","","","","","",""
"","","","","","canvas-keyboard-response","98","1425493","0.0-12.0-1.17","2d_cat_multi_stim_exp1","2022-5-4","15:42:8","25","75","3","9","10","40","30","120","95","20","[""White""]","Prefer not to say","Nonbinary/third gender","3439327","null","null","","","","clear_screen","","","","","","","","","","","","","","","","","","","","","","","","","",""
"","","","","","canvas-keyboard-response","99","1427016","0.0-12.0-2.17","2d_cat_multi_stim_exp1","2022-5-4","15:42:8","25","75","3","9","10","40","30","120","95","20","[""White""]","Prefer not to say","Nonbinary/third gender","3439327","1515","u","learn","","","learn_trial","25","75","in","1","1","","","","","","","","","","","","","","","","","","","","",""
"","","","","","canvas-keyboard-response","100","1427525","0.0-12.0-3.17","2d_cat_multi_stim_exp1","2022-5-4","15:42:8","25","75","3","9","10","40","30","120","95","20","[""White""]","Prefer not to say","Nonbinary/third gender","3439327","null","null","learn_feedback","","","learn_feedback","25","75","in","","","","","","","","","","","","","","","","","","","","","","",""
"","","","","","canvas-keyboard-response","101","1427583","0.0-12.0-4.17","2d_cat_multi_stim_exp1","2022-5-4","15:42:8","25","75","3","9","10","40","30","120","95","20","[""White""]","Prefer not to say","Nonbinary/third gender","3439327","null","null","","","","clear_screen","","","","","","","","","","","","","","","","","","","","","","","","","",""
"","","","","","canvas-keyboard-response","102","1428092","0.0-12.0-0.18","2d_cat_multi_stim_exp1","2022-5-4","15:42:8","25","75","3","9","10","40","30","120","95","20","[""White""]","Prefer not to say","Nonbinary/third gender","3439327","null","null","","","","fixation","","","","","","","","","","","","","","","","","","","","","","","","","",""
"","","","","","canvas-keyboard-response","103","1428601","0.0-12.0-1.18","2d_cat_multi_stim_exp1","2022-5-4","15:42:8","25","75","3","9","10","40","30","120","95","20","[""White""]","Prefer not to say","Nonbinary/third gender","3439327","null","null","","","","clear_screen","","","","","","","","","","","","","","","","","","","","","","","","","",""
"","","","","","canvas-keyboard-response","104","1430344","0.0-12.0-2.18","2d_cat_multi_stim_exp1","2022-5-4","15:42:8","25","75","3","9","10","40","30","120","95","20","[""White""]","Prefer not to say","Nonbinary/third gender","3439327","1732","i","learn","","","learn_trial","30","50","out","0","1","","","","","","","","","","","","","","","","","","","","",""
"","","","","","canvas-keyboard-response","105","1430855","0.0-12.0-3.18","2d_cat_multi_stim_exp1","2022-5-4","15:42:8","25","75","3","9","10","40","30","120","95","20","[""White""]","Prefer not to say","Nonbinary/third gender","3439327","null","null","learn_feedback","","","learn_feedback","30","50","out","","","","","","","","","","","","","","","","","","","","","","",""
"","","","","","canvas-keyboard-response","106","1430915","0.0-12.0-4.18","2d_cat_multi_stim_exp1","2022-5-4","15:42:8","25","75","3","9","10","40","30","120","95","20","[""White""]","Prefer not to say","Nonbinary/third gender","3439327","null","null","","","","clear_screen","","","","","","","","","","","","","","","","","","","","","","","","","",""
"","","","","","canvas-keyboard-response","107","1431423","0.0-12.0-0.19","2d_cat_multi_stim_exp1","2022-5-4","15:42:8","25","75","3","9","10","40","30","120","95","20","[""White""]","Prefer not to say","Nonbinary/third gender","3439327","null","null","","","","fixation","","","","","","","","","","","","","","","","","","","","","","","","","",""
"","","","","","canvas-keyboard-response","108","1431932","0.0-12.0-1.19","2d_cat_multi_stim_exp1","2022-5-4","15:42:8","25","75","3","9","10","40","30","120","95","20","[""White""]","Prefer not to say","Nonbinary/third gender","3439327","null","null","","","","clear_screen","","","","","","","","","","","","","","","","","","","","","","","","","",""
"","","","","","canvas-keyboard-response","109","1434809","0.0-12.0-2.19","2d_cat_multi_stim_exp1","2022-5-4","15:42:8","25","75","3","9","10","40","30","120","95","20","[""White""]","Prefer not to say","Nonbinary/third gender","3439327","2866","u","learn","","","learn_trial","22.5729","69.7099","in","1","1","","","","","","","","","","","","","","","","","","","","",""
"","","","","","canvas-keyboard-response","110","1435318","0.0-12.0-3.19","2d_cat_multi_stim_exp1","2022-5-4","15:42:8","25","75","3","9","10","40","30","120","95","20","[""White""]","Prefer not to say","Nonbinary/third gender","3439327","null","null","learn_feedback","","","learn_feedback","22.5729","69.7099","in","","","","","","","","","","","","","","","","","","","","","","",""
"","","","","","canvas-keyboard-response","111","1435377","0.0-12.0-4.19","2d_cat_multi_stim_exp1","2022-5-4","15:42:8","25","75","3","9","10","40","30","120","95","20","[""White""]","Prefer not to say","Nonbinary/third gender","3439327","null","null","","","","clear_screen","","","","","","","","","","","","","","","","","","","","","","","","","",""
"","","","","","canvas-keyboard-response","112","1435885","0.0-12.0-0.20","2d_cat_multi_stim_exp1","2022-5-4","15:42:8","25","75","3","9","10","40","30","120","95","20","[""White""]","Prefer not to say","Nonbinary/third gender","3439327","null","null","","","","fixation","","","","","","","","","","","","","","","","","","","","","","","","","",""
"","","","","","canvas-keyboard-response","113","1436395","0.0-12.0-1.20","2d_cat_multi_stim_exp1","2022-5-4","15:42:8","25","75","3","9","10","40","30","120","95","20","[""White""]","Prefer not to say","Nonbinary/third gender","3439327","null","null","","","","clear_screen","","","","","","","","","","","","","","","","","","","","","","","","","",""
"","","","","","canvas-keyboard-response","114","1437377","0.0-12.0-2.20","2d_cat_multi_stim_exp1","2022-5-4","15:42:8","25","75","3","9","10","40","30","120","95","20","[""White""]","Prefer not to say","Nonbinary/third gender","3439327","973","i","learn","","","learn_trial","10","50","out","0","1","","","","","","","","","","","","","","","","","","","","",""
"","","","","","canvas-keyboard-response","115","1437886","0.0-12.0-3.20","2d_cat_multi_stim_exp1","2022-5-4","15:42:8","25","75","3","9","10","40","30","120","95","20","[""White""]","Prefer not to say","Nonbinary/third gender","3439327","null","null","learn_feedback","","","learn_feedback","10","50","out","","","","","","","","","","","","","","","","","","","","","","",""
"","","","","","canvas-keyboard-response","116","1437944","0.0-12.0-4.20","2d_cat_multi_stim_exp1","2022-5-4","15:42:8","25","75","3","9","10","40","30","120","95","20","[""White""]","Prefer not to say","Nonbinary/third gender","3439327","null","null","","","","clear_screen","","","","","","","","","","","","","","","","","","","","","","","","","",""
"","","","","","canvas-keyboard-response","117","1438453","0.0-12.0-0.21","2d_cat_multi_stim_exp1","2022-5-4","15:42:8","25","75","3","9","10","40","30","120","95","20","[""White""]","Prefer not to say","Nonbinary/third gender","3439327","null","null","","","","fixation","","","","","","","","","","","","","","","","","","","","","","","","","",""
"","","","","","canvas-keyboard-response","118","1438962","0.0-12.0-1.21","2d_cat_multi_stim_exp1","2022-5-4","15:42:8","25","75","3","9","10","40","30","120","95","20","[""White""]","Prefer not to say","Nonbinary/third gender","3439327","null","null","","","","clear_screen","","","","","","","","","","","","","","","","","","","","","","","","","",""
"","","","","","canvas-keyboard-response","119","1439992","0.0-12.0-2.21","2d_cat_multi_stim_exp1","2022-5-4","15:42:8","25","75","3","9","10","40","30","120","95","20","[""White""]","Prefer not to say","Nonbinary/third gender","3439327","1022","u","learn","","","learn_trial","25","75","in","1","1","","","","","","","","","","","","","","","","","","","","",""
"","","","","","canvas-keyboard-response","120","1440502","0.0-12.0-3.21","2d_cat_multi_stim_exp1","2022-5-4","15:42:8","25","75","3","9","10","40","30","120","95","20","[""White""]","Prefer not to say","Nonbinary/third gender","3439327","null","null","learn_feedback","","","learn_feedback","25","75","in","","","","","","","","","","","","","","","","","","","","","","",""
"","","","","","canvas-keyboard-response","121","1440560","0.0-12.0-4.21","2d_cat_multi_stim_exp1","2022-5-4","15:42:8","25","75","3","9","10","40","30","120","95","20","[""White""]","Prefer not to say","Nonbinary/third gender","3439327","null","null","","","","clear_screen","","","","","","","","","","","","","","","","","","","","","","","","","",""
"","","","","","canvas-keyboard-response","122","1441067","0.0-12.0-0.22","2d_cat_multi_stim_exp1","2022-5-4","15:42:8","25","75","3","9","10","40","30","120","95","20","[""White""]","Prefer not to say","Nonbinary/third gender","3439327","null","null","","","","fixation","","","","","","","","","","","","","","","","","","","","","","","","","",""
"","","","","","canvas-keyboard-response","123","1441577","0.0-12.0-1.22","2d_cat_multi_stim_exp1","2022-5-4","15:42:8","25","75","3","9","10","40","30","120","95","20","[""White""]","Prefer not to say","Nonbinary/third gender","3439327","null","null","","","","clear_screen","","","","","","","","","","","","","","","","","","","","","","","","","",""
"","","","","","canvas-keyboard-response","124","1442321","0.0-12.0-2.22","2d_cat_multi_stim_exp1","2022-5-4","15:42:8","25","75","3","9","10","40","30","120","95","20","[""White""]","Prefer not to say","Nonbinary/third gender","3439327","736","u","learn","","","learn_trial","25","75","in","1","1","","","","","","","","","","","","","","","","","","","","",""
"","","","","","canvas-keyboard-response","125","1442830","0.0-12.0-3.22","2d_cat_multi_stim_exp1","2022-5-4","15:42:8","25","75","3","9","10","40","30","120","95","20","[""White""]","Prefer not to say","Nonbinary/third gender","3439327","null","null","learn_feedback","","","learn_feedback","25","75","in","","","","","","","","","","","","","","","","","","","","","","",""
"","","","","","canvas-keyboard-response","126","1442888","0.0-12.0-4.22","2d_cat_multi_stim_exp1","2022-5-4","15:42:8","25","75","3","9","10","40","30","120","95","20","[""White""]","Prefer not to say","Nonbinary/third gender","3439327","null","null","","","","clear_screen","","","","","","","","","","","","","","","","","","","","","","","","","",""
"","","","","","canvas-keyboard-response","127","1443396","0.0-12.0-0.23","2d_cat_multi_stim_exp1","2022-5-4","15:42:8","25","75","3","9","10","40","30","120","95","20","[""White""]","Prefer not to say","Nonbinary/third gender","3439327","null","null","","","","fixation","","","","","","","","","","","","","","","","","","","","","","","","","",""
"","","","","","canvas-keyboard-response","128","1443904","0.0-12.0-1.23","2d_cat_multi_stim_exp1","2022-5-4","15:42:8","25","75","3","9","10","40","30","120","95","20","[""White""]","Prefer not to say","Nonbinary/third gender","3439327","null","null","","","","clear_screen","","","","","","","","","","","","","","","","","","","","","","","","","",""
"","","","","","canvas-keyboard-response","129","1444664","0.0-12.0-2.23","2d_cat_multi_stim_exp1","2022-5-4","15:42:8","25","75","3","9","10","40","30","120","95","20","[""White""]","Prefer not to say","Nonbinary/third gender","3439327","749","i","learn","","","learn_trial","16.6667","110","out","0","1","","","","","","","","","","","","","","","","","","","","",""
"","","","","","canvas-keyboard-response","130","1445174","0.0-12.0-3.23","2d_cat_multi_stim_exp1","2022-5-4","15:42:8","25","75","3","9","10","40","30","120","95","20","[""White""]","Prefer not to say","Nonbinary/third gender","3439327","null","null","learn_feedback","","","learn_feedback","16.6667","110","out","","","","","","","","","","","","","","","","","","","","","","",""
"","","","","","canvas-keyboard-response","131","1445232","0.0-12.0-4.23","2d_cat_multi_stim_exp1","2022-5-4","15:42:8","25","75","3","9","10","40","30","120","95","20","[""White""]","Prefer not to say","Nonbinary/third gender","3439327","null","null","","","","clear_screen","","","","","","","","","","","","","","","","","","","","","","","","","",""
"","","","","","canvas-keyboard-response","132","1445741","0.0-12.0-0.24","2d_cat_multi_stim_exp1","2022-5-4","15:42:8","25","75","3","9","10","40","30","120","95","20","[""White""]","Prefer not to say","Nonbinary/third gender","3439327","null","null","","","","fixation","","","","","","","","","","","","","","","","","","","","","","","","","",""
"","","","","","canvas-keyboard-response","133","1446249","0.0-12.0-1.24","2d_cat_multi_stim_exp1","2022-5-4","15:42:8","25","75","3","9","10","40","30","120","95","20","[""White""]","Prefer not to say","Nonbinary/third gender","3439327","null","null","","","","clear_screen","","","","","","","","","","","","","","","","","","","","","","","","","",""
"","","","","","canvas-keyboard-response","134","1447160","0.0-12.0-2.24","2d_cat_multi_stim_exp1","2022-5-4","15:42:8","25","75","3","9","10","40","30","120","95","20","[""White""]","Prefer not to say","Nonbinary/third gender","3439327","903","u","learn","","","learn_trial","25","75","in","1","1","","","","","","","","","","","","","","","","","","","","",""
"","","","","","canvas-keyboard-response","135","1447669","0.0-12.0-3.24","2d_cat_multi_stim_exp1","2022-5-4","15:42:8","25","75","3","9","10","40","30","120","95","20","[""White""]","Prefer not to say","Nonbinary/third gender","3439327","null","null","learn_feedback","","","learn_feedback","25","75","in","","","","","","","","","","","","","","","","","","","","","","",""
"","","","","","canvas-keyboard-response","136","1447727","0.0-12.0-4.24","2d_cat_multi_stim_exp1","2022-5-4","15:42:8","25","75","3","9","10","40","30","120","95","20","[""White""]","Prefer not to say","Nonbinary/third gender","3439327","null","null","","","","clear_screen","","","","","","","","","","","","","","","","","","","","","","","","","",""
"","","","","","canvas-keyboard-response","137","1448235","0.0-12.0-0.25","2d_cat_multi_stim_exp1","2022-5-4","15:42:8","25","75","3","9","10","40","30","120","95","20","[""White""]","Prefer not to say","Nonbinary/third gender","3439327","null","null","","","","fixation","","","","","","","","","","","","","","","","","","","","","","","","","",""
"","","","","","canvas-keyboard-response","138","1448744","0.0-12.0-1.25","2d_cat_multi_stim_exp1","2022-5-4","15:42:8","25","75","3","9","10","40","30","120","95","20","[""White""]","Prefer not to say","Nonbinary/third gender","3439327","null","null","","","","clear_screen","","","","","","","","","","","","","","","","","","","","","","","","","",""
"","","","","","canvas-keyboard-response","139","1449673","0.0-12.0-2.25","2d_cat_multi_stim_exp1","2022-5-4","15:42:8","25","75","3","9","10","40","30","120","95","20","[""White""]","Prefer not to say","Nonbinary/third gender","3439327","920","u","learn","","","learn_trial","25","75","in","1","1","","","","","","","","","","","","","","","","","","","","",""
"","","","","","canvas-keyboard-response","140","1450182","0.0-12.0-3.25","2d_cat_multi_stim_exp1","2022-5-4","15:42:8","25","75","3","9","10","40","30","120","95","20","[""White""]","Prefer not to say","Nonbinary/third gender","3439327","null","null","learn_feedback","","","learn_feedback","25","75","in","","","","","","","","","","","","","","","","","","","","","","",""
"","","","","","canvas-keyboard-response","141","1450239","0.0-12.0-4.25","2d_cat_multi_stim_exp1","2022-5-4","15:42:8","25","75","3","9","10","40","30","120","95","20","[""White""]","Prefer not to say","Nonbinary/third gender","3439327","null","null","","","","clear_screen","","","","","","","","","","","","","","","","","","","","","","","","","",""
"","","","","","canvas-keyboard-response","142","1450746","0.0-12.0-0.26","2d_cat_multi_stim_exp1","2022-5-4","15:42:8","25","75","3","9","10","40","30","120","95","20","[""White""]","Prefer not to say","Nonbinary/third gender","3439327","null","null","","","","fixation","","","","","","","","","","","","","","","","","","","","","","","","","",""
"","","","","","canvas-keyboard-response","143","1451255","0.0-12.0-1.26","2d_cat_multi_stim_exp1","2022-5-4","15:42:8","25","75","3","9","10","40","30","120","95","20","[""White""]","Prefer not to say","Nonbinary/third gender","3439327","null","null","","","","clear_screen","","","","","","","","","","","","","","","","","","","","","","","","","",""
"","","","","","canvas-keyboard-response","144","1452049","0.0-12.0-2.26","2d_cat_multi_stim_exp1","2022-5-4","15:42:8","25","75","3","9","10","40","30","120","95","20","[""White""]","Prefer not to say","Nonbinary/third gender","3439327","781","i","learn","","","learn_trial","36.6667","30","out","0","1","","","","","","","","","","","","","","","","","","","","",""
"","","","","","canvas-keyboard-response","145","1452558","0.0-12.0-3.26","2d_cat_multi_stim_exp1","2022-5-4","15:42:8","25","75","3","9","10","40","30","120","95","20","[""White""]","Prefer not to say","Nonbinary/third gender","3439327","null","null","learn_feedback","","","learn_feedback","36.6667","30","out","","","","","","","","","","","","","","","","","","","","","","",""
"","","","","","canvas-keyboard-response","146","1452616","0.0-12.0-4.26","2d_cat_multi_stim_exp1","2022-5-4","15:42:8","25","75","3","9","10","40","30","120","95","20","[""White""]","Prefer not to say","Nonbinary/third gender","3439327","null","null","","","","clear_screen","","","","","","","","","","","","","","","","","","","","","","","","","",""
"","","","","","canvas-keyboard-response","147","1453124","0.0-12.0-0.27","2d_cat_multi_stim_exp1","2022-5-4","15:42:8","25","75","3","9","10","40","30","120","95","20","[""White""]","Prefer not to say","Nonbinary/third gender","3439327","null","null","","","","fixation","","","","","","","","","","","","","","","","","","","","","","","","","",""
"","","","","","canvas-keyboard-response","148","1453633","0.0-12.0-1.27","2d_cat_multi_stim_exp1","2022-5-4","15:42:8","25","75","3","9","10","40","30","120","95","20","[""White""]","Prefer not to say","Nonbinary/third gender","3439327","null","null","","","","clear_screen","","","","","","","","","","","","","","","","","","","","","","","","","",""
"","","","","","canvas-keyboard-response","149","1455672","0.0-12.0-2.27","2d_cat_multi_stim_exp1","2022-5-4","15:42:8","25","75","3","9","10","40","30","120","95","20","[""White""]","Prefer not to say","Nonbinary/third gender","3439327","2030","u","learn","","","learn_trial","30","70","out","1","0","","","","","","","","","","","","","","","","","","","","",""
"","","","","","canvas-keyboard-response","150","1456682","0.0-12.0-3.27","2d_cat_multi_stim_exp1","2022-5-4","15:42:8","25","75","3","9","10","40","30","120","95","20","[""White""]","Prefer not to say","Nonbinary/third gender","3439327","null","null","learn_feedback","","","learn_feedback","30","70","out","","","","","","","","","","","","","","","","","","","","","","",""
"","","","","","canvas-keyboard-response","151","1456740","0.0-12.0-4.27","2d_cat_multi_stim_exp1","2022-5-4","15:42:8","25","75","3","9","10","40","30","120","95","20","[""White""]","Prefer not to say","Nonbinary/third gender","3439327","null","null","","","","clear_screen","","","","","","","","","","","","","","","","","","","","","","","","","",""
"","","","","","canvas-keyboard-response","152","1457248","0.0-12.0-0.28","2d_cat_multi_stim_exp1","2022-5-4","15:42:8","25","75","3","9","10","40","30","120","95","20","[""White""]","Prefer not to say","Nonbinary/third gender","3439327","null","null","","","","fixation","","","","","","","","","","","","","","","","","","","","","","","","","",""
"","","","","","canvas-keyboard-response","153","1457756","0.0-12.0-1.28","2d_cat_multi_stim_exp1","2022-5-4","15:42:8","25","75","3","9","10","40","30","120","95","20","[""White""]","Prefer not to say","Nonbinary/third gender","3439327","null","null","","","","clear_screen","","","","","","","","","","","","","","","","","","","","","","","","","",""
"","","","","","canvas-keyboard-response","154","1460296","0.0-12.0-2.28","2d_cat_multi_stim_exp1","2022-5-4","15:42:8","25","75","3","9","10","40","30","120","95","20","[""White""]","Prefer not to say","Nonbinary/third gender","3439327","2532","u","learn","","","learn_trial","25","75","in","1","1","","","","","","","","","","","","","","","","","","","","",""
"","","","","","canvas-keyboard-response","155","1460805","0.0-12.0-3.28","2d_cat_multi_stim_exp1","2022-5-4","15:42:8","25","75","3","9","10","40","30","120","95","20","[""White""]","Prefer not to say","Nonbinary/third gender","3439327","null","null","learn_feedback","","","learn_feedback","25","75","in","","","","","","","","","","","","","","","","","","","","","","",""
"","","","","","canvas-keyboard-response","156","1460863","0.0-12.0-4.28","2d_cat_multi_stim_exp1","2022-5-4","15:42:8","25","75","3","9","10","40","30","120","95","20","[""White""]","Prefer not to say","Nonbinary/third gender","3439327","null","null","","","","clear_screen","","","","","","","","","","","","","","","","","","","","","","","","","",""
"","","","","","canvas-keyboard-response","157","1461371","0.0-12.0-0.29","2d_cat_multi_stim_exp1","2022-5-4","15:42:8","25","75","3","9","10","40","30","120","95","20","[""White""]","Prefer not to say","Nonbinary/third gender","3439327","null","null","","","","fixation","","","","","","","","","","","","","","","","","","","","","","","","","",""
"","","","","","canvas-keyboard-response","158","1461881","0.0-12.0-1.29","2d_cat_multi_stim_exp1","2022-5-4","15:42:8","25","75","3","9","10","40","30","120","95","20","[""White""]","Prefer not to say","Nonbinary/third gender","3439327","null","null","","","","clear_screen","","","","","","","","","","","","","","","","","","","","","","","","","",""
"","","","","","canvas-keyboard-response","159","1463113","0.0-12.0-2.29","2d_cat_multi_stim_exp1","2022-5-4","15:42:8","25","75","3","9","10","40","30","120","95","20","[""White""]","Prefer not to say","Nonbinary/third gender","3439327","1221","u","learn","","","learn_trial","25.9271","66.4405","in","1","1","","","","","","","","","","","","","","","","","","","","",""
"","","","","","canvas-keyboard-response","160","1463621","0.0-12.0-3.29","2d_cat_multi_stim_exp1","2022-5-4","15:42:8","25","75","3","9","10","40","30","120","95","20","[""White""]","Prefer not to say","Nonbinary/third gender","3439327","null","null","learn_feedback","","","learn_feedback","25.9271","66.4405","in","","","","","","","","","","","","","","","","","","","","","","",""
"","","","","","canvas-keyboard-response","161","1463679","0.0-12.0-4.29","2d_cat_multi_stim_exp1","2022-5-4","15:42:8","25","75","3","9","10","40","30","120","95","20","[""White""]","Prefer not to say","Nonbinary/third gender","3439327","null","null","","","","clear_screen","","","","","","","","","","","","","","","","","","","","","","","","","",""
"","","","","","canvas-keyboard-response","162","1464187","0.0-12.0-0.30","2d_cat_multi_stim_exp1","2022-5-4","15:42:8","25","75","3","9","10","40","30","120","95","20","[""White""]","Prefer not to say","Nonbinary/third gender","3439327","null","null","","","","fixation","","","","","","","","","","","","","","","","","","","","","","","","","",""
"","","","","","canvas-keyboard-response","163","1464696","0.0-12.0-1.30","2d_cat_multi_stim_exp1","2022-5-4","15:42:8","25","75","3","9","10","40","30","120","95","20","[""White""]","Prefer not to say","Nonbinary/third gender","3439327","null","null","","","","clear_screen","","","","","","","","","","","","","","","","","","","","","","","","","",""
"","","","","","canvas-keyboard-response","164","1465712","0.0-12.0-2.30","2d_cat_multi_stim_exp1","2022-5-4","15:42:8","25","75","3","9","10","40","30","120","95","20","[""White""]","Prefer not to say","Nonbinary/third gender","3439327","1008","i","learn","","","learn_trial","26.6667","90","out","0","1","","","","","","","","","","","","","","","","","","","","",""
"","","","","","canvas-keyboard-response","165","1466221","0.0-12.0-3.30","2d_cat_multi_stim_exp1","2022-5-4","15:42:8","25","75","3","9","10","40","30","120","95","20","[""White""]","Prefer not to say","Nonbinary/third gender","3439327","null","null","learn_feedback","","","learn_feedback","26.6667","90","out","","","","","","","","","","","","","","","","","","","","","","",""
"","","","","","canvas-keyboard-response","166","1466279","0.0-12.0-4.30","2d_cat_multi_stim_exp1","2022-5-4","15:42:8","25","75","3","9","10","40","30","120","95","20","[""White""]","Prefer not to say","Nonbinary/third gender","3439327","null","null","","","","clear_screen","","","","","","","","","","","","","","","","","","","","","","","","","",""
"","","","","","canvas-keyboard-response","167","1466788","0.0-12.0-0.31","2d_cat_multi_stim_exp1","2022-5-4","15:42:8","25","75","3","9","10","40","30","120","95","20","[""White""]","Prefer not to say","Nonbinary/third gender","3439327","null","null","","","","fixation","","","","","","","","","","","","","","","","","","","","","","","","","",""
"","","","","","canvas-keyboard-response","168","1467296","0.0-12.0-1.31","2d_cat_multi_stim_exp1","2022-5-4","15:42:8","25","75","3","9","10","40","30","120","95","20","[""White""]","Prefer not to say","Nonbinary/third gender","3439327","null","null","","","","clear_screen","","","","","","","","","","","","","","","","","","","","","","","","","",""
"","","","","","canvas-keyboard-response","169","1468600","0.0-12.0-2.31","2d_cat_multi_stim_exp1","2022-5-4","15:42:8","25","75","3","9","10","40","30","120","95","20","[""White""]","Prefer not to say","Nonbinary/third gender","3439327","1295","u","learn","","","learn_trial","25","75","in","1","1","","","","","","","","","","","","","","","","","","","","",""
"","","","","","canvas-keyboard-response","170","1469109","0.0-12.0-3.31","2d_cat_multi_stim_exp1","2022-5-4","15:42:8","25","75","3","9","10","40","30","120","95","20","[""White""]","Prefer not to say","Nonbinary/third gender","3439327","null","null","learn_feedback","","","learn_feedback","25","75","in","","","","","","","","","","","","","","","","","","","","","","",""
"","","","","","canvas-keyboard-response","171","1469166","0.0-12.0-4.31","2d_cat_multi_stim_exp1","2022-5-4","15:42:8","25","75","3","9","10","40","30","120","95","20","[""White""]","Prefer not to say","Nonbinary/third gender","3439327","null","null","","","","clear_screen","","","","","","","","","","","","","","","","","","","","","","","","","",""
"","","","","","canvas-keyboard-response","172","1469675","0.0-12.0-0.32","2d_cat_multi_stim_exp1","2022-5-4","15:42:8","25","75","3","9","10","40","30","120","95","20","[""White""]","Prefer not to say","Nonbinary/third gender","3439327","null","null","","","","fixation","","","","","","","","","","","","","","","","","","","","","","","","","",""
"","","","","","canvas-keyboard-response","173","1470183","0.0-12.0-1.32","2d_cat_multi_stim_exp1","2022-5-4","15:42:8","25","75","3","9","10","40","30","120","95","20","[""White""]","Prefer not to say","Nonbinary/third gender","3439327","null","null","","","","clear_screen","","","","","","","","","","","","","","","","","","","","","","","","","",""
"","","","","","canvas-keyboard-response","174","1471329","0.0-12.0-2.32","2d_cat_multi_stim_exp1","2022-5-4","15:42:8","25","75","3","9","10","40","30","120","95","20","[""White""]","Prefer not to say","Nonbinary/third gender","3439327","1136","u","learn","","","learn_trial","10","30","out","1","0","","","","","","","","","","","","","","","","","","","","",""
"","","","","","canvas-keyboard-response","175","1472341","0.0-12.0-3.32","2d_cat_multi_stim_exp1","2022-5-4","15:42:8","25","75","3","9","10","40","30","120","95","20","[""White""]","Prefer not to say","Nonbinary/third gender","3439327","null","null","learn_feedback","","","learn_feedback","10","30","out","","","","","","","","","","","","","","","","","","","","","","",""
"","","","","","canvas-keyboard-response","176","1472401","0.0-12.0-4.32","2d_cat_multi_stim_exp1","2022-5-4","15:42:8","25","75","3","9","10","40","30","120","95","20","[""White""]","Prefer not to say","Nonbinary/third gender","3439327","null","null","","","","clear_screen","","","","","","","","","","","","","","","","","","","","","","","","","",""
"","","","","","canvas-keyboard-response","177","1472911","0.0-12.0-0.33","2d_cat_multi_stim_exp1","2022-5-4","15:42:8","25","75","3","9","10","40","30","120","95","20","[""White""]","Prefer not to say","Nonbinary/third gender","3439327","null","null","","","","fixation","","","","","","","","","","","","","","","","","","","","","","","","","",""
"","","","","","canvas-keyboard-response","178","1473421","0.0-12.0-1.33","2d_cat_multi_stim_exp1","2022-5-4","15:42:8","25","75","3","9","10","40","30","120","95","20","[""White""]","Prefer not to say","Nonbinary/third gender","3439327","null","null","","","","clear_screen","","","","","","","","","","","","","","","","","","","","","","","","","",""
"","","","","","canvas-keyboard-response","179","1475240","0.0-12.0-2.33","2d_cat_multi_stim_exp1","2022-5-4","15:42:8","25","75","3","9","10","40","30","120","95","20","[""White""]","Prefer not to say","Nonbinary/third gender","3439327","1809","u","learn","","","learn_trial","27.8087","71.8376","in","1","1","","","","","","","","","","","","","","","","","","","","",""
"","","","","","canvas-keyboard-response","180","1475750","0.0-12.0-3.33","2d_cat_multi_stim_exp1","2022-5-4","15:42:8","25","75","3","9","10","40","30","120","95","20","[""White""]","Prefer not to say","Nonbinary/third gender","3439327","null","null","learn_feedback","","","learn_feedback","27.8087","71.8376","in","","","","","","","","","","","","","","","","","","","","","","",""
"","","","","","canvas-keyboard-response","181","1475808","0.0-12.0-4.33","2d_cat_multi_stim_exp1","2022-5-4","15:42:8","25","75","3","9","10","40","30","120","95","20","[""White""]","Prefer not to say","Nonbinary/third gender","3439327","null","null","","","","clear_screen","","","","","","","","","","","","","","","","","","","","","","","","","",""
"","","","","","canvas-keyboard-response","182","1476317","0.0-12.0-0.34","2d_cat_multi_stim_exp1","2022-5-4","15:42:8","25","75","3","9","10","40","30","120","95","20","[""White""]","Prefer not to say","Nonbinary/third gender","3439327","null","null","","","","fixation","","","","","","","","","","","","","","","","","","","","","","","","","",""
"","","","","","canvas-keyboard-response","183","1476825","0.0-12.0-1.34","2d_cat_multi_stim_exp1","2022-5-4","15:42:8","25","75","3","9","10","40","30","120","95","20","[""White""]","Prefer not to say","Nonbinary/third gender","3439327","null","null","","","","clear_screen","","","","","","","","","","","","","","","","","","","","","","","","","",""
"","","","","","canvas-keyboard-response","184","1477513","0.0-12.0-2.34","2d_cat_multi_stim_exp1","2022-5-4","15:42:8","25","75","3","9","10","40","30","120","95","20","[""White""]","Prefer not to say","Nonbinary/third gender","3439327","677","u","learn","","","learn_trial","25","75","in","1","1","","","","","","","","","","","","","","","","","","","","",""
"","","","","","canvas-keyboard-response","185","1478022","0.0-12.0-3.34","2d_cat_multi_stim_exp1","2022-5-4","15:42:8","25","75","3","9","10","40","30","120","95","20","[""White""]","Prefer not to say","Nonbinary/third gender","3439327","null","null","learn_feedback","","","learn_feedback","25","75","in","","","","","","","","","","","","","","","","","","","","","","",""
"","","","","","canvas-keyboard-response","186","1478081","0.0-12.0-4.34","2d_cat_multi_stim_exp1","2022-5-4","15:42:8","25","75","3","9","10","40","30","120","95","20","[""White""]","Prefer not to say","Nonbinary/third gender","3439327","null","null","","","","clear_screen","","","","","","","","","","","","","","","","","","","","","","","","","",""
"","","","","","canvas-keyboard-response","187","1478589","0.0-12.0-0.35","2d_cat_multi_stim_exp1","2022-5-4","15:42:8","25","75","3","9","10","40","30","120","95","20","[""White""]","Prefer not to say","Nonbinary/third gender","3439327","null","null","","","","fixation","","","","","","","","","","","","","","","","","","","","","","","","","",""
"","","","","","canvas-keyboard-response","188","1479098","0.0-12.0-1.35","2d_cat_multi_stim_exp1","2022-5-4","15:42:8","25","75","3","9","10","40","30","120","95","20","[""White""]","Prefer not to say","Nonbinary/third gender","3439327","null","null","","","","clear_screen","","","","","","","","","","","","","","","","","","","","","","","","","",""
"","","","","","canvas-keyboard-response","189","1480264","0.0-12.0-2.35","2d_cat_multi_stim_exp1","2022-5-4","15:42:8","25","75","3","9","10","40","30","120","95","20","[""White""]","Prefer not to say","Nonbinary/third gender","3439327","1156","i","learn","","","learn_trial","22.5729","80.2901","in","0","0","","","","","","","","","","","","","","","","","","","","",""
"","","","","","canvas-keyboard-response","190","1481273","0.0-12.0-3.35","2d_cat_multi_stim_exp1","2022-5-4","15:42:8","25","75","3","9","10","40","30","120","95","20","[""White""]","Prefer not to say","Nonbinary/third gender","3439327","null","null","learn_feedback","","","learn_feedback","22.5729","80.2901","in","","","","","","","","","","","","","","","","","","","","","","",""
"","","","","","canvas-keyboard-response","191","1481332","0.0-12.0-4.35","2d_cat_multi_stim_exp1","2022-5-4","15:42:8","25","75","3","9","10","40","30","120","95","20","[""White""]","Prefer not to say","Nonbinary/third gender","3439327","null","null","","","","clear_screen","","","","","","","","","","","","","","","","","","","","","","","","","",""
"","","","","","canvas-keyboard-response","192","1481839","0.0-12.0-0.36","2d_cat_multi_stim_exp1","2022-5-4","15:42:8","25","75","3","9","10","40","30","120","95","20","[""White""]","Prefer not to say","Nonbinary/third gender","3439327","null","null","","","","fixation","","","","","","","","","","","","","","","","","","","","","","","","","",""
"","","","","","canvas-keyboard-response","193","1482348","0.0-12.0-1.36","2d_cat_multi_stim_exp1","2022-5-4","15:42:8","25","75","3","9","10","40","30","120","95","20","[""White""]","Prefer not to say","Nonbinary/third gender","3439327","null","null","","","","clear_screen","","","","","","","","","","","","","","","","","","","","","","","","","",""
"","","","","","canvas-keyboard-response","194","1483961","0.0-12.0-2.36","2d_cat_multi_stim_exp1","2022-5-4","15:42:8","25","75","3","9","10","40","30","120","95","20","[""White""]","Prefer not to say","Nonbinary/third gender","3439327","1603","u","learn","","","learn_trial","25","75","in","1","1","","","","","","","","","","","","","","","","","","","","",""
"","","","","","canvas-keyboard-response","195","1484470","0.0-12.0-3.36","2d_cat_multi_stim_exp1","2022-5-4","15:42:8","25","75","3","9","10","40","30","120","95","20","[""White""]","Prefer not to say","Nonbinary/third gender","3439327","null","null","learn_feedback","","","learn_feedback","25","75","in","","","","","","","","","","","","","","","","","","","","","","",""
"","","","","","canvas-keyboard-response","196","1484528","0.0-12.0-4.36","2d_cat_multi_stim_exp1","2022-5-4","15:42:8","25","75","3","9","10","40","30","120","95","20","[""White""]","Prefer not to say","Nonbinary/third gender","3439327","null","null","","","","clear_screen","","","","","","","","","","","","","","","","","","","","","","","","","",""
"","","","","","canvas-keyboard-response","197","1485036","0.0-12.0-0.37","2d_cat_multi_stim_exp1","2022-5-4","15:42:8","25","75","3","9","10","40","30","120","95","20","[""White""]","Prefer not to say","Nonbinary/third gender","3439327","null","null","","","","fixation","","","","","","","","","","","","","","","","","","","","","","","","","",""
"","","","","","canvas-keyboard-response","198","1485544","0.0-12.0-1.37","2d_cat_multi_stim_exp1","2022-5-4","15:42:8","25","75","3","9","10","40","30","120","95","20","[""White""]","Prefer not to say","Nonbinary/third gender","3439327","null","null","","","","clear_screen","","","","","","","","","","","","","","","","","","","","","","","","","",""
"","","","","","canvas-keyboard-response","199","1487752","0.0-12.0-2.37","2d_cat_multi_stim_exp1","2022-5-4","15:42:8","25","75","3","9","10","40","30","120","95","20","[""White""]","Prefer not to say","Nonbinary/third gender","3439327","2199","u","learn","","","learn_trial","27.9518","73.393","in","1","1","","","","","","","","","","","","","","","","","","","","",""
"","","","","","canvas-keyboard-response","200","1488261","0.0-12.0-3.37","2d_cat_multi_stim_exp1","2022-5-4","15:42:8","25","75","3","9","10","40","30","120","95","20","[""White""]","Prefer not to say","Nonbinary/third gender","3439327","null","null","learn_feedback","","","learn_feedback","27.9518","73.393","in","","","","","","","","","","","","","","","","","","","","","","",""
"","","","","","canvas-keyboard-response","201","1488320","0.0-12.0-4.37","2d_cat_multi_stim_exp1","2022-5-4","15:42:8","25","75","3","9","10","40","30","120","95","20","[""White""]","Prefer not to say","Nonbinary/third gender","3439327","null","null","","","","clear_screen","","","","","","","","","","","","","","","","","","","","","","","","","",""
"","","","","","canvas-keyboard-response","202","1488828","0.0-12.0-0.38","2d_cat_multi_stim_exp1","2022-5-4","15:42:8","25","75","3","9","10","40","30","120","95","20","[""White""]","Prefer not to say","Nonbinary/third gender","3439327","null","null","","","","fixation","","","","","","","","","","","","","","","","","","","","","","","","","",""
"","","","","","canvas-keyboard-response","203","1489337","0.0-12.0-1.38","2d_cat_multi_stim_exp1","2022-5-4","15:42:8","25","75","3","9","10","40","30","120","95","20","[""White""]","Prefer not to say","Nonbinary/third gender","3439327","null","null","","","","clear_screen","","","","","","","","","","","","","","","","","","","","","","","","","",""
"","","","","","canvas-keyboard-response","204","1490943","0.0-12.0-2.38","2d_cat_multi_stim_exp1","2022-5-4","15:42:8","25","75","3","9","10","40","30","120","95","20","[""White""]","Prefer not to say","Nonbinary/third gender","3439327","1599","u","learn","","","learn_trial","23.8209","83.2757","in","1","1","","","","","","","","","","","","","","","","","","","","",""
"","","","","","canvas-keyboard-response","205","1491453","0.0-12.0-3.38","2d_cat_multi_stim_exp1","2022-5-4","15:42:8","25","75","3","9","10","40","30","120","95","20","[""White""]","Prefer not to say","Nonbinary/third gender","3439327","null","null","learn_feedback","","","learn_feedback","23.8209","83.2757","in","","","","","","","","","","","","","","","","","","","","","","",""
"","","","","","canvas-keyboard-response","206","1491513","0.0-12.0-4.38","2d_cat_multi_stim_exp1","2022-5-4","15:42:8","25","75","3","9","10","40","30","120","95","20","[""White""]","Prefer not to say","Nonbinary/third gender","3439327","null","null","","","","clear_screen","","","","","","","","","","","","","","","","","","","","","","","","","",""
"","","","","","canvas-keyboard-response","207","1492020","0.0-12.0-0.39","2d_cat_multi_stim_exp1","2022-5-4","15:42:8","25","75","3","9","10","40","30","120","95","20","[""White""]","Prefer not to say","Nonbinary/third gender","3439327","null","null","","","","fixation","","","","","","","","","","","","","","","","","","","","","","","","","",""
"","","","","","canvas-keyboard-response","208","1492529","0.0-12.0-1.39","2d_cat_multi_stim_exp1","2022-5-4","15:42:8","25","75","3","9","10","40","30","120","95","20","[""White""]","Prefer not to say","Nonbinary/third gender","3439327","null","null","","","","clear_screen","","","","","","","","","","","","","","","","","","","","","","","","","",""
"","","","","","canvas-keyboard-response","209","1493592","0.0-12.0-2.39","2d_cat_multi_stim_exp1","2022-5-4","15:42:8","25","75","3","9","10","40","30","120","95","20","[""White""]","Prefer not to say","Nonbinary/third gender","3439327","1055","u","learn","","","learn_trial","25","75","in","1","1","","","","","","","","","","","","","","","","","","","","",""
"","","","","","canvas-keyboard-response","210","1494101","0.0-12.0-3.39","2d_cat_multi_stim_exp1","2022-5-4","15:42:8","25","75","3","9","10","40","30","120","95","20","[""White""]","Prefer not to say","Nonbinary/third gender","3439327","null","null","learn_feedback","","","learn_feedback","25","75","in","","","","","","","","","","","","","","","","","","","","","","",""
"","","","","","canvas-keyboard-response","211","1494159","0.0-12.0-4.39","2d_cat_multi_stim_exp1","2022-5-4","15:42:8","25","75","3","9","10","40","30","120","95","20","[""White""]","Prefer not to say","Nonbinary/third gender","3439327","null","null","","","","clear_screen","","","","","","","","","","","","","","","","","","","","","","","","","",""
"","","","","","canvas-keyboard-response","212","1494667","0.0-12.0-0.40","2d_cat_multi_stim_exp1","2022-5-4","15:42:8","25","75","3","9","10","40","30","120","95","20","[""White""]","Prefer not to say","Nonbinary/third gender","3439327","null","null","","","","fixation","","","","","","","","","","","","","","","","","","","","","","","","","",""
"","","","","","canvas-keyboard-response","213","1495176","0.0-12.0-1.40","2d_cat_multi_stim_exp1","2022-5-4","15:42:8","25","75","3","9","10","40","30","120","95","20","[""White""]","Prefer not to say","Nonbinary/third gender","3439327","null","null","","","","clear_screen","","","","","","","","","","","","","","","","","","","","","","","","","",""
"","","","","","canvas-keyboard-response","214","1496650","0.0-12.0-2.40","2d_cat_multi_stim_exp1","2022-5-4","15:42:8","25","75","3","9","10","40","30","120","95","20","[""White""]","Prefer not to say","Nonbinary/third gender","3439327","1463","u","learn","","","learn_trial","33.3333","90","out","1","0","","","","","","","","","","","","","","","","","","","","",""
"","","","","","canvas-keyboard-response","215","1497661","0.0-12.0-3.40","2d_cat_multi_stim_exp1","2022-5-4","15:42:8","25","75","3","9","10","40","30","120","95","20","[""White""]","Prefer not to say","Nonbinary/third gender","3439327","null","null","learn_feedback","","","learn_feedback","33.3333","90","out","","","","","","","","","","","","","","","","","","","","","","",""
"","","","","","canvas-keyboard-response","216","1497721","0.0-12.0-4.40","2d_cat_multi_stim_exp1","2022-5-4","15:42:8","25","75","3","9","10","40","30","120","95","20","[""White""]","Prefer not to say","Nonbinary/third gender","3439327","null","null","","","","clear_screen","","","","","","","","","","","","","","","","","","","","","","","","","",""
"","","","","","canvas-keyboard-response","217","1498232","0.0-12.0-0.41","2d_cat_multi_stim_exp1","2022-5-4","15:42:8","25","75","3","9","10","40","30","120","95","20","[""White""]","Prefer not to say","Nonbinary/third gender","3439327","null","null","","","","fixation","","","","","","","","","","","","","","","","","","","","","","","","","",""
"","","","","","canvas-keyboard-response","218","1498742","0.0-12.0-1.41","2d_cat_multi_stim_exp1","2022-5-4","15:42:8","25","75","3","9","10","40","30","120","95","20","[""White""]","Prefer not to say","Nonbinary/third gender","3439327","null","null","","","","clear_screen","","","","","","","","","","","","","","","","","","","","","","","","","",""
"","","","","","canvas-keyboard-response","219","1499936","0.0-12.0-2.41","2d_cat_multi_stim_exp1","2022-5-4","15:42:8","25","75","3","9","10","40","30","120","95","20","[""White""]","Prefer not to say","Nonbinary/third gender","3439327","1185","u","learn","","","learn_trial","27.9518","76.607","in","1","1","","","","","","","","","","","","","","","","","","","","",""
"","","","","","canvas-keyboard-response","220","1500446","0.0-12.0-3.41","2d_cat_multi_stim_exp1","2022-5-4","15:42:8","25","75","3","9","10","40","30","120","95","20","[""White""]","Prefer not to say","Nonbinary/third gender","3439327","null","null","learn_feedback","","","learn_feedback","27.9518","76.607","in","","","","","","","","","","","","","","","","","","","","","","",""
"","","","","","canvas-keyboard-response","221","1500508","0.0-12.0-4.41","2d_cat_multi_stim_exp1","2022-5-4","15:42:8","25","75","3","9","10","40","30","120","95","20","[""White""]","Prefer not to say","Nonbinary/third gender","3439327","null","null","","","","clear_screen","","","","","","","","","","","","","","","","","","","","","","","","","",""
"","","","","","canvas-keyboard-response","222","1501017","0.0-12.0-0.42","2d_cat_multi_stim_exp1","2022-5-4","15:42:8","25","75","3","9","10","40","30","120","95","20","[""White""]","Prefer not to say","Nonbinary/third gender","3439327","null","null","","","","fixation","","","","","","","","","","","","","","","","","","","","","","","","","",""
"","","","","","canvas-keyboard-response","223","1501527","0.0-12.0-1.42","2d_cat_multi_stim_exp1","2022-5-4","15:42:8","25","75","3","9","10","40","30","120","95","20","[""White""]","Prefer not to say","Nonbinary/third gender","3439327","null","null","","","","clear_screen","","","","","","","","","","","","","","","","","","","","","","","","","",""
"","","","","","canvas-keyboard-response","224","1502233","0.0-12.0-2.42","2d_cat_multi_stim_exp1","2022-5-4","15:42:8","25","75","3","9","10","40","30","120","95","20","[""White""]","Prefer not to say","Nonbinary/third gender","3439327","697","u","learn","","","learn_trial","25","75","in","1","1","","","","","","","","","","","","","","","","","","","","",""
"","","","","","canvas-keyboard-response","225","1502742","0.0-12.0-3.42","2d_cat_multi_stim_exp1","2022-5-4","15:42:8","25","75","3","9","10","40","30","120","95","20","[""White""]","Prefer not to say","Nonbinary/third gender","3439327","null","null","learn_feedback","","","learn_feedback","25","75","in","","","","","","","","","","","","","","","","","","","","","","",""
"","","","","","canvas-keyboard-response","226","1502802","0.0-12.0-4.42","2d_cat_multi_stim_exp1","2022-5-4","15:42:8","25","75","3","9","10","40","30","120","95","20","[""White""]","Prefer not to say","Nonbinary/third gender","3439327","null","null","","","","clear_screen","","","","","","","","","","","","","","","","","","","","","","","","","",""
"","","","","","canvas-keyboard-response","227","1503311","0.0-12.0-0.43","2d_cat_multi_stim_exp1","2022-5-4","15:42:8","25","75","3","9","10","40","30","120","95","20","[""White""]","Prefer not to say","Nonbinary/third gender","3439327","null","null","","","","fixation","","","","","","","","","","","","","","","","","","","","","","","","","",""
"","","","","","canvas-keyboard-response","228","1503820","0.0-12.0-1.43","2d_cat_multi_stim_exp1","2022-5-4","15:42:8","25","75","3","9","10","40","30","120","95","20","[""White""]","Prefer not to say","Nonbinary/third gender","3439327","null","null","","","","clear_screen","","","","","","","","","","","","","","","","","","","","","","","","","",""
"","","","","","canvas-keyboard-response","229","1504920","0.0-12.0-2.43","2d_cat_multi_stim_exp1","2022-5-4","15:42:8","25","75","3","9","10","40","30","120","95","20","[""White""]","Prefer not to say","Nonbinary/third gender","3439327","1091","u","learn","","","learn_trial","23.3333","60","out","1","0","","","","","","","","","","","","","","","","","","","","",""
"","","","","","canvas-keyboard-response","230","1505929","0.0-12.0-3.43","2d_cat_multi_stim_exp1","2022-5-4","15:42:8","25","75","3","9","10","40","30","120","95","20","[""White""]","Prefer not to say","Nonbinary/third gender","3439327","null","null","learn_feedback","","","learn_feedback","23.3333","60","out","","","","","","","","","","","","","","","","","","","","","","",""
"","","","","","canvas-keyboard-response","231","1505986","0.0-12.0-4.43","2d_cat_multi_stim_exp1","2022-5-4","15:42:8","25","75","3","9","10","40","30","120","95","20","[""White""]","Prefer not to say","Nonbinary/third gender","3439327","null","null","","","","clear_screen","","","","","","","","","","","","","","","","","","","","","","","","","",""
"","","","","","canvas-keyboard-response","232","1506495","0.0-12.0-0.44","2d_cat_multi_stim_exp1","2022-5-4","15:42:8","25","75","3","9","10","40","30","120","95","20","[""White""]","Prefer not to say","Nonbinary/third gender","3439327","null","null","","","","fixation","","","","","","","","","","","","","","","","","","","","","","","","","",""
"","","","","","canvas-keyboard-response","233","1507004","0.0-12.0-1.44","2d_cat_multi_stim_exp1","2022-5-4","15:42:8","25","75","3","9","10","40","30","120","95","20","[""White""]","Prefer not to say","Nonbinary/third gender","3439327","null","null","","","","clear_screen","","","","","","","","","","","","","","","","","","","","","","","","","",""
"","","","","","canvas-keyboard-response","234","1509240","0.0-12.0-2.44","2d_cat_multi_stim_exp1","2022-5-4","15:42:8","25","75","3","9","10","40","30","120","95","20","[""White""]","Prefer not to say","Nonbinary/third gender","3439327","2227","i","learn","","","learn_trial","23.3333","110","out","0","1","","","","","","","","","","","","","","","","","","","","",""
"","","","","","canvas-keyboard-response","235","1509749","0.0-12.0-3.44","2d_cat_multi_stim_exp1","2022-5-4","15:42:8","25","75","3","9","10","40","30","120","95","20","[""White""]","Prefer not to say","Nonbinary/third gender","3439327","null","null","learn_feedback","","","learn_feedback","23.3333","110","out","","","","","","","","","","","","","","","","","","","","","","",""
"","","","","","canvas-keyboard-response","236","1509810","0.0-12.0-4.44","2d_cat_multi_stim_exp1","2022-5-4","15:42:8","25","75","3","9","10","40","30","120","95","20","[""White""]","Prefer not to say","Nonbinary/third gender","3439327","null","null","","","","clear_screen","","","","","","","","","","","","","","","","","","","","","","","","","",""
"","","","","","canvas-keyboard-response","237","1510318","0.0-12.0-0.45","2d_cat_multi_stim_exp1","2022-5-4","15:42:8","25","75","3","9","10","40","30","120","95","20","[""White""]","Prefer not to say","Nonbinary/third gender","3439327","null","null","","","","fixation","","","","","","","","","","","","","","","","","","","","","","","","","",""
"","","","","","canvas-keyboard-response","238","1510826","0.0-12.0-1.45","2d_cat_multi_stim_exp1","2022-5-4","15:42:8","25","75","3","9","10","40","30","120","95","20","[""White""]","Prefer not to say","Nonbinary/third gender","3439327","null","null","","","","clear_screen","","","","","","","","","","","","","","","","","","","","","","","","","",""
"","","","","","canvas-keyboard-response","239","1512920","0.0-12.0-2.45","2d_cat_multi_stim_exp1","2022-5-4","15:42:8","25","75","3","9","10","40","30","120","95","20","[""White""]","Prefer not to say","Nonbinary/third gender","3439327","2086","i","learn","","","learn_trial","33.3333","30","out","0","1","","","","","","","","","","","","","","","","","","","","",""
"","","","","","canvas-keyboard-response","240","1513429","0.0-12.0-3.45","2d_cat_multi_stim_exp1","2022-5-4","15:42:8","25","75","3","9","10","40","30","120","95","20","[""White""]","Prefer not to say","Nonbinary/third gender","3439327","null","null","learn_feedback","","","learn_feedback","33.3333","30","out","","","","","","","","","","","","","","","","","","","","","","",""
"","","","","","canvas-keyboard-response","241","1513487","0.0-12.0-4.45","2d_cat_multi_stim_exp1","2022-5-4","15:42:8","25","75","3","9","10","40","30","120","95","20","[""White""]","Prefer not to say","Nonbinary/third gender","3439327","null","null","","","","clear_screen","","","","","","","","","","","","","","","","","","","","","","","","","",""
"","","","","","canvas-keyboard-response","242","1513996","0.0-12.0-0.46","2d_cat_multi_stim_exp1","2022-5-4","15:42:8","25","75","3","9","10","40","30","120","95","20","[""White""]","Prefer not to say","Nonbinary/third gender","3439327","null","null","","","","fixation","","","","","","","","","","","","","","","","","","","","","","","","","",""
"","","","","","canvas-keyboard-response","243","1514505","0.0-12.0-1.46","2d_cat_multi_stim_exp1","2022-5-4","15:42:8","25","75","3","9","10","40","30","120","95","20","[""White""]","Prefer not to say","Nonbinary/third gender","3439327","null","null","","","","clear_screen","","","","","","","","","","","","","","","","","","","","","","","","","",""
"","","","","","canvas-keyboard-response","244","1516415","0.0-12.0-2.46","2d_cat_multi_stim_exp1","2022-5-4","15:42:8","25","75","3","9","10","40","30","120","95","20","[""White""]","Prefer not to say","Nonbinary/third gender","3439327","1902","i","learn","","","learn_trial","30","40","out","0","1","","","","","","","","","","","","","","","","","","","","",""
"","","","","","canvas-keyboard-response","245","1516924","0.0-12.0-3.46","2d_cat_multi_stim_exp1","2022-5-4","15:42:8","25","75","3","9","10","40","30","120","95","20","[""White""]","Prefer not to say","Nonbinary/third gender","3439327","null","null","learn_feedback","","","learn_feedback","30","40","out","","","","","","","","","","","","","","","","","","","","","","",""
"","","","","","canvas-keyboard-response","246","1516982","0.0-12.0-4.46","2d_cat_multi_stim_exp1","2022-5-4","15:42:8","25","75","3","9","10","40","30","120","95","20","[""White""]","Prefer not to say","Nonbinary/third gender","3439327","null","null","","","","clear_screen","","","","","","","","","","","","","","","","","","","","","","","","","",""
"","","","","","canvas-keyboard-response","247","1517490","0.0-12.0-0.47","2d_cat_multi_stim_exp1","2022-5-4","15:42:8","25","75","3","9","10","40","30","120","95","20","[""White""]","Prefer not to say","Nonbinary/third gender","3439327","null","null","","","","fixation","","","","","","","","","","","","","","","","","","","","","","","","","",""
"","","","","","canvas-keyboard-response","248","1517999","0.0-12.0-1.47","2d_cat_multi_stim_exp1","2022-5-4","15:42:8","25","75","3","9","10","40","30","120","95","20","[""White""]","Prefer not to say","Nonbinary/third gender","3439327","null","null","","","","clear_screen","","","","","","","","","","","","","","","","","","","","","","","","","",""
"","","","","","canvas-keyboard-response","249","1519648","0.0-12.0-2.47","2d_cat_multi_stim_exp1","2022-5-4","15:42:8","25","75","3","9","10","40","30","120","95","20","[""White""]","Prefer not to say","Nonbinary/third gender","3439327","1641","u","learn","","","learn_trial","25","75","in","1","1","","","","","","","","","","","","","","","","","","","","",""
"","","","","","canvas-keyboard-response","250","1520157","0.0-12.0-3.47","2d_cat_multi_stim_exp1","2022-5-4","15:42:8","25","75","3","9","10","40","30","120","95","20","[""White""]","Prefer not to say","Nonbinary/third gender","3439327","null","null","learn_feedback","","","learn_feedback","25","75","in","","","","","","","","","","","","","","","","","","","","","","",""
"","","","","","canvas-keyboard-response","251","1520216","0.0-12.0-4.47","2d_cat_multi_stim_exp1","2022-5-4","15:42:8","25","75","3","9","10","40","30","120","95","20","[""White""]","Prefer not to say","Nonbinary/third gender","3439327","null","null","","","","clear_screen","","","","","","","","","","","","","","","","","","","","","","","","","",""
"","","","","","canvas-keyboard-response","252","1520724","0.0-12.0-0.48","2d_cat_multi_stim_exp1","2022-5-4","15:42:8","25","75","3","9","10","40","30","120","95","20","[""White""]","Prefer not to say","Nonbinary/third gender","3439327","null","null","","","","fixation","","","","","","","","","","","","","","","","","","","","","","","","","",""
"","","","","","canvas-keyboard-response","253","1521233","0.0-12.0-1.48","2d_cat_multi_stim_exp1","2022-5-4","15:42:8","25","75","3","9","10","40","30","120","95","20","[""White""]","Prefer not to say","Nonbinary/third gender","3439327","null","null","","","","clear_screen","","","","","","","","","","","","","","","","","","","","","","","","","",""
"","","","","","canvas-keyboard-response","254","1522231","0.0-12.0-2.48","2d_cat_multi_stim_exp1","2022-5-4","15:42:8","25","75","3","9","10","40","30","120","95","20","[""White""]","Prefer not to say","Nonbinary/third gender","3439327","990","u","learn","","","learn_trial","25","75","in","1","1","","","","","","","","","","","","","","","","","","","","",""
"","","","","","canvas-keyboard-response","255","1522740","0.0-12.0-3.48","2d_cat_multi_stim_exp1","2022-5-4","15:42:8","25","75","3","9","10","40","30","120","95","20","[""White""]","Prefer not to say","Nonbinary/third gender","3439327","null","null","learn_feedback","","","learn_feedback","25","75","in","","","","","","","","","","","","","","","","","","","","","","",""
"","","","","","canvas-keyboard-response","256","1522798","0.0-12.0-4.48","2d_cat_multi_stim_exp1","2022-5-4","15:42:8","25","75","3","9","10","40","30","120","95","20","[""White""]","Prefer not to say","Nonbinary/third gender","3439327","null","null","","","","clear_screen","","","","","","","","","","","","","","","","","","","","","","","","","",""
"","","","","","canvas-keyboard-response","257","1523306","0.0-12.0-0.49","2d_cat_multi_stim_exp1","2022-5-4","15:42:8","25","75","3","9","10","40","30","120","95","20","[""White""]","Prefer not to say","Nonbinary/third gender","3439327","null","null","","","","fixation","","","","","","","","","","","","","","","","","","","","","","","","","",""
"","","","","","canvas-keyboard-response","258","1523815","0.0-12.0-1.49","2d_cat_multi_stim_exp1","2022-5-4","15:42:8","25","75","3","9","10","40","30","120","95","20","[""White""]","Prefer not to say","Nonbinary/third gender","3439327","null","null","","","","clear_screen","","","","","","","","","","","","","","","","","","","","","","","","","",""
"","","","","","canvas-keyboard-response","259","1525752","0.0-12.0-2.49","2d_cat_multi_stim_exp1","2022-5-4","15:42:8","25","75","3","9","10","40","30","120","95","20","[""White""]","Prefer not to say","Nonbinary/third gender","3439327","1928","i","learn","","","learn_trial","13.3333","40","out","0","1","","","","","","","","","","","","","","","","","","","","",""
"","","","","","canvas-keyboard-response","260","1526260","0.0-12.0-3.49","2d_cat_multi_stim_exp1","2022-5-4","15:42:8","25","75","3","9","10","40","30","120","95","20","[""White""]","Prefer not to say","Nonbinary/third gender","3439327","null","null","learn_feedback","","","learn_feedback","13.3333","40","out","","","","","","","","","","","","","","","","","","","","","","",""
"","","","","","canvas-keyboard-response","261","1526319","0.0-12.0-4.49","2d_cat_multi_stim_exp1","2022-5-4","15:42:8","25","75","3","9","10","40","30","120","95","20","[""White""]","Prefer not to say","Nonbinary/third gender","3439327","null","null","","","","clear_screen","","","","","","","","","","","","","","","","","","","","","","","","","",""
"","","","","","canvas-keyboard-response","262","1526826","0.0-12.0-0.50","2d_cat_multi_stim_exp1","2022-5-4","15:42:8","25","75","3","9","10","40","30","120","95","20","[""White""]","Prefer not to say","Nonbinary/third gender","3439327","null","null","","","","fixation","","","","","","","","","","","","","","","","","","","","","","","","","",""
"","","","","","canvas-keyboard-response","263","1527335","0.0-12.0-1.50","2d_cat_multi_stim_exp1","2022-5-4","15:42:8","25","75","3","9","10","40","30","120","95","20","[""White""]","Prefer not to say","Nonbinary/third gender","3439327","null","null","","","","clear_screen","","","","","","","","","","","","","","","","","","","","","","","","","",""
"","","","","","canvas-keyboard-response","264","1529127","0.0-12.0-2.50","2d_cat_multi_stim_exp1","2022-5-4","15:42:8","25","75","3","9","10","40","30","120","95","20","[""White""]","Prefer not to say","Nonbinary/third gender","3439327","1783","i","learn","","","learn_trial","23.3333","100","out","0","1","","","","","","","","","","","","","","","","","","","","",""
"","","","","","canvas-keyboard-response","265","1529636","0.0-12.0-3.50","2d_cat_multi_stim_exp1","2022-5-4","15:42:8","25","75","3","9","10","40","30","120","95","20","[""White""]","Prefer not to say","Nonbinary/third gender","3439327","null","null","learn_feedback","","","learn_feedback","23.3333","100","out","","","","","","","","","","","","","","","","","","","","","","",""
"","","","","","canvas-keyboard-response","266","1529695","0.0-12.0-4.50","2d_cat_multi_stim_exp1","2022-5-4","15:42:8","25","75","3","9","10","40","30","120","95","20","[""White""]","Prefer not to say","Nonbinary/third gender","3439327","null","null","","","","clear_screen","","","","","","","","","","","","","","","","","","","","","","","","","",""
"","","","","","canvas-keyboard-response","267","1530207","0.0-12.0-0.51","2d_cat_multi_stim_exp1","2022-5-4","15:42:8","25","75","3","9","10","40","30","120","95","20","[""White""]","Prefer not to say","Nonbinary/third gender","3439327","null","null","","","","fixation","","","","","","","","","","","","","","","","","","","","","","","","","",""
"","","","","","canvas-keyboard-response","268","1530715","0.0-12.0-1.51","2d_cat_multi_stim_exp1","2022-5-4","15:42:8","25","75","3","9","10","40","30","120","95","20","[""White""]","Prefer not to say","Nonbinary/third gender","3439327","null","null","","","","clear_screen","","","","","","","","","","","","","","","","","","","","","","","","","",""
"","","","","","canvas-keyboard-response","269","1533529","0.0-12.0-2.51","2d_cat_multi_stim_exp1","2022-5-4","15:42:8","25","75","3","9","10","40","30","120","95","20","[""White""]","Prefer not to say","Nonbinary/third gender","3439327","2803","i","learn","","","learn_trial","36.6667","60","out","0","1","","","","","","","","","","","","","","","","","","","","",""
"","","","","","canvas-keyboard-response","270","1534037","0.0-12.0-3.51","2d_cat_multi_stim_exp1","2022-5-4","15:42:8","25","75","3","9","10","40","30","120","95","20","[""White""]","Prefer not to say","Nonbinary/third gender","3439327","null","null","learn_feedback","","","learn_feedback","36.6667","60","out","","","","","","","","","","","","","","","","","","","","","","",""
"","","","","","canvas-keyboard-response","271","1534095","0.0-12.0-4.51","2d_cat_multi_stim_exp1","2022-5-4","15:42:8","25","75","3","9","10","40","30","120","95","20","[""White""]","Prefer not to say","Nonbinary/third gender","3439327","null","null","","","","clear_screen","","","","","","","","","","","","","","","","","","","","","","","","","",""
