"success","timeout","failed_images","failed_audio","failed_video","trial_type","trial_index","time_elapsed","internal_node_id","exp_name","date","time","angle_mean_in","radius_mean_in","angle_sd_in","radius_sd_in","angle_min_out","angle_max_out","radius_min_out","radius_max_out","sub_n","age","race","ethnicity","gender","exp_duration","rt","response","exp_trial_type","stimulus","view_history","screen_id","angle","radius","distribution","choice","correct","order","angle_a","radius_a","angle_b","radius_b","angle_c","radius_c","jkl_correct","transfer_trial_type","choice_set","abc_correct","tc_correct","tc_angle","tdc_a","tdc_b","tdc_c","pair","category_a","category_b","category_c","question_order"
"true","false","[]","[]","[]","preload","0","22","0.0-0.0","2d_cat_multi_stim_exp1","2022-4-15","14:3:2","25","75","3","9","10","40","30","120","40","19","[""Prefer not to say""]","No","Female","1841644","","","","","","","","","","","","","","","","","","","","","","","","","","","","","","","",""
"","","","","","survey-html-form","1","4161","0.0-1.0","2d_cat_multi_stim_exp1","2022-4-15","14:3:2","25","75","3","9","10","40","30","120","40","19","[""Prefer not to say""]","No","Female","1841644","4124","{""response"":""40""}","enter-sub-number","","","","","","","","","","","","","","","","","","","","","","","","","","","","",""
"true","","","","","fullscreen","2","7212","0.0-2.0","2d_cat_multi_stim_exp1","2022-4-15","14:3:2","25","75","3","9","10","40","30","120","40","19","[""Prefer not to say""]","No","Female","1841644","","","","","","","","","","","","","","","","","","","","","","","","","","","","","","","",""
"","","","","","image-button-response","3","76108","0.0-3.0","2d_cat_multi_stim_exp1","2022-4-15","14:3:2","25","75","3","9","10","40","30","120","40","19","[""Prefer not to say""]","No","Female","1841644","68890","0","","consent.png","","","","","","","","","","","","","","","","","","","","","","","","","","","",""
"","","","","","html-button-response","4","83890","0.0-4.0","2d_cat_multi_stim_exp1","2022-4-15","14:3:2","25","75","3","9","10","40","30","120","40","19","[""Prefer not to say""]","No","Female","1841644","7779","0","","<div style= ""font-size:25px;"" <p> <strong> Welcome to the experiment! </strong><br> <p style=""color:#8B0000; font-size:25px;""><strong> Please do NOT exit full screen until you are done with the experiment. </strong> </p><p style=""font-size:25px;color:#8B0000;""> <strong> The experiment will be canceled and your data will be lost <br> if you try to go back or refresh the page at any point during the experiment.</strong> </p><br><p> <strong> Thanks in advance for your contribution to our research! </strong></p>","","","","","","","","","","","","","","","","","","","","","","","","","","","",""
"","","","","","instructions","5","159105","0.0-5.0","2d_cat_multi_stim_exp1","2022-4-15","14:3:2","25","75","3","9","10","40","30","120","40","19","[""Prefer not to say""]","No","Female","1841644","75210","","","","[{""page_index"":0,""viewing_time"":19195},{""page_index"":1,""viewing_time"":3303},{""page_index"":2,""viewing_time"":28448},{""page_index"":3,""viewing_time"":24264}]","instructions_1","","","","","","","","","","","","","","","","","","","","","","","","","",""
"","","","","","instructions","6","161529","0.0-6.0","2d_cat_multi_stim_exp1","2022-4-15","14:3:2","25","75","3","9","10","40","30","120","40","19","[""Prefer not to say""]","No","Female","1841644","2421","","","","[{""page_index"":0,""viewing_time"":2420}]","Click to see the kinds of turtles that will appear in the study.","","","","","","","","","","","","","","","","","","","","","","","","","",""
"","","","","","canvas-keyboard-response","7","176550","0.0-7.0","2d_cat_multi_stim_exp1","2022-4-15","14:3:2","25","75","3","9","10","40","30","120","40","19","[""Prefer not to say""]","No","Female","1841644","null","null","","","","demo_range","","","","","","","","","","","","","","","","","","","","","","","","","",""
"","","","","","instructions","8","180313","0.0-8.0","2d_cat_multi_stim_exp1","2022-4-15","14:3:2","25","75","3","9","10","40","30","120","40","19","[""Prefer not to say""]","No","Female","1841644","3263","","","","[{""page_index"":0,""viewing_time"":3262}]","Click to see some turtles in the subspecies.","","","","","","","","","","","","","","","","","","","","","","","","","",""
"","","","","","canvas-keyboard-response","9","195332","0.0-9.0","2d_cat_multi_stim_exp1","2022-4-15","14:3:2","25","75","3","9","10","40","30","120","40","19","[""Prefer not to say""]","No","Female","1841644","null","null","","","","demo_in","","","","","","","","","","","","","","","","","","","","","","","","","",""
"","","","","","instructions","10","257953","0.0-10.0","2d_cat_multi_stim_exp1","2022-4-15","14:3:2","25","75","3","9","10","40","30","120","40","19","[""Prefer not to say""]","No","Female","1841644","62120","","","","[{""page_index"":0,""viewing_time"":9057},{""page_index"":1,""viewing_time"":43558},{""page_index"":2,""viewing_time"":9505}]","instructions_2","","","","","","","","","","","","","","","","","","","","","","","","","",""
"","","","","","instructions","11","260272","0.0-11.0","2d_cat_multi_stim_exp1","2022-4-15","14:3:2","25","75","3","9","10","40","30","120","40","19","[""Prefer not to say""]","No","Female","1841644","2318","","","","[{""page_index"":0,""viewing_time"":2318}]","Click to begin the first phase of the experiment.","","","","","","","","","","","","","","","","","","","","","","","","","",""
"","","","","","canvas-keyboard-response","12","260785","0.0-12.0-0.0","2d_cat_multi_stim_exp1","2022-4-15","14:3:2","25","75","3","9","10","40","30","120","40","19","[""Prefer not to say""]","No","Female","1841644","null","null","","","","fixation","","","","","","","","","","","","","","","","","","","","","","","","","",""
"","","","","","canvas-keyboard-response","13","261294","0.0-12.0-1.0","2d_cat_multi_stim_exp1","2022-4-15","14:3:2","25","75","3","9","10","40","30","120","40","19","[""Prefer not to say""]","No","Female","1841644","null","null","","","","clear_screen","","","","","","","","","","","","","","","","","","","","","","","","","",""
"","","","","","canvas-keyboard-response","14","263722","0.0-12.0-2.0","2d_cat_multi_stim_exp1","2022-4-15","14:3:2","25","75","3","9","10","40","30","120","40","19","[""Prefer not to say""]","No","Female","1841644","2417","i","learn","","","learn_trial","33.3333","40","out","0","1","","","","","","","","","","","","","","","","","","","","",""
"","","","","","canvas-keyboard-response","15","264237","0.0-12.0-3.0","2d_cat_multi_stim_exp1","2022-4-15","14:3:2","25","75","3","9","10","40","30","120","40","19","[""Prefer not to say""]","No","Female","1841644","null","null","learn_feedback","","","learn_feedback","33.3333","40","out","","","","","","","","","","","","","","","","","","","","","","",""
"","","","","","canvas-keyboard-response","16","264296","0.0-12.0-4.0","2d_cat_multi_stim_exp1","2022-4-15","14:3:2","25","75","3","9","10","40","30","120","40","19","[""Prefer not to say""]","No","Female","1841644","null","null","","","","clear_screen","","","","","","","","","","","","","","","","","","","","","","","","","",""
"","","","","","canvas-keyboard-response","17","264804","0.0-12.0-0.1","2d_cat_multi_stim_exp1","2022-4-15","14:3:2","25","75","3","9","10","40","30","120","40","19","[""Prefer not to say""]","No","Female","1841644","null","null","","","","fixation","","","","","","","","","","","","","","","","","","","","","","","","","",""
"","","","","","canvas-keyboard-response","18","265313","0.0-12.0-1.1","2d_cat_multi_stim_exp1","2022-4-15","14:3:2","25","75","3","9","10","40","30","120","40","19","[""Prefer not to say""]","No","Female","1841644","null","null","","","","clear_screen","","","","","","","","","","","","","","","","","","","","","","","","","",""
"","","","","","canvas-keyboard-response","19","267705","0.0-12.0-2.1","2d_cat_multi_stim_exp1","2022-4-15","14:3:2","25","75","3","9","10","40","30","120","40","19","[""Prefer not to say""]","No","Female","1841644","2383","i","learn","","","learn_trial","16.6667","100","out","0","1","","","","","","","","","","","","","","","","","","","","",""
"","","","","","canvas-keyboard-response","20","268214","0.0-12.0-3.1","2d_cat_multi_stim_exp1","2022-4-15","14:3:2","25","75","3","9","10","40","30","120","40","19","[""Prefer not to say""]","No","Female","1841644","null","null","learn_feedback","","","learn_feedback","16.6667","100","out","","","","","","","","","","","","","","","","","","","","","","",""
"","","","","","canvas-keyboard-response","21","268273","0.0-12.0-4.1","2d_cat_multi_stim_exp1","2022-4-15","14:3:2","25","75","3","9","10","40","30","120","40","19","[""Prefer not to say""]","No","Female","1841644","null","null","","","","clear_screen","","","","","","","","","","","","","","","","","","","","","","","","","",""
"","","","","","canvas-keyboard-response","22","268781","0.0-12.0-0.2","2d_cat_multi_stim_exp1","2022-4-15","14:3:2","25","75","3","9","10","40","30","120","40","19","[""Prefer not to say""]","No","Female","1841644","null","null","","","","fixation","","","","","","","","","","","","","","","","","","","","","","","","","",""
"","","","","","canvas-keyboard-response","23","269290","0.0-12.0-1.2","2d_cat_multi_stim_exp1","2022-4-15","14:3:2","25","75","3","9","10","40","30","120","40","19","[""Prefer not to say""]","No","Female","1841644","null","null","","","","clear_screen","","","","","","","","","","","","","","","","","","","","","","","","","",""
"","","","","","canvas-keyboard-response","24","270409","0.0-12.0-2.2","2d_cat_multi_stim_exp1","2022-4-15","14:3:2","25","75","3","9","10","40","30","120","40","19","[""Prefer not to say""]","No","Female","1841644","1111","u","learn","","","learn_trial","30","60","out","1","0","","","","","","","","","","","","","","","","","","","","",""
"","","","","","canvas-keyboard-response","25","271420","0.0-12.0-3.2","2d_cat_multi_stim_exp1","2022-4-15","14:3:2","25","75","3","9","10","40","30","120","40","19","[""Prefer not to say""]","No","Female","1841644","null","null","learn_feedback","","","learn_feedback","30","60","out","","","","","","","","","","","","","","","","","","","","","","",""
"","","","","","canvas-keyboard-response","26","271478","0.0-12.0-4.2","2d_cat_multi_stim_exp1","2022-4-15","14:3:2","25","75","3","9","10","40","30","120","40","19","[""Prefer not to say""]","No","Female","1841644","null","null","","","","clear_screen","","","","","","","","","","","","","","","","","","","","","","","","","",""
"","","","","","canvas-keyboard-response","27","271987","0.0-12.0-0.3","2d_cat_multi_stim_exp1","2022-4-15","14:3:2","25","75","3","9","10","40","30","120","40","19","[""Prefer not to say""]","No","Female","1841644","null","null","","","","fixation","","","","","","","","","","","","","","","","","","","","","","","","","",""
"","","","","","canvas-keyboard-response","28","272495","0.0-12.0-1.3","2d_cat_multi_stim_exp1","2022-4-15","14:3:2","25","75","3","9","10","40","30","120","40","19","[""Prefer not to say""]","No","Female","1841644","null","null","","","","clear_screen","","","","","","","","","","","","","","","","","","","","","","","","","",""
"","","","","","canvas-keyboard-response","29","274899","0.0-12.0-2.3","2d_cat_multi_stim_exp1","2022-4-15","14:3:2","25","75","3","9","10","40","30","120","40","19","[""Prefer not to say""]","No","Female","1841644","2393","i","learn","","","learn_trial","22.1081","72.6057","in","0","0","","","","","","","","","","","","","","","","","","","","",""
"","","","","","canvas-keyboard-response","30","275910","0.0-12.0-3.3","2d_cat_multi_stim_exp1","2022-4-15","14:3:2","25","75","3","9","10","40","30","120","40","19","[""Prefer not to say""]","No","Female","1841644","null","null","learn_feedback","","","learn_feedback","22.1081","72.6057","in","","","","","","","","","","","","","","","","","","","","","","",""
"","","","","","canvas-keyboard-response","31","275969","0.0-12.0-4.3","2d_cat_multi_stim_exp1","2022-4-15","14:3:2","25","75","3","9","10","40","30","120","40","19","[""Prefer not to say""]","No","Female","1841644","null","null","","","","clear_screen","","","","","","","","","","","","","","","","","","","","","","","","","",""
"","","","","","canvas-keyboard-response","32","276479","0.0-12.0-0.4","2d_cat_multi_stim_exp1","2022-4-15","14:3:2","25","75","3","9","10","40","30","120","40","19","[""Prefer not to say""]","No","Female","1841644","null","null","","","","fixation","","","","","","","","","","","","","","","","","","","","","","","","","",""
"","","","","","canvas-keyboard-response","33","276988","0.0-12.0-1.4","2d_cat_multi_stim_exp1","2022-4-15","14:3:2","25","75","3","9","10","40","30","120","40","19","[""Prefer not to say""]","No","Female","1841644","null","null","","","","clear_screen","","","","","","","","","","","","","","","","","","","","","","","","","",""
"","","","","","canvas-keyboard-response","34","279554","0.0-12.0-2.4","2d_cat_multi_stim_exp1","2022-4-15","14:3:2","25","75","3","9","10","40","30","120","40","19","[""Prefer not to say""]","No","Female","1841644","2559","u","learn","","","learn_trial","25","75","in","1","1","","","","","","","","","","","","","","","","","","","","",""
"","","","","","canvas-keyboard-response","35","280064","0.0-12.0-3.4","2d_cat_multi_stim_exp1","2022-4-15","14:3:2","25","75","3","9","10","40","30","120","40","19","[""Prefer not to say""]","No","Female","1841644","null","null","learn_feedback","","","learn_feedback","25","75","in","","","","","","","","","","","","","","","","","","","","","","",""
"","","","","","canvas-keyboard-response","36","280122","0.0-12.0-4.4","2d_cat_multi_stim_exp1","2022-4-15","14:3:2","25","75","3","9","10","40","30","120","40","19","[""Prefer not to say""]","No","Female","1841644","null","null","","","","clear_screen","","","","","","","","","","","","","","","","","","","","","","","","","",""
"","","","","","canvas-keyboard-response","37","280631","0.0-12.0-0.5","2d_cat_multi_stim_exp1","2022-4-15","14:3:2","25","75","3","9","10","40","30","120","40","19","[""Prefer not to say""]","No","Female","1841644","null","null","","","","fixation","","","","","","","","","","","","","","","","","","","","","","","","","",""
"","","","","","canvas-keyboard-response","38","281140","0.0-12.0-1.5","2d_cat_multi_stim_exp1","2022-4-15","14:3:2","25","75","3","9","10","40","30","120","40","19","[""Prefer not to say""]","No","Female","1841644","null","null","","","","clear_screen","","","","","","","","","","","","","","","","","","","","","","","","","",""
"","","","","","canvas-keyboard-response","39","282114","0.0-12.0-2.5","2d_cat_multi_stim_exp1","2022-4-15","14:3:2","25","75","3","9","10","40","30","120","40","19","[""Prefer not to say""]","No","Female","1841644","963","u","learn","","","learn_trial","24.8654","83.9909","in","1","1","","","","","","","","","","","","","","","","","","","","",""
"","","","","","canvas-keyboard-response","40","282624","0.0-12.0-3.5","2d_cat_multi_stim_exp1","2022-4-15","14:3:2","25","75","3","9","10","40","30","120","40","19","[""Prefer not to say""]","No","Female","1841644","null","null","learn_feedback","","","learn_feedback","24.8654","83.9909","in","","","","","","","","","","","","","","","","","","","","","","",""
"","","","","","canvas-keyboard-response","41","282682","0.0-12.0-4.5","2d_cat_multi_stim_exp1","2022-4-15","14:3:2","25","75","3","9","10","40","30","120","40","19","[""Prefer not to say""]","No","Female","1841644","null","null","","","","clear_screen","","","","","","","","","","","","","","","","","","","","","","","","","",""
"","","","","","canvas-keyboard-response","42","283191","0.0-12.0-0.6","2d_cat_multi_stim_exp1","2022-4-15","14:3:2","25","75","3","9","10","40","30","120","40","19","[""Prefer not to say""]","No","Female","1841644","null","null","","","","fixation","","","","","","","","","","","","","","","","","","","","","","","","","",""
"","","","","","canvas-keyboard-response","43","283699","0.0-12.0-1.6","2d_cat_multi_stim_exp1","2022-4-15","14:3:2","25","75","3","9","10","40","30","120","40","19","[""Prefer not to say""]","No","Female","1841644","null","null","","","","clear_screen","","","","","","","","","","","","","","","","","","","","","","","","","",""
"","","","","","canvas-keyboard-response","44","284522","0.0-12.0-2.6","2d_cat_multi_stim_exp1","2022-4-15","14:3:2","25","75","3","9","10","40","30","120","40","19","[""Prefer not to say""]","No","Female","1841644","813","u","learn","","","learn_trial","25.9271","83.5595","in","1","1","","","","","","","","","","","","","","","","","","","","",""
"","","","","","canvas-keyboard-response","45","285031","0.0-12.0-3.6","2d_cat_multi_stim_exp1","2022-4-15","14:3:2","25","75","3","9","10","40","30","120","40","19","[""Prefer not to say""]","No","Female","1841644","null","null","learn_feedback","","","learn_feedback","25.9271","83.5595","in","","","","","","","","","","","","","","","","","","","","","","",""
"","","","","","canvas-keyboard-response","46","285088","0.0-12.0-4.6","2d_cat_multi_stim_exp1","2022-4-15","14:3:2","25","75","3","9","10","40","30","120","40","19","[""Prefer not to say""]","No","Female","1841644","null","null","","","","clear_screen","","","","","","","","","","","","","","","","","","","","","","","","","",""
"","","","","","canvas-keyboard-response","47","285597","0.0-12.0-0.7","2d_cat_multi_stim_exp1","2022-4-15","14:3:2","25","75","3","9","10","40","30","120","40","19","[""Prefer not to say""]","No","Female","1841644","null","null","","","","fixation","","","","","","","","","","","","","","","","","","","","","","","","","",""
"","","","","","canvas-keyboard-response","48","286106","0.0-12.0-1.7","2d_cat_multi_stim_exp1","2022-4-15","14:3:2","25","75","3","9","10","40","30","120","40","19","[""Prefer not to say""]","No","Female","1841644","null","null","","","","clear_screen","","","","","","","","","","","","","","","","","","","","","","","","","",""
"","","","","","canvas-keyboard-response","49","286874","0.0-12.0-2.7","2d_cat_multi_stim_exp1","2022-4-15","14:3:2","25","75","3","9","10","40","30","120","40","19","[""Prefer not to say""]","No","Female","1841644","759","i","learn","","","learn_trial","16.6667","90","out","0","1","","","","","","","","","","","","","","","","","","","","",""
"","","","","","canvas-keyboard-response","50","287382","0.0-12.0-3.7","2d_cat_multi_stim_exp1","2022-4-15","14:3:2","25","75","3","9","10","40","30","120","40","19","[""Prefer not to say""]","No","Female","1841644","null","null","learn_feedback","","","learn_feedback","16.6667","90","out","","","","","","","","","","","","","","","","","","","","","","",""
"","","","","","canvas-keyboard-response","51","287441","0.0-12.0-4.7","2d_cat_multi_stim_exp1","2022-4-15","14:3:2","25","75","3","9","10","40","30","120","40","19","[""Prefer not to say""]","No","Female","1841644","null","null","","","","clear_screen","","","","","","","","","","","","","","","","","","","","","","","","","",""
"","","","","","canvas-keyboard-response","52","287948","0.0-12.0-0.8","2d_cat_multi_stim_exp1","2022-4-15","14:3:2","25","75","3","9","10","40","30","120","40","19","[""Prefer not to say""]","No","Female","1841644","null","null","","","","fixation","","","","","","","","","","","","","","","","","","","","","","","","","",""
"","","","","","canvas-keyboard-response","53","288457","0.0-12.0-1.8","2d_cat_multi_stim_exp1","2022-4-15","14:3:2","25","75","3","9","10","40","30","120","40","19","[""Prefer not to say""]","No","Female","1841644","null","null","","","","clear_screen","","","","","","","","","","","","","","","","","","","","","","","","","",""
"","","","","","canvas-keyboard-response","54","289385","0.0-12.0-2.8","2d_cat_multi_stim_exp1","2022-4-15","14:3:2","25","75","3","9","10","40","30","120","40","19","[""Prefer not to say""]","No","Female","1841644","919","u","learn","","","learn_trial","25","75","in","1","1","","","","","","","","","","","","","","","","","","","","",""
"","","","","","canvas-keyboard-response","55","289894","0.0-12.0-3.8","2d_cat_multi_stim_exp1","2022-4-15","14:3:2","25","75","3","9","10","40","30","120","40","19","[""Prefer not to say""]","No","Female","1841644","null","null","learn_feedback","","","learn_feedback","25","75","in","","","","","","","","","","","","","","","","","","","","","","",""
"","","","","","canvas-keyboard-response","56","289953","0.0-12.0-4.8","2d_cat_multi_stim_exp1","2022-4-15","14:3:2","25","75","3","9","10","40","30","120","40","19","[""Prefer not to say""]","No","Female","1841644","null","null","","","","clear_screen","","","","","","","","","","","","","","","","","","","","","","","","","",""
"","","","","","canvas-keyboard-response","57","290461","0.0-12.0-0.9","2d_cat_multi_stim_exp1","2022-4-15","14:3:2","25","75","3","9","10","40","30","120","40","19","[""Prefer not to say""]","No","Female","1841644","null","null","","","","fixation","","","","","","","","","","","","","","","","","","","","","","","","","",""
"","","","","","canvas-keyboard-response","58","290968","0.0-12.0-1.9","2d_cat_multi_stim_exp1","2022-4-15","14:3:2","25","75","3","9","10","40","30","120","40","19","[""Prefer not to say""]","No","Female","1841644","null","null","","","","clear_screen","","","","","","","","","","","","","","","","","","","","","","","","","",""
"","","","","","canvas-keyboard-response","59","291985","0.0-12.0-2.9","2d_cat_multi_stim_exp1","2022-4-15","14:3:2","25","75","3","9","10","40","30","120","40","19","[""Prefer not to say""]","No","Female","1841644","1008","u","learn","","","learn_trial","25","75","in","1","1","","","","","","","","","","","","","","","","","","","","",""
"","","","","","canvas-keyboard-response","60","292494","0.0-12.0-3.9","2d_cat_multi_stim_exp1","2022-4-15","14:3:2","25","75","3","9","10","40","30","120","40","19","[""Prefer not to say""]","No","Female","1841644","null","null","learn_feedback","","","learn_feedback","25","75","in","","","","","","","","","","","","","","","","","","","","","","",""
"","","","","","canvas-keyboard-response","61","292552","0.0-12.0-4.9","2d_cat_multi_stim_exp1","2022-4-15","14:3:2","25","75","3","9","10","40","30","120","40","19","[""Prefer not to say""]","No","Female","1841644","null","null","","","","clear_screen","","","","","","","","","","","","","","","","","","","","","","","","","",""
"","","","","","canvas-keyboard-response","62","293063","0.0-12.0-0.10","2d_cat_multi_stim_exp1","2022-4-15","14:3:2","25","75","3","9","10","40","30","120","40","19","[""Prefer not to say""]","No","Female","1841644","null","null","","","","fixation","","","","","","","","","","","","","","","","","","","","","","","","","",""
"","","","","","canvas-keyboard-response","63","293571","0.0-12.0-1.10","2d_cat_multi_stim_exp1","2022-4-15","14:3:2","25","75","3","9","10","40","30","120","40","19","[""Prefer not to say""]","No","Female","1841644","null","null","","","","clear_screen","","","","","","","","","","","","","","","","","","","","","","","","","",""
"","","","","","canvas-keyboard-response","64","294258","0.0-12.0-2.10","2d_cat_multi_stim_exp1","2022-4-15","14:3:2","25","75","3","9","10","40","30","120","40","19","[""Prefer not to say""]","No","Female","1841644","676","u","learn","","","learn_trial","27.2592","69.0786","in","1","1","","","","","","","","","","","","","","","","","","","","",""
"","","","","","canvas-keyboard-response","65","294767","0.0-12.0-3.10","2d_cat_multi_stim_exp1","2022-4-15","14:3:2","25","75","3","9","10","40","30","120","40","19","[""Prefer not to say""]","No","Female","1841644","null","null","learn_feedback","","","learn_feedback","27.2592","69.0786","in","","","","","","","","","","","","","","","","","","","","","","",""
"","","","","","canvas-keyboard-response","66","294825","0.0-12.0-4.10","2d_cat_multi_stim_exp1","2022-4-15","14:3:2","25","75","3","9","10","40","30","120","40","19","[""Prefer not to say""]","No","Female","1841644","null","null","","","","clear_screen","","","","","","","","","","","","","","","","","","","","","","","","","",""
"","","","","","canvas-keyboard-response","67","295333","0.0-12.0-0.11","2d_cat_multi_stim_exp1","2022-4-15","14:3:2","25","75","3","9","10","40","30","120","40","19","[""Prefer not to say""]","No","Female","1841644","null","null","","","","fixation","","","","","","","","","","","","","","","","","","","","","","","","","",""
"","","","","","canvas-keyboard-response","68","295841","0.0-12.0-1.11","2d_cat_multi_stim_exp1","2022-4-15","14:3:2","25","75","3","9","10","40","30","120","40","19","[""Prefer not to say""]","No","Female","1841644","null","null","","","","clear_screen","","","","","","","","","","","","","","","","","","","","","","","","","",""
"","","","","","canvas-keyboard-response","69","296522","0.0-12.0-2.11","2d_cat_multi_stim_exp1","2022-4-15","14:3:2","25","75","3","9","10","40","30","120","40","19","[""Prefer not to say""]","No","Female","1841644","671","u","learn","","","learn_trial","25","75","in","1","1","","","","","","","","","","","","","","","","","","","","",""
"","","","","","canvas-keyboard-response","70","297030","0.0-12.0-3.11","2d_cat_multi_stim_exp1","2022-4-15","14:3:2","25","75","3","9","10","40","30","120","40","19","[""Prefer not to say""]","No","Female","1841644","null","null","learn_feedback","","","learn_feedback","25","75","in","","","","","","","","","","","","","","","","","","","","","","",""
"","","","","","canvas-keyboard-response","71","297088","0.0-12.0-4.11","2d_cat_multi_stim_exp1","2022-4-15","14:3:2","25","75","3","9","10","40","30","120","40","19","[""Prefer not to say""]","No","Female","1841644","null","null","","","","clear_screen","","","","","","","","","","","","","","","","","","","","","","","","","",""
"","","","","","canvas-keyboard-response","72","297596","0.0-12.0-0.12","2d_cat_multi_stim_exp1","2022-4-15","14:3:2","25","75","3","9","10","40","30","120","40","19","[""Prefer not to say""]","No","Female","1841644","null","null","","","","fixation","","","","","","","","","","","","","","","","","","","","","","","","","",""
"","","","","","canvas-keyboard-response","73","298105","0.0-12.0-1.12","2d_cat_multi_stim_exp1","2022-4-15","14:3:2","25","75","3","9","10","40","30","120","40","19","[""Prefer not to say""]","No","Female","1841644","null","null","","","","clear_screen","","","","","","","","","","","","","","","","","","","","","","","","","",""
"","","","","","canvas-keyboard-response","74","299288","0.0-12.0-2.12","2d_cat_multi_stim_exp1","2022-4-15","14:3:2","25","75","3","9","10","40","30","120","40","19","[""Prefer not to say""]","No","Female","1841644","1176","u","learn","","","learn_trial","31","75","in","1","1","","","","","","","","","","","","","","","","","","","","",""
"","","","","","canvas-keyboard-response","75","299799","0.0-12.0-3.12","2d_cat_multi_stim_exp1","2022-4-15","14:3:2","25","75","3","9","10","40","30","120","40","19","[""Prefer not to say""]","No","Female","1841644","null","null","learn_feedback","","","learn_feedback","31","75","in","","","","","","","","","","","","","","","","","","","","","","",""
"","","","","","canvas-keyboard-response","76","299857","0.0-12.0-4.12","2d_cat_multi_stim_exp1","2022-4-15","14:3:2","25","75","3","9","10","40","30","120","40","19","[""Prefer not to say""]","No","Female","1841644","null","null","","","","clear_screen","","","","","","","","","","","","","","","","","","","","","","","","","",""
"","","","","","canvas-keyboard-response","77","300365","0.0-12.0-0.13","2d_cat_multi_stim_exp1","2022-4-15","14:3:2","25","75","3","9","10","40","30","120","40","19","[""Prefer not to say""]","No","Female","1841644","null","null","","","","fixation","","","","","","","","","","","","","","","","","","","","","","","","","",""
"","","","","","canvas-keyboard-response","78","300877","0.0-12.0-1.13","2d_cat_multi_stim_exp1","2022-4-15","14:3:2","25","75","3","9","10","40","30","120","40","19","[""Prefer not to say""]","No","Female","1841644","null","null","","","","clear_screen","","","","","","","","","","","","","","","","","","","","","","","","","",""
"","","","","","canvas-keyboard-response","79","301513","0.0-12.0-2.13","2d_cat_multi_stim_exp1","2022-4-15","14:3:2","25","75","3","9","10","40","30","120","40","19","[""Prefer not to say""]","No","Female","1841644","628","u","learn","","","learn_trial","25","75","in","1","1","","","","","","","","","","","","","","","","","","","","",""
"","","","","","canvas-keyboard-response","80","302022","0.0-12.0-3.13","2d_cat_multi_stim_exp1","2022-4-15","14:3:2","25","75","3","9","10","40","30","120","40","19","[""Prefer not to say""]","No","Female","1841644","null","null","learn_feedback","","","learn_feedback","25","75","in","","","","","","","","","","","","","","","","","","","","","","",""
"","","","","","canvas-keyboard-response","81","302080","0.0-12.0-4.13","2d_cat_multi_stim_exp1","2022-4-15","14:3:2","25","75","3","9","10","40","30","120","40","19","[""Prefer not to say""]","No","Female","1841644","null","null","","","","clear_screen","","","","","","","","","","","","","","","","","","","","","","","","","",""
"","","","","","canvas-keyboard-response","82","302589","0.0-12.0-0.14","2d_cat_multi_stim_exp1","2022-4-15","14:3:2","25","75","3","9","10","40","30","120","40","19","[""Prefer not to say""]","No","Female","1841644","null","null","","","","fixation","","","","","","","","","","","","","","","","","","","","","","","","","",""
"","","","","","canvas-keyboard-response","83","303097","0.0-12.0-1.14","2d_cat_multi_stim_exp1","2022-4-15","14:3:2","25","75","3","9","10","40","30","120","40","19","[""Prefer not to say""]","No","Female","1841644","null","null","","","","clear_screen","","","","","","","","","","","","","","","","","","","","","","","","","",""
"","","","","","canvas-keyboard-response","84","303705","0.0-12.0-2.14","2d_cat_multi_stim_exp1","2022-4-15","14:3:2","25","75","3","9","10","40","30","120","40","19","[""Prefer not to say""]","No","Female","1841644","600","u","learn","","","learn_trial","25","75","in","1","1","","","","","","","","","","","","","","","","","","","","",""
"","","","","","canvas-keyboard-response","85","304213","0.0-12.0-3.14","2d_cat_multi_stim_exp1","2022-4-15","14:3:2","25","75","3","9","10","40","30","120","40","19","[""Prefer not to say""]","No","Female","1841644","null","null","learn_feedback","","","learn_feedback","25","75","in","","","","","","","","","","","","","","","","","","","","","","",""
"","","","","","canvas-keyboard-response","86","304271","0.0-12.0-4.14","2d_cat_multi_stim_exp1","2022-4-15","14:3:2","25","75","3","9","10","40","30","120","40","19","[""Prefer not to say""]","No","Female","1841644","null","null","","","","clear_screen","","","","","","","","","","","","","","","","","","","","","","","","","",""
"","","","","","canvas-keyboard-response","87","304779","0.0-12.0-0.15","2d_cat_multi_stim_exp1","2022-4-15","14:3:2","25","75","3","9","10","40","30","120","40","19","[""Prefer not to say""]","No","Female","1841644","null","null","","","","fixation","","","","","","","","","","","","","","","","","","","","","","","","","",""
"","","","","","canvas-keyboard-response","88","305288","0.0-12.0-1.15","2d_cat_multi_stim_exp1","2022-4-15","14:3:2","25","75","3","9","10","40","30","120","40","19","[""Prefer not to say""]","No","Female","1841644","null","null","","","","clear_screen","","","","","","","","","","","","","","","","","","","","","","","","","",""
"","","","","","canvas-keyboard-response","89","306040","0.0-12.0-2.15","2d_cat_multi_stim_exp1","2022-4-15","14:3:2","25","75","3","9","10","40","30","120","40","19","[""Prefer not to say""]","No","Female","1841644","745","u","learn","","","learn_trial","25.4027","66.0815","in","1","1","","","","","","","","","","","","","","","","","","","","",""
"","","","","","canvas-keyboard-response","90","306550","0.0-12.0-3.15","2d_cat_multi_stim_exp1","2022-4-15","14:3:2","25","75","3","9","10","40","30","120","40","19","[""Prefer not to say""]","No","Female","1841644","null","null","learn_feedback","","","learn_feedback","25.4027","66.0815","in","","","","","","","","","","","","","","","","","","","","","","",""
"","","","","","canvas-keyboard-response","91","306608","0.0-12.0-4.15","2d_cat_multi_stim_exp1","2022-4-15","14:3:2","25","75","3","9","10","40","30","120","40","19","[""Prefer not to say""]","No","Female","1841644","null","null","","","","clear_screen","","","","","","","","","","","","","","","","","","","","","","","","","",""
"","","","","","canvas-keyboard-response","92","307116","0.0-12.0-0.16","2d_cat_multi_stim_exp1","2022-4-15","14:3:2","25","75","3","9","10","40","30","120","40","19","[""Prefer not to say""]","No","Female","1841644","null","null","","","","fixation","","","","","","","","","","","","","","","","","","","","","","","","","",""
"","","","","","canvas-keyboard-response","93","307625","0.0-12.0-1.16","2d_cat_multi_stim_exp1","2022-4-15","14:3:2","25","75","3","9","10","40","30","120","40","19","[""Prefer not to say""]","No","Female","1841644","null","null","","","","clear_screen","","","","","","","","","","","","","","","","","","","","","","","","","",""
"","","","","","canvas-keyboard-response","94","308324","0.0-12.0-2.16","2d_cat_multi_stim_exp1","2022-4-15","14:3:2","25","75","3","9","10","40","30","120","40","19","[""Prefer not to say""]","No","Female","1841644","690","u","learn","","","learn_trial","25","75","in","1","1","","","","","","","","","","","","","","","","","","","","",""
"","","","","","canvas-keyboard-response","95","308835","0.0-12.0-3.16","2d_cat_multi_stim_exp1","2022-4-15","14:3:2","25","75","3","9","10","40","30","120","40","19","[""Prefer not to say""]","No","Female","1841644","null","null","learn_feedback","","","learn_feedback","25","75","in","","","","","","","","","","","","","","","","","","","","","","",""
"","","","","","canvas-keyboard-response","96","308894","0.0-12.0-4.16","2d_cat_multi_stim_exp1","2022-4-15","14:3:2","25","75","3","9","10","40","30","120","40","19","[""Prefer not to say""]","No","Female","1841644","null","null","","","","clear_screen","","","","","","","","","","","","","","","","","","","","","","","","","",""
"","","","","","canvas-keyboard-response","97","309404","0.0-12.0-0.17","2d_cat_multi_stim_exp1","2022-4-15","14:3:2","25","75","3","9","10","40","30","120","40","19","[""Prefer not to say""]","No","Female","1841644","null","null","","","","fixation","","","","","","","","","","","","","","","","","","","","","","","","","",""
"","","","","","canvas-keyboard-response","98","309914","0.0-12.0-1.17","2d_cat_multi_stim_exp1","2022-4-15","14:3:2","25","75","3","9","10","40","30","120","40","19","[""Prefer not to say""]","No","Female","1841644","null","null","","","","clear_screen","","","","","","","","","","","","","","","","","","","","","","","","","",""
"","","","","","canvas-keyboard-response","99","310649","0.0-12.0-2.17","2d_cat_multi_stim_exp1","2022-4-15","14:3:2","25","75","3","9","10","40","30","120","40","19","[""Prefer not to say""]","No","Female","1841644","726","i","learn","","","learn_trial","40","60","out","0","1","","","","","","","","","","","","","","","","","","","","",""
"","","","","","canvas-keyboard-response","100","311159","0.0-12.0-3.17","2d_cat_multi_stim_exp1","2022-4-15","14:3:2","25","75","3","9","10","40","30","120","40","19","[""Prefer not to say""]","No","Female","1841644","null","null","learn_feedback","","","learn_feedback","40","60","out","","","","","","","","","","","","","","","","","","","","","","",""
"","","","","","canvas-keyboard-response","101","311217","0.0-12.0-4.17","2d_cat_multi_stim_exp1","2022-4-15","14:3:2","25","75","3","9","10","40","30","120","40","19","[""Prefer not to say""]","No","Female","1841644","null","null","","","","clear_screen","","","","","","","","","","","","","","","","","","","","","","","","","",""
"","","","","","canvas-keyboard-response","102","311727","0.0-12.0-0.18","2d_cat_multi_stim_exp1","2022-4-15","14:3:2","25","75","3","9","10","40","30","120","40","19","[""Prefer not to say""]","No","Female","1841644","null","null","","","","fixation","","","","","","","","","","","","","","","","","","","","","","","","","",""
"","","","","","canvas-keyboard-response","103","312236","0.0-12.0-1.18","2d_cat_multi_stim_exp1","2022-4-15","14:3:2","25","75","3","9","10","40","30","120","40","19","[""Prefer not to say""]","No","Female","1841644","null","null","","","","clear_screen","","","","","","","","","","","","","","","","","","","","","","","","","",""
"","","","","","canvas-keyboard-response","104","312882","0.0-12.0-2.18","2d_cat_multi_stim_exp1","2022-4-15","14:3:2","25","75","3","9","10","40","30","120","40","19","[""Prefer not to say""]","No","Female","1841644","636","u","learn","","","learn_trial","25","75","in","1","1","","","","","","","","","","","","","","","","","","","","",""
"","","","","","canvas-keyboard-response","105","313392","0.0-12.0-3.18","2d_cat_multi_stim_exp1","2022-4-15","14:3:2","25","75","3","9","10","40","30","120","40","19","[""Prefer not to say""]","No","Female","1841644","null","null","learn_feedback","","","learn_feedback","25","75","in","","","","","","","","","","","","","","","","","","","","","","",""
"","","","","","canvas-keyboard-response","106","313451","0.0-12.0-4.18","2d_cat_multi_stim_exp1","2022-4-15","14:3:2","25","75","3","9","10","40","30","120","40","19","[""Prefer not to say""]","No","Female","1841644","null","null","","","","clear_screen","","","","","","","","","","","","","","","","","","","","","","","","","",""
"","","","","","canvas-keyboard-response","107","313958","0.0-12.0-0.19","2d_cat_multi_stim_exp1","2022-4-15","14:3:2","25","75","3","9","10","40","30","120","40","19","[""Prefer not to say""]","No","Female","1841644","null","null","","","","fixation","","","","","","","","","","","","","","","","","","","","","","","","","",""
"","","","","","canvas-keyboard-response","108","314467","0.0-12.0-1.19","2d_cat_multi_stim_exp1","2022-4-15","14:3:2","25","75","3","9","10","40","30","120","40","19","[""Prefer not to say""]","No","Female","1841644","null","null","","","","clear_screen","","","","","","","","","","","","","","","","","","","","","","","","","",""
"","","","","","canvas-keyboard-response","109","315106","0.0-12.0-2.19","2d_cat_multi_stim_exp1","2022-4-15","14:3:2","25","75","3","9","10","40","30","120","40","19","[""Prefer not to say""]","No","Female","1841644","628","u","learn","","","learn_trial","25","75","in","1","1","","","","","","","","","","","","","","","","","","","","",""
"","","","","","canvas-keyboard-response","110","315618","0.0-12.0-3.19","2d_cat_multi_stim_exp1","2022-4-15","14:3:2","25","75","3","9","10","40","30","120","40","19","[""Prefer not to say""]","No","Female","1841644","null","null","learn_feedback","","","learn_feedback","25","75","in","","","","","","","","","","","","","","","","","","","","","","",""
"","","","","","canvas-keyboard-response","111","315676","0.0-12.0-4.19","2d_cat_multi_stim_exp1","2022-4-15","14:3:2","25","75","3","9","10","40","30","120","40","19","[""Prefer not to say""]","No","Female","1841644","null","null","","","","clear_screen","","","","","","","","","","","","","","","","","","","","","","","","","",""
"","","","","","canvas-keyboard-response","112","316184","0.0-12.0-0.20","2d_cat_multi_stim_exp1","2022-4-15","14:3:2","25","75","3","9","10","40","30","120","40","19","[""Prefer not to say""]","No","Female","1841644","null","null","","","","fixation","","","","","","","","","","","","","","","","","","","","","","","","","",""
"","","","","","canvas-keyboard-response","113","316693","0.0-12.0-1.20","2d_cat_multi_stim_exp1","2022-4-15","14:3:2","25","75","3","9","10","40","30","120","40","19","[""Prefer not to say""]","No","Female","1841644","null","null","","","","clear_screen","","","","","","","","","","","","","","","","","","","","","","","","","",""
"","","","","","canvas-keyboard-response","114","317449","0.0-12.0-2.20","2d_cat_multi_stim_exp1","2022-4-15","14:3:2","25","75","3","9","10","40","30","120","40","19","[""Prefer not to say""]","No","Female","1841644","748","i","learn","","","learn_trial","36.6667","60","out","0","1","","","","","","","","","","","","","","","","","","","","",""
"","","","","","canvas-keyboard-response","115","317958","0.0-12.0-3.20","2d_cat_multi_stim_exp1","2022-4-15","14:3:2","25","75","3","9","10","40","30","120","40","19","[""Prefer not to say""]","No","Female","1841644","null","null","learn_feedback","","","learn_feedback","36.6667","60","out","","","","","","","","","","","","","","","","","","","","","","",""
"","","","","","canvas-keyboard-response","116","318016","0.0-12.0-4.20","2d_cat_multi_stim_exp1","2022-4-15","14:3:2","25","75","3","9","10","40","30","120","40","19","[""Prefer not to say""]","No","Female","1841644","null","null","","","","clear_screen","","","","","","","","","","","","","","","","","","","","","","","","","",""
"","","","","","canvas-keyboard-response","117","318525","0.0-12.0-0.21","2d_cat_multi_stim_exp1","2022-4-15","14:3:2","25","75","3","9","10","40","30","120","40","19","[""Prefer not to say""]","No","Female","1841644","null","null","","","","fixation","","","","","","","","","","","","","","","","","","","","","","","","","",""
"","","","","","canvas-keyboard-response","118","319033","0.0-12.0-1.21","2d_cat_multi_stim_exp1","2022-4-15","14:3:2","25","75","3","9","10","40","30","120","40","19","[""Prefer not to say""]","No","Female","1841644","null","null","","","","clear_screen","","","","","","","","","","","","","","","","","","","","","","","","","",""
"","","","","","canvas-keyboard-response","119","319649","0.0-12.0-2.21","2d_cat_multi_stim_exp1","2022-4-15","14:3:2","25","75","3","9","10","40","30","120","40","19","[""Prefer not to say""]","No","Female","1841644","607","u","learn","","","learn_trial","25","75","in","1","1","","","","","","","","","","","","","","","","","","","","",""
"","","","","","canvas-keyboard-response","120","320158","0.0-12.0-3.21","2d_cat_multi_stim_exp1","2022-4-15","14:3:2","25","75","3","9","10","40","30","120","40","19","[""Prefer not to say""]","No","Female","1841644","null","null","learn_feedback","","","learn_feedback","25","75","in","","","","","","","","","","","","","","","","","","","","","","",""
"","","","","","canvas-keyboard-response","121","320216","0.0-12.0-4.21","2d_cat_multi_stim_exp1","2022-4-15","14:3:2","25","75","3","9","10","40","30","120","40","19","[""Prefer not to say""]","No","Female","1841644","null","null","","","","clear_screen","","","","","","","","","","","","","","","","","","","","","","","","","",""
"","","","","","canvas-keyboard-response","122","320725","0.0-12.0-0.22","2d_cat_multi_stim_exp1","2022-4-15","14:3:2","25","75","3","9","10","40","30","120","40","19","[""Prefer not to say""]","No","Female","1841644","null","null","","","","fixation","","","","","","","","","","","","","","","","","","","","","","","","","",""
"","","","","","canvas-keyboard-response","123","321233","0.0-12.0-1.22","2d_cat_multi_stim_exp1","2022-4-15","14:3:2","25","75","3","9","10","40","30","120","40","19","[""Prefer not to say""]","No","Female","1841644","null","null","","","","clear_screen","","","","","","","","","","","","","","","","","","","","","","","","","",""
"","","","","","canvas-keyboard-response","124","322001","0.0-12.0-2.22","2d_cat_multi_stim_exp1","2022-4-15","14:3:2","25","75","3","9","10","40","30","120","40","19","[""Prefer not to say""]","No","Female","1841644","760","u","learn","","","learn_trial","27.5753","79.6161","in","1","1","","","","","","","","","","","","","","","","","","","","",""
"","","","","","canvas-keyboard-response","125","322510","0.0-12.0-3.22","2d_cat_multi_stim_exp1","2022-4-15","14:3:2","25","75","3","9","10","40","30","120","40","19","[""Prefer not to say""]","No","Female","1841644","null","null","learn_feedback","","","learn_feedback","27.5753","79.6161","in","","","","","","","","","","","","","","","","","","","","","","",""
"","","","","","canvas-keyboard-response","126","322568","0.0-12.0-4.22","2d_cat_multi_stim_exp1","2022-4-15","14:3:2","25","75","3","9","10","40","30","120","40","19","[""Prefer not to say""]","No","Female","1841644","null","null","","","","clear_screen","","","","","","","","","","","","","","","","","","","","","","","","","",""
"","","","","","canvas-keyboard-response","127","323077","0.0-12.0-0.23","2d_cat_multi_stim_exp1","2022-4-15","14:3:2","25","75","3","9","10","40","30","120","40","19","[""Prefer not to say""]","No","Female","1841644","null","null","","","","fixation","","","","","","","","","","","","","","","","","","","","","","","","","",""
"","","","","","canvas-keyboard-response","128","323586","0.0-12.0-1.23","2d_cat_multi_stim_exp1","2022-4-15","14:3:2","25","75","3","9","10","40","30","120","40","19","[""Prefer not to say""]","No","Female","1841644","null","null","","","","clear_screen","","","","","","","","","","","","","","","","","","","","","","","","","",""
"","","","","","canvas-keyboard-response","129","324721","0.0-12.0-2.23","2d_cat_multi_stim_exp1","2022-4-15","14:3:2","25","75","3","9","10","40","30","120","40","19","[""Prefer not to say""]","No","Female","1841644","1127","i","learn","","","learn_trial","33.3333","120","out","0","1","","","","","","","","","","","","","","","","","","","","",""
"","","","","","canvas-keyboard-response","130","325230","0.0-12.0-3.23","2d_cat_multi_stim_exp1","2022-4-15","14:3:2","25","75","3","9","10","40","30","120","40","19","[""Prefer not to say""]","No","Female","1841644","null","null","learn_feedback","","","learn_feedback","33.3333","120","out","","","","","","","","","","","","","","","","","","","","","","",""
"","","","","","canvas-keyboard-response","131","325288","0.0-12.0-4.23","2d_cat_multi_stim_exp1","2022-4-15","14:3:2","25","75","3","9","10","40","30","120","40","19","[""Prefer not to say""]","No","Female","1841644","null","null","","","","clear_screen","","","","","","","","","","","","","","","","","","","","","","","","","",""
"","","","","","canvas-keyboard-response","132","325796","0.0-12.0-0.24","2d_cat_multi_stim_exp1","2022-4-15","14:3:2","25","75","3","9","10","40","30","120","40","19","[""Prefer not to say""]","No","Female","1841644","null","null","","","","fixation","","","","","","","","","","","","","","","","","","","","","","","","","",""
"","","","","","canvas-keyboard-response","133","326304","0.0-12.0-1.24","2d_cat_multi_stim_exp1","2022-4-15","14:3:2","25","75","3","9","10","40","30","120","40","19","[""Prefer not to say""]","No","Female","1841644","null","null","","","","clear_screen","","","","","","","","","","","","","","","","","","","","","","","","","",""
"","","","","","canvas-keyboard-response","134","326937","0.0-12.0-2.24","2d_cat_multi_stim_exp1","2022-4-15","14:3:2","25","75","3","9","10","40","30","120","40","19","[""Prefer not to say""]","No","Female","1841644","624","u","learn","","","learn_trial","27.9518","76.607","in","1","1","","","","","","","","","","","","","","","","","","","","",""
"","","","","","canvas-keyboard-response","135","327446","0.0-12.0-3.24","2d_cat_multi_stim_exp1","2022-4-15","14:3:2","25","75","3","9","10","40","30","120","40","19","[""Prefer not to say""]","No","Female","1841644","null","null","learn_feedback","","","learn_feedback","27.9518","76.607","in","","","","","","","","","","","","","","","","","","","","","","",""
"","","","","","canvas-keyboard-response","136","327509","0.0-12.0-4.24","2d_cat_multi_stim_exp1","2022-4-15","14:3:2","25","75","3","9","10","40","30","120","40","19","[""Prefer not to say""]","No","Female","1841644","null","null","","","","clear_screen","","","","","","","","","","","","","","","","","","","","","","","","","",""
"","","","","","canvas-keyboard-response","137","328017","0.0-12.0-0.25","2d_cat_multi_stim_exp1","2022-4-15","14:3:2","25","75","3","9","10","40","30","120","40","19","[""Prefer not to say""]","No","Female","1841644","null","null","","","","fixation","","","","","","","","","","","","","","","","","","","","","","","","","",""
"","","","","","canvas-keyboard-response","138","328526","0.0-12.0-1.25","2d_cat_multi_stim_exp1","2022-4-15","14:3:2","25","75","3","9","10","40","30","120","40","19","[""Prefer not to say""]","No","Female","1841644","null","null","","","","clear_screen","","","","","","","","","","","","","","","","","","","","","","","","","",""
"","","","","","canvas-keyboard-response","139","329913","0.0-12.0-2.25","2d_cat_multi_stim_exp1","2022-4-15","14:3:2","25","75","3","9","10","40","30","120","40","19","[""Prefer not to say""]","No","Female","1841644","1377","i","learn","","","learn_trial","36.6667","120","out","0","1","","","","","","","","","","","","","","","","","","","","",""
"","","","","","canvas-keyboard-response","140","330423","0.0-12.0-3.25","2d_cat_multi_stim_exp1","2022-4-15","14:3:2","25","75","3","9","10","40","30","120","40","19","[""Prefer not to say""]","No","Female","1841644","null","null","learn_feedback","","","learn_feedback","36.6667","120","out","","","","","","","","","","","","","","","","","","","","","","",""
"","","","","","canvas-keyboard-response","141","330480","0.0-12.0-4.25","2d_cat_multi_stim_exp1","2022-4-15","14:3:2","25","75","3","9","10","40","30","120","40","19","[""Prefer not to say""]","No","Female","1841644","null","null","","","","clear_screen","","","","","","","","","","","","","","","","","","","","","","","","","",""
"","","","","","canvas-keyboard-response","142","330988","0.0-12.0-0.26","2d_cat_multi_stim_exp1","2022-4-15","14:3:2","25","75","3","9","10","40","30","120","40","19","[""Prefer not to say""]","No","Female","1841644","null","null","","","","fixation","","","","","","","","","","","","","","","","","","","","","","","","","",""
"","","","","","canvas-keyboard-response","143","331497","0.0-12.0-1.26","2d_cat_multi_stim_exp1","2022-4-15","14:3:2","25","75","3","9","10","40","30","120","40","19","[""Prefer not to say""]","No","Female","1841644","null","null","","","","clear_screen","","","","","","","","","","","","","","","","","","","","","","","","","",""
"","","","","","canvas-keyboard-response","144","332369","0.0-12.0-2.26","2d_cat_multi_stim_exp1","2022-4-15","14:3:2","25","75","3","9","10","40","30","120","40","19","[""Prefer not to say""]","No","Female","1841644","864","i","learn","","","learn_trial","20","90","out","0","1","","","","","","","","","","","","","","","","","","","","",""
"","","","","","canvas-keyboard-response","145","332877","0.0-12.0-3.26","2d_cat_multi_stim_exp1","2022-4-15","14:3:2","25","75","3","9","10","40","30","120","40","19","[""Prefer not to say""]","No","Female","1841644","null","null","learn_feedback","","","learn_feedback","20","90","out","","","","","","","","","","","","","","","","","","","","","","",""
"","","","","","canvas-keyboard-response","146","332935","0.0-12.0-4.26","2d_cat_multi_stim_exp1","2022-4-15","14:3:2","25","75","3","9","10","40","30","120","40","19","[""Prefer not to say""]","No","Female","1841644","null","null","","","","clear_screen","","","","","","","","","","","","","","","","","","","","","","","","","",""
"","","","","","canvas-keyboard-response","147","333443","0.0-12.0-0.27","2d_cat_multi_stim_exp1","2022-4-15","14:3:2","25","75","3","9","10","40","30","120","40","19","[""Prefer not to say""]","No","Female","1841644","null","null","","","","fixation","","","","","","","","","","","","","","","","","","","","","","","","","",""
"","","","","","canvas-keyboard-response","148","333952","0.0-12.0-1.27","2d_cat_multi_stim_exp1","2022-4-15","14:3:2","25","75","3","9","10","40","30","120","40","19","[""Prefer not to say""]","No","Female","1841644","null","null","","","","clear_screen","","","","","","","","","","","","","","","","","","","","","","","","","",""
"","","","","","canvas-keyboard-response","149","334640","0.0-12.0-2.27","2d_cat_multi_stim_exp1","2022-4-15","14:3:2","25","75","3","9","10","40","30","120","40","19","[""Prefer not to say""]","No","Female","1841644","679","u","learn","","","learn_trial","23.3333","30","out","1","0","","","","","","","","","","","","","","","","","","","","",""
"","","","","","canvas-keyboard-response","150","335650","0.0-12.0-3.27","2d_cat_multi_stim_exp1","2022-4-15","14:3:2","25","75","3","9","10","40","30","120","40","19","[""Prefer not to say""]","No","Female","1841644","null","null","learn_feedback","","","learn_feedback","23.3333","30","out","","","","","","","","","","","","","","","","","","","","","","",""
"","","","","","canvas-keyboard-response","151","335708","0.0-12.0-4.27","2d_cat_multi_stim_exp1","2022-4-15","14:3:2","25","75","3","9","10","40","30","120","40","19","[""Prefer not to say""]","No","Female","1841644","null","null","","","","clear_screen","","","","","","","","","","","","","","","","","","","","","","","","","",""
"","","","","","canvas-keyboard-response","152","336216","0.0-12.0-0.28","2d_cat_multi_stim_exp1","2022-4-15","14:3:2","25","75","3","9","10","40","30","120","40","19","[""Prefer not to say""]","No","Female","1841644","null","null","","","","fixation","","","","","","","","","","","","","","","","","","","","","","","","","",""
"","","","","","canvas-keyboard-response","153","336725","0.0-12.0-1.28","2d_cat_multi_stim_exp1","2022-4-15","14:3:2","25","75","3","9","10","40","30","120","40","19","[""Prefer not to say""]","No","Female","1841644","null","null","","","","clear_screen","","","","","","","","","","","","","","","","","","","","","","","","","",""
"","","","","","canvas-keyboard-response","154","337697","0.0-12.0-2.28","2d_cat_multi_stim_exp1","2022-4-15","14:3:2","25","75","3","9","10","40","30","120","40","19","[""Prefer not to say""]","No","Female","1841644","964","i","learn","","","learn_trial","36.6667","50","out","0","1","","","","","","","","","","","","","","","","","","","","",""
"","","","","","canvas-keyboard-response","155","338205","0.0-12.0-3.28","2d_cat_multi_stim_exp1","2022-4-15","14:3:2","25","75","3","9","10","40","30","120","40","19","[""Prefer not to say""]","No","Female","1841644","null","null","learn_feedback","","","learn_feedback","36.6667","50","out","","","","","","","","","","","","","","","","","","","","","","",""
"","","","","","canvas-keyboard-response","156","338264","0.0-12.0-4.28","2d_cat_multi_stim_exp1","2022-4-15","14:3:2","25","75","3","9","10","40","30","120","40","19","[""Prefer not to say""]","No","Female","1841644","null","null","","","","clear_screen","","","","","","","","","","","","","","","","","","","","","","","","","",""
"","","","","","canvas-keyboard-response","157","338773","0.0-12.0-0.29","2d_cat_multi_stim_exp1","2022-4-15","14:3:2","25","75","3","9","10","40","30","120","40","19","[""Prefer not to say""]","No","Female","1841644","null","null","","","","fixation","","","","","","","","","","","","","","","","","","","","","","","","","",""
"","","","","","canvas-keyboard-response","158","339281","0.0-12.0-1.29","2d_cat_multi_stim_exp1","2022-4-15","14:3:2","25","75","3","9","10","40","30","120","40","19","[""Prefer not to say""]","No","Female","1841644","null","null","","","","clear_screen","","","","","","","","","","","","","","","","","","","","","","","","","",""
"","","","","","canvas-keyboard-response","159","340704","0.0-12.0-2.29","2d_cat_multi_stim_exp1","2022-4-15","14:3:2","25","75","3","9","10","40","30","120","40","19","[""Prefer not to say""]","No","Female","1841644","1416","u","learn","","","learn_trial","27.9518","73.393","in","1","1","","","","","","","","","","","","","","","","","","","","",""
"","","","","","canvas-keyboard-response","160","341213","0.0-12.0-3.29","2d_cat_multi_stim_exp1","2022-4-15","14:3:2","25","75","3","9","10","40","30","120","40","19","[""Prefer not to say""]","No","Female","1841644","null","null","learn_feedback","","","learn_feedback","27.9518","73.393","in","","","","","","","","","","","","","","","","","","","","","","",""
"","","","","","canvas-keyboard-response","161","341271","0.0-12.0-4.29","2d_cat_multi_stim_exp1","2022-4-15","14:3:2","25","75","3","9","10","40","30","120","40","19","[""Prefer not to say""]","No","Female","1841644","null","null","","","","clear_screen","","","","","","","","","","","","","","","","","","","","","","","","","",""
"","","","","","canvas-keyboard-response","162","341779","0.0-12.0-0.30","2d_cat_multi_stim_exp1","2022-4-15","14:3:2","25","75","3","9","10","40","30","120","40","19","[""Prefer not to say""]","No","Female","1841644","null","null","","","","fixation","","","","","","","","","","","","","","","","","","","","","","","","","",""
"","","","","","canvas-keyboard-response","163","342288","0.0-12.0-1.30","2d_cat_multi_stim_exp1","2022-4-15","14:3:2","25","75","3","9","10","40","30","120","40","19","[""Prefer not to say""]","No","Female","1841644","null","null","","","","clear_screen","","","","","","","","","","","","","","","","","","","","","","","","","",""
"","","","","","canvas-keyboard-response","164","342969","0.0-12.0-2.30","2d_cat_multi_stim_exp1","2022-4-15","14:3:2","25","75","3","9","10","40","30","120","40","19","[""Prefer not to say""]","No","Female","1841644","672","u","learn","","","learn_trial","23.3333","60","out","1","0","","","","","","","","","","","","","","","","","","","","",""
"","","","","","canvas-keyboard-response","165","343979","0.0-12.0-3.30","2d_cat_multi_stim_exp1","2022-4-15","14:3:2","25","75","3","9","10","40","30","120","40","19","[""Prefer not to say""]","No","Female","1841644","null","null","learn_feedback","","","learn_feedback","23.3333","60","out","","","","","","","","","","","","","","","","","","","","","","",""
"","","","","","canvas-keyboard-response","166","344036","0.0-12.0-4.30","2d_cat_multi_stim_exp1","2022-4-15","14:3:2","25","75","3","9","10","40","30","120","40","19","[""Prefer not to say""]","No","Female","1841644","null","null","","","","clear_screen","","","","","","","","","","","","","","","","","","","","","","","","","",""
"","","","","","canvas-keyboard-response","167","344544","0.0-12.0-0.31","2d_cat_multi_stim_exp1","2022-4-15","14:3:2","25","75","3","9","10","40","30","120","40","19","[""Prefer not to say""]","No","Female","1841644","null","null","","","","fixation","","","","","","","","","","","","","","","","","","","","","","","","","",""
"","","","","","canvas-keyboard-response","168","345057","0.0-12.0-1.31","2d_cat_multi_stim_exp1","2022-4-15","14:3:2","25","75","3","9","10","40","30","120","40","19","[""Prefer not to say""]","No","Female","1841644","null","null","","","","clear_screen","","","","","","","","","","","","","","","","","","","","","","","","","",""
"","","","","","canvas-keyboard-response","169","345761","0.0-12.0-2.31","2d_cat_multi_stim_exp1","2022-4-15","14:3:2","25","75","3","9","10","40","30","120","40","19","[""Prefer not to say""]","No","Female","1841644","697","i","learn","","","learn_trial","13.3333","70","out","0","1","","","","","","","","","","","","","","","","","","","","",""
"","","","","","canvas-keyboard-response","170","346270","0.0-12.0-3.31","2d_cat_multi_stim_exp1","2022-4-15","14:3:2","25","75","3","9","10","40","30","120","40","19","[""Prefer not to say""]","No","Female","1841644","null","null","learn_feedback","","","learn_feedback","13.3333","70","out","","","","","","","","","","","","","","","","","","","","","","",""
"","","","","","canvas-keyboard-response","171","346328","0.0-12.0-4.31","2d_cat_multi_stim_exp1","2022-4-15","14:3:2","25","75","3","9","10","40","30","120","40","19","[""Prefer not to say""]","No","Female","1841644","null","null","","","","clear_screen","","","","","","","","","","","","","","","","","","","","","","","","","",""
"","","","","","canvas-keyboard-response","172","346836","0.0-12.0-0.32","2d_cat_multi_stim_exp1","2022-4-15","14:3:2","25","75","3","9","10","40","30","120","40","19","[""Prefer not to say""]","No","Female","1841644","null","null","","","","fixation","","","","","","","","","","","","","","","","","","","","","","","","","",""
"","","","","","canvas-keyboard-response","173","347344","0.0-12.0-1.32","2d_cat_multi_stim_exp1","2022-4-15","14:3:2","25","75","3","9","10","40","30","120","40","19","[""Prefer not to say""]","No","Female","1841644","null","null","","","","clear_screen","","","","","","","","","","","","","","","","","","","","","","","","","",""
"","","","","","canvas-keyboard-response","174","348192","0.0-12.0-2.32","2d_cat_multi_stim_exp1","2022-4-15","14:3:2","25","75","3","9","10","40","30","120","40","19","[""Prefer not to say""]","No","Female","1841644","839","i","learn","","","learn_trial","10","110","out","0","1","","","","","","","","","","","","","","","","","","","","",""
"","","","","","canvas-keyboard-response","175","348701","0.0-12.0-3.32","2d_cat_multi_stim_exp1","2022-4-15","14:3:2","25","75","3","9","10","40","30","120","40","19","[""Prefer not to say""]","No","Female","1841644","null","null","learn_feedback","","","learn_feedback","10","110","out","","","","","","","","","","","","","","","","","","","","","","",""
"","","","","","canvas-keyboard-response","176","348760","0.0-12.0-4.32","2d_cat_multi_stim_exp1","2022-4-15","14:3:2","25","75","3","9","10","40","30","120","40","19","[""Prefer not to say""]","No","Female","1841644","null","null","","","","clear_screen","","","","","","","","","","","","","","","","","","","","","","","","","",""
"","","","","","canvas-keyboard-response","177","349269","0.0-12.0-0.33","2d_cat_multi_stim_exp1","2022-4-15","14:3:2","25","75","3","9","10","40","30","120","40","19","[""Prefer not to say""]","No","Female","1841644","null","null","","","","fixation","","","","","","","","","","","","","","","","","","","","","","","","","",""
"","","","","","canvas-keyboard-response","178","349778","0.0-12.0-1.33","2d_cat_multi_stim_exp1","2022-4-15","14:3:2","25","75","3","9","10","40","30","120","40","19","[""Prefer not to say""]","No","Female","1841644","null","null","","","","clear_screen","","","","","","","","","","","","","","","","","","","","","","","","","",""
"","","","","","canvas-keyboard-response","179","350537","0.0-12.0-2.33","2d_cat_multi_stim_exp1","2022-4-15","14:3:2","25","75","3","9","10","40","30","120","40","19","[""Prefer not to say""]","No","Female","1841644","750","i","learn","","","learn_trial","25","75","in","0","0","","","","","","","","","","","","","","","","","","","","",""
"","","","","","canvas-keyboard-response","180","351545","0.0-12.0-3.33","2d_cat_multi_stim_exp1","2022-4-15","14:3:2","25","75","3","9","10","40","30","120","40","19","[""Prefer not to say""]","No","Female","1841644","null","null","learn_feedback","","","learn_feedback","25","75","in","","","","","","","","","","","","","","","","","","","","","","",""
"","","","","","canvas-keyboard-response","181","351604","0.0-12.0-4.33","2d_cat_multi_stim_exp1","2022-4-15","14:3:2","25","75","3","9","10","40","30","120","40","19","[""Prefer not to say""]","No","Female","1841644","null","null","","","","clear_screen","","","","","","","","","","","","","","","","","","","","","","","","","",""
"","","","","","canvas-keyboard-response","182","352112","0.0-12.0-0.34","2d_cat_multi_stim_exp1","2022-4-15","14:3:2","25","75","3","9","10","40","30","120","40","19","[""Prefer not to say""]","No","Female","1841644","null","null","","","","fixation","","","","","","","","","","","","","","","","","","","","","","","","","",""
"","","","","","canvas-keyboard-response","183","352620","0.0-12.0-1.34","2d_cat_multi_stim_exp1","2022-4-15","14:3:2","25","75","3","9","10","40","30","120","40","19","[""Prefer not to say""]","No","Female","1841644","null","null","","","","clear_screen","","","","","","","","","","","","","","","","","","","","","","","","","",""
"","","","","","canvas-keyboard-response","184","353273","0.0-12.0-2.34","2d_cat_multi_stim_exp1","2022-4-15","14:3:2","25","75","3","9","10","40","30","120","40","19","[""Prefer not to say""]","No","Female","1841644","641","u","learn","","","learn_trial","22.5729","69.7099","in","1","1","","","","","","","","","","","","","","","","","","","","",""
"","","","","","canvas-keyboard-response","185","353782","0.0-12.0-3.34","2d_cat_multi_stim_exp1","2022-4-15","14:3:2","25","75","3","9","10","40","30","120","40","19","[""Prefer not to say""]","No","Female","1841644","null","null","learn_feedback","","","learn_feedback","22.5729","69.7099","in","","","","","","","","","","","","","","","","","","","","","","",""
"","","","","","canvas-keyboard-response","186","353841","0.0-12.0-4.34","2d_cat_multi_stim_exp1","2022-4-15","14:3:2","25","75","3","9","10","40","30","120","40","19","[""Prefer not to say""]","No","Female","1841644","null","null","","","","clear_screen","","","","","","","","","","","","","","","","","","","","","","","","","",""
"","","","","","canvas-keyboard-response","187","354348","0.0-12.0-0.35","2d_cat_multi_stim_exp1","2022-4-15","14:3:2","25","75","3","9","10","40","30","120","40","19","[""Prefer not to say""]","No","Female","1841644","null","null","","","","fixation","","","","","","","","","","","","","","","","","","","","","","","","","",""
"","","","","","canvas-keyboard-response","188","354857","0.0-12.0-1.35","2d_cat_multi_stim_exp1","2022-4-15","14:3:2","25","75","3","9","10","40","30","120","40","19","[""Prefer not to say""]","No","Female","1841644","null","null","","","","clear_screen","","","","","","","","","","","","","","","","","","","","","","","","","",""
"","","","","","canvas-keyboard-response","189","355432","0.0-12.0-2.35","2d_cat_multi_stim_exp1","2022-4-15","14:3:2","25","75","3","9","10","40","30","120","40","19","[""Prefer not to say""]","No","Female","1841644","567","u","learn","","","learn_trial","25","75","in","1","1","","","","","","","","","","","","","","","","","","","","",""
"","","","","","canvas-keyboard-response","190","355941","0.0-12.0-3.35","2d_cat_multi_stim_exp1","2022-4-15","14:3:2","25","75","3","9","10","40","30","120","40","19","[""Prefer not to say""]","No","Female","1841644","null","null","learn_feedback","","","learn_feedback","25","75","in","","","","","","","","","","","","","","","","","","","","","","",""
"","","","","","canvas-keyboard-response","191","356000","0.0-12.0-4.35","2d_cat_multi_stim_exp1","2022-4-15","14:3:2","25","75","3","9","10","40","30","120","40","19","[""Prefer not to say""]","No","Female","1841644","null","null","","","","clear_screen","","","","","","","","","","","","","","","","","","","","","","","","","",""
"","","","","","canvas-keyboard-response","192","356509","0.0-12.0-0.36","2d_cat_multi_stim_exp1","2022-4-15","14:3:2","25","75","3","9","10","40","30","120","40","19","[""Prefer not to say""]","No","Female","1841644","null","null","","","","fixation","","","","","","","","","","","","","","","","","","","","","","","","","",""
"","","","","","canvas-keyboard-response","193","357018","0.0-12.0-1.36","2d_cat_multi_stim_exp1","2022-4-15","14:3:2","25","75","3","9","10","40","30","120","40","19","[""Prefer not to say""]","No","Female","1841644","null","null","","","","clear_screen","","","","","","","","","","","","","","","","","","","","","","","","","",""
"","","","","","canvas-keyboard-response","194","357745","0.0-12.0-2.36","2d_cat_multi_stim_exp1","2022-4-15","14:3:2","25","75","3","9","10","40","30","120","40","19","[""Prefer not to say""]","No","Female","1841644","719","u","learn","","","learn_trial","25","75","in","1","1","","","","","","","","","","","","","","","","","","","","",""
"","","","","","canvas-keyboard-response","195","358253","0.0-12.0-3.36","2d_cat_multi_stim_exp1","2022-4-15","14:3:2","25","75","3","9","10","40","30","120","40","19","[""Prefer not to say""]","No","Female","1841644","null","null","learn_feedback","","","learn_feedback","25","75","in","","","","","","","","","","","","","","","","","","","","","","",""
"","","","","","canvas-keyboard-response","196","358311","0.0-12.0-4.36","2d_cat_multi_stim_exp1","2022-4-15","14:3:2","25","75","3","9","10","40","30","120","40","19","[""Prefer not to say""]","No","Female","1841644","null","null","","","","clear_screen","","","","","","","","","","","","","","","","","","","","","","","","","",""
"","","","","","canvas-keyboard-response","197","358820","0.0-12.0-0.37","2d_cat_multi_stim_exp1","2022-4-15","14:3:2","25","75","3","9","10","40","30","120","40","19","[""Prefer not to say""]","No","Female","1841644","null","null","","","","fixation","","","","","","","","","","","","","","","","","","","","","","","","","",""
"","","","","","canvas-keyboard-response","198","359328","0.0-12.0-1.37","2d_cat_multi_stim_exp1","2022-4-15","14:3:2","25","75","3","9","10","40","30","120","40","19","[""Prefer not to say""]","No","Female","1841644","null","null","","","","clear_screen","","","","","","","","","","","","","","","","","","","","","","","","","",""
"","","","","","canvas-keyboard-response","199","360162","0.0-12.0-2.37","2d_cat_multi_stim_exp1","2022-4-15","14:3:2","25","75","3","9","10","40","30","120","40","19","[""Prefer not to say""]","No","Female","1841644","823","i","learn","","","learn_trial","20","60","out","0","1","","","","","","","","","","","","","","","","","","","","",""
"","","","","","canvas-keyboard-response","200","360675","0.0-12.0-3.37","2d_cat_multi_stim_exp1","2022-4-15","14:3:2","25","75","3","9","10","40","30","120","40","19","[""Prefer not to say""]","No","Female","1841644","null","null","learn_feedback","","","learn_feedback","20","60","out","","","","","","","","","","","","","","","","","","","","","","",""
"","","","","","canvas-keyboard-response","201","360736","0.0-12.0-4.37","2d_cat_multi_stim_exp1","2022-4-15","14:3:2","25","75","3","9","10","40","30","120","40","19","[""Prefer not to say""]","No","Female","1841644","null","null","","","","clear_screen","","","","","","","","","","","","","","","","","","","","","","","","","",""
"","","","","","canvas-keyboard-response","202","361246","0.0-12.0-0.38","2d_cat_multi_stim_exp1","2022-4-15","14:3:2","25","75","3","9","10","40","30","120","40","19","[""Prefer not to say""]","No","Female","1841644","null","null","","","","fixation","","","","","","","","","","","","","","","","","","","","","","","","","",""
"","","","","","canvas-keyboard-response","203","361755","0.0-12.0-1.38","2d_cat_multi_stim_exp1","2022-4-15","14:3:2","25","75","3","9","10","40","30","120","40","19","[""Prefer not to say""]","No","Female","1841644","null","null","","","","clear_screen","","","","","","","","","","","","","","","","","","","","","","","","","",""
"","","","","","canvas-keyboard-response","204","362729","0.0-12.0-2.38","2d_cat_multi_stim_exp1","2022-4-15","14:3:2","25","75","3","9","10","40","30","120","40","19","[""Prefer not to say""]","No","Female","1841644","965","u","learn","","","learn_trial","40","90","out","1","0","","","","","","","","","","","","","","","","","","","","",""
"","","","","","canvas-keyboard-response","205","363739","0.0-12.0-3.38","2d_cat_multi_stim_exp1","2022-4-15","14:3:2","25","75","3","9","10","40","30","120","40","19","[""Prefer not to say""]","No","Female","1841644","null","null","learn_feedback","","","learn_feedback","40","90","out","","","","","","","","","","","","","","","","","","","","","","",""
"","","","","","canvas-keyboard-response","206","363797","0.0-12.0-4.38","2d_cat_multi_stim_exp1","2022-4-15","14:3:2","25","75","3","9","10","40","30","120","40","19","[""Prefer not to say""]","No","Female","1841644","null","null","","","","clear_screen","","","","","","","","","","","","","","","","","","","","","","","","","",""
"","","","","","canvas-keyboard-response","207","364306","0.0-12.0-0.39","2d_cat_multi_stim_exp1","2022-4-15","14:3:2","25","75","3","9","10","40","30","120","40","19","[""Prefer not to say""]","No","Female","1841644","null","null","","","","fixation","","","","","","","","","","","","","","","","","","","","","","","","","",""
"","","","","","canvas-keyboard-response","208","364815","0.0-12.0-1.39","2d_cat_multi_stim_exp1","2022-4-15","14:3:2","25","75","3","9","10","40","30","120","40","19","[""Prefer not to say""]","No","Female","1841644","null","null","","","","clear_screen","","","","","","","","","","","","","","","","","","","","","","","","","",""
"","","","","","canvas-keyboard-response","209","365553","0.0-12.0-2.39","2d_cat_multi_stim_exp1","2022-4-15","14:3:2","25","75","3","9","10","40","30","120","40","19","[""Prefer not to say""]","No","Female","1841644","730","u","learn","","","learn_trial","30","80","out","1","0","","","","","","","","","","","","","","","","","","","","",""
"","","","","","canvas-keyboard-response","210","366563","0.0-12.0-3.39","2d_cat_multi_stim_exp1","2022-4-15","14:3:2","25","75","3","9","10","40","30","120","40","19","[""Prefer not to say""]","No","Female","1841644","null","null","learn_feedback","","","learn_feedback","30","80","out","","","","","","","","","","","","","","","","","","","","","","",""
"","","","","","canvas-keyboard-response","211","366622","0.0-12.0-4.39","2d_cat_multi_stim_exp1","2022-4-15","14:3:2","25","75","3","9","10","40","30","120","40","19","[""Prefer not to say""]","No","Female","1841644","null","null","","","","clear_screen","","","","","","","","","","","","","","","","","","","","","","","","","",""
"","","","","","canvas-keyboard-response","212","367131","0.0-12.0-0.40","2d_cat_multi_stim_exp1","2022-4-15","14:3:2","25","75","3","9","10","40","30","120","40","19","[""Prefer not to say""]","No","Female","1841644","null","null","","","","fixation","","","","","","","","","","","","","","","","","","","","","","","","","",""
"","","","","","canvas-keyboard-response","213","367640","0.0-12.0-1.40","2d_cat_multi_stim_exp1","2022-4-15","14:3:2","25","75","3","9","10","40","30","120","40","19","[""Prefer not to say""]","No","Female","1841644","null","null","","","","clear_screen","","","","","","","","","","","","","","","","","","","","","","","","","",""
"","","","","","canvas-keyboard-response","214","368321","0.0-12.0-2.40","2d_cat_multi_stim_exp1","2022-4-15","14:3:2","25","75","3","9","10","40","30","120","40","19","[""Prefer not to say""]","No","Female","1841644","673","i","learn","","","learn_trial","36.6667","100","out","0","1","","","","","","","","","","","","","","","","","","","","",""
"","","","","","canvas-keyboard-response","215","368830","0.0-12.0-3.40","2d_cat_multi_stim_exp1","2022-4-15","14:3:2","25","75","3","9","10","40","30","120","40","19","[""Prefer not to say""]","No","Female","1841644","null","null","learn_feedback","","","learn_feedback","36.6667","100","out","","","","","","","","","","","","","","","","","","","","","","",""
"","","","","","canvas-keyboard-response","216","368888","0.0-12.0-4.40","2d_cat_multi_stim_exp1","2022-4-15","14:3:2","25","75","3","9","10","40","30","120","40","19","[""Prefer not to say""]","No","Female","1841644","null","null","","","","clear_screen","","","","","","","","","","","","","","","","","","","","","","","","","",""
"","","","","","canvas-keyboard-response","217","369396","0.0-12.0-0.41","2d_cat_multi_stim_exp1","2022-4-15","14:3:2","25","75","3","9","10","40","30","120","40","19","[""Prefer not to say""]","No","Female","1841644","null","null","","","","fixation","","","","","","","","","","","","","","","","","","","","","","","","","",""
"","","","","","canvas-keyboard-response","218","369905","0.0-12.0-1.41","2d_cat_multi_stim_exp1","2022-4-15","14:3:2","25","75","3","9","10","40","30","120","40","19","[""Prefer not to say""]","No","Female","1841644","null","null","","","","clear_screen","","","","","","","","","","","","","","","","","","","","","","","","","",""
"","","","","","canvas-keyboard-response","219","370729","0.0-12.0-2.41","2d_cat_multi_stim_exp1","2022-4-15","14:3:2","25","75","3","9","10","40","30","120","40","19","[""Prefer not to say""]","No","Female","1841644","816","i","learn","","","learn_trial","27.8087","78.1624","in","0","0","","","","","","","","","","","","","","","","","","","","",""
"","","","","","canvas-keyboard-response","220","371738","0.0-12.0-3.41","2d_cat_multi_stim_exp1","2022-4-15","14:3:2","25","75","3","9","10","40","30","120","40","19","[""Prefer not to say""]","No","Female","1841644","null","null","learn_feedback","","","learn_feedback","27.8087","78.1624","in","","","","","","","","","","","","","","","","","","","","","","",""
"","","","","","canvas-keyboard-response","221","371796","0.0-12.0-4.41","2d_cat_multi_stim_exp1","2022-4-15","14:3:2","25","75","3","9","10","40","30","120","40","19","[""Prefer not to say""]","No","Female","1841644","null","null","","","","clear_screen","","","","","","","","","","","","","","","","","","","","","","","","","",""
"","","","","","canvas-keyboard-response","222","372304","0.0-12.0-0.42","2d_cat_multi_stim_exp1","2022-4-15","14:3:2","25","75","3","9","10","40","30","120","40","19","[""Prefer not to say""]","No","Female","1841644","null","null","","","","fixation","","","","","","","","","","","","","","","","","","","","","","","","","",""
"","","","","","canvas-keyboard-response","223","372812","0.0-12.0-1.42","2d_cat_multi_stim_exp1","2022-4-15","14:3:2","25","75","3","9","10","40","30","120","40","19","[""Prefer not to say""]","No","Female","1841644","null","null","","","","clear_screen","","","","","","","","","","","","","","","","","","","","","","","","","",""
"","","","","","canvas-keyboard-response","224","373537","0.0-12.0-2.42","2d_cat_multi_stim_exp1","2022-4-15","14:3:2","25","75","3","9","10","40","30","120","40","19","[""Prefer not to say""]","No","Female","1841644","715","u","learn","","","learn_trial","10","60","out","1","0","","","","","","","","","","","","","","","","","","","","",""
"","","","","","canvas-keyboard-response","225","374546","0.0-12.0-3.42","2d_cat_multi_stim_exp1","2022-4-15","14:3:2","25","75","3","9","10","40","30","120","40","19","[""Prefer not to say""]","No","Female","1841644","null","null","learn_feedback","","","learn_feedback","10","60","out","","","","","","","","","","","","","","","","","","","","","","",""
"","","","","","canvas-keyboard-response","226","374605","0.0-12.0-4.42","2d_cat_multi_stim_exp1","2022-4-15","14:3:2","25","75","3","9","10","40","30","120","40","19","[""Prefer not to say""]","No","Female","1841644","null","null","","","","clear_screen","","","","","","","","","","","","","","","","","","","","","","","","","",""
"","","","","","canvas-keyboard-response","227","375112","0.0-12.0-0.43","2d_cat_multi_stim_exp1","2022-4-15","14:3:2","25","75","3","9","10","40","30","120","40","19","[""Prefer not to say""]","No","Female","1841644","null","null","","","","fixation","","","","","","","","","","","","","","","","","","","","","","","","","",""
"","","","","","canvas-keyboard-response","228","375621","0.0-12.0-1.43","2d_cat_multi_stim_exp1","2022-4-15","14:3:2","25","75","3","9","10","40","30","120","40","19","[""Prefer not to say""]","No","Female","1841644","null","null","","","","clear_screen","","","","","","","","","","","","","","","","","","","","","","","","","",""
"","","","","","canvas-keyboard-response","229","376666","0.0-12.0-2.43","2d_cat_multi_stim_exp1","2022-4-15","14:3:2","25","75","3","9","10","40","30","120","40","19","[""Prefer not to say""]","No","Female","1841644","1035","i","learn","","","learn_trial","13.3333","110","out","0","1","","","","","","","","","","","","","","","","","","","","",""
"","","","","","canvas-keyboard-response","230","377175","0.0-12.0-3.43","2d_cat_multi_stim_exp1","2022-4-15","14:3:2","25","75","3","9","10","40","30","120","40","19","[""Prefer not to say""]","No","Female","1841644","null","null","learn_feedback","","","learn_feedback","13.3333","110","out","","","","","","","","","","","","","","","","","","","","","","",""
"","","","","","canvas-keyboard-response","231","377232","0.0-12.0-4.43","2d_cat_multi_stim_exp1","2022-4-15","14:3:2","25","75","3","9","10","40","30","120","40","19","[""Prefer not to say""]","No","Female","1841644","null","null","","","","clear_screen","","","","","","","","","","","","","","","","","","","","","","","","","",""
"","","","","","canvas-keyboard-response","232","377741","0.0-12.0-0.44","2d_cat_multi_stim_exp1","2022-4-15","14:3:2","25","75","3","9","10","40","30","120","40","19","[""Prefer not to say""]","No","Female","1841644","null","null","","","","fixation","","","","","","","","","","","","","","","","","","","","","","","","","",""
"","","","","","canvas-keyboard-response","233","378250","0.0-12.0-1.44","2d_cat_multi_stim_exp1","2022-4-15","14:3:2","25","75","3","9","10","40","30","120","40","19","[""Prefer not to say""]","No","Female","1841644","null","null","","","","clear_screen","","","","","","","","","","","","","","","","","","","","","","","","","",""
"","","","","","canvas-keyboard-response","234","379168","0.0-12.0-2.44","2d_cat_multi_stim_exp1","2022-4-15","14:3:2","25","75","3","9","10","40","30","120","40","19","[""Prefer not to say""]","No","Female","1841644","910","u","learn","","","learn_trial","25.9271","66.4405","in","1","1","","","","","","","","","","","","","","","","","","","","",""
"","","","","","canvas-keyboard-response","235","379677","0.0-12.0-3.44","2d_cat_multi_stim_exp1","2022-4-15","14:3:2","25","75","3","9","10","40","30","120","40","19","[""Prefer not to say""]","No","Female","1841644","null","null","learn_feedback","","","learn_feedback","25.9271","66.4405","in","","","","","","","","","","","","","","","","","","","","","","",""
"","","","","","canvas-keyboard-response","236","379736","0.0-12.0-4.44","2d_cat_multi_stim_exp1","2022-4-15","14:3:2","25","75","3","9","10","40","30","120","40","19","[""Prefer not to say""]","No","Female","1841644","null","null","","","","clear_screen","","","","","","","","","","","","","","","","","","","","","","","","","",""
"","","","","","canvas-keyboard-response","237","380244","0.0-12.0-0.45","2d_cat_multi_stim_exp1","2022-4-15","14:3:2","25","75","3","9","10","40","30","120","40","19","[""Prefer not to say""]","No","Female","1841644","null","null","","","","fixation","","","","","","","","","","","","","","","","","","","","","","","","","",""
"","","","","","canvas-keyboard-response","238","380752","0.0-12.0-1.45","2d_cat_multi_stim_exp1","2022-4-15","14:3:2","25","75","3","9","10","40","30","120","40","19","[""Prefer not to say""]","No","Female","1841644","null","null","","","","clear_screen","","","","","","","","","","","","","","","","","","","","","","","","","",""
"","","","","","canvas-keyboard-response","239","381401","0.0-12.0-2.45","2d_cat_multi_stim_exp1","2022-4-15","14:3:2","25","75","3","9","10","40","30","120","40","19","[""Prefer not to say""]","No","Female","1841644","639","u","learn","","","learn_trial","25","75","in","1","1","","","","","","","","","","","","","","","","","","","","",""
"","","","","","canvas-keyboard-response","240","381910","0.0-12.0-3.45","2d_cat_multi_stim_exp1","2022-4-15","14:3:2","25","75","3","9","10","40","30","120","40","19","[""Prefer not to say""]","No","Female","1841644","null","null","learn_feedback","","","learn_feedback","25","75","in","","","","","","","","","","","","","","","","","","","","","","",""
"","","","","","canvas-keyboard-response","241","381968","0.0-12.0-4.45","2d_cat_multi_stim_exp1","2022-4-15","14:3:2","25","75","3","9","10","40","30","120","40","19","[""Prefer not to say""]","No","Female","1841644","null","null","","","","clear_screen","","","","","","","","","","","","","","","","","","","","","","","","","",""
"","","","","","canvas-keyboard-response","242","382476","0.0-12.0-0.46","2d_cat_multi_stim_exp1","2022-4-15","14:3:2","25","75","3","9","10","40","30","120","40","19","[""Prefer not to say""]","No","Female","1841644","null","null","","","","fixation","","","","","","","","","","","","","","","","","","","","","","","","","",""
"","","","","","canvas-keyboard-response","243","382985","0.0-12.0-1.46","2d_cat_multi_stim_exp1","2022-4-15","14:3:2","25","75","3","9","10","40","30","120","40","19","[""Prefer not to say""]","No","Female","1841644","null","null","","","","clear_screen","","","","","","","","","","","","","","","","","","","","","","","","","",""
"","","","","","canvas-keyboard-response","244","384048","0.0-12.0-2.46","2d_cat_multi_stim_exp1","2022-4-15","14:3:2","25","75","3","9","10","40","30","120","40","19","[""Prefer not to say""]","No","Female","1841644","1054","i","learn","","","learn_trial","36.6667","90","out","0","1","","","","","","","","","","","","","","","","","","","","",""
"","","","","","canvas-keyboard-response","245","384557","0.0-12.0-3.46","2d_cat_multi_stim_exp1","2022-4-15","14:3:2","25","75","3","9","10","40","30","120","40","19","[""Prefer not to say""]","No","Female","1841644","null","null","learn_feedback","","","learn_feedback","36.6667","90","out","","","","","","","","","","","","","","","","","","","","","","",""
"","","","","","canvas-keyboard-response","246","384616","0.0-12.0-4.46","2d_cat_multi_stim_exp1","2022-4-15","14:3:2","25","75","3","9","10","40","30","120","40","19","[""Prefer not to say""]","No","Female","1841644","null","null","","","","clear_screen","","","","","","","","","","","","","","","","","","","","","","","","","",""
"","","","","","canvas-keyboard-response","247","385127","0.0-12.0-0.47","2d_cat_multi_stim_exp1","2022-4-15","14:3:2","25","75","3","9","10","40","30","120","40","19","[""Prefer not to say""]","No","Female","1841644","null","null","","","","fixation","","","","","","","","","","","","","","","","","","","","","","","","","",""
"","","","","","canvas-keyboard-response","248","385635","0.0-12.0-1.47","2d_cat_multi_stim_exp1","2022-4-15","14:3:2","25","75","3","9","10","40","30","120","40","19","[""Prefer not to say""]","No","Female","1841644","null","null","","","","clear_screen","","","","","","","","","","","","","","","","","","","","","","","","","",""
"","","","","","canvas-keyboard-response","249","387000","0.0-12.0-2.47","2d_cat_multi_stim_exp1","2022-4-15","14:3:2","25","75","3","9","10","40","30","120","40","19","[""Prefer not to say""]","No","Female","1841644","1358","i","learn","","","learn_trial","22.2971","71.095","in","0","0","","","","","","","","","","","","","","","","","","","","",""
"","","","","","canvas-keyboard-response","250","388010","0.0-12.0-3.47","2d_cat_multi_stim_exp1","2022-4-15","14:3:2","25","75","3","9","10","40","30","120","40","19","[""Prefer not to say""]","No","Female","1841644","null","null","learn_feedback","","","learn_feedback","22.2971","71.095","in","","","","","","","","","","","","","","","","","","","","","","",""
"","","","","","canvas-keyboard-response","251","388069","0.0-12.0-4.47","2d_cat_multi_stim_exp1","2022-4-15","14:3:2","25","75","3","9","10","40","30","120","40","19","[""Prefer not to say""]","No","Female","1841644","null","null","","","","clear_screen","","","","","","","","","","","","","","","","","","","","","","","","","",""
"","","","","","canvas-keyboard-response","252","388577","0.0-12.0-0.48","2d_cat_multi_stim_exp1","2022-4-15","14:3:2","25","75","3","9","10","40","30","120","40","19","[""Prefer not to say""]","No","Female","1841644","null","null","","","","fixation","","","","","","","","","","","","","","","","","","","","","","","","","",""
"","","","","","canvas-keyboard-response","253","389086","0.0-12.0-1.48","2d_cat_multi_stim_exp1","2022-4-15","14:3:2","25","75","3","9","10","40","30","120","40","19","[""Prefer not to say""]","No","Female","1841644","null","null","","","","clear_screen","","","","","","","","","","","","","","","","","","","","","","","","","",""
"","","","","","canvas-keyboard-response","254","390297","0.0-12.0-2.48","2d_cat_multi_stim_exp1","2022-4-15","14:3:2","25","75","3","9","10","40","30","120","40","19","[""Prefer not to say""]","No","Female","1841644","1201","u","learn","","","learn_trial","25","75","in","1","1","","","","","","","","","","","","","","","","","","","","",""
"","","","","","canvas-keyboard-response","255","390806","0.0-12.0-3.48","2d_cat_multi_stim_exp1","2022-4-15","14:3:2","25","75","3","9","10","40","30","120","40","19","[""Prefer not to say""]","No","Female","1841644","null","null","learn_feedback","","","learn_feedback","25","75","in","","","","","","","","","","","","","","","","","","","","","","",""
"","","","","","canvas-keyboard-response","256","390863","0.0-12.0-4.48","2d_cat_multi_stim_exp1","2022-4-15","14:3:2","25","75","3","9","10","40","30","120","40","19","[""Prefer not to say""]","No","Female","1841644","null","null","","","","clear_screen","","","","","","","","","","","","","","","","","","","","","","","","","",""
"","","","","","canvas-keyboard-response","257","391373","0.0-12.0-0.49","2d_cat_multi_stim_exp1","2022-4-15","14:3:2","25","75","3","9","10","40","30","120","40","19","[""Prefer not to say""]","No","Female","1841644","null","null","","","","fixation","","","","","","","","","","","","","","","","","","","","","","","","","",""
"","","","","","canvas-keyboard-response","258","391885","0.0-12.0-1.49","2d_cat_multi_stim_exp1","2022-4-15","14:3:2","25","75","3","9","10","40","30","120","40","19","[""Prefer not to say""]","No","Female","1841644","null","null","","","","clear_screen","","","","","","","","","","","","","","","","","","","","","","","","","",""
"","","","","","canvas-keyboard-response","259","392840","0.0-12.0-2.49","2d_cat_multi_stim_exp1","2022-4-15","14:3:2","25","75","3","9","10","40","30","120","40","19","[""Prefer not to say""]","No","Female","1841644","944","i","learn","","","learn_trial","13.3333","80","out","0","1","","","","","","","","","","","","","","","","","","","","",""
"","","","","","canvas-keyboard-response","260","393351","0.0-12.0-3.49","2d_cat_multi_stim_exp1","2022-4-15","14:3:2","25","75","3","9","10","40","30","120","40","19","[""Prefer not to say""]","No","Female","1841644","null","null","learn_feedback","","","learn_feedback","13.3333","80","out","","","","","","","","","","","","","","","","","","","","","","",""
"","","","","","canvas-keyboard-response","261","393411","0.0-12.0-4.49","2d_cat_multi_stim_exp1","2022-4-15","14:3:2","25","75","3","9","10","40","30","120","40","19","[""Prefer not to say""]","No","Female","1841644","null","null","","","","clear_screen","","","","","","","","","","","","","","","","","","","","","","","","","",""
"","","","","","canvas-keyboard-response","262","393920","0.0-12.0-0.50","2d_cat_multi_stim_exp1","2022-4-15","14:3:2","25","75","3","9","10","40","30","120","40","19","[""Prefer not to say""]","No","Female","1841644","null","null","","","","fixation","","","","","","","","","","","","","","","","","","","","","","","","","",""
"","","","","","canvas-keyboard-response","263","394428","0.0-12.0-1.50","2d_cat_multi_stim_exp1","2022-4-15","14:3:2","25","75","3","9","10","40","30","120","40","19","[""Prefer not to say""]","No","Female","1841644","null","null","","","","clear_screen","","","","","","","","","","","","","","","","","","","","","","","","","",""
"","","","","","canvas-keyboard-response","264","395776","0.0-12.0-2.50","2d_cat_multi_stim_exp1","2022-4-15","14:3:2","25","75","3","9","10","40","30","120","40","19","[""Prefer not to say""]","No","Female","1841644","1338","i","learn","","","learn_trial","10","100","out","0","1","","","","","","","","","","","","","","","","","","","","",""
"","","","","","canvas-keyboard-response","265","396286","0.0-12.0-3.50","2d_cat_multi_stim_exp1","2022-4-15","14:3:2","25","75","3","9","10","40","30","120","40","19","[""Prefer not to say""]","No","Female","1841644","null","null","learn_feedback","","","learn_feedback","10","100","out","","","","","","","","","","","","","","","","","","","","","","",""
"","","","","","canvas-keyboard-response","266","396345","0.0-12.0-4.50","2d_cat_multi_stim_exp1","2022-4-15","14:3:2","25","75","3","9","10","40","30","120","40","19","[""Prefer not to say""]","No","Female","1841644","null","null","","","","clear_screen","","","","","","","","","","","","","","","","","","","","","","","","","",""
"","","","","","canvas-keyboard-response","267","396853","0.0-12.0-0.51","2d_cat_multi_stim_exp1","2022-4-15","14:3:2","25","75","3","9","10","40","30","120","40","19","[""Prefer not to say""]","No","Female","1841644","null","null","","","","fixation","","","","","","","","","","","","","","","","","","","","","","","","","",""
"","","","","","canvas-keyboard-response","268","397363","0.0-12.0-1.51","2d_cat_multi_stim_exp1","2022-4-15","14:3:2","25","75","3","9","10","40","30","120","40","19","[""Prefer not to say""]","No","Female","1841644","null","null","","","","clear_screen","","","","","","","","","","","","","","","","","","","","","","","","","",""
"","","","","","canvas-keyboard-response","269","398728","0.0-12.0-2.51","2d_cat_multi_stim_exp1","2022-4-15","14:3:2","25","75","3","9","10","40","30","120","40","19","[""Prefer not to say""]","No","Female","1841644","1356","i","learn","","","learn_trial","16.6667","110","out","0","1","","","","","","","","","","","","","","","","","","","","",""
"","","","","","canvas-keyboard-response","270","399238","0.0-12.0-3.51","2d_cat_multi_stim_exp1","2022-4-15","14:3:2","25","75","3","9","10","40","30","120","40","19","[""Prefer not to say""]","No","Female","1841644","null","null","learn_feedback","","","learn_feedback","16.6667","110","out","","","","","","","","","","","","","","","","","","","","","","",""
"","","","","","canvas-keyboard-response","271","399296","0.0-12.0-4.51","2d_cat_multi_stim_exp1","2022-4-15","14:3:2","25","75","3","9","10","40","30","120","40","19","[""Prefer not to say""]","No","Female","1841644","null","null","","","","clear_screen","","","","","","","","","","","","","","","","","","","","","","","","","",""
"","","","","","canvas-keyboard-response","272","399804","0.0-12.0-0.52","2d_cat_multi_stim_exp1","2022-4-15","14:3:2","25","75","3","9","10","40","30","120","40","19","[""Prefer not to say""]","No","Female","1841644","null","null","","","","fixation","","","","","","","","","","","","","","","","","","","","","","","","","",""
"","","","","","canvas-keyboard-response","273","400313","0.0-12.0-1.52","2d_cat_multi_stim_exp1","2022-4-15","14:3:2","25","75","3","9","10","40","30","120","40","19","[""Prefer not to say""]","No","Female","1841644","null","null","","","","clear_screen","","","","","","","","","","","","","","","","","","","","","","","","","",""
"","","","","","canvas-keyboard-response","274","401368","0.0-12.0-2.52","2d_cat_multi_stim_exp1","2022-4-15","14:3:2","25","75","3","9","10","40","30","120","40","19","[""Prefer not to say""]","No","Female","1841644","1042","i","learn","","","learn_trial","10","90","out","0","1","","","","","","","","","","","","","","","","","","","","",""
"","","","","","canvas-keyboard-response","275","401877","0.0-12.0-3.52","2d_cat_multi_stim_exp1","2022-4-15","14:3:2","25","75","3","9","10","40","30","120","40","19","[""Prefer not to say""]","No","Female","1841644","null","null","learn_feedback","","","learn_feedback","10","90","out","","","","","","","","","","","","","","","","","","","","","","",""
"","","","","","canvas-keyboard-response","276","401936","0.0-12.0-4.52","2d_cat_multi_stim_exp1","2022-4-15","14:3:2","25","75","3","9","10","40","30","120","40","19","[""Prefer not to say""]","No","Female","1841644","null","null","","","","clear_screen","","","","","","","","","","","","","","","","","","","","","","","","","",""
"","","","","","canvas-keyboard-response","277","402444","0.0-12.0-0.53","2d_cat_multi_stim_exp1","2022-4-15","14:3:2","25","75","3","9","10","40","30","120","40","19","[""Prefer not to say""]","No","Female","1841644","null","null","","","","fixation","","","","","","","","","","","","","","","","","","","","","","","","","",""
"","","","","","canvas-keyboard-response","278","402953","0.0-12.0-1.53","2d_cat_multi_stim_exp1","2022-4-15","14:3:2","25","75","3","9","10","40","30","120","40","19","[""Prefer not to say""]","No","Female","1841644","null","null","","","","clear_screen","","","","","","","","","","","","","","","","","","","","","","","","","",""
"","","","","","canvas-keyboard-response","279","403713","0.0-12.0-2.53","2d_cat_multi_stim_exp1","2022-4-15","14:3:2","25","75","3","9","10","40","30","120","40","19","[""Prefer not to say""]","No","Female","1841644","750","u","learn","","","learn_trial","25","75","in","1","1","","","","","","","","","","","","","","","","","","","","",""
"","","","","","canvas-keyboard-response","280","404222","0.0-12.0-3.53","2d_cat_multi_stim_exp1","2022-4-15","14:3:2","25","75","3","9","10","40","30","120","40","19","[""Prefer not to say""]","No","Female","1841644","null","null","learn_feedback","","","learn_feedback","25","75","in","","","","","","","","","","","","","","","","","","","","","","",""
"","","","","","canvas-keyboard-response","281","404280","0.0-12.0-4.53","2d_cat_multi_stim_exp1","2022-4-15","14:3:2","25","75","3","9","10","40","30","120","40","19","[""Prefer not to say""]","No","Female","1841644","null","null","","","","clear_screen","","","","","","","","","","","","","","","","","","","","","","","","","",""
"","","","","","canvas-keyboard-response","282","404788","0.0-12.0-0.54","2d_cat_multi_stim_exp1","2022-4-15","14:3:2","25","75","3","9","10","40","30","120","40","19","[""Prefer not to say""]","No","Female","1841644","null","null","","","","fixation","","","","","","","","","","","","","","","","","","","","","","","","","",""
"","","","","","canvas-keyboard-response","283","405296","0.0-12.0-1.54","2d_cat_multi_stim_exp1","2022-4-15","14:3:2","25","75","3","9","10","40","30","120","40","19","[""Prefer not to say""]","No","Female","1841644","null","null","","","","clear_screen","","","","","","","","","","","","","","","","","","","","","","","","","",""
"","","","","","canvas-keyboard-response","284","406304","0.0-12.0-2.54","2d_cat_multi_stim_exp1","2022-4-15","14:3:2","25","75","3","9","10","40","30","120","40","19","[""Prefer not to say""]","No","Female","1841644","999","i","learn","","","learn_trial","10","30","out","0","1","","","","","","","","","","","","","","","","","","","","",""
"","","","","","canvas-keyboard-response","285","406814","0.0-12.0-3.54","2d_cat_multi_stim_exp1","2022-4-15","14:3:2","25","75","3","9","10","40","30","120","40","19","[""Prefer not to say""]","No","Female","1841644","null","null","learn_feedback","","","learn_feedback","10","30","out","","","","","","","","","","","","","","","","","","","","","","",""
"","","","","","canvas-keyboard-response","286","406871","0.0-12.0-4.54","2d_cat_multi_stim_exp1","2022-4-15","14:3:2","25","75","3","9","10","40","30","120","40","19","[""Prefer not to say""]","No","Female","1841644","null","null","","","","clear_screen","","","","","","","","","","","","","","","","","","","","","","","","","",""
"","","","","","canvas-keyboard-response","287","407380","0.0-12.0-0.55","2d_cat_multi_stim_exp1","2022-4-15","14:3:2","25","75","3","9","10","40","30","120","40","19","[""Prefer not to say""]","No","Female","1841644","null","null","","","","fixation","","","","","","","","","","","","","","","","","","","","","","","","","",""
