"success","timeout","failed_images","failed_audio","failed_video","trial_type","trial_index","time_elapsed","internal_node_id","exp_name","date","time","angle_mean_in","radius_mean_in","angle_sd_in","radius_sd_in","angle_min_out","angle_max_out","radius_min_out","radius_max_out","sub_n","age","race","ethnicity","gender","exp_duration","rt","response","exp_trial_type","stimulus","view_history","screen_id","angle","radius","distribution","choice","correct","order","angle_a","radius_a","angle_b","radius_b","angle_c","radius_c","jkl_correct","transfer_trial_type","choice_set","abc_correct","tc_correct","tc_angle","tdc_a","tdc_b","tdc_c","pair","category_a","category_b","category_c","question_order"
"true","false","[]","[]","[]","preload","0","64","0.0-0.0","2d_cat_multi_stim_exp1","2022-4-26","15:1:38","25","75","3","9","10","40","30","120","60","20","[""White""]","No","Female","2410265","","","","","","","","","","","","","","","","","","","","","","","","","","","","","","","",""
"","","","","","survey-html-form","1","1752","0.0-1.0","2d_cat_multi_stim_exp1","2022-4-26","15:1:38","25","75","3","9","10","40","30","120","60","20","[""White""]","No","Female","2410265","1669","{""response"":""60""}","enter-sub-number","","","","","","","","","","","","","","","","","","","","","","","","","","","","",""
"true","","","","","fullscreen","2","3454","0.0-2.0","2d_cat_multi_stim_exp1","2022-4-26","15:1:38","25","75","3","9","10","40","30","120","60","20","[""White""]","No","Female","2410265","","","","","","","","","","","","","","","","","","","","","","","","","","","","","","","",""
"","","","","","image-button-response","3","587505","0.0-3.0","2d_cat_multi_stim_exp1","2022-4-26","15:1:38","25","75","3","9","10","40","30","120","60","20","[""White""]","No","Female","2410265","584043","0","","consent.png","","","","","","","","","","","","","","","","","","","","","","","","","","","",""
"","","","","","html-button-response","4","589392","0.0-4.0","2d_cat_multi_stim_exp1","2022-4-26","15:1:38","25","75","3","9","10","40","30","120","60","20","[""White""]","No","Female","2410265","1883","0","","<div style= ""font-size:25px;"" <p> <strong> Welcome to the experiment! </strong><br> <p style=""color:#8B0000; font-size:25px;""><strong> Please do NOT exit full screen until you are done with the experiment. </strong> </p><p style=""font-size:25px;color:#8B0000;""> <strong> The experiment will be canceled and your data will be lost <br> if you try to go back or refresh the page at any point during the experiment.</strong> </p><br><p> <strong> Thanks in advance for your contribution to our research! </strong></p>","","","","","","","","","","","","","","","","","","","","","","","","","","","",""
"","","","","","instructions","5","637168","0.0-5.0","2d_cat_multi_stim_exp1","2022-4-26","15:1:38","25","75","3","9","10","40","30","120","60","20","[""White""]","No","Female","2410265","47772","","","","[{""page_index"":0,""viewing_time"":4373},{""page_index"":1,""viewing_time"":3398},{""page_index"":2,""viewing_time"":10513},{""page_index"":3,""viewing_time"":8096},{""page_index"":2,""viewing_time"":1136},{""page_index"":1,""viewing_time"":2015},{""page_index"":0,""viewing_time"":2953},{""page_index"":1,""viewing_time"":1528},{""page_index"":2,""viewing_time"":5000},{""page_index"":3,""viewing_time"":8760}]","instructions_1","","","","","","","","","","","","","","","","","","","","","","","","","",""
"","","","","","instructions","6","639720","0.0-6.0","2d_cat_multi_stim_exp1","2022-4-26","15:1:38","25","75","3","9","10","40","30","120","60","20","[""White""]","No","Female","2410265","2549","","","","[{""page_index"":0,""viewing_time"":2549}]","Click to see the kinds of turtles that will appear in the study.","","","","","","","","","","","","","","","","","","","","","","","","","",""
"","","","","","canvas-keyboard-response","7","654742","0.0-7.0","2d_cat_multi_stim_exp1","2022-4-26","15:1:38","25","75","3","9","10","40","30","120","60","20","[""White""]","No","Female","2410265","null","null","","","","demo_range","","","","","","","","","","","","","","","","","","","","","","","","","",""
"","","","","","instructions","8","656856","0.0-8.0","2d_cat_multi_stim_exp1","2022-4-26","15:1:38","25","75","3","9","10","40","30","120","60","20","[""White""]","No","Female","2410265","1614","","","","[{""page_index"":0,""viewing_time"":1614}]","Click to see some turtles in the subspecies.","","","","","","","","","","","","","","","","","","","","","","","","","",""
"","","","","","canvas-keyboard-response","9","671878","0.0-9.0","2d_cat_multi_stim_exp1","2022-4-26","15:1:38","25","75","3","9","10","40","30","120","60","20","[""White""]","No","Female","2410265","null","null","","","","demo_in","","","","","","","","","","","","","","","","","","","","","","","","","",""
"","","","","","instructions","10","700296","0.0-10.0","2d_cat_multi_stim_exp1","2022-4-26","15:1:38","25","75","3","9","10","40","30","120","60","20","[""White""]","No","Female","2410265","27916","","","","[{""page_index"":0,""viewing_time"":5133},{""page_index"":1,""viewing_time"":14720},{""page_index"":2,""viewing_time"":8063}]","instructions_2","","","","","","","","","","","","","","","","","","","","","","","","","",""
"","","","","","instructions","11","701583","0.0-11.0","2d_cat_multi_stim_exp1","2022-4-26","15:1:38","25","75","3","9","10","40","30","120","60","20","[""White""]","No","Female","2410265","1285","","","","[{""page_index"":0,""viewing_time"":1285}]","Click to begin the first phase of the experiment.","","","","","","","","","","","","","","","","","","","","","","","","","",""
"","","","","","canvas-keyboard-response","12","702094","0.0-12.0-0.0","2d_cat_multi_stim_exp1","2022-4-26","15:1:38","25","75","3","9","10","40","30","120","60","20","[""White""]","No","Female","2410265","null","null","","","","fixation","","","","","","","","","","","","","","","","","","","","","","","","","",""
"","","","","","canvas-keyboard-response","13","702605","0.0-12.0-1.0","2d_cat_multi_stim_exp1","2022-4-26","15:1:38","25","75","3","9","10","40","30","120","60","20","[""White""]","No","Female","2410265","null","null","","","","clear_screen","","","","","","","","","","","","","","","","","","","","","","","","","",""
"","","","","","canvas-keyboard-response","14","705149","0.0-12.0-2.0","2d_cat_multi_stim_exp1","2022-4-26","15:1:38","25","75","3","9","10","40","30","120","60","20","[""White""]","No","Female","2410265","2534","u","learn","","","learn_trial","30","40","out","1","0","","","","","","","","","","","","","","","","","","","","",""
"","","","","","canvas-keyboard-response","15","706164","0.0-12.0-3.0","2d_cat_multi_stim_exp1","2022-4-26","15:1:38","25","75","3","9","10","40","30","120","60","20","[""White""]","No","Female","2410265","null","null","learn_feedback","","","learn_feedback","30","40","out","","","","","","","","","","","","","","","","","","","","","","",""
"","","","","","canvas-keyboard-response","16","706224","0.0-12.0-4.0","2d_cat_multi_stim_exp1","2022-4-26","15:1:38","25","75","3","9","10","40","30","120","60","20","[""White""]","No","Female","2410265","null","null","","","","clear_screen","","","","","","","","","","","","","","","","","","","","","","","","","",""
"","","","","","canvas-keyboard-response","17","706733","0.0-12.0-0.1","2d_cat_multi_stim_exp1","2022-4-26","15:1:38","25","75","3","9","10","40","30","120","60","20","[""White""]","No","Female","2410265","null","null","","","","fixation","","","","","","","","","","","","","","","","","","","","","","","","","",""
"","","","","","canvas-keyboard-response","18","707243","0.0-12.0-1.1","2d_cat_multi_stim_exp1","2022-4-26","15:1:38","25","75","3","9","10","40","30","120","60","20","[""White""]","No","Female","2410265","null","null","","","","clear_screen","","","","","","","","","","","","","","","","","","","","","","","","","",""
"","","","","","canvas-keyboard-response","19","711806","0.0-12.0-2.1","2d_cat_multi_stim_exp1","2022-4-26","15:1:38","25","75","3","9","10","40","30","120","60","20","[""White""]","No","Female","2410265","4553","i","learn","","","learn_trial","33.3333","120","out","0","1","","","","","","","","","","","","","","","","","","","","",""
"","","","","","canvas-keyboard-response","20","712316","0.0-12.0-3.1","2d_cat_multi_stim_exp1","2022-4-26","15:1:38","25","75","3","9","10","40","30","120","60","20","[""White""]","No","Female","2410265","null","null","learn_feedback","","","learn_feedback","33.3333","120","out","","","","","","","","","","","","","","","","","","","","","","",""
"","","","","","canvas-keyboard-response","21","712375","0.0-12.0-4.1","2d_cat_multi_stim_exp1","2022-4-26","15:1:38","25","75","3","9","10","40","30","120","60","20","[""White""]","No","Female","2410265","null","null","","","","clear_screen","","","","","","","","","","","","","","","","","","","","","","","","","",""
"","","","","","canvas-keyboard-response","22","712885","0.0-12.0-0.2","2d_cat_multi_stim_exp1","2022-4-26","15:1:38","25","75","3","9","10","40","30","120","60","20","[""White""]","No","Female","2410265","null","null","","","","fixation","","","","","","","","","","","","","","","","","","","","","","","","","",""
"","","","","","canvas-keyboard-response","23","713395","0.0-12.0-1.2","2d_cat_multi_stim_exp1","2022-4-26","15:1:38","25","75","3","9","10","40","30","120","60","20","[""White""]","No","Female","2410265","null","null","","","","clear_screen","","","","","","","","","","","","","","","","","","","","","","","","","",""
"","","","","","canvas-keyboard-response","24","714205","0.0-12.0-2.2","2d_cat_multi_stim_exp1","2022-4-26","15:1:38","25","75","3","9","10","40","30","120","60","20","[""White""]","No","Female","2410265","801","u","learn","","","learn_trial","25","75","in","1","1","","","","","","","","","","","","","","","","","","","","",""
"","","","","","canvas-keyboard-response","25","714717","0.0-12.0-3.2","2d_cat_multi_stim_exp1","2022-4-26","15:1:38","25","75","3","9","10","40","30","120","60","20","[""White""]","No","Female","2410265","null","null","learn_feedback","","","learn_feedback","25","75","in","","","","","","","","","","","","","","","","","","","","","","",""
"","","","","","canvas-keyboard-response","26","714775","0.0-12.0-4.2","2d_cat_multi_stim_exp1","2022-4-26","15:1:38","25","75","3","9","10","40","30","120","60","20","[""White""]","No","Female","2410265","null","null","","","","clear_screen","","","","","","","","","","","","","","","","","","","","","","","","","",""
"","","","","","canvas-keyboard-response","27","715285","0.0-12.0-0.3","2d_cat_multi_stim_exp1","2022-4-26","15:1:38","25","75","3","9","10","40","30","120","60","20","[""White""]","No","Female","2410265","null","null","","","","fixation","","","","","","","","","","","","","","","","","","","","","","","","","",""
"","","","","","canvas-keyboard-response","28","715793","0.0-12.0-1.3","2d_cat_multi_stim_exp1","2022-4-26","15:1:38","25","75","3","9","10","40","30","120","60","20","[""White""]","No","Female","2410265","null","null","","","","clear_screen","","","","","","","","","","","","","","","","","","","","","","","","","",""
"","","","","","canvas-keyboard-response","29","717037","0.0-12.0-2.3","2d_cat_multi_stim_exp1","2022-4-26","15:1:38","25","75","3","9","10","40","30","120","60","20","[""White""]","No","Female","2410265","1231","u","learn","","","learn_trial","40","90","out","1","0","","","","","","","","","","","","","","","","","","","","",""
"","","","","","canvas-keyboard-response","30","718046","0.0-12.0-3.3","2d_cat_multi_stim_exp1","2022-4-26","15:1:38","25","75","3","9","10","40","30","120","60","20","[""White""]","No","Female","2410265","null","null","learn_feedback","","","learn_feedback","40","90","out","","","","","","","","","","","","","","","","","","","","","","",""
"","","","","","canvas-keyboard-response","31","718105","0.0-12.0-4.3","2d_cat_multi_stim_exp1","2022-4-26","15:1:38","25","75","3","9","10","40","30","120","60","20","[""White""]","No","Female","2410265","null","null","","","","clear_screen","","","","","","","","","","","","","","","","","","","","","","","","","",""
"","","","","","canvas-keyboard-response","32","718615","0.0-12.0-0.4","2d_cat_multi_stim_exp1","2022-4-26","15:1:38","25","75","3","9","10","40","30","120","60","20","[""White""]","No","Female","2410265","null","null","","","","fixation","","","","","","","","","","","","","","","","","","","","","","","","","",""
"","","","","","canvas-keyboard-response","33","719124","0.0-12.0-1.4","2d_cat_multi_stim_exp1","2022-4-26","15:1:38","25","75","3","9","10","40","30","120","60","20","[""White""]","No","Female","2410265","null","null","","","","clear_screen","","","","","","","","","","","","","","","","","","","","","","","","","",""
"","","","","","canvas-keyboard-response","34","720701","0.0-12.0-2.4","2d_cat_multi_stim_exp1","2022-4-26","15:1:38","25","75","3","9","10","40","30","120","60","20","[""White""]","No","Female","2410265","1568","u","learn","","","learn_trial","26.6667","60","out","1","0","","","","","","","","","","","","","","","","","","","","",""
"","","","","","canvas-keyboard-response","35","721711","0.0-12.0-3.4","2d_cat_multi_stim_exp1","2022-4-26","15:1:38","25","75","3","9","10","40","30","120","60","20","[""White""]","No","Female","2410265","null","null","learn_feedback","","","learn_feedback","26.6667","60","out","","","","","","","","","","","","","","","","","","","","","","",""
"","","","","","canvas-keyboard-response","36","721770","0.0-12.0-4.4","2d_cat_multi_stim_exp1","2022-4-26","15:1:38","25","75","3","9","10","40","30","120","60","20","[""White""]","No","Female","2410265","null","null","","","","clear_screen","","","","","","","","","","","","","","","","","","","","","","","","","",""
"","","","","","canvas-keyboard-response","37","722279","0.0-12.0-0.5","2d_cat_multi_stim_exp1","2022-4-26","15:1:38","25","75","3","9","10","40","30","120","60","20","[""White""]","No","Female","2410265","null","null","","","","fixation","","","","","","","","","","","","","","","","","","","","","","","","","",""
"","","","","","canvas-keyboard-response","38","722788","0.0-12.0-1.5","2d_cat_multi_stim_exp1","2022-4-26","15:1:38","25","75","3","9","10","40","30","120","60","20","[""White""]","No","Female","2410265","null","null","","","","clear_screen","","","","","","","","","","","","","","","","","","","","","","","","","",""
"","","","","","canvas-keyboard-response","39","724341","0.0-12.0-2.5","2d_cat_multi_stim_exp1","2022-4-26","15:1:38","25","75","3","9","10","40","30","120","60","20","[""White""]","No","Female","2410265","1544","i","learn","","","learn_trial","13.3333","90","out","0","1","","","","","","","","","","","","","","","","","","","","",""
"","","","","","canvas-keyboard-response","40","724851","0.0-12.0-3.5","2d_cat_multi_stim_exp1","2022-4-26","15:1:38","25","75","3","9","10","40","30","120","60","20","[""White""]","No","Female","2410265","null","null","learn_feedback","","","learn_feedback","13.3333","90","out","","","","","","","","","","","","","","","","","","","","","","",""
"","","","","","canvas-keyboard-response","41","724910","0.0-12.0-4.5","2d_cat_multi_stim_exp1","2022-4-26","15:1:38","25","75","3","9","10","40","30","120","60","20","[""White""]","No","Female","2410265","null","null","","","","clear_screen","","","","","","","","","","","","","","","","","","","","","","","","","",""
"","","","","","canvas-keyboard-response","42","725419","0.0-12.0-0.6","2d_cat_multi_stim_exp1","2022-4-26","15:1:38","25","75","3","9","10","40","30","120","60","20","[""White""]","No","Female","2410265","null","null","","","","fixation","","","","","","","","","","","","","","","","","","","","","","","","","",""
"","","","","","canvas-keyboard-response","43","725928","0.0-12.0-1.6","2d_cat_multi_stim_exp1","2022-4-26","15:1:38","25","75","3","9","10","40","30","120","60","20","[""White""]","No","Female","2410265","null","null","","","","clear_screen","","","","","","","","","","","","","","","","","","","","","","","","","",""
"","","","","","canvas-keyboard-response","44","727141","0.0-12.0-2.6","2d_cat_multi_stim_exp1","2022-4-26","15:1:38","25","75","3","9","10","40","30","120","60","20","[""White""]","No","Female","2410265","1201","u","learn","","","learn_trial","25","75","in","1","1","","","","","","","","","","","","","","","","","","","","",""
"","","","","","canvas-keyboard-response","45","727651","0.0-12.0-3.6","2d_cat_multi_stim_exp1","2022-4-26","15:1:38","25","75","3","9","10","40","30","120","60","20","[""White""]","No","Female","2410265","null","null","learn_feedback","","","learn_feedback","25","75","in","","","","","","","","","","","","","","","","","","","","","","",""
"","","","","","canvas-keyboard-response","46","727710","0.0-12.0-4.6","2d_cat_multi_stim_exp1","2022-4-26","15:1:38","25","75","3","9","10","40","30","120","60","20","[""White""]","No","Female","2410265","null","null","","","","clear_screen","","","","","","","","","","","","","","","","","","","","","","","","","",""
"","","","","","canvas-keyboard-response","47","728218","0.0-12.0-0.7","2d_cat_multi_stim_exp1","2022-4-26","15:1:38","25","75","3","9","10","40","30","120","60","20","[""White""]","No","Female","2410265","null","null","","","","fixation","","","","","","","","","","","","","","","","","","","","","","","","","",""
"","","","","","canvas-keyboard-response","48","728727","0.0-12.0-1.7","2d_cat_multi_stim_exp1","2022-4-26","15:1:38","25","75","3","9","10","40","30","120","60","20","[""White""]","No","Female","2410265","null","null","","","","clear_screen","","","","","","","","","","","","","","","","","","","","","","","","","",""
"","","","","","canvas-keyboard-response","49","729828","0.0-12.0-2.7","2d_cat_multi_stim_exp1","2022-4-26","15:1:38","25","75","3","9","10","40","30","120","60","20","[""White""]","No","Female","2410265","1093","i","learn","","","learn_trial","23.3333","120","out","0","1","","","","","","","","","","","","","","","","","","","","",""
"","","","","","canvas-keyboard-response","50","730338","0.0-12.0-3.7","2d_cat_multi_stim_exp1","2022-4-26","15:1:38","25","75","3","9","10","40","30","120","60","20","[""White""]","No","Female","2410265","null","null","learn_feedback","","","learn_feedback","23.3333","120","out","","","","","","","","","","","","","","","","","","","","","","",""
"","","","","","canvas-keyboard-response","51","730398","0.0-12.0-4.7","2d_cat_multi_stim_exp1","2022-4-26","15:1:38","25","75","3","9","10","40","30","120","60","20","[""White""]","No","Female","2410265","null","null","","","","clear_screen","","","","","","","","","","","","","","","","","","","","","","","","","",""
"","","","","","canvas-keyboard-response","52","730906","0.0-12.0-0.8","2d_cat_multi_stim_exp1","2022-4-26","15:1:38","25","75","3","9","10","40","30","120","60","20","[""White""]","No","Female","2410265","null","null","","","","fixation","","","","","","","","","","","","","","","","","","","","","","","","","",""
"","","","","","canvas-keyboard-response","53","731416","0.0-12.0-1.8","2d_cat_multi_stim_exp1","2022-4-26","15:1:38","25","75","3","9","10","40","30","120","60","20","[""White""]","No","Female","2410265","null","null","","","","clear_screen","","","","","","","","","","","","","","","","","","","","","","","","","",""
"","","","","","canvas-keyboard-response","54","734725","0.0-12.0-2.8","2d_cat_multi_stim_exp1","2022-4-26","15:1:38","25","75","3","9","10","40","30","120","60","20","[""White""]","No","Female","2410265","3301","u","learn","","","learn_trial","25","75","in","1","1","","","","","","","","","","","","","","","","","","","","",""
"","","","","","canvas-keyboard-response","55","735236","0.0-12.0-3.8","2d_cat_multi_stim_exp1","2022-4-26","15:1:38","25","75","3","9","10","40","30","120","60","20","[""White""]","No","Female","2410265","null","null","learn_feedback","","","learn_feedback","25","75","in","","","","","","","","","","","","","","","","","","","","","","",""
"","","","","","canvas-keyboard-response","56","735294","0.0-12.0-4.8","2d_cat_multi_stim_exp1","2022-4-26","15:1:38","25","75","3","9","10","40","30","120","60","20","[""White""]","No","Female","2410265","null","null","","","","clear_screen","","","","","","","","","","","","","","","","","","","","","","","","","",""
"","","","","","canvas-keyboard-response","57","735803","0.0-12.0-0.9","2d_cat_multi_stim_exp1","2022-4-26","15:1:38","25","75","3","9","10","40","30","120","60","20","[""White""]","No","Female","2410265","null","null","","","","fixation","","","","","","","","","","","","","","","","","","","","","","","","","",""
"","","","","","canvas-keyboard-response","58","736314","0.0-12.0-1.9","2d_cat_multi_stim_exp1","2022-4-26","15:1:38","25","75","3","9","10","40","30","120","60","20","[""White""]","No","Female","2410265","null","null","","","","clear_screen","","","","","","","","","","","","","","","","","","","","","","","","","",""
"","","","","","canvas-keyboard-response","59","737238","0.0-12.0-2.9","2d_cat_multi_stim_exp1","2022-4-26","15:1:38","25","75","3","9","10","40","30","120","60","20","[""White""]","No","Female","2410265","912","i","learn","","","learn_trial","36.6667","50","out","0","1","","","","","","","","","","","","","","","","","","","","",""
"","","","","","canvas-keyboard-response","60","737749","0.0-12.0-3.9","2d_cat_multi_stim_exp1","2022-4-26","15:1:38","25","75","3","9","10","40","30","120","60","20","[""White""]","No","Female","2410265","null","null","learn_feedback","","","learn_feedback","36.6667","50","out","","","","","","","","","","","","","","","","","","","","","","",""
"","","","","","canvas-keyboard-response","61","737808","0.0-12.0-4.9","2d_cat_multi_stim_exp1","2022-4-26","15:1:38","25","75","3","9","10","40","30","120","60","20","[""White""]","No","Female","2410265","null","null","","","","clear_screen","","","","","","","","","","","","","","","","","","","","","","","","","",""
"","","","","","canvas-keyboard-response","62","738318","0.0-12.0-0.10","2d_cat_multi_stim_exp1","2022-4-26","15:1:38","25","75","3","9","10","40","30","120","60","20","[""White""]","No","Female","2410265","null","null","","","","fixation","","","","","","","","","","","","","","","","","","","","","","","","","",""
"","","","","","canvas-keyboard-response","63","738828","0.0-12.0-1.10","2d_cat_multi_stim_exp1","2022-4-26","15:1:38","25","75","3","9","10","40","30","120","60","20","[""White""]","No","Female","2410265","null","null","","","","clear_screen","","","","","","","","","","","","","","","","","","","","","","","","","",""
"","","","","","canvas-keyboard-response","64","739614","0.0-12.0-2.10","2d_cat_multi_stim_exp1","2022-4-26","15:1:38","25","75","3","9","10","40","30","120","60","20","[""White""]","No","Female","2410265","773","u","learn","","","learn_trial","26.4216","82.9254","in","1","1","","","","","","","","","","","","","","","","","","","","",""
"","","","","","canvas-keyboard-response","65","740125","0.0-12.0-3.10","2d_cat_multi_stim_exp1","2022-4-26","15:1:38","25","75","3","9","10","40","30","120","60","20","[""White""]","No","Female","2410265","null","null","learn_feedback","","","learn_feedback","26.4216","82.9254","in","","","","","","","","","","","","","","","","","","","","","","",""
"","","","","","canvas-keyboard-response","66","740184","0.0-12.0-4.10","2d_cat_multi_stim_exp1","2022-4-26","15:1:38","25","75","3","9","10","40","30","120","60","20","[""White""]","No","Female","2410265","null","null","","","","clear_screen","","","","","","","","","","","","","","","","","","","","","","","","","",""
"","","","","","canvas-keyboard-response","67","740694","0.0-12.0-0.11","2d_cat_multi_stim_exp1","2022-4-26","15:1:38","25","75","3","9","10","40","30","120","60","20","[""White""]","No","Female","2410265","null","null","","","","fixation","","","","","","","","","","","","","","","","","","","","","","","","","",""
"","","","","","canvas-keyboard-response","68","741205","0.0-12.0-1.11","2d_cat_multi_stim_exp1","2022-4-26","15:1:38","25","75","3","9","10","40","30","120","60","20","[""White""]","No","Female","2410265","null","null","","","","clear_screen","","","","","","","","","","","","","","","","","","","","","","","","","",""
"","","","","","canvas-keyboard-response","69","741909","0.0-12.0-2.11","2d_cat_multi_stim_exp1","2022-4-26","15:1:38","25","75","3","9","10","40","30","120","60","20","[""White""]","No","Female","2410265","695","u","learn","","","learn_trial","27.2592","69.0786","in","1","1","","","","","","","","","","","","","","","","","","","","",""
"","","","","","canvas-keyboard-response","70","742419","0.0-12.0-3.11","2d_cat_multi_stim_exp1","2022-4-26","15:1:38","25","75","3","9","10","40","30","120","60","20","[""White""]","No","Female","2410265","null","null","learn_feedback","","","learn_feedback","27.2592","69.0786","in","","","","","","","","","","","","","","","","","","","","","","",""
"","","","","","canvas-keyboard-response","71","742478","0.0-12.0-4.11","2d_cat_multi_stim_exp1","2022-4-26","15:1:38","25","75","3","9","10","40","30","120","60","20","[""White""]","No","Female","2410265","null","null","","","","clear_screen","","","","","","","","","","","","","","","","","","","","","","","","","",""
"","","","","","canvas-keyboard-response","72","742987","0.0-12.0-0.12","2d_cat_multi_stim_exp1","2022-4-26","15:1:38","25","75","3","9","10","40","30","120","60","20","[""White""]","No","Female","2410265","null","null","","","","fixation","","","","","","","","","","","","","","","","","","","","","","","","","",""
"","","","","","canvas-keyboard-response","73","743497","0.0-12.0-1.12","2d_cat_multi_stim_exp1","2022-4-26","15:1:38","25","75","3","9","10","40","30","120","60","20","[""White""]","No","Female","2410265","null","null","","","","clear_screen","","","","","","","","","","","","","","","","","","","","","","","","","",""
"","","","","","canvas-keyboard-response","74","744037","0.0-12.0-2.12","2d_cat_multi_stim_exp1","2022-4-26","15:1:38","25","75","3","9","10","40","30","120","60","20","[""White""]","No","Female","2410265","532","u","learn","","","learn_trial","25","75","in","1","1","","","","","","","","","","","","","","","","","","","","",""
"","","","","","canvas-keyboard-response","75","744548","0.0-12.0-3.12","2d_cat_multi_stim_exp1","2022-4-26","15:1:38","25","75","3","9","10","40","30","120","60","20","[""White""]","No","Female","2410265","null","null","learn_feedback","","","learn_feedback","25","75","in","","","","","","","","","","","","","","","","","","","","","","",""
"","","","","","canvas-keyboard-response","76","744607","0.0-12.0-4.12","2d_cat_multi_stim_exp1","2022-4-26","15:1:38","25","75","3","9","10","40","30","120","60","20","[""White""]","No","Female","2410265","null","null","","","","clear_screen","","","","","","","","","","","","","","","","","","","","","","","","","",""
"","","","","","canvas-keyboard-response","77","745115","0.0-12.0-0.13","2d_cat_multi_stim_exp1","2022-4-26","15:1:38","25","75","3","9","10","40","30","120","60","20","[""White""]","No","Female","2410265","null","null","","","","fixation","","","","","","","","","","","","","","","","","","","","","","","","","",""
"","","","","","canvas-keyboard-response","78","745625","0.0-12.0-1.13","2d_cat_multi_stim_exp1","2022-4-26","15:1:38","25","75","3","9","10","40","30","120","60","20","[""White""]","No","Female","2410265","null","null","","","","clear_screen","","","","","","","","","","","","","","","","","","","","","","","","","",""
"","","","","","canvas-keyboard-response","79","746181","0.0-12.0-2.13","2d_cat_multi_stim_exp1","2022-4-26","15:1:38","25","75","3","9","10","40","30","120","60","20","[""White""]","No","Female","2410265","546","u","learn","","","learn_trial","23.3473","82.5112","in","1","1","","","","","","","","","","","","","","","","","","","","",""
"","","","","","canvas-keyboard-response","80","746690","0.0-12.0-3.13","2d_cat_multi_stim_exp1","2022-4-26","15:1:38","25","75","3","9","10","40","30","120","60","20","[""White""]","No","Female","2410265","null","null","learn_feedback","","","learn_feedback","23.3473","82.5112","in","","","","","","","","","","","","","","","","","","","","","","",""
"","","","","","canvas-keyboard-response","81","746749","0.0-12.0-4.13","2d_cat_multi_stim_exp1","2022-4-26","15:1:38","25","75","3","9","10","40","30","120","60","20","[""White""]","No","Female","2410265","null","null","","","","clear_screen","","","","","","","","","","","","","","","","","","","","","","","","","",""
"","","","","","canvas-keyboard-response","82","747258","0.0-12.0-0.14","2d_cat_multi_stim_exp1","2022-4-26","15:1:38","25","75","3","9","10","40","30","120","60","20","[""White""]","No","Female","2410265","null","null","","","","fixation","","","","","","","","","","","","","","","","","","","","","","","","","",""
"","","","","","canvas-keyboard-response","83","747767","0.0-12.0-1.14","2d_cat_multi_stim_exp1","2022-4-26","15:1:38","25","75","3","9","10","40","30","120","60","20","[""White""]","No","Female","2410265","null","null","","","","clear_screen","","","","","","","","","","","","","","","","","","","","","","","","","",""
"","","","","","canvas-keyboard-response","84","748324","0.0-12.0-2.14","2d_cat_multi_stim_exp1","2022-4-26","15:1:38","25","75","3","9","10","40","30","120","60","20","[""White""]","No","Female","2410265","548","u","learn","","","learn_trial","22.1081","72.6057","in","1","1","","","","","","","","","","","","","","","","","","","","",""
"","","","","","canvas-keyboard-response","85","748835","0.0-12.0-3.14","2d_cat_multi_stim_exp1","2022-4-26","15:1:38","25","75","3","9","10","40","30","120","60","20","[""White""]","No","Female","2410265","null","null","learn_feedback","","","learn_feedback","22.1081","72.6057","in","","","","","","","","","","","","","","","","","","","","","","",""
"","","","","","canvas-keyboard-response","86","748892","0.0-12.0-4.14","2d_cat_multi_stim_exp1","2022-4-26","15:1:38","25","75","3","9","10","40","30","120","60","20","[""White""]","No","Female","2410265","null","null","","","","clear_screen","","","","","","","","","","","","","","","","","","","","","","","","","",""
"","","","","","canvas-keyboard-response","87","749402","0.0-12.0-0.15","2d_cat_multi_stim_exp1","2022-4-26","15:1:38","25","75","3","9","10","40","30","120","60","20","[""White""]","No","Female","2410265","null","null","","","","fixation","","","","","","","","","","","","","","","","","","","","","","","","","",""
"","","","","","canvas-keyboard-response","88","749914","0.0-12.0-1.15","2d_cat_multi_stim_exp1","2022-4-26","15:1:38","25","75","3","9","10","40","30","120","60","20","[""White""]","No","Female","2410265","null","null","","","","clear_screen","","","","","","","","","","","","","","","","","","","","","","","","","",""
"","","","","","canvas-keyboard-response","89","750773","0.0-12.0-2.15","2d_cat_multi_stim_exp1","2022-4-26","15:1:38","25","75","3","9","10","40","30","120","60","20","[""White""]","No","Female","2410265","851","i","learn","","","learn_trial","33.3333","110","out","0","1","","","","","","","","","","","","","","","","","","","","",""
"","","","","","canvas-keyboard-response","90","751283","0.0-12.0-3.15","2d_cat_multi_stim_exp1","2022-4-26","15:1:38","25","75","3","9","10","40","30","120","60","20","[""White""]","No","Female","2410265","null","null","learn_feedback","","","learn_feedback","33.3333","110","out","","","","","","","","","","","","","","","","","","","","","","",""
"","","","","","canvas-keyboard-response","91","751342","0.0-12.0-4.15","2d_cat_multi_stim_exp1","2022-4-26","15:1:38","25","75","3","9","10","40","30","120","60","20","[""White""]","No","Female","2410265","null","null","","","","clear_screen","","","","","","","","","","","","","","","","","","","","","","","","","",""
"","","","","","canvas-keyboard-response","92","751850","0.0-12.0-0.16","2d_cat_multi_stim_exp1","2022-4-26","15:1:38","25","75","3","9","10","40","30","120","60","20","[""White""]","No","Female","2410265","null","null","","","","fixation","","","","","","","","","","","","","","","","","","","","","","","","","",""
"","","","","","canvas-keyboard-response","93","752360","0.0-12.0-1.16","2d_cat_multi_stim_exp1","2022-4-26","15:1:38","25","75","3","9","10","40","30","120","60","20","[""White""]","No","Female","2410265","null","null","","","","clear_screen","","","","","","","","","","","","","","","","","","","","","","","","","",""
"","","","","","canvas-keyboard-response","94","753333","0.0-12.0-2.16","2d_cat_multi_stim_exp1","2022-4-26","15:1:38","25","75","3","9","10","40","30","120","60","20","[""White""]","No","Female","2410265","963","i","learn","","","learn_trial","40","30","out","0","1","","","","","","","","","","","","","","","","","","","","",""
"","","","","","canvas-keyboard-response","95","753843","0.0-12.0-3.16","2d_cat_multi_stim_exp1","2022-4-26","15:1:38","25","75","3","9","10","40","30","120","60","20","[""White""]","No","Female","2410265","null","null","learn_feedback","","","learn_feedback","40","30","out","","","","","","","","","","","","","","","","","","","","","","",""
"","","","","","canvas-keyboard-response","96","753902","0.0-12.0-4.16","2d_cat_multi_stim_exp1","2022-4-26","15:1:38","25","75","3","9","10","40","30","120","60","20","[""White""]","No","Female","2410265","null","null","","","","clear_screen","","","","","","","","","","","","","","","","","","","","","","","","","",""
"","","","","","canvas-keyboard-response","97","754411","0.0-12.0-0.17","2d_cat_multi_stim_exp1","2022-4-26","15:1:38","25","75","3","9","10","40","30","120","60","20","[""White""]","No","Female","2410265","null","null","","","","fixation","","","","","","","","","","","","","","","","","","","","","","","","","",""
"","","","","","canvas-keyboard-response","98","754921","0.0-12.0-1.17","2d_cat_multi_stim_exp1","2022-4-26","15:1:38","25","75","3","9","10","40","30","120","60","20","[""White""]","No","Female","2410265","null","null","","","","clear_screen","","","","","","","","","","","","","","","","","","","","","","","","","",""
"","","","","","canvas-keyboard-response","99","755565","0.0-12.0-2.17","2d_cat_multi_stim_exp1","2022-4-26","15:1:38","25","75","3","9","10","40","30","120","60","20","[""White""]","No","Female","2410265","634","i","learn","","","learn_trial","23.3333","30","out","0","1","","","","","","","","","","","","","","","","","","","","",""
"","","","","","canvas-keyboard-response","100","756074","0.0-12.0-3.17","2d_cat_multi_stim_exp1","2022-4-26","15:1:38","25","75","3","9","10","40","30","120","60","20","[""White""]","No","Female","2410265","null","null","learn_feedback","","","learn_feedback","23.3333","30","out","","","","","","","","","","","","","","","","","","","","","","",""
"","","","","","canvas-keyboard-response","101","756133","0.0-12.0-4.17","2d_cat_multi_stim_exp1","2022-4-26","15:1:38","25","75","3","9","10","40","30","120","60","20","[""White""]","No","Female","2410265","null","null","","","","clear_screen","","","","","","","","","","","","","","","","","","","","","","","","","",""
"","","","","","canvas-keyboard-response","102","756641","0.0-12.0-0.18","2d_cat_multi_stim_exp1","2022-4-26","15:1:38","25","75","3","9","10","40","30","120","60","20","[""White""]","No","Female","2410265","null","null","","","","fixation","","","","","","","","","","","","","","","","","","","","","","","","","",""
"","","","","","canvas-keyboard-response","103","757153","0.0-12.0-1.18","2d_cat_multi_stim_exp1","2022-4-26","15:1:38","25","75","3","9","10","40","30","120","60","20","[""White""]","No","Female","2410265","null","null","","","","clear_screen","","","","","","","","","","","","","","","","","","","","","","","","","",""
"","","","","","canvas-keyboard-response","104","757813","0.0-12.0-2.18","2d_cat_multi_stim_exp1","2022-4-26","15:1:38","25","75","3","9","10","40","30","120","60","20","[""White""]","No","Female","2410265","653","u","learn","","","learn_trial","25","75","in","1","1","","","","","","","","","","","","","","","","","","","","",""
"","","","","","canvas-keyboard-response","105","758323","0.0-12.0-3.18","2d_cat_multi_stim_exp1","2022-4-26","15:1:38","25","75","3","9","10","40","30","120","60","20","[""White""]","No","Female","2410265","null","null","learn_feedback","","","learn_feedback","25","75","in","","","","","","","","","","","","","","","","","","","","","","",""
"","","","","","canvas-keyboard-response","106","758381","0.0-12.0-4.18","2d_cat_multi_stim_exp1","2022-4-26","15:1:38","25","75","3","9","10","40","30","120","60","20","[""White""]","No","Female","2410265","null","null","","","","clear_screen","","","","","","","","","","","","","","","","","","","","","","","","","",""
"","","","","","canvas-keyboard-response","107","758890","0.0-12.0-0.19","2d_cat_multi_stim_exp1","2022-4-26","15:1:38","25","75","3","9","10","40","30","120","60","20","[""White""]","No","Female","2410265","null","null","","","","fixation","","","","","","","","","","","","","","","","","","","","","","","","","",""
"","","","","","canvas-keyboard-response","108","759400","0.0-12.0-1.19","2d_cat_multi_stim_exp1","2022-4-26","15:1:38","25","75","3","9","10","40","30","120","60","20","[""White""]","No","Female","2410265","null","null","","","","clear_screen","","","","","","","","","","","","","","","","","","","","","","","","","",""
"","","","","","canvas-keyboard-response","109","759965","0.0-12.0-2.19","2d_cat_multi_stim_exp1","2022-4-26","15:1:38","25","75","3","9","10","40","30","120","60","20","[""White""]","No","Female","2410265","555","u","learn","","","learn_trial","25","75","in","1","1","","","","","","","","","","","","","","","","","","","","",""
"","","","","","canvas-keyboard-response","110","760473","0.0-12.0-3.19","2d_cat_multi_stim_exp1","2022-4-26","15:1:38","25","75","3","9","10","40","30","120","60","20","[""White""]","No","Female","2410265","null","null","learn_feedback","","","learn_feedback","25","75","in","","","","","","","","","","","","","","","","","","","","","","",""
"","","","","","canvas-keyboard-response","111","760532","0.0-12.0-4.19","2d_cat_multi_stim_exp1","2022-4-26","15:1:38","25","75","3","9","10","40","30","120","60","20","[""White""]","No","Female","2410265","null","null","","","","clear_screen","","","","","","","","","","","","","","","","","","","","","","","","","",""
"","","","","","canvas-keyboard-response","112","761041","0.0-12.0-0.20","2d_cat_multi_stim_exp1","2022-4-26","15:1:38","25","75","3","9","10","40","30","120","60","20","[""White""]","No","Female","2410265","null","null","","","","fixation","","","","","","","","","","","","","","","","","","","","","","","","","",""
"","","","","","canvas-keyboard-response","113","761551","0.0-12.0-1.20","2d_cat_multi_stim_exp1","2022-4-26","15:1:38","25","75","3","9","10","40","30","120","60","20","[""White""]","No","Female","2410265","null","null","","","","clear_screen","","","","","","","","","","","","","","","","","","","","","","","","","",""
"","","","","","canvas-keyboard-response","114","762269","0.0-12.0-2.20","2d_cat_multi_stim_exp1","2022-4-26","15:1:38","25","75","3","9","10","40","30","120","60","20","[""White""]","No","Female","2410265","708","u","learn","","","learn_trial","25","75","in","1","1","","","","","","","","","","","","","","","","","","","","",""
"","","","","","canvas-keyboard-response","115","762778","0.0-12.0-3.20","2d_cat_multi_stim_exp1","2022-4-26","15:1:38","25","75","3","9","10","40","30","120","60","20","[""White""]","No","Female","2410265","null","null","learn_feedback","","","learn_feedback","25","75","in","","","","","","","","","","","","","","","","","","","","","","",""
"","","","","","canvas-keyboard-response","116","762837","0.0-12.0-4.20","2d_cat_multi_stim_exp1","2022-4-26","15:1:38","25","75","3","9","10","40","30","120","60","20","[""White""]","No","Female","2410265","null","null","","","","clear_screen","","","","","","","","","","","","","","","","","","","","","","","","","",""
"","","","","","canvas-keyboard-response","117","763345","0.0-12.0-0.21","2d_cat_multi_stim_exp1","2022-4-26","15:1:38","25","75","3","9","10","40","30","120","60","20","[""White""]","No","Female","2410265","null","null","","","","fixation","","","","","","","","","","","","","","","","","","","","","","","","","",""
"","","","","","canvas-keyboard-response","118","763855","0.0-12.0-1.21","2d_cat_multi_stim_exp1","2022-4-26","15:1:38","25","75","3","9","10","40","30","120","60","20","[""White""]","No","Female","2410265","null","null","","","","clear_screen","","","","","","","","","","","","","","","","","","","","","","","","","",""
"","","","","","canvas-keyboard-response","119","764300","0.0-12.0-2.21","2d_cat_multi_stim_exp1","2022-4-26","15:1:38","25","75","3","9","10","40","30","120","60","20","[""White""]","No","Female","2410265","437","u","learn","","","learn_trial","25","75","in","1","1","","","","","","","","","","","","","","","","","","","","",""
"","","","","","canvas-keyboard-response","120","764811","0.0-12.0-3.21","2d_cat_multi_stim_exp1","2022-4-26","15:1:38","25","75","3","9","10","40","30","120","60","20","[""White""]","No","Female","2410265","null","null","learn_feedback","","","learn_feedback","25","75","in","","","","","","","","","","","","","","","","","","","","","","",""
"","","","","","canvas-keyboard-response","121","764870","0.0-12.0-4.21","2d_cat_multi_stim_exp1","2022-4-26","15:1:38","25","75","3","9","10","40","30","120","60","20","[""White""]","No","Female","2410265","null","null","","","","clear_screen","","","","","","","","","","","","","","","","","","","","","","","","","",""
"","","","","","canvas-keyboard-response","122","765378","0.0-12.0-0.22","2d_cat_multi_stim_exp1","2022-4-26","15:1:38","25","75","3","9","10","40","30","120","60","20","[""White""]","No","Female","2410265","null","null","","","","fixation","","","","","","","","","","","","","","","","","","","","","","","","","",""
"","","","","","canvas-keyboard-response","123","765889","0.0-12.0-1.22","2d_cat_multi_stim_exp1","2022-4-26","15:1:38","25","75","3","9","10","40","30","120","60","20","[""White""]","No","Female","2410265","null","null","","","","clear_screen","","","","","","","","","","","","","","","","","","","","","","","","","",""
"","","","","","canvas-keyboard-response","124","766556","0.0-12.0-2.22","2d_cat_multi_stim_exp1","2022-4-26","15:1:38","25","75","3","9","10","40","30","120","60","20","[""White""]","No","Female","2410265","659","i","learn","","","learn_trial","10","40","out","0","1","","","","","","","","","","","","","","","","","","","","",""
"","","","","","canvas-keyboard-response","125","767066","0.0-12.0-3.22","2d_cat_multi_stim_exp1","2022-4-26","15:1:38","25","75","3","9","10","40","30","120","60","20","[""White""]","No","Female","2410265","null","null","learn_feedback","","","learn_feedback","10","40","out","","","","","","","","","","","","","","","","","","","","","","",""
"","","","","","canvas-keyboard-response","126","767126","0.0-12.0-4.22","2d_cat_multi_stim_exp1","2022-4-26","15:1:38","25","75","3","9","10","40","30","120","60","20","[""White""]","No","Female","2410265","null","null","","","","clear_screen","","","","","","","","","","","","","","","","","","","","","","","","","",""
"","","","","","canvas-keyboard-response","127","767634","0.0-12.0-0.23","2d_cat_multi_stim_exp1","2022-4-26","15:1:38","25","75","3","9","10","40","30","120","60","20","[""White""]","No","Female","2410265","null","null","","","","fixation","","","","","","","","","","","","","","","","","","","","","","","","","",""
"","","","","","canvas-keyboard-response","128","768149","0.0-12.0-1.23","2d_cat_multi_stim_exp1","2022-4-26","15:1:38","25","75","3","9","10","40","30","120","60","20","[""White""]","No","Female","2410265","null","null","","","","clear_screen","","","","","","","","","","","","","","","","","","","","","","","","","",""
"","","","","","canvas-keyboard-response","129","768717","0.0-12.0-2.23","2d_cat_multi_stim_exp1","2022-4-26","15:1:38","25","75","3","9","10","40","30","120","60","20","[""White""]","No","Female","2410265","560","u","learn","","","learn_trial","25","75","in","1","1","","","","","","","","","","","","","","","","","","","","",""
"","","","","","canvas-keyboard-response","130","769227","0.0-12.0-3.23","2d_cat_multi_stim_exp1","2022-4-26","15:1:38","25","75","3","9","10","40","30","120","60","20","[""White""]","No","Female","2410265","null","null","learn_feedback","","","learn_feedback","25","75","in","","","","","","","","","","","","","","","","","","","","","","",""
"","","","","","canvas-keyboard-response","131","769286","0.0-12.0-4.23","2d_cat_multi_stim_exp1","2022-4-26","15:1:38","25","75","3","9","10","40","30","120","60","20","[""White""]","No","Female","2410265","null","null","","","","clear_screen","","","","","","","","","","","","","","","","","","","","","","","","","",""
"","","","","","canvas-keyboard-response","132","769796","0.0-12.0-0.24","2d_cat_multi_stim_exp1","2022-4-26","15:1:38","25","75","3","9","10","40","30","120","60","20","[""White""]","No","Female","2410265","null","null","","","","fixation","","","","","","","","","","","","","","","","","","","","","","","","","",""
"","","","","","canvas-keyboard-response","133","770305","0.0-12.0-1.24","2d_cat_multi_stim_exp1","2022-4-26","15:1:38","25","75","3","9","10","40","30","120","60","20","[""White""]","No","Female","2410265","null","null","","","","clear_screen","","","","","","","","","","","","","","","","","","","","","","","","","",""
"","","","","","canvas-keyboard-response","134","771197","0.0-12.0-2.24","2d_cat_multi_stim_exp1","2022-4-26","15:1:38","25","75","3","9","10","40","30","120","60","20","[""White""]","No","Female","2410265","882","u","learn","","","learn_trial","29.2426","62.2721","in","1","1","","","","","","","","","","","","","","","","","","","","",""
"","","","","","canvas-keyboard-response","135","771706","0.0-12.0-3.24","2d_cat_multi_stim_exp1","2022-4-26","15:1:38","25","75","3","9","10","40","30","120","60","20","[""White""]","No","Female","2410265","null","null","learn_feedback","","","learn_feedback","29.2426","62.2721","in","","","","","","","","","","","","","","","","","","","","","","",""
"","","","","","canvas-keyboard-response","136","771766","0.0-12.0-4.24","2d_cat_multi_stim_exp1","2022-4-26","15:1:38","25","75","3","9","10","40","30","120","60","20","[""White""]","No","Female","2410265","null","null","","","","clear_screen","","","","","","","","","","","","","","","","","","","","","","","","","",""
"","","","","","canvas-keyboard-response","137","772275","0.0-12.0-0.25","2d_cat_multi_stim_exp1","2022-4-26","15:1:38","25","75","3","9","10","40","30","120","60","20","[""White""]","No","Female","2410265","null","null","","","","fixation","","","","","","","","","","","","","","","","","","","","","","","","","",""
"","","","","","canvas-keyboard-response","138","772784","0.0-12.0-1.25","2d_cat_multi_stim_exp1","2022-4-26","15:1:38","25","75","3","9","10","40","30","120","60","20","[""White""]","No","Female","2410265","null","null","","","","clear_screen","","","","","","","","","","","","","","","","","","","","","","","","","",""
"","","","","","canvas-keyboard-response","139","773540","0.0-12.0-2.25","2d_cat_multi_stim_exp1","2022-4-26","15:1:38","25","75","3","9","10","40","30","120","60","20","[""White""]","No","Female","2410265","747","i","learn","","","learn_trial","26.6667","110","out","0","1","","","","","","","","","","","","","","","","","","","","",""
"","","","","","canvas-keyboard-response","140","774050","0.0-12.0-3.25","2d_cat_multi_stim_exp1","2022-4-26","15:1:38","25","75","3","9","10","40","30","120","60","20","[""White""]","No","Female","2410265","null","null","learn_feedback","","","learn_feedback","26.6667","110","out","","","","","","","","","","","","","","","","","","","","","","",""
"","","","","","canvas-keyboard-response","141","774110","0.0-12.0-4.25","2d_cat_multi_stim_exp1","2022-4-26","15:1:38","25","75","3","9","10","40","30","120","60","20","[""White""]","No","Female","2410265","null","null","","","","clear_screen","","","","","","","","","","","","","","","","","","","","","","","","","",""
"","","","","","canvas-keyboard-response","142","774619","0.0-12.0-0.26","2d_cat_multi_stim_exp1","2022-4-26","15:1:38","25","75","3","9","10","40","30","120","60","20","[""White""]","No","Female","2410265","null","null","","","","fixation","","","","","","","","","","","","","","","","","","","","","","","","","",""
"","","","","","canvas-keyboard-response","143","775128","0.0-12.0-1.26","2d_cat_multi_stim_exp1","2022-4-26","15:1:38","25","75","3","9","10","40","30","120","60","20","[""White""]","No","Female","2410265","null","null","","","","clear_screen","","","","","","","","","","","","","","","","","","","","","","","","","",""
"","","","","","canvas-keyboard-response","144","775773","0.0-12.0-2.26","2d_cat_multi_stim_exp1","2022-4-26","15:1:38","25","75","3","9","10","40","30","120","60","20","[""White""]","No","Female","2410265","632","i","learn","","","learn_trial","10","110","out","0","1","","","","","","","","","","","","","","","","","","","","",""
"","","","","","canvas-keyboard-response","145","776282","0.0-12.0-3.26","2d_cat_multi_stim_exp1","2022-4-26","15:1:38","25","75","3","9","10","40","30","120","60","20","[""White""]","No","Female","2410265","null","null","learn_feedback","","","learn_feedback","10","110","out","","","","","","","","","","","","","","","","","","","","","","",""
"","","","","","canvas-keyboard-response","146","776340","0.0-12.0-4.26","2d_cat_multi_stim_exp1","2022-4-26","15:1:38","25","75","3","9","10","40","30","120","60","20","[""White""]","No","Female","2410265","null","null","","","","clear_screen","","","","","","","","","","","","","","","","","","","","","","","","","",""
"","","","","","canvas-keyboard-response","147","776850","0.0-12.0-0.27","2d_cat_multi_stim_exp1","2022-4-26","15:1:38","25","75","3","9","10","40","30","120","60","20","[""White""]","No","Female","2410265","null","null","","","","fixation","","","","","","","","","","","","","","","","","","","","","","","","","",""
"","","","","","canvas-keyboard-response","148","777360","0.0-12.0-1.27","2d_cat_multi_stim_exp1","2022-4-26","15:1:38","25","75","3","9","10","40","30","120","60","20","[""White""]","No","Female","2410265","null","null","","","","clear_screen","","","","","","","","","","","","","","","","","","","","","","","","","",""
"","","","","","canvas-keyboard-response","149","778596","0.0-12.0-2.27","2d_cat_multi_stim_exp1","2022-4-26","15:1:38","25","75","3","9","10","40","30","120","60","20","[""White""]","No","Female","2410265","1227","i","learn","","","learn_trial","36.6667","90","out","0","1","","","","","","","","","","","","","","","","","","","","",""
"","","","","","canvas-keyboard-response","150","779105","0.0-12.0-3.27","2d_cat_multi_stim_exp1","2022-4-26","15:1:38","25","75","3","9","10","40","30","120","60","20","[""White""]","No","Female","2410265","null","null","learn_feedback","","","learn_feedback","36.6667","90","out","","","","","","","","","","","","","","","","","","","","","","",""
"","","","","","canvas-keyboard-response","151","779164","0.0-12.0-4.27","2d_cat_multi_stim_exp1","2022-4-26","15:1:38","25","75","3","9","10","40","30","120","60","20","[""White""]","No","Female","2410265","null","null","","","","clear_screen","","","","","","","","","","","","","","","","","","","","","","","","","",""
"","","","","","canvas-keyboard-response","152","779673","0.0-12.0-0.28","2d_cat_multi_stim_exp1","2022-4-26","15:1:38","25","75","3","9","10","40","30","120","60","20","[""White""]","No","Female","2410265","null","null","","","","fixation","","","","","","","","","","","","","","","","","","","","","","","","","",""
"","","","","","canvas-keyboard-response","153","780181","0.0-12.0-1.28","2d_cat_multi_stim_exp1","2022-4-26","15:1:38","25","75","3","9","10","40","30","120","60","20","[""White""]","No","Female","2410265","null","null","","","","clear_screen","","","","","","","","","","","","","","","","","","","","","","","","","",""
"","","","","","canvas-keyboard-response","154","780740","0.0-12.0-2.28","2d_cat_multi_stim_exp1","2022-4-26","15:1:38","25","75","3","9","10","40","30","120","60","20","[""White""]","No","Female","2410265","550","i","learn","","","learn_trial","36.6667","40","out","0","1","","","","","","","","","","","","","","","","","","","","",""
"","","","","","canvas-keyboard-response","155","781251","0.0-12.0-3.28","2d_cat_multi_stim_exp1","2022-4-26","15:1:38","25","75","3","9","10","40","30","120","60","20","[""White""]","No","Female","2410265","null","null","learn_feedback","","","learn_feedback","36.6667","40","out","","","","","","","","","","","","","","","","","","","","","","",""
"","","","","","canvas-keyboard-response","156","781310","0.0-12.0-4.28","2d_cat_multi_stim_exp1","2022-4-26","15:1:38","25","75","3","9","10","40","30","120","60","20","[""White""]","No","Female","2410265","null","null","","","","clear_screen","","","","","","","","","","","","","","","","","","","","","","","","","",""
"","","","","","canvas-keyboard-response","157","781819","0.0-12.0-0.29","2d_cat_multi_stim_exp1","2022-4-26","15:1:38","25","75","3","9","10","40","30","120","60","20","[""White""]","No","Female","2410265","null","null","","","","fixation","","","","","","","","","","","","","","","","","","","","","","","","","",""
"","","","","","canvas-keyboard-response","158","782329","0.0-12.0-1.29","2d_cat_multi_stim_exp1","2022-4-26","15:1:38","25","75","3","9","10","40","30","120","60","20","[""White""]","No","Female","2410265","null","null","","","","clear_screen","","","","","","","","","","","","","","","","","","","","","","","","","",""
"","","","","","canvas-keyboard-response","159","782862","0.0-12.0-2.29","2d_cat_multi_stim_exp1","2022-4-26","15:1:38","25","75","3","9","10","40","30","120","60","20","[""White""]","No","Female","2410265","523","u","learn","","","learn_trial","23.3333","80","out","1","0","","","","","","","","","","","","","","","","","","","","",""
"","","","","","canvas-keyboard-response","160","783876","0.0-12.0-3.29","2d_cat_multi_stim_exp1","2022-4-26","15:1:38","25","75","3","9","10","40","30","120","60","20","[""White""]","No","Female","2410265","null","null","learn_feedback","","","learn_feedback","23.3333","80","out","","","","","","","","","","","","","","","","","","","","","","",""
"","","","","","canvas-keyboard-response","161","783936","0.0-12.0-4.29","2d_cat_multi_stim_exp1","2022-4-26","15:1:38","25","75","3","9","10","40","30","120","60","20","[""White""]","No","Female","2410265","null","null","","","","clear_screen","","","","","","","","","","","","","","","","","","","","","","","","","",""
"","","","","","canvas-keyboard-response","162","784446","0.0-12.0-0.30","2d_cat_multi_stim_exp1","2022-4-26","15:1:38","25","75","3","9","10","40","30","120","60","20","[""White""]","No","Female","2410265","null","null","","","","fixation","","","","","","","","","","","","","","","","","","","","","","","","","",""
"","","","","","canvas-keyboard-response","163","784957","0.0-12.0-1.30","2d_cat_multi_stim_exp1","2022-4-26","15:1:38","25","75","3","9","10","40","30","120","60","20","[""White""]","No","Female","2410265","null","null","","","","clear_screen","","","","","","","","","","","","","","","","","","","","","","","","","",""
"","","","","","canvas-keyboard-response","164","787725","0.0-12.0-2.30","2d_cat_multi_stim_exp1","2022-4-26","15:1:38","25","75","3","9","10","40","30","120","60","20","[""White""]","No","Female","2410265","2757","i","learn","","","learn_trial","23.3333","110","out","0","1","","","","","","","","","","","","","","","","","","","","",""
"","","","","","canvas-keyboard-response","165","788236","0.0-12.0-3.30","2d_cat_multi_stim_exp1","2022-4-26","15:1:38","25","75","3","9","10","40","30","120","60","20","[""White""]","No","Female","2410265","null","null","learn_feedback","","","learn_feedback","23.3333","110","out","","","","","","","","","","","","","","","","","","","","","","",""
"","","","","","canvas-keyboard-response","166","788295","0.0-12.0-4.30","2d_cat_multi_stim_exp1","2022-4-26","15:1:38","25","75","3","9","10","40","30","120","60","20","[""White""]","No","Female","2410265","null","null","","","","clear_screen","","","","","","","","","","","","","","","","","","","","","","","","","",""
"","","","","","canvas-keyboard-response","167","788804","0.0-12.0-0.31","2d_cat_multi_stim_exp1","2022-4-26","15:1:38","25","75","3","9","10","40","30","120","60","20","[""White""]","No","Female","2410265","null","null","","","","fixation","","","","","","","","","","","","","","","","","","","","","","","","","",""
"","","","","","canvas-keyboard-response","168","789314","0.0-12.0-1.31","2d_cat_multi_stim_exp1","2022-4-26","15:1:38","25","75","3","9","10","40","30","120","60","20","[""White""]","No","Female","2410265","null","null","","","","clear_screen","","","","","","","","","","","","","","","","","","","","","","","","","",""
"","","","","","canvas-keyboard-response","169","790093","0.0-12.0-2.31","2d_cat_multi_stim_exp1","2022-4-26","15:1:38","25","75","3","9","10","40","30","120","60","20","[""White""]","No","Female","2410265","769","i","learn","","","learn_trial","31","75","in","0","0","","","","","","","","","","","","","","","","","","","","",""
"","","","","","canvas-keyboard-response","170","791105","0.0-12.0-3.31","2d_cat_multi_stim_exp1","2022-4-26","15:1:38","25","75","3","9","10","40","30","120","60","20","[""White""]","No","Female","2410265","null","null","learn_feedback","","","learn_feedback","31","75","in","","","","","","","","","","","","","","","","","","","","","","",""
"","","","","","canvas-keyboard-response","171","791164","0.0-12.0-4.31","2d_cat_multi_stim_exp1","2022-4-26","15:1:38","25","75","3","9","10","40","30","120","60","20","[""White""]","No","Female","2410265","null","null","","","","clear_screen","","","","","","","","","","","","","","","","","","","","","","","","","",""
"","","","","","canvas-keyboard-response","172","791673","0.0-12.0-0.32","2d_cat_multi_stim_exp1","2022-4-26","15:1:38","25","75","3","9","10","40","30","120","60","20","[""White""]","No","Female","2410265","null","null","","","","fixation","","","","","","","","","","","","","","","","","","","","","","","","","",""
"","","","","","canvas-keyboard-response","173","792184","0.0-12.0-1.32","2d_cat_multi_stim_exp1","2022-4-26","15:1:38","25","75","3","9","10","40","30","120","60","20","[""White""]","No","Female","2410265","null","null","","","","clear_screen","","","","","","","","","","","","","","","","","","","","","","","","","",""
"","","","","","canvas-keyboard-response","174","792774","0.0-12.0-2.32","2d_cat_multi_stim_exp1","2022-4-26","15:1:38","25","75","3","9","10","40","30","120","60","20","[""White""]","No","Female","2410265","579","u","learn","","","learn_trial","23.3333","90","out","1","0","","","","","","","","","","","","","","","","","","","","",""
"","","","","","canvas-keyboard-response","175","793786","0.0-12.0-3.32","2d_cat_multi_stim_exp1","2022-4-26","15:1:38","25","75","3","9","10","40","30","120","60","20","[""White""]","No","Female","2410265","null","null","learn_feedback","","","learn_feedback","23.3333","90","out","","","","","","","","","","","","","","","","","","","","","","",""
"","","","","","canvas-keyboard-response","176","793846","0.0-12.0-4.32","2d_cat_multi_stim_exp1","2022-4-26","15:1:38","25","75","3","9","10","40","30","120","60","20","[""White""]","No","Female","2410265","null","null","","","","clear_screen","","","","","","","","","","","","","","","","","","","","","","","","","",""
"","","","","","canvas-keyboard-response","177","794355","0.0-12.0-0.33","2d_cat_multi_stim_exp1","2022-4-26","15:1:38","25","75","3","9","10","40","30","120","60","20","[""White""]","No","Female","2410265","null","null","","","","fixation","","","","","","","","","","","","","","","","","","","","","","","","","",""
"","","","","","canvas-keyboard-response","178","794864","0.0-12.0-1.33","2d_cat_multi_stim_exp1","2022-4-26","15:1:38","25","75","3","9","10","40","30","120","60","20","[""White""]","No","Female","2410265","null","null","","","","clear_screen","","","","","","","","","","","","","","","","","","","","","","","","","",""
"","","","","","canvas-keyboard-response","179","796340","0.0-12.0-2.33","2d_cat_multi_stim_exp1","2022-4-26","15:1:38","25","75","3","9","10","40","30","120","60","20","[""White""]","No","Female","2410265","1467","i","learn","","","learn_trial","20","50","out","0","1","","","","","","","","","","","","","","","","","","","","",""
"","","","","","canvas-keyboard-response","180","796851","0.0-12.0-3.33","2d_cat_multi_stim_exp1","2022-4-26","15:1:38","25","75","3","9","10","40","30","120","60","20","[""White""]","No","Female","2410265","null","null","learn_feedback","","","learn_feedback","20","50","out","","","","","","","","","","","","","","","","","","","","","","",""
"","","","","","canvas-keyboard-response","181","796910","0.0-12.0-4.33","2d_cat_multi_stim_exp1","2022-4-26","15:1:38","25","75","3","9","10","40","30","120","60","20","[""White""]","No","Female","2410265","null","null","","","","clear_screen","","","","","","","","","","","","","","","","","","","","","","","","","",""
"","","","","","canvas-keyboard-response","182","797418","0.0-12.0-0.34","2d_cat_multi_stim_exp1","2022-4-26","15:1:38","25","75","3","9","10","40","30","120","60","20","[""White""]","No","Female","2410265","null","null","","","","fixation","","","","","","","","","","","","","","","","","","","","","","","","","",""
"","","","","","canvas-keyboard-response","183","797928","0.0-12.0-1.34","2d_cat_multi_stim_exp1","2022-4-26","15:1:38","25","75","3","9","10","40","30","120","60","20","[""White""]","No","Female","2410265","null","null","","","","clear_screen","","","","","","","","","","","","","","","","","","","","","","","","","",""
"","","","","","canvas-keyboard-response","184","798637","0.0-12.0-2.34","2d_cat_multi_stim_exp1","2022-4-26","15:1:38","25","75","3","9","10","40","30","120","60","20","[""White""]","No","Female","2410265","699","u","learn","","","learn_trial","25","75","in","1","1","","","","","","","","","","","","","","","","","","","","",""
"","","","","","canvas-keyboard-response","185","799147","0.0-12.0-3.34","2d_cat_multi_stim_exp1","2022-4-26","15:1:38","25","75","3","9","10","40","30","120","60","20","[""White""]","No","Female","2410265","null","null","learn_feedback","","","learn_feedback","25","75","in","","","","","","","","","","","","","","","","","","","","","","",""
"","","","","","canvas-keyboard-response","186","799207","0.0-12.0-4.34","2d_cat_multi_stim_exp1","2022-4-26","15:1:38","25","75","3","9","10","40","30","120","60","20","[""White""]","No","Female","2410265","null","null","","","","clear_screen","","","","","","","","","","","","","","","","","","","","","","","","","",""
"","","","","","canvas-keyboard-response","187","799715","0.0-12.0-0.35","2d_cat_multi_stim_exp1","2022-4-26","15:1:38","25","75","3","9","10","40","30","120","60","20","[""White""]","No","Female","2410265","null","null","","","","fixation","","","","","","","","","","","","","","","","","","","","","","","","","",""
"","","","","","canvas-keyboard-response","188","800225","0.0-12.0-1.35","2d_cat_multi_stim_exp1","2022-4-26","15:1:38","25","75","3","9","10","40","30","120","60","20","[""White""]","No","Female","2410265","null","null","","","","clear_screen","","","","","","","","","","","","","","","","","","","","","","","","","",""
"","","","","","canvas-keyboard-response","189","800685","0.0-12.0-2.35","2d_cat_multi_stim_exp1","2022-4-26","15:1:38","25","75","3","9","10","40","30","120","60","20","[""White""]","No","Female","2410265","450","u","learn","","","learn_trial","22.9268","81.5052","in","1","1","","","","","","","","","","","","","","","","","","","","",""
"","","","","","canvas-keyboard-response","190","801197","0.0-12.0-3.35","2d_cat_multi_stim_exp1","2022-4-26","15:1:38","25","75","3","9","10","40","30","120","60","20","[""White""]","No","Female","2410265","null","null","learn_feedback","","","learn_feedback","22.9268","81.5052","in","","","","","","","","","","","","","","","","","","","","","","",""
"","","","","","canvas-keyboard-response","191","801257","0.0-12.0-4.35","2d_cat_multi_stim_exp1","2022-4-26","15:1:38","25","75","3","9","10","40","30","120","60","20","[""White""]","No","Female","2410265","null","null","","","","clear_screen","","","","","","","","","","","","","","","","","","","","","","","","","",""
"","","","","","canvas-keyboard-response","192","801765","0.0-12.0-0.36","2d_cat_multi_stim_exp1","2022-4-26","15:1:38","25","75","3","9","10","40","30","120","60","20","[""White""]","No","Female","2410265","null","null","","","","fixation","","","","","","","","","","","","","","","","","","","","","","","","","",""
"","","","","","canvas-keyboard-response","193","802275","0.0-12.0-1.36","2d_cat_multi_stim_exp1","2022-4-26","15:1:38","25","75","3","9","10","40","30","120","60","20","[""White""]","No","Female","2410265","null","null","","","","clear_screen","","","","","","","","","","","","","","","","","","","","","","","","","",""
"","","","","","canvas-keyboard-response","194","803125","0.0-12.0-2.36","2d_cat_multi_stim_exp1","2022-4-26","15:1:38","25","75","3","9","10","40","30","120","60","20","[""White""]","No","Female","2410265","839","i","learn","","","learn_trial","23.3333","100","out","0","1","","","","","","","","","","","","","","","","","","","","",""
"","","","","","canvas-keyboard-response","195","803635","0.0-12.0-3.36","2d_cat_multi_stim_exp1","2022-4-26","15:1:38","25","75","3","9","10","40","30","120","60","20","[""White""]","No","Female","2410265","null","null","learn_feedback","","","learn_feedback","23.3333","100","out","","","","","","","","","","","","","","","","","","","","","","",""
"","","","","","canvas-keyboard-response","196","803694","0.0-12.0-4.36","2d_cat_multi_stim_exp1","2022-4-26","15:1:38","25","75","3","9","10","40","30","120","60","20","[""White""]","No","Female","2410265","null","null","","","","clear_screen","","","","","","","","","","","","","","","","","","","","","","","","","",""
"","","","","","canvas-keyboard-response","197","804203","0.0-12.0-0.37","2d_cat_multi_stim_exp1","2022-4-26","15:1:38","25","75","3","9","10","40","30","120","60","20","[""White""]","No","Female","2410265","null","null","","","","fixation","","","","","","","","","","","","","","","","","","","","","","","","","",""
"","","","","","canvas-keyboard-response","198","804712","0.0-12.0-1.37","2d_cat_multi_stim_exp1","2022-4-26","15:1:38","25","75","3","9","10","40","30","120","60","20","[""White""]","No","Female","2410265","null","null","","","","clear_screen","","","","","","","","","","","","","","","","","","","","","","","","","",""
"","","","","","canvas-keyboard-response","199","805532","0.0-12.0-2.37","2d_cat_multi_stim_exp1","2022-4-26","15:1:38","25","75","3","9","10","40","30","120","60","20","[""White""]","No","Female","2410265","810","i","learn","","","learn_trial","13.3333","50","out","0","1","","","","","","","","","","","","","","","","","","","","",""
"","","","","","canvas-keyboard-response","200","806043","0.0-12.0-3.37","2d_cat_multi_stim_exp1","2022-4-26","15:1:38","25","75","3","9","10","40","30","120","60","20","[""White""]","No","Female","2410265","null","null","learn_feedback","","","learn_feedback","13.3333","50","out","","","","","","","","","","","","","","","","","","","","","","",""
"","","","","","canvas-keyboard-response","201","806101","0.0-12.0-4.37","2d_cat_multi_stim_exp1","2022-4-26","15:1:38","25","75","3","9","10","40","30","120","60","20","[""White""]","No","Female","2410265","null","null","","","","clear_screen","","","","","","","","","","","","","","","","","","","","","","","","","",""
"","","","","","canvas-keyboard-response","202","806609","0.0-12.0-0.38","2d_cat_multi_stim_exp1","2022-4-26","15:1:38","25","75","3","9","10","40","30","120","60","20","[""White""]","No","Female","2410265","null","null","","","","fixation","","","","","","","","","","","","","","","","","","","","","","","","","",""
"","","","","","canvas-keyboard-response","203","807119","0.0-12.0-1.38","2d_cat_multi_stim_exp1","2022-4-26","15:1:38","25","75","3","9","10","40","30","120","60","20","[""White""]","No","Female","2410265","null","null","","","","clear_screen","","","","","","","","","","","","","","","","","","","","","","","","","",""
"","","","","","canvas-keyboard-response","204","808084","0.0-12.0-2.38","2d_cat_multi_stim_exp1","2022-4-26","15:1:38","25","75","3","9","10","40","30","120","60","20","[""White""]","No","Female","2410265","955","i","learn","","","learn_trial","36.6667","120","out","0","1","","","","","","","","","","","","","","","","","","","","",""
"","","","","","canvas-keyboard-response","205","808597","0.0-12.0-3.38","2d_cat_multi_stim_exp1","2022-4-26","15:1:38","25","75","3","9","10","40","30","120","60","20","[""White""]","No","Female","2410265","null","null","learn_feedback","","","learn_feedback","36.6667","120","out","","","","","","","","","","","","","","","","","","","","","","",""
"","","","","","canvas-keyboard-response","206","808656","0.0-12.0-4.38","2d_cat_multi_stim_exp1","2022-4-26","15:1:38","25","75","3","9","10","40","30","120","60","20","[""White""]","No","Female","2410265","null","null","","","","clear_screen","","","","","","","","","","","","","","","","","","","","","","","","","",""
"","","","","","canvas-keyboard-response","207","809165","0.0-12.0-0.39","2d_cat_multi_stim_exp1","2022-4-26","15:1:38","25","75","3","9","10","40","30","120","60","20","[""White""]","No","Female","2410265","null","null","","","","fixation","","","","","","","","","","","","","","","","","","","","","","","","","",""
"","","","","","canvas-keyboard-response","208","809674","0.0-12.0-1.39","2d_cat_multi_stim_exp1","2022-4-26","15:1:38","25","75","3","9","10","40","30","120","60","20","[""White""]","No","Female","2410265","null","null","","","","clear_screen","","","","","","","","","","","","","","","","","","","","","","","","","",""
"","","","","","canvas-keyboard-response","209","810460","0.0-12.0-2.39","2d_cat_multi_stim_exp1","2022-4-26","15:1:38","25","75","3","9","10","40","30","120","60","20","[""White""]","No","Female","2410265","777","i","learn","","","learn_trial","33.3333","50","out","0","1","","","","","","","","","","","","","","","","","","","","",""
"","","","","","canvas-keyboard-response","210","810970","0.0-12.0-3.39","2d_cat_multi_stim_exp1","2022-4-26","15:1:38","25","75","3","9","10","40","30","120","60","20","[""White""]","No","Female","2410265","null","null","learn_feedback","","","learn_feedback","33.3333","50","out","","","","","","","","","","","","","","","","","","","","","","",""
"","","","","","canvas-keyboard-response","211","811029","0.0-12.0-4.39","2d_cat_multi_stim_exp1","2022-4-26","15:1:38","25","75","3","9","10","40","30","120","60","20","[""White""]","No","Female","2410265","null","null","","","","clear_screen","","","","","","","","","","","","","","","","","","","","","","","","","",""
"","","","","","canvas-keyboard-response","212","811538","0.0-12.0-0.40","2d_cat_multi_stim_exp1","2022-4-26","15:1:38","25","75","3","9","10","40","30","120","60","20","[""White""]","No","Female","2410265","null","null","","","","fixation","","","","","","","","","","","","","","","","","","","","","","","","","",""
"","","","","","canvas-keyboard-response","213","812047","0.0-12.0-1.40","2d_cat_multi_stim_exp1","2022-4-26","15:1:38","25","75","3","9","10","40","30","120","60","20","[""White""]","No","Female","2410265","null","null","","","","clear_screen","","","","","","","","","","","","","","","","","","","","","","","","","",""
"","","","","","canvas-keyboard-response","214","812924","0.0-12.0-2.40","2d_cat_multi_stim_exp1","2022-4-26","15:1:38","25","75","3","9","10","40","30","120","60","20","[""White""]","No","Female","2410265","867","i","learn","","","learn_trial","16.6667","120","out","0","1","","","","","","","","","","","","","","","","","","","","",""
"","","","","","canvas-keyboard-response","215","813433","0.0-12.0-3.40","2d_cat_multi_stim_exp1","2022-4-26","15:1:38","25","75","3","9","10","40","30","120","60","20","[""White""]","No","Female","2410265","null","null","learn_feedback","","","learn_feedback","16.6667","120","out","","","","","","","","","","","","","","","","","","","","","","",""
"","","","","","canvas-keyboard-response","216","813492","0.0-12.0-4.40","2d_cat_multi_stim_exp1","2022-4-26","15:1:38","25","75","3","9","10","40","30","120","60","20","[""White""]","No","Female","2410265","null","null","","","","clear_screen","","","","","","","","","","","","","","","","","","","","","","","","","",""
"","","","","","canvas-keyboard-response","217","814001","0.0-12.0-0.41","2d_cat_multi_stim_exp1","2022-4-26","15:1:38","25","75","3","9","10","40","30","120","60","20","[""White""]","No","Female","2410265","null","null","","","","fixation","","","","","","","","","","","","","","","","","","","","","","","","","",""
"","","","","","canvas-keyboard-response","218","814511","0.0-12.0-1.41","2d_cat_multi_stim_exp1","2022-4-26","15:1:38","25","75","3","9","10","40","30","120","60","20","[""White""]","No","Female","2410265","null","null","","","","clear_screen","","","","","","","","","","","","","","","","","","","","","","","","","",""
"","","","","","canvas-keyboard-response","219","815124","0.0-12.0-2.41","2d_cat_multi_stim_exp1","2022-4-26","15:1:38","25","75","3","9","10","40","30","120","60","20","[""White""]","No","Female","2410265","604","u","learn","","","learn_trial","27.2592","80.9214","in","1","1","","","","","","","","","","","","","","","","","","","","",""
"","","","","","canvas-keyboard-response","220","815635","0.0-12.0-3.41","2d_cat_multi_stim_exp1","2022-4-26","15:1:38","25","75","3","9","10","40","30","120","60","20","[""White""]","No","Female","2410265","null","null","learn_feedback","","","learn_feedback","27.2592","80.9214","in","","","","","","","","","","","","","","","","","","","","","","",""
"","","","","","canvas-keyboard-response","221","815697","0.0-12.0-4.41","2d_cat_multi_stim_exp1","2022-4-26","15:1:38","25","75","3","9","10","40","30","120","60","20","[""White""]","No","Female","2410265","null","null","","","","clear_screen","","","","","","","","","","","","","","","","","","","","","","","","","",""
"","","","","","canvas-keyboard-response","222","816209","0.0-12.0-0.42","2d_cat_multi_stim_exp1","2022-4-26","15:1:38","25","75","3","9","10","40","30","120","60","20","[""White""]","No","Female","2410265","null","null","","","","fixation","","","","","","","","","","","","","","","","","","","","","","","","","",""
"","","","","","canvas-keyboard-response","223","816719","0.0-12.0-1.42","2d_cat_multi_stim_exp1","2022-4-26","15:1:38","25","75","3","9","10","40","30","120","60","20","[""White""]","No","Female","2410265","null","null","","","","clear_screen","","","","","","","","","","","","","","","","","","","","","","","","","",""
"","","","","","canvas-keyboard-response","224","817805","0.0-12.0-2.42","2d_cat_multi_stim_exp1","2022-4-26","15:1:38","25","75","3","9","10","40","30","120","60","20","[""White""]","No","Female","2410265","1074","i","learn","","","learn_trial","40","50","out","0","1","","","","","","","","","","","","","","","","","","","","",""
"","","","","","canvas-keyboard-response","225","818315","0.0-12.0-3.42","2d_cat_multi_stim_exp1","2022-4-26","15:1:38","25","75","3","9","10","40","30","120","60","20","[""White""]","No","Female","2410265","null","null","learn_feedback","","","learn_feedback","40","50","out","","","","","","","","","","","","","","","","","","","","","","",""
"","","","","","canvas-keyboard-response","226","818375","0.0-12.0-4.42","2d_cat_multi_stim_exp1","2022-4-26","15:1:38","25","75","3","9","10","40","30","120","60","20","[""White""]","No","Female","2410265","null","null","","","","clear_screen","","","","","","","","","","","","","","","","","","","","","","","","","",""
"","","","","","canvas-keyboard-response","227","818884","0.0-12.0-0.43","2d_cat_multi_stim_exp1","2022-4-26","15:1:38","25","75","3","9","10","40","30","120","60","20","[""White""]","No","Female","2410265","null","null","","","","fixation","","","","","","","","","","","","","","","","","","","","","","","","","",""
"","","","","","canvas-keyboard-response","228","819394","0.0-12.0-1.43","2d_cat_multi_stim_exp1","2022-4-26","15:1:38","25","75","3","9","10","40","30","120","60","20","[""White""]","No","Female","2410265","null","null","","","","clear_screen","","","","","","","","","","","","","","","","","","","","","","","","","",""
"","","","","","canvas-keyboard-response","229","820613","0.0-12.0-2.43","2d_cat_multi_stim_exp1","2022-4-26","15:1:38","25","75","3","9","10","40","30","120","60","20","[""White""]","No","Female","2410265","1208","u","learn","","","learn_trial","22.2971","71.095","in","1","1","","","","","","","","","","","","","","","","","","","","",""
"","","","","","canvas-keyboard-response","230","821124","0.0-12.0-3.43","2d_cat_multi_stim_exp1","2022-4-26","15:1:38","25","75","3","9","10","40","30","120","60","20","[""White""]","No","Female","2410265","null","null","learn_feedback","","","learn_feedback","22.2971","71.095","in","","","","","","","","","","","","","","","","","","","","","","",""
"","","","","","canvas-keyboard-response","231","821184","0.0-12.0-4.43","2d_cat_multi_stim_exp1","2022-4-26","15:1:38","25","75","3","9","10","40","30","120","60","20","[""White""]","No","Female","2410265","null","null","","","","clear_screen","","","","","","","","","","","","","","","","","","","","","","","","","",""
"","","","","","canvas-keyboard-response","232","821694","0.0-12.0-0.44","2d_cat_multi_stim_exp1","2022-4-26","15:1:38","25","75","3","9","10","40","30","120","60","20","[""White""]","No","Female","2410265","null","null","","","","fixation","","","","","","","","","","","","","","","","","","","","","","","","","",""
"","","","","","canvas-keyboard-response","233","822204","0.0-12.0-1.44","2d_cat_multi_stim_exp1","2022-4-26","15:1:38","25","75","3","9","10","40","30","120","60","20","[""White""]","No","Female","2410265","null","null","","","","clear_screen","","","","","","","","","","","","","","","","","","","","","","","","","",""
"","","","","","canvas-keyboard-response","234","822741","0.0-12.0-2.44","2d_cat_multi_stim_exp1","2022-4-26","15:1:38","25","75","3","9","10","40","30","120","60","20","[""White""]","No","Female","2410265","526","i","learn","","","learn_trial","36.6667","110","out","0","1","","","","","","","","","","","","","","","","","","","","",""
"","","","","","canvas-keyboard-response","235","823251","0.0-12.0-3.44","2d_cat_multi_stim_exp1","2022-4-26","15:1:38","25","75","3","9","10","40","30","120","60","20","[""White""]","No","Female","2410265","null","null","learn_feedback","","","learn_feedback","36.6667","110","out","","","","","","","","","","","","","","","","","","","","","","",""
"","","","","","canvas-keyboard-response","236","823312","0.0-12.0-4.44","2d_cat_multi_stim_exp1","2022-4-26","15:1:38","25","75","3","9","10","40","30","120","60","20","[""White""]","No","Female","2410265","null","null","","","","clear_screen","","","","","","","","","","","","","","","","","","","","","","","","","",""
"","","","","","canvas-keyboard-response","237","823820","0.0-12.0-0.45","2d_cat_multi_stim_exp1","2022-4-26","15:1:38","25","75","3","9","10","40","30","120","60","20","[""White""]","No","Female","2410265","null","null","","","","fixation","","","","","","","","","","","","","","","","","","","","","","","","","",""
"","","","","","canvas-keyboard-response","238","824330","0.0-12.0-1.45","2d_cat_multi_stim_exp1","2022-4-26","15:1:38","25","75","3","9","10","40","30","120","60","20","[""White""]","No","Female","2410265","null","null","","","","clear_screen","","","","","","","","","","","","","","","","","","","","","","","","","",""
"","","","","","canvas-keyboard-response","239","824924","0.0-12.0-2.45","2d_cat_multi_stim_exp1","2022-4-26","15:1:38","25","75","3","9","10","40","30","120","60","20","[""White""]","No","Female","2410265","585","u","learn","","","learn_trial","24.3324","83.7744","in","1","1","","","","","","","","","","","","","","","","","","","","",""
"","","","","","canvas-keyboard-response","240","825435","0.0-12.0-3.45","2d_cat_multi_stim_exp1","2022-4-26","15:1:38","25","75","3","9","10","40","30","120","60","20","[""White""]","No","Female","2410265","null","null","learn_feedback","","","learn_feedback","24.3324","83.7744","in","","","","","","","","","","","","","","","","","","","","","","",""
"","","","","","canvas-keyboard-response","241","825494","0.0-12.0-4.45","2d_cat_multi_stim_exp1","2022-4-26","15:1:38","25","75","3","9","10","40","30","120","60","20","[""White""]","No","Female","2410265","null","null","","","","clear_screen","","","","","","","","","","","","","","","","","","","","","","","","","",""
"","","","","","canvas-keyboard-response","242","826003","0.0-12.0-0.46","2d_cat_multi_stim_exp1","2022-4-26","15:1:38","25","75","3","9","10","40","30","120","60","20","[""White""]","No","Female","2410265","null","null","","","","fixation","","","","","","","","","","","","","","","","","","","","","","","","","",""
"","","","","","canvas-keyboard-response","243","826513","0.0-12.0-1.46","2d_cat_multi_stim_exp1","2022-4-26","15:1:38","25","75","3","9","10","40","30","120","60","20","[""White""]","No","Female","2410265","null","null","","","","clear_screen","","","","","","","","","","","","","","","","","","","","","","","","","",""
"","","","","","canvas-keyboard-response","244","827549","0.0-12.0-2.46","2d_cat_multi_stim_exp1","2022-4-26","15:1:38","25","75","3","9","10","40","30","120","60","20","[""White""]","No","Female","2410265","1026","i","learn","","","learn_trial","33.3333","40","out","0","1","","","","","","","","","","","","","","","","","","","","",""
"","","","","","canvas-keyboard-response","245","828058","0.0-12.0-3.46","2d_cat_multi_stim_exp1","2022-4-26","15:1:38","25","75","3","9","10","40","30","120","60","20","[""White""]","No","Female","2410265","null","null","learn_feedback","","","learn_feedback","33.3333","40","out","","","","","","","","","","","","","","","","","","","","","","",""
"","","","","","canvas-keyboard-response","246","828117","0.0-12.0-4.46","2d_cat_multi_stim_exp1","2022-4-26","15:1:38","25","75","3","9","10","40","30","120","60","20","[""White""]","No","Female","2410265","null","null","","","","clear_screen","","","","","","","","","","","","","","","","","","","","","","","","","",""
"","","","","","canvas-keyboard-response","247","828628","0.0-12.0-0.47","2d_cat_multi_stim_exp1","2022-4-26","15:1:38","25","75","3","9","10","40","30","120","60","20","[""White""]","No","Female","2410265","null","null","","","","fixation","","","","","","","","","","","","","","","","","","","","","","","","","",""
"","","","","","canvas-keyboard-response","248","829137","0.0-12.0-1.47","2d_cat_multi_stim_exp1","2022-4-26","15:1:38","25","75","3","9","10","40","30","120","60","20","[""White""]","No","Female","2410265","null","null","","","","clear_screen","","","","","","","","","","","","","","","","","","","","","","","","","",""
"","","","","","canvas-keyboard-response","249","829772","0.0-12.0-2.47","2d_cat_multi_stim_exp1","2022-4-26","15:1:38","25","75","3","9","10","40","30","120","60","20","[""White""]","No","Female","2410265","626","i","learn","","","learn_trial","10","60","out","0","1","","","","","","","","","","","","","","","","","","","","",""
"","","","","","canvas-keyboard-response","250","830282","0.0-12.0-3.47","2d_cat_multi_stim_exp1","2022-4-26","15:1:38","25","75","3","9","10","40","30","120","60","20","[""White""]","No","Female","2410265","null","null","learn_feedback","","","learn_feedback","10","60","out","","","","","","","","","","","","","","","","","","","","","","",""
"","","","","","canvas-keyboard-response","251","830341","0.0-12.0-4.47","2d_cat_multi_stim_exp1","2022-4-26","15:1:38","25","75","3","9","10","40","30","120","60","20","[""White""]","No","Female","2410265","null","null","","","","clear_screen","","","","","","","","","","","","","","","","","","","","","","","","","",""
"","","","","","canvas-keyboard-response","252","830850","0.0-12.0-0.48","2d_cat_multi_stim_exp1","2022-4-26","15:1:38","25","75","3","9","10","40","30","120","60","20","[""White""]","No","Female","2410265","null","null","","","","fixation","","","","","","","","","","","","","","","","","","","","","","","","","",""
"","","","","","canvas-keyboard-response","253","831360","0.0-12.0-1.48","2d_cat_multi_stim_exp1","2022-4-26","15:1:38","25","75","3","9","10","40","30","120","60","20","[""White""]","No","Female","2410265","null","null","","","","clear_screen","","","","","","","","","","","","","","","","","","","","","","","","","",""
"","","","","","canvas-keyboard-response","254","832404","0.0-12.0-2.48","2d_cat_multi_stim_exp1","2022-4-26","15:1:38","25","75","3","9","10","40","30","120","60","20","[""White""]","No","Female","2410265","1030","i","learn","","","learn_trial","20","70","out","0","1","","","","","","","","","","","","","","","","","","","","",""
"","","","","","canvas-keyboard-response","255","832914","0.0-12.0-3.48","2d_cat_multi_stim_exp1","2022-4-26","15:1:38","25","75","3","9","10","40","30","120","60","20","[""White""]","No","Female","2410265","null","null","learn_feedback","","","learn_feedback","20","70","out","","","","","","","","","","","","","","","","","","","","","","",""
"","","","","","canvas-keyboard-response","256","832974","0.0-12.0-4.48","2d_cat_multi_stim_exp1","2022-4-26","15:1:38","25","75","3","9","10","40","30","120","60","20","[""White""]","No","Female","2410265","null","null","","","","clear_screen","","","","","","","","","","","","","","","","","","","","","","","","","",""
"","","","","","canvas-keyboard-response","257","833482","0.0-12.0-0.49","2d_cat_multi_stim_exp1","2022-4-26","15:1:38","25","75","3","9","10","40","30","120","60","20","[""White""]","No","Female","2410265","null","null","","","","fixation","","","","","","","","","","","","","","","","","","","","","","","","","",""
"","","","","","canvas-keyboard-response","258","833993","0.0-12.0-1.49","2d_cat_multi_stim_exp1","2022-4-26","15:1:38","25","75","3","9","10","40","30","120","60","20","[""White""]","No","Female","2410265","null","null","","","","clear_screen","","","","","","","","","","","","","","","","","","","","","","","","","",""
"","","","","","canvas-keyboard-response","259","834828","0.0-12.0-2.49","2d_cat_multi_stim_exp1","2022-4-26","15:1:38","25","75","3","9","10","40","30","120","60","20","[""White""]","No","Female","2410265","826","u","learn","","","learn_trial","27.5753","79.6161","in","1","1","","","","","","","","","","","","","","","","","","","","",""
"","","","","","canvas-keyboard-response","260","835339","0.0-12.0-3.49","2d_cat_multi_stim_exp1","2022-4-26","15:1:38","25","75","3","9","10","40","30","120","60","20","[""White""]","No","Female","2410265","null","null","learn_feedback","","","learn_feedback","27.5753","79.6161","in","","","","","","","","","","","","","","","","","","","","","","",""
"","","","","","canvas-keyboard-response","261","835397","0.0-12.0-4.49","2d_cat_multi_stim_exp1","2022-4-26","15:1:38","25","75","3","9","10","40","30","120","60","20","[""White""]","No","Female","2410265","null","null","","","","clear_screen","","","","","","","","","","","","","","","","","","","","","","","","","",""
"","","","","","canvas-keyboard-response","262","835907","0.0-12.0-0.50","2d_cat_multi_stim_exp1","2022-4-26","15:1:38","25","75","3","9","10","40","30","120","60","20","[""White""]","No","Female","2410265","null","null","","","","fixation","","","","","","","","","","","","","","","","","","","","","","","","","",""
"","","","","","canvas-keyboard-response","263","836416","0.0-12.0-1.50","2d_cat_multi_stim_exp1","2022-4-26","15:1:38","25","75","3","9","10","40","30","120","60","20","[""White""]","No","Female","2410265","null","null","","","","clear_screen","","","","","","","","","","","","","","","","","","","","","","","","","",""
"","","","","","canvas-keyboard-response","264","837284","0.0-12.0-2.50","2d_cat_multi_stim_exp1","2022-4-26","15:1:38","25","75","3","9","10","40","30","120","60","20","[""White""]","No","Female","2410265","859","i","learn","","","learn_trial","20","60","out","0","1","","","","","","","","","","","","","","","","","","","","",""
"","","","","","canvas-keyboard-response","265","837793","0.0-12.0-3.50","2d_cat_multi_stim_exp1","2022-4-26","15:1:38","25","75","3","9","10","40","30","120","60","20","[""White""]","No","Female","2410265","null","null","learn_feedback","","","learn_feedback","20","60","out","","","","","","","","","","","","","","","","","","","","","","",""
"","","","","","canvas-keyboard-response","266","837853","0.0-12.0-4.50","2d_cat_multi_stim_exp1","2022-4-26","15:1:38","25","75","3","9","10","40","30","120","60","20","[""White""]","No","Female","2410265","null","null","","","","clear_screen","","","","","","","","","","","","","","","","","","","","","","","","","",""
"","","","","","canvas-keyboard-response","267","838362","0.0-12.0-0.51","2d_cat_multi_stim_exp1","2022-4-26","15:1:38","25","75","3","9","10","40","30","120","60","20","[""White""]","No","Female","2410265","null","null","","","","fixation","","","","","","","","","","","","","","","","","","","","","","","","","",""
"","","","","","canvas-keyboard-response","268","838872","0.0-12.0-1.51","2d_cat_multi_stim_exp1","2022-4-26","15:1:38","25","75","3","9","10","40","30","120","60","20","[""White""]","No","Female","2410265","null","null","","","","clear_screen","","","","","","","","","","","","","","","","","","","","","","","","","",""
"","","","","","canvas-keyboard-response","269","839604","0.0-12.0-2.51","2d_cat_multi_stim_exp1","2022-4-26","15:1:38","25","75","3","9","10","40","30","120","60","20","[""White""]","No","Female","2410265","723","u","learn","","","learn_trial","25","75","in","1","1","","","","","","","","","","","","","","","","","","","","",""
"","","","","","canvas-keyboard-response","270","840114","0.0-12.0-3.51","2d_cat_multi_stim_exp1","2022-4-26","15:1:38","25","75","3","9","10","40","30","120","60","20","[""White""]","No","Female","2410265","null","null","learn_feedback","","","learn_feedback","25","75","in","","","","","","","","","","","","","","","","","","","","","","",""
"","","","","","canvas-keyboard-response","271","840173","0.0-12.0-4.51","2d_cat_multi_stim_exp1","2022-4-26","15:1:38","25","75","3","9","10","40","30","120","60","20","[""White""]","No","Female","2410265","null","null","","","","clear_screen","","","","","","","","","","","","","","","","","","","","","","","","","",""
"","","","","","canvas-keyboard-response","272","840682","0.0-12.0-0.52","2d_cat_multi_stim_exp1","2022-4-26","15:1:38","25","75","3","9","10","40","30","120","60","20","[""White""]","No","Female","2410265","null","null","","","","fixation","","","","","","","","","","","","","","","","","","","","","","","","","",""
"","","","","","canvas-keyboard-response","273","841192","0.0-12.0-1.52","2d_cat_multi_stim_exp1","2022-4-26","15:1:38","25","75","3","9","10","40","30","120","60","20","[""White""]","No","Female","2410265","null","null","","","","clear_screen","","","","","","","","","","","","","","","","","","","","","","","","","",""
"","","","","","canvas-keyboard-response","274","841917","0.0-12.0-2.52","2d_cat_multi_stim_exp1","2022-4-26","15:1:38","25","75","3","9","10","40","30","120","60","20","[""White""]","No","Female","2410265","713","i","learn","","","learn_trial","26.8705","67.9635","in","0","0","","","","","","","","","","","","","","","","","","","","",""
"","","","","","canvas-keyboard-response","275","842927","0.0-12.0-3.52","2d_cat_multi_stim_exp1","2022-4-26","15:1:38","25","75","3","9","10","40","30","120","60","20","[""White""]","No","Female","2410265","null","null","learn_feedback","","","learn_feedback","26.8705","67.9635","in","","","","","","","","","","","","","","","","","","","","","","",""
"","","","","","canvas-keyboard-response","276","842986","0.0-12.0-4.52","2d_cat_multi_stim_exp1","2022-4-26","15:1:38","25","75","3","9","10","40","30","120","60","20","[""White""]","No","Female","2410265","null","null","","","","clear_screen","","","","","","","","","","","","","","","","","","","","","","","","","",""
"","","","","","canvas-keyboard-response","277","843496","0.0-12.0-0.53","2d_cat_multi_stim_exp1","2022-4-26","15:1:38","25","75","3","9","10","40","30","120","60","20","[""White""]","No","Female","2410265","null","null","","","","fixation","","","","","","","","","","","","","","","","","","","","","","","","","",""
"","","","","","canvas-keyboard-response","278","844004","0.0-12.0-1.53","2d_cat_multi_stim_exp1","2022-4-26","15:1:38","25","75","3","9","10","40","30","120","60","20","[""White""]","No","Female","2410265","null","null","","","","clear_screen","","","","","","","","","","","","","","","","","","","","","","","","","",""
"","","","","","canvas-keyboard-response","279","844948","0.0-12.0-2.53","2d_cat_multi_stim_exp1","2022-4-26","15:1:38","25","75","3","9","10","40","30","120","60","20","[""White""]","No","Female","2410265","934","i","learn","","","learn_trial","33.3333","100","out","0","1","","","","","","","","","","","","","","","","","","","","",""
"","","","","","canvas-keyboard-response","280","845458","0.0-12.0-3.53","2d_cat_multi_stim_exp1","2022-4-26","15:1:38","25","75","3","9","10","40","30","120","60","20","[""White""]","No","Female","2410265","null","null","learn_feedback","","","learn_feedback","33.3333","100","out","","","","","","","","","","","","","","","","","","","","","","",""
"","","","","","canvas-keyboard-response","281","845517","0.0-12.0-4.53","2d_cat_multi_stim_exp1","2022-4-26","15:1:38","25","75","3","9","10","40","30","120","60","20","[""White""]","No","Female","2410265","null","null","","","","clear_screen","","","","","","","","","","","","","","","","","","","","","","","","","",""
"","","","","","canvas-keyboard-response","282","846025","0.0-12.0-0.54","2d_cat_multi_stim_exp1","2022-4-26","15:1:38","25","75","3","9","10","40","30","120","60","20","[""White""]","No","Female","2410265","null","null","","","","fixation","","","","","","","","","","","","","","","","","","","","","","","","","",""
"","","","","","canvas-keyboard-response","283","846535","0.0-12.0-1.54","2d_cat_multi_stim_exp1","2022-4-26","15:1:38","25","75","3","9","10","40","30","120","60","20","[""White""]","No","Female","2410265","null","null","","","","clear_screen","","","","","","","","","","","","","","","","","","","","","","","","","",""
"","","","","","canvas-keyboard-response","284","847428","0.0-12.0-2.54","2d_cat_multi_stim_exp1","2022-4-26","15:1:38","25","75","3","9","10","40","30","120","60","20","[""White""]","No","Female","2410265","883","i","learn","","","learn_trial","40","120","out","0","1","","","","","","","","","","","","","","","","","","","","",""
"","","","","","canvas-keyboard-response","285","847941","0.0-12.0-3.54","2d_cat_multi_stim_exp1","2022-4-26","15:1:38","25","75","3","9","10","40","30","120","60","20","[""White""]","No","Female","2410265","null","null","learn_feedback","","","learn_feedback","40","120","out","","","","","","","","","","","","","","","","","","","","","","",""
"","","","","","canvas-keyboard-response","286","848000","0.0-12.0-4.54","2d_cat_multi_stim_exp1","2022-4-26","15:1:38","25","75","3","9","10","40","30","120","60","20","[""White""]","No","Female","2410265","null","null","","","","clear_screen","","","","","","","","","","","","","","","","","","","","","","","","","",""
"","","","","","canvas-keyboard-response","287","848509","0.0-12.0-0.55","2d_cat_multi_stim_exp1","2022-4-26","15:1:38","25","75","3","9","10","40","30","120","60","20","[""White""]","No","Female","2410265","null","null","","","","fixation","","","","","","","","","","","","","","","","","","","","","","","","","",""
"","","","","","canvas-keyboard-response","288","849019","0.0-12.0-1.55","2d_cat_multi_stim_exp1","2022-4-26","15:1:38","25","75","3","9","10","40","30","120","60","20","[""White""]","No","Female","2410265","null","null","","","","clear_screen","","","","","","","","","","","","","","","","","","","","","","","","","",""
"","","","","","canvas-keyboard-response","289","849788","0.0-12.0-2.55","2d_cat_multi_stim_exp1","2022-4-26","15:1:38","25","75","3","9","10","40","30","120","60","20","[""White""]","No","Female","2410265","761","u","learn","","","learn_trial","30","80","out","1","0","","","","","","","","","","","","","","","","","","","","",""
"","","","","","canvas-keyboard-response","290","850798","0.0-12.0-3.55","2d_cat_multi_stim_exp1","2022-4-26","15:1:38","25","75","3","9","10","40","30","120","60","20","[""White""]","No","Female","2410265","null","null","learn_feedback","","","learn_feedback","30","80","out","","","","","","","","","","","","","","","","","","","","","","",""
"","","","","","canvas-keyboard-response","291","850857","0.0-12.0-4.55","2d_cat_multi_stim_exp1","2022-4-26","15:1:38","25","75","3","9","10","40","30","120","60","20","[""White""]","No","Female","2410265","null","null","","","","clear_screen","","","","","","","","","","","","","","","","","","","","","","","","","",""
"","","","","","canvas-keyboard-response","292","851366","0.0-12.0-0.56","2d_cat_multi_stim_exp1","2022-4-26","15:1:38","25","75","3","9","10","40","30","120","60","20","[""White""]","No","Female","2410265","null","null","","","","fixation","","","","","","","","","","","","","","","","","","","","","","","","","",""
"","","","","","canvas-keyboard-response","293","851875","0.0-12.0-1.56","2d_cat_multi_stim_exp1","2022-4-26","15:1:38","25","75","3","9","10","40","30","120","60","20","[""White""]","No","Female","2410265","null","null","","","","clear_screen","","","","","","","","","","","","","","","","","","","","","","","","","",""
"","","","","","canvas-keyboard-response","294","852612","0.0-12.0-2.56","2d_cat_multi_stim_exp1","2022-4-26","15:1:38","25","75","3","9","10","40","30","120","60","20","[""White""]","No","Female","2410265","727","i","learn","","","learn_trial","24.8654","66.0091","in","0","0","","","","","","","","","","","","","","","","","","","","",""
"","","","","","canvas-keyboard-response","295","853622","0.0-12.0-3.56","2d_cat_multi_stim_exp1","2022-4-26","15:1:38","25","75","3","9","10","40","30","120","60","20","[""White""]","No","Female","2410265","null","null","learn_feedback","","","learn_feedback","24.8654","66.0091","in","","","","","","","","","","","","","","","","","","","","","","",""
"","","","","","canvas-keyboard-response","296","853682","0.0-12.0-4.56","2d_cat_multi_stim_exp1","2022-4-26","15:1:38","25","75","3","9","10","40","30","120","60","20","[""White""]","No","Female","2410265","null","null","","","","clear_screen","","","","","","","","","","","","","","","","","","","","","","","","","",""
