"success","timeout","failed_images","failed_audio","failed_video","trial_type","trial_index","time_elapsed","internal_node_id","exp_name","date","time","angle_mean_in","radius_mean_in","angle_sd_in","radius_sd_in","angle_min_out","angle_max_out","radius_min_out","radius_max_out","sub_n","age","race","ethnicity","gender","exp_duration","rt","response","exp_trial_type","stimulus","view_history","screen_id","angle","radius","distribution","choice","correct","order","angle_a","radius_a","angle_b","radius_b","angle_c","radius_c","jkl_correct","transfer_trial_type","choice_set","abc_correct","tc_correct","tc_angle","tdc_a","tdc_b","tdc_c","pair","category_a","category_b","category_c","question_order"
"true","false","[]","[]","[]","preload","0","20","0.0-0.0","2d_cat_multi_stim_exp1","2022-4-11","11:26:5","25","75","3","9","10","40","30","120","25","20","[""White""]","No","Female","1700748","","","","","","","","","","","","","","","","","","","","","","","","","","","","","","","",""
"","","","","","survey-html-form","1","3800","0.0-1.0","2d_cat_multi_stim_exp1","2022-4-11","11:26:5","25","75","3","9","10","40","30","120","25","20","[""White""]","No","Female","1700748","3768","{""response"":""25""}","enter-sub-number","","","","","","","","","","","","","","","","","","","","","","","","","","","","",""
"true","","","","","fullscreen","2","22020","0.0-2.0","2d_cat_multi_stim_exp1","2022-4-11","11:26:5","25","75","3","9","10","40","30","120","25","20","[""White""]","No","Female","1700748","","","","","","","","","","","","","","","","","","","","","","","","","","","","","","","",""
"","","","","","image-button-response","3","27164","0.0-3.0","2d_cat_multi_stim_exp1","2022-4-11","11:26:5","25","75","3","9","10","40","30","120","25","20","[""White""]","No","Female","1700748","5137","0","","consent.png","","","","","","","","","","","","","","","","","","","","","","","","","","","",""
"","","","","","html-button-response","4","34539","0.0-4.0","2d_cat_multi_stim_exp1","2022-4-11","11:26:5","25","75","3","9","10","40","30","120","25","20","[""White""]","No","Female","1700748","7370","0","","<div style= ""font-size:25px;"" <p> <strong> Welcome to the experiment! </strong><br> <p style=""color:#8B0000; font-size:25px;""><strong> Please do NOT exit full screen until you are done with the experiment. </strong> </p><p style=""font-size:25px;color:#8B0000;""> <strong> The experiment will be canceled and your data will be lost <br> if you try to go back or refresh the page at any point during the experiment.</strong> </p><br><p> <strong> Thanks in advance for your contribution to our research! </strong></p>","","","","","","","","","","","","","","","","","","","","","","","","","","","",""
"","","","","","instructions","5","71308","0.0-5.0","2d_cat_multi_stim_exp1","2022-4-11","11:26:5","25","75","3","9","10","40","30","120","25","20","[""White""]","No","Female","1700748","36763","","","","[{""page_index"":0,""viewing_time"":4795},{""page_index"":1,""viewing_time"":1968},{""page_index"":2,""viewing_time"":13328},{""page_index"":3,""viewing_time"":16672}]","instructions_1","","","","","","","","","","","","","","","","","","","","","","","","","",""
"","","","","","instructions","6","73652","0.0-6.0","2d_cat_multi_stim_exp1","2022-4-11","11:26:5","25","75","3","9","10","40","30","120","25","20","[""White""]","No","Female","1700748","2340","","","","[{""page_index"":0,""viewing_time"":2340}]","Click to see the kinds of turtles that will appear in the study.","","","","","","","","","","","","","","","","","","","","","","","","","",""
"","","","","","canvas-keyboard-response","7","88669","0.0-7.0","2d_cat_multi_stim_exp1","2022-4-11","11:26:5","25","75","3","9","10","40","30","120","25","20","[""White""]","No","Female","1700748","null","null","","","","demo_range","","","","","","","","","","","","","","","","","","","","","","","","","",""
"","","","","","instructions","8","91796","0.0-8.0","2d_cat_multi_stim_exp1","2022-4-11","11:26:5","25","75","3","9","10","40","30","120","25","20","[""White""]","No","Female","1700748","2622","","","","[{""page_index"":0,""viewing_time"":2622}]","Click to see some turtles in the subspecies.","","","","","","","","","","","","","","","","","","","","","","","","","",""
"","","","","","canvas-keyboard-response","9","106810","0.0-9.0","2d_cat_multi_stim_exp1","2022-4-11","11:26:5","25","75","3","9","10","40","30","120","25","20","[""White""]","No","Female","1700748","null","null","","","","demo_in","","","","","","","","","","","","","","","","","","","","","","","","","",""
"","","","","","instructions","10","135452","0.0-10.0","2d_cat_multi_stim_exp1","2022-4-11","11:26:5","25","75","3","9","10","40","30","120","25","20","[""White""]","No","Female","1700748","28139","","","","[{""page_index"":0,""viewing_time"":7075},{""page_index"":1,""viewing_time"":17256},{""page_index"":2,""viewing_time"":3808}]","instructions_2","","","","","","","","","","","","","","","","","","","","","","","","","",""
"","","","","","instructions","11","136858","0.0-11.0","2d_cat_multi_stim_exp1","2022-4-11","11:26:5","25","75","3","9","10","40","30","120","25","20","[""White""]","No","Female","1700748","1404","","","","[{""page_index"":0,""viewing_time"":1403}]","Click to begin the first phase of the experiment.","","","","","","","","","","","","","","","","","","","","","","","","","",""
"","","","","","canvas-keyboard-response","12","137367","0.0-12.0-0.0","2d_cat_multi_stim_exp1","2022-4-11","11:26:5","25","75","3","9","10","40","30","120","25","20","[""White""]","No","Female","1700748","null","null","","","","fixation","","","","","","","","","","","","","","","","","","","","","","","","","",""
"","","","","","canvas-keyboard-response","13","137877","0.0-12.0-1.0","2d_cat_multi_stim_exp1","2022-4-11","11:26:5","25","75","3","9","10","40","30","120","25","20","[""White""]","No","Female","1700748","null","null","","","","clear_screen","","","","","","","","","","","","","","","","","","","","","","","","","",""
"","","","","","canvas-keyboard-response","14","142387","0.0-12.0-2.0","2d_cat_multi_stim_exp1","2022-4-11","11:26:5","25","75","3","9","10","40","30","120","25","20","[""White""]","No","Female","1700748","4499","u","learn","","","learn_trial","36.6667","70","out","1","0","","","","","","","","","","","","","","","","","","","","",""
"","","","","","canvas-keyboard-response","15","143396","0.0-12.0-3.0","2d_cat_multi_stim_exp1","2022-4-11","11:26:5","25","75","3","9","10","40","30","120","25","20","[""White""]","No","Female","1700748","null","null","learn_feedback","","","learn_feedback","36.6667","70","out","","","","","","","","","","","","","","","","","","","","","","",""
"","","","","","canvas-keyboard-response","16","143458","0.0-12.0-4.0","2d_cat_multi_stim_exp1","2022-4-11","11:26:5","25","75","3","9","10","40","30","120","25","20","[""White""]","No","Female","1700748","null","null","","","","clear_screen","","","","","","","","","","","","","","","","","","","","","","","","","",""
"","","","","","canvas-keyboard-response","17","143968","0.0-12.0-0.1","2d_cat_multi_stim_exp1","2022-4-11","11:26:5","25","75","3","9","10","40","30","120","25","20","[""White""]","No","Female","1700748","null","null","","","","fixation","","","","","","","","","","","","","","","","","","","","","","","","","",""
"","","","","","canvas-keyboard-response","18","144478","0.0-12.0-1.1","2d_cat_multi_stim_exp1","2022-4-11","11:26:5","25","75","3","9","10","40","30","120","25","20","[""White""]","No","Female","1700748","null","null","","","","clear_screen","","","","","","","","","","","","","","","","","","","","","","","","","",""
"","","","","","canvas-keyboard-response","19","146275","0.0-12.0-2.1","2d_cat_multi_stim_exp1","2022-4-11","11:26:5","25","75","3","9","10","40","30","120","25","20","[""White""]","No","Female","1700748","1786","i","learn","","","learn_trial","22.9268","68.4948","in","0","0","","","","","","","","","","","","","","","","","","","","",""
"","","","","","canvas-keyboard-response","20","147288","0.0-12.0-3.1","2d_cat_multi_stim_exp1","2022-4-11","11:26:5","25","75","3","9","10","40","30","120","25","20","[""White""]","No","Female","1700748","null","null","learn_feedback","","","learn_feedback","22.9268","68.4948","in","","","","","","","","","","","","","","","","","","","","","","",""
"","","","","","canvas-keyboard-response","21","147349","0.0-12.0-4.1","2d_cat_multi_stim_exp1","2022-4-11","11:26:5","25","75","3","9","10","40","30","120","25","20","[""White""]","No","Female","1700748","null","null","","","","clear_screen","","","","","","","","","","","","","","","","","","","","","","","","","",""
"","","","","","canvas-keyboard-response","22","147860","0.0-12.0-0.2","2d_cat_multi_stim_exp1","2022-4-11","11:26:5","25","75","3","9","10","40","30","120","25","20","[""White""]","No","Female","1700748","null","null","","","","fixation","","","","","","","","","","","","","","","","","","","","","","","","","",""
"","","","","","canvas-keyboard-response","23","148370","0.0-12.0-1.2","2d_cat_multi_stim_exp1","2022-4-11","11:26:5","25","75","3","9","10","40","30","120","25","20","[""White""]","No","Female","1700748","null","null","","","","clear_screen","","","","","","","","","","","","","","","","","","","","","","","","","",""
"","","","","","canvas-keyboard-response","24","149924","0.0-12.0-2.2","2d_cat_multi_stim_exp1","2022-4-11","11:26:5","25","75","3","9","10","40","30","120","25","20","[""White""]","No","Female","1700748","1542","u","learn","","","learn_trial","13.3333","70","out","1","0","","","","","","","","","","","","","","","","","","","","",""
"","","","","","canvas-keyboard-response","25","150933","0.0-12.0-3.2","2d_cat_multi_stim_exp1","2022-4-11","11:26:5","25","75","3","9","10","40","30","120","25","20","[""White""]","No","Female","1700748","null","null","learn_feedback","","","learn_feedback","13.3333","70","out","","","","","","","","","","","","","","","","","","","","","","",""
"","","","","","canvas-keyboard-response","26","150994","0.0-12.0-4.2","2d_cat_multi_stim_exp1","2022-4-11","11:26:5","25","75","3","9","10","40","30","120","25","20","[""White""]","No","Female","1700748","null","null","","","","clear_screen","","","","","","","","","","","","","","","","","","","","","","","","","",""
"","","","","","canvas-keyboard-response","27","151503","0.0-12.0-0.3","2d_cat_multi_stim_exp1","2022-4-11","11:26:5","25","75","3","9","10","40","30","120","25","20","[""White""]","No","Female","1700748","null","null","","","","fixation","","","","","","","","","","","","","","","","","","","","","","","","","",""
"","","","","","canvas-keyboard-response","28","152015","0.0-12.0-1.3","2d_cat_multi_stim_exp1","2022-4-11","11:26:5","25","75","3","9","10","40","30","120","25","20","[""White""]","No","Female","1700748","null","null","","","","clear_screen","","","","","","","","","","","","","","","","","","","","","","","","","",""
"","","","","","canvas-keyboard-response","29","155180","0.0-12.0-2.3","2d_cat_multi_stim_exp1","2022-4-11","11:26:5","25","75","3","9","10","40","30","120","25","20","[""White""]","No","Female","1700748","3156","i","learn","","","learn_trial","24.3324","83.7744","in","0","0","","","","","","","","","","","","","","","","","","","","",""
"","","","","","canvas-keyboard-response","30","156190","0.0-12.0-3.3","2d_cat_multi_stim_exp1","2022-4-11","11:26:5","25","75","3","9","10","40","30","120","25","20","[""White""]","No","Female","1700748","null","null","learn_feedback","","","learn_feedback","24.3324","83.7744","in","","","","","","","","","","","","","","","","","","","","","","",""
"","","","","","canvas-keyboard-response","31","156250","0.0-12.0-4.3","2d_cat_multi_stim_exp1","2022-4-11","11:26:5","25","75","3","9","10","40","30","120","25","20","[""White""]","No","Female","1700748","null","null","","","","clear_screen","","","","","","","","","","","","","","","","","","","","","","","","","",""
"","","","","","canvas-keyboard-response","32","156759","0.0-12.0-0.4","2d_cat_multi_stim_exp1","2022-4-11","11:26:5","25","75","3","9","10","40","30","120","25","20","[""White""]","No","Female","1700748","null","null","","","","fixation","","","","","","","","","","","","","","","","","","","","","","","","","",""
"","","","","","canvas-keyboard-response","33","157270","0.0-12.0-1.4","2d_cat_multi_stim_exp1","2022-4-11","11:26:5","25","75","3","9","10","40","30","120","25","20","[""White""]","No","Female","1700748","null","null","","","","clear_screen","","","","","","","","","","","","","","","","","","","","","","","","","",""
"","","","","","canvas-keyboard-response","34","158795","0.0-12.0-2.4","2d_cat_multi_stim_exp1","2022-4-11","11:26:5","25","75","3","9","10","40","30","120","25","20","[""White""]","No","Female","1700748","1515","i","learn","","","learn_trial","27.8087","78.1624","in","0","0","","","","","","","","","","","","","","","","","","","","",""
"","","","","","canvas-keyboard-response","35","159807","0.0-12.0-3.4","2d_cat_multi_stim_exp1","2022-4-11","11:26:5","25","75","3","9","10","40","30","120","25","20","[""White""]","No","Female","1700748","null","null","learn_feedback","","","learn_feedback","27.8087","78.1624","in","","","","","","","","","","","","","","","","","","","","","","",""
"","","","","","canvas-keyboard-response","36","159867","0.0-12.0-4.4","2d_cat_multi_stim_exp1","2022-4-11","11:26:5","25","75","3","9","10","40","30","120","25","20","[""White""]","No","Female","1700748","null","null","","","","clear_screen","","","","","","","","","","","","","","","","","","","","","","","","","",""
"","","","","","canvas-keyboard-response","37","160375","0.0-12.0-0.5","2d_cat_multi_stim_exp1","2022-4-11","11:26:5","25","75","3","9","10","40","30","120","25","20","[""White""]","No","Female","1700748","null","null","","","","fixation","","","","","","","","","","","","","","","","","","","","","","","","","",""
"","","","","","canvas-keyboard-response","38","160889","0.0-12.0-1.5","2d_cat_multi_stim_exp1","2022-4-11","11:26:5","25","75","3","9","10","40","30","120","25","20","[""White""]","No","Female","1700748","null","null","","","","clear_screen","","","","","","","","","","","","","","","","","","","","","","","","","",""
"","","","","","canvas-keyboard-response","39","162131","0.0-12.0-2.5","2d_cat_multi_stim_exp1","2022-4-11","11:26:5","25","75","3","9","10","40","30","120","25","20","[""White""]","No","Female","1700748","1235","u","learn","","","learn_trial","10","70","out","1","0","","","","","","","","","","","","","","","","","","","","",""
"","","","","","canvas-keyboard-response","40","163144","0.0-12.0-3.5","2d_cat_multi_stim_exp1","2022-4-11","11:26:5","25","75","3","9","10","40","30","120","25","20","[""White""]","No","Female","1700748","null","null","learn_feedback","","","learn_feedback","10","70","out","","","","","","","","","","","","","","","","","","","","","","",""
"","","","","","canvas-keyboard-response","41","163208","0.0-12.0-4.5","2d_cat_multi_stim_exp1","2022-4-11","11:26:5","25","75","3","9","10","40","30","120","25","20","[""White""]","No","Female","1700748","null","null","","","","clear_screen","","","","","","","","","","","","","","","","","","","","","","","","","",""
"","","","","","canvas-keyboard-response","42","163717","0.0-12.0-0.6","2d_cat_multi_stim_exp1","2022-4-11","11:26:5","25","75","3","9","10","40","30","120","25","20","[""White""]","No","Female","1700748","null","null","","","","fixation","","","","","","","","","","","","","","","","","","","","","","","","","",""
"","","","","","canvas-keyboard-response","43","164229","0.0-12.0-1.6","2d_cat_multi_stim_exp1","2022-4-11","11:26:5","25","75","3","9","10","40","30","120","25","20","[""White""]","No","Female","1700748","null","null","","","","clear_screen","","","","","","","","","","","","","","","","","","","","","","","","","",""
"","","","","","canvas-keyboard-response","44","166019","0.0-12.0-2.6","2d_cat_multi_stim_exp1","2022-4-11","11:26:5","25","75","3","9","10","40","30","120","25","20","[""White""]","No","Female","1700748","1784","u","learn","","","learn_trial","25","75","in","1","1","","","","","","","","","","","","","","","","","","","","",""
"","","","","","canvas-keyboard-response","45","166530","0.0-12.0-3.6","2d_cat_multi_stim_exp1","2022-4-11","11:26:5","25","75","3","9","10","40","30","120","25","20","[""White""]","No","Female","1700748","null","null","learn_feedback","","","learn_feedback","25","75","in","","","","","","","","","","","","","","","","","","","","","","",""
"","","","","","canvas-keyboard-response","46","166591","0.0-12.0-4.6","2d_cat_multi_stim_exp1","2022-4-11","11:26:5","25","75","3","9","10","40","30","120","25","20","[""White""]","No","Female","1700748","null","null","","","","clear_screen","","","","","","","","","","","","","","","","","","","","","","","","","",""
"","","","","","canvas-keyboard-response","47","167100","0.0-12.0-0.7","2d_cat_multi_stim_exp1","2022-4-11","11:26:5","25","75","3","9","10","40","30","120","25","20","[""White""]","No","Female","1700748","null","null","","","","fixation","","","","","","","","","","","","","","","","","","","","","","","","","",""
"","","","","","canvas-keyboard-response","48","167609","0.0-12.0-1.7","2d_cat_multi_stim_exp1","2022-4-11","11:26:5","25","75","3","9","10","40","30","120","25","20","[""White""]","No","Female","1700748","null","null","","","","clear_screen","","","","","","","","","","","","","","","","","","","","","","","","","",""
"","","","","","canvas-keyboard-response","49","174899","0.0-12.0-2.7","2d_cat_multi_stim_exp1","2022-4-11","11:26:5","25","75","3","9","10","40","30","120","25","20","[""White""]","No","Female","1700748","7278","u","learn","","","learn_trial","25","75","in","1","1","","","","","","","","","","","","","","","","","","","","",""
"","","","","","canvas-keyboard-response","50","175412","0.0-12.0-3.7","2d_cat_multi_stim_exp1","2022-4-11","11:26:5","25","75","3","9","10","40","30","120","25","20","[""White""]","No","Female","1700748","null","null","learn_feedback","","","learn_feedback","25","75","in","","","","","","","","","","","","","","","","","","","","","","",""
"","","","","","canvas-keyboard-response","51","175471","0.0-12.0-4.7","2d_cat_multi_stim_exp1","2022-4-11","11:26:5","25","75","3","9","10","40","30","120","25","20","[""White""]","No","Female","1700748","null","null","","","","clear_screen","","","","","","","","","","","","","","","","","","","","","","","","","",""
"","","","","","canvas-keyboard-response","52","175982","0.0-12.0-0.8","2d_cat_multi_stim_exp1","2022-4-11","11:26:5","25","75","3","9","10","40","30","120","25","20","[""White""]","No","Female","1700748","null","null","","","","fixation","","","","","","","","","","","","","","","","","","","","","","","","","",""
"","","","","","canvas-keyboard-response","53","176492","0.0-12.0-1.8","2d_cat_multi_stim_exp1","2022-4-11","11:26:5","25","75","3","9","10","40","30","120","25","20","[""White""]","No","Female","1700748","null","null","","","","clear_screen","","","","","","","","","","","","","","","","","","","","","","","","","",""
"","","","","","canvas-keyboard-response","54","177571","0.0-12.0-2.8","2d_cat_multi_stim_exp1","2022-4-11","11:26:5","25","75","3","9","10","40","30","120","25","20","[""White""]","No","Female","1700748","1069","u","learn","","","learn_trial","25","75","in","1","1","","","","","","","","","","","","","","","","","","","","",""
"","","","","","canvas-keyboard-response","55","178079","0.0-12.0-3.8","2d_cat_multi_stim_exp1","2022-4-11","11:26:5","25","75","3","9","10","40","30","120","25","20","[""White""]","No","Female","1700748","null","null","learn_feedback","","","learn_feedback","25","75","in","","","","","","","","","","","","","","","","","","","","","","",""
"","","","","","canvas-keyboard-response","56","178139","0.0-12.0-4.8","2d_cat_multi_stim_exp1","2022-4-11","11:26:5","25","75","3","9","10","40","30","120","25","20","[""White""]","No","Female","1700748","null","null","","","","clear_screen","","","","","","","","","","","","","","","","","","","","","","","","","",""
"","","","","","canvas-keyboard-response","57","178649","0.0-12.0-0.9","2d_cat_multi_stim_exp1","2022-4-11","11:26:5","25","75","3","9","10","40","30","120","25","20","[""White""]","No","Female","1700748","null","null","","","","fixation","","","","","","","","","","","","","","","","","","","","","","","","","",""
"","","","","","canvas-keyboard-response","58","179159","0.0-12.0-1.9","2d_cat_multi_stim_exp1","2022-4-11","11:26:5","25","75","3","9","10","40","30","120","25","20","[""White""]","No","Female","1700748","null","null","","","","clear_screen","","","","","","","","","","","","","","","","","","","","","","","","","",""
"","","","","","canvas-keyboard-response","59","179731","0.0-12.0-2.9","2d_cat_multi_stim_exp1","2022-4-11","11:26:5","25","75","3","9","10","40","30","120","25","20","[""White""]","No","Female","1700748","564","u","learn","","","learn_trial","26.8705","82.0365","in","1","1","","","","","","","","","","","","","","","","","","","","",""
"","","","","","canvas-keyboard-response","60","180240","0.0-12.0-3.9","2d_cat_multi_stim_exp1","2022-4-11","11:26:5","25","75","3","9","10","40","30","120","25","20","[""White""]","No","Female","1700748","null","null","learn_feedback","","","learn_feedback","26.8705","82.0365","in","","","","","","","","","","","","","","","","","","","","","","",""
"","","","","","canvas-keyboard-response","61","180302","0.0-12.0-4.9","2d_cat_multi_stim_exp1","2022-4-11","11:26:5","25","75","3","9","10","40","30","120","25","20","[""White""]","No","Female","1700748","null","null","","","","clear_screen","","","","","","","","","","","","","","","","","","","","","","","","","",""
"","","","","","canvas-keyboard-response","62","180811","0.0-12.0-0.10","2d_cat_multi_stim_exp1","2022-4-11","11:26:5","25","75","3","9","10","40","30","120","25","20","[""White""]","No","Female","1700748","null","null","","","","fixation","","","","","","","","","","","","","","","","","","","","","","","","","",""
"","","","","","canvas-keyboard-response","63","181326","0.0-12.0-1.10","2d_cat_multi_stim_exp1","2022-4-11","11:26:5","25","75","3","9","10","40","30","120","25","20","[""White""]","No","Female","1700748","null","null","","","","clear_screen","","","","","","","","","","","","","","","","","","","","","","","","","",""
"","","","","","canvas-keyboard-response","64","182004","0.0-12.0-2.10","2d_cat_multi_stim_exp1","2022-4-11","11:26:5","25","75","3","9","10","40","30","120","25","20","[""White""]","No","Female","1700748","666","u","learn","","","learn_trial","25","75","in","1","1","","","","","","","","","","","","","","","","","","","","",""
"","","","","","canvas-keyboard-response","65","182514","0.0-12.0-3.10","2d_cat_multi_stim_exp1","2022-4-11","11:26:5","25","75","3","9","10","40","30","120","25","20","[""White""]","No","Female","1700748","null","null","learn_feedback","","","learn_feedback","25","75","in","","","","","","","","","","","","","","","","","","","","","","",""
"","","","","","canvas-keyboard-response","66","182573","0.0-12.0-4.10","2d_cat_multi_stim_exp1","2022-4-11","11:26:5","25","75","3","9","10","40","30","120","25","20","[""White""]","No","Female","1700748","null","null","","","","clear_screen","","","","","","","","","","","","","","","","","","","","","","","","","",""
"","","","","","canvas-keyboard-response","67","183085","0.0-12.0-0.11","2d_cat_multi_stim_exp1","2022-4-11","11:26:5","25","75","3","9","10","40","30","120","25","20","[""White""]","No","Female","1700748","null","null","","","","fixation","","","","","","","","","","","","","","","","","","","","","","","","","",""
"","","","","","canvas-keyboard-response","68","183600","0.0-12.0-1.11","2d_cat_multi_stim_exp1","2022-4-11","11:26:5","25","75","3","9","10","40","30","120","25","20","[""White""]","No","Female","1700748","null","null","","","","clear_screen","","","","","","","","","","","","","","","","","","","","","","","","","",""
"","","","","","canvas-keyboard-response","69","184139","0.0-12.0-2.11","2d_cat_multi_stim_exp1","2022-4-11","11:26:5","25","75","3","9","10","40","30","120","25","20","[""White""]","No","Female","1700748","530","u","learn","","","learn_trial","19","75","in","1","1","","","","","","","","","","","","","","","","","","","","",""
"","","","","","canvas-keyboard-response","70","184647","0.0-12.0-3.11","2d_cat_multi_stim_exp1","2022-4-11","11:26:5","25","75","3","9","10","40","30","120","25","20","[""White""]","No","Female","1700748","null","null","learn_feedback","","","learn_feedback","19","75","in","","","","","","","","","","","","","","","","","","","","","","",""
"","","","","","canvas-keyboard-response","71","184707","0.0-12.0-4.11","2d_cat_multi_stim_exp1","2022-4-11","11:26:5","25","75","3","9","10","40","30","120","25","20","[""White""]","No","Female","1700748","null","null","","","","clear_screen","","","","","","","","","","","","","","","","","","","","","","","","","",""
"","","","","","canvas-keyboard-response","72","185219","0.0-12.0-0.12","2d_cat_multi_stim_exp1","2022-4-11","11:26:5","25","75","3","9","10","40","30","120","25","20","[""White""]","No","Female","1700748","null","null","","","","fixation","","","","","","","","","","","","","","","","","","","","","","","","","",""
"","","","","","canvas-keyboard-response","73","185731","0.0-12.0-1.12","2d_cat_multi_stim_exp1","2022-4-11","11:26:5","25","75","3","9","10","40","30","120","25","20","[""White""]","No","Female","1700748","null","null","","","","clear_screen","","","","","","","","","","","","","","","","","","","","","","","","","",""
"","","","","","canvas-keyboard-response","74","186611","0.0-12.0-2.12","2d_cat_multi_stim_exp1","2022-4-11","11:26:5","25","75","3","9","10","40","30","120","25","20","[""White""]","No","Female","1700748","871","i","learn","","","learn_trial","40","60","out","0","1","","","","","","","","","","","","","","","","","","","","",""
"","","","","","canvas-keyboard-response","75","187123","0.0-12.0-3.12","2d_cat_multi_stim_exp1","2022-4-11","11:26:5","25","75","3","9","10","40","30","120","25","20","[""White""]","No","Female","1700748","null","null","learn_feedback","","","learn_feedback","40","60","out","","","","","","","","","","","","","","","","","","","","","","",""
"","","","","","canvas-keyboard-response","76","187183","0.0-12.0-4.12","2d_cat_multi_stim_exp1","2022-4-11","11:26:5","25","75","3","9","10","40","30","120","25","20","[""White""]","No","Female","1700748","null","null","","","","clear_screen","","","","","","","","","","","","","","","","","","","","","","","","","",""
"","","","","","canvas-keyboard-response","77","187695","0.0-12.0-0.13","2d_cat_multi_stim_exp1","2022-4-11","11:26:5","25","75","3","9","10","40","30","120","25","20","[""White""]","No","Female","1700748","null","null","","","","fixation","","","","","","","","","","","","","","","","","","","","","","","","","",""
"","","","","","canvas-keyboard-response","78","188206","0.0-12.0-1.13","2d_cat_multi_stim_exp1","2022-4-11","11:26:5","25","75","3","9","10","40","30","120","25","20","[""White""]","No","Female","1700748","null","null","","","","clear_screen","","","","","","","","","","","","","","","","","","","","","","","","","",""
"","","","","","canvas-keyboard-response","79","188924","0.0-12.0-2.13","2d_cat_multi_stim_exp1","2022-4-11","11:26:5","25","75","3","9","10","40","30","120","25","20","[""White""]","No","Female","1700748","707","i","learn","","","learn_trial","10","50","out","0","1","","","","","","","","","","","","","","","","","","","","",""
"","","","","","canvas-keyboard-response","80","189432","0.0-12.0-3.13","2d_cat_multi_stim_exp1","2022-4-11","11:26:5","25","75","3","9","10","40","30","120","25","20","[""White""]","No","Female","1700748","null","null","learn_feedback","","","learn_feedback","10","50","out","","","","","","","","","","","","","","","","","","","","","","",""
"","","","","","canvas-keyboard-response","81","189494","0.0-12.0-4.13","2d_cat_multi_stim_exp1","2022-4-11","11:26:5","25","75","3","9","10","40","30","120","25","20","[""White""]","No","Female","1700748","null","null","","","","clear_screen","","","","","","","","","","","","","","","","","","","","","","","","","",""
"","","","","","canvas-keyboard-response","82","190003","0.0-12.0-0.14","2d_cat_multi_stim_exp1","2022-4-11","11:26:5","25","75","3","9","10","40","30","120","25","20","[""White""]","No","Female","1700748","null","null","","","","fixation","","","","","","","","","","","","","","","","","","","","","","","","","",""
"","","","","","canvas-keyboard-response","83","190515","0.0-12.0-1.14","2d_cat_multi_stim_exp1","2022-4-11","11:26:5","25","75","3","9","10","40","30","120","25","20","[""White""]","No","Female","1700748","null","null","","","","clear_screen","","","","","","","","","","","","","","","","","","","","","","","","","",""
"","","","","","canvas-keyboard-response","84","191275","0.0-12.0-2.14","2d_cat_multi_stim_exp1","2022-4-11","11:26:5","25","75","3","9","10","40","30","120","25","20","[""White""]","No","Female","1700748","754","u","learn","","","learn_trial","25","75","in","1","1","","","","","","","","","","","","","","","","","","","","",""
"","","","","","canvas-keyboard-response","85","191787","0.0-12.0-3.14","2d_cat_multi_stim_exp1","2022-4-11","11:26:5","25","75","3","9","10","40","30","120","25","20","[""White""]","No","Female","1700748","null","null","learn_feedback","","","learn_feedback","25","75","in","","","","","","","","","","","","","","","","","","","","","","",""
"","","","","","canvas-keyboard-response","86","191851","0.0-12.0-4.14","2d_cat_multi_stim_exp1","2022-4-11","11:26:5","25","75","3","9","10","40","30","120","25","20","[""White""]","No","Female","1700748","null","null","","","","clear_screen","","","","","","","","","","","","","","","","","","","","","","","","","",""
"","","","","","canvas-keyboard-response","87","192360","0.0-12.0-0.15","2d_cat_multi_stim_exp1","2022-4-11","11:26:5","25","75","3","9","10","40","30","120","25","20","[""White""]","No","Female","1700748","null","null","","","","fixation","","","","","","","","","","","","","","","","","","","","","","","","","",""
"","","","","","canvas-keyboard-response","88","192874","0.0-12.0-1.15","2d_cat_multi_stim_exp1","2022-4-11","11:26:5","25","75","3","9","10","40","30","120","25","20","[""White""]","No","Female","1700748","null","null","","","","clear_screen","","","","","","","","","","","","","","","","","","","","","","","","","",""
"","","","","","canvas-keyboard-response","89","193427","0.0-12.0-2.15","2d_cat_multi_stim_exp1","2022-4-11","11:26:5","25","75","3","9","10","40","30","120","25","20","[""White""]","No","Female","1700748","545","u","learn","","","learn_trial","25","75","in","1","1","","","","","","","","","","","","","","","","","","","","",""
"","","","","","canvas-keyboard-response","90","193936","0.0-12.0-3.15","2d_cat_multi_stim_exp1","2022-4-11","11:26:5","25","75","3","9","10","40","30","120","25","20","[""White""]","No","Female","1700748","null","null","learn_feedback","","","learn_feedback","25","75","in","","","","","","","","","","","","","","","","","","","","","","",""
"","","","","","canvas-keyboard-response","91","193998","0.0-12.0-4.15","2d_cat_multi_stim_exp1","2022-4-11","11:26:5","25","75","3","9","10","40","30","120","25","20","[""White""]","No","Female","1700748","null","null","","","","clear_screen","","","","","","","","","","","","","","","","","","","","","","","","","",""
"","","","","","canvas-keyboard-response","92","194507","0.0-12.0-0.16","2d_cat_multi_stim_exp1","2022-4-11","11:26:5","25","75","3","9","10","40","30","120","25","20","[""White""]","No","Female","1700748","null","null","","","","fixation","","","","","","","","","","","","","","","","","","","","","","","","","",""
"","","","","","canvas-keyboard-response","93","195021","0.0-12.0-1.16","2d_cat_multi_stim_exp1","2022-4-11","11:26:5","25","75","3","9","10","40","30","120","25","20","[""White""]","No","Female","1700748","null","null","","","","clear_screen","","","","","","","","","","","","","","","","","","","","","","","","","",""
"","","","","","canvas-keyboard-response","94","195650","0.0-12.0-2.16","2d_cat_multi_stim_exp1","2022-4-11","11:26:5","25","75","3","9","10","40","30","120","25","20","[""White""]","No","Female","1700748","620","u","learn","","","learn_trial","26.6667","90","out","1","0","","","","","","","","","","","","","","","","","","","","",""
"","","","","","canvas-keyboard-response","95","196662","0.0-12.0-3.16","2d_cat_multi_stim_exp1","2022-4-11","11:26:5","25","75","3","9","10","40","30","120","25","20","[""White""]","No","Female","1700748","null","null","learn_feedback","","","learn_feedback","26.6667","90","out","","","","","","","","","","","","","","","","","","","","","","",""
"","","","","","canvas-keyboard-response","96","196725","0.0-12.0-4.16","2d_cat_multi_stim_exp1","2022-4-11","11:26:5","25","75","3","9","10","40","30","120","25","20","[""White""]","No","Female","1700748","null","null","","","","clear_screen","","","","","","","","","","","","","","","","","","","","","","","","","",""
"","","","","","canvas-keyboard-response","97","197233","0.0-12.0-0.17","2d_cat_multi_stim_exp1","2022-4-11","11:26:5","25","75","3","9","10","40","30","120","25","20","[""White""]","No","Female","1700748","null","null","","","","fixation","","","","","","","","","","","","","","","","","","","","","","","","","",""
"","","","","","canvas-keyboard-response","98","197748","0.0-12.0-1.17","2d_cat_multi_stim_exp1","2022-4-11","11:26:5","25","75","3","9","10","40","30","120","25","20","[""White""]","No","Female","1700748","null","null","","","","clear_screen","","","","","","","","","","","","","","","","","","","","","","","","","",""
"","","","","","canvas-keyboard-response","99","198395","0.0-12.0-2.17","2d_cat_multi_stim_exp1","2022-4-11","11:26:5","25","75","3","9","10","40","30","120","25","20","[""White""]","No","Female","1700748","635","u","learn","","","learn_trial","25","75","in","1","1","","","","","","","","","","","","","","","","","","","","",""
"","","","","","canvas-keyboard-response","100","198907","0.0-12.0-3.17","2d_cat_multi_stim_exp1","2022-4-11","11:26:5","25","75","3","9","10","40","30","120","25","20","[""White""]","No","Female","1700748","null","null","learn_feedback","","","learn_feedback","25","75","in","","","","","","","","","","","","","","","","","","","","","","",""
"","","","","","canvas-keyboard-response","101","198965","0.0-12.0-4.17","2d_cat_multi_stim_exp1","2022-4-11","11:26:5","25","75","3","9","10","40","30","120","25","20","[""White""]","No","Female","1700748","null","null","","","","clear_screen","","","","","","","","","","","","","","","","","","","","","","","","","",""
"","","","","","canvas-keyboard-response","102","199473","0.0-12.0-0.18","2d_cat_multi_stim_exp1","2022-4-11","11:26:5","25","75","3","9","10","40","30","120","25","20","[""White""]","No","Female","1700748","null","null","","","","fixation","","","","","","","","","","","","","","","","","","","","","","","","","",""
"","","","","","canvas-keyboard-response","103","199989","0.0-12.0-1.18","2d_cat_multi_stim_exp1","2022-4-11","11:26:5","25","75","3","9","10","40","30","120","25","20","[""White""]","No","Female","1700748","null","null","","","","clear_screen","","","","","","","","","","","","","","","","","","","","","","","","","",""
"","","","","","canvas-keyboard-response","104","200611","0.0-12.0-2.18","2d_cat_multi_stim_exp1","2022-4-11","11:26:5","25","75","3","9","10","40","30","120","25","20","[""White""]","No","Female","1700748","611","u","learn","","","learn_trial","25","75","in","1","1","","","","","","","","","","","","","","","","","","","","",""
"","","","","","canvas-keyboard-response","105","201123","0.0-12.0-3.18","2d_cat_multi_stim_exp1","2022-4-11","11:26:5","25","75","3","9","10","40","30","120","25","20","[""White""]","No","Female","1700748","null","null","learn_feedback","","","learn_feedback","25","75","in","","","","","","","","","","","","","","","","","","","","","","",""
"","","","","","canvas-keyboard-response","106","201186","0.0-12.0-4.18","2d_cat_multi_stim_exp1","2022-4-11","11:26:5","25","75","3","9","10","40","30","120","25","20","[""White""]","No","Female","1700748","null","null","","","","clear_screen","","","","","","","","","","","","","","","","","","","","","","","","","",""
"","","","","","canvas-keyboard-response","107","201695","0.0-12.0-0.19","2d_cat_multi_stim_exp1","2022-4-11","11:26:5","25","75","3","9","10","40","30","120","25","20","[""White""]","No","Female","1700748","null","null","","","","fixation","","","","","","","","","","","","","","","","","","","","","","","","","",""
"","","","","","canvas-keyboard-response","108","202205","0.0-12.0-1.19","2d_cat_multi_stim_exp1","2022-4-11","11:26:5","25","75","3","9","10","40","30","120","25","20","[""White""]","No","Female","1700748","null","null","","","","clear_screen","","","","","","","","","","","","","","","","","","","","","","","","","",""
"","","","","","canvas-keyboard-response","109","203691","0.0-12.0-2.19","2d_cat_multi_stim_exp1","2022-4-11","11:26:5","25","75","3","9","10","40","30","120","25","20","[""White""]","No","Female","1700748","1475","i","learn","","","learn_trial","25","75","in","0","0","","","","","","","","","","","","","","","","","","","","",""
"","","","","","canvas-keyboard-response","110","204700","0.0-12.0-3.19","2d_cat_multi_stim_exp1","2022-4-11","11:26:5","25","75","3","9","10","40","30","120","25","20","[""White""]","No","Female","1700748","null","null","learn_feedback","","","learn_feedback","25","75","in","","","","","","","","","","","","","","","","","","","","","","",""
"","","","","","canvas-keyboard-response","111","204759","0.0-12.0-4.19","2d_cat_multi_stim_exp1","2022-4-11","11:26:5","25","75","3","9","10","40","30","120","25","20","[""White""]","No","Female","1700748","null","null","","","","clear_screen","","","","","","","","","","","","","","","","","","","","","","","","","",""
"","","","","","canvas-keyboard-response","112","205271","0.0-12.0-0.20","2d_cat_multi_stim_exp1","2022-4-11","11:26:5","25","75","3","9","10","40","30","120","25","20","[""White""]","No","Female","1700748","null","null","","","","fixation","","","","","","","","","","","","","","","","","","","","","","","","","",""
"","","","","","canvas-keyboard-response","113","205780","0.0-12.0-1.20","2d_cat_multi_stim_exp1","2022-4-11","11:26:5","25","75","3","9","10","40","30","120","25","20","[""White""]","No","Female","1700748","null","null","","","","clear_screen","","","","","","","","","","","","","","","","","","","","","","","","","",""
"","","","","","canvas-keyboard-response","114","206619","0.0-12.0-2.20","2d_cat_multi_stim_exp1","2022-4-11","11:26:5","25","75","3","9","10","40","30","120","25","20","[""White""]","No","Female","1700748","830","u","learn","","","learn_trial","22.0121","74.1932","in","1","1","","","","","","","","","","","","","","","","","","","","",""
"","","","","","canvas-keyboard-response","115","207130","0.0-12.0-3.20","2d_cat_multi_stim_exp1","2022-4-11","11:26:5","25","75","3","9","10","40","30","120","25","20","[""White""]","No","Female","1700748","null","null","learn_feedback","","","learn_feedback","22.0121","74.1932","in","","","","","","","","","","","","","","","","","","","","","","",""
"","","","","","canvas-keyboard-response","116","207193","0.0-12.0-4.20","2d_cat_multi_stim_exp1","2022-4-11","11:26:5","25","75","3","9","10","40","30","120","25","20","[""White""]","No","Female","1700748","null","null","","","","clear_screen","","","","","","","","","","","","","","","","","","","","","","","","","",""
"","","","","","canvas-keyboard-response","117","207701","0.0-12.0-0.21","2d_cat_multi_stim_exp1","2022-4-11","11:26:5","25","75","3","9","10","40","30","120","25","20","[""White""]","No","Female","1700748","null","null","","","","fixation","","","","","","","","","","","","","","","","","","","","","","","","","",""
"","","","","","canvas-keyboard-response","118","208213","0.0-12.0-1.21","2d_cat_multi_stim_exp1","2022-4-11","11:26:5","25","75","3","9","10","40","30","120","25","20","[""White""]","No","Female","1700748","null","null","","","","clear_screen","","","","","","","","","","","","","","","","","","","","","","","","","",""
"","","","","","canvas-keyboard-response","119","208884","0.0-12.0-2.21","2d_cat_multi_stim_exp1","2022-4-11","11:26:5","25","75","3","9","10","40","30","120","25","20","[""White""]","No","Female","1700748","660","i","learn","","","learn_trial","26.6667","50","out","0","1","","","","","","","","","","","","","","","","","","","","",""
"","","","","","canvas-keyboard-response","120","209392","0.0-12.0-3.21","2d_cat_multi_stim_exp1","2022-4-11","11:26:5","25","75","3","9","10","40","30","120","25","20","[""White""]","No","Female","1700748","null","null","learn_feedback","","","learn_feedback","26.6667","50","out","","","","","","","","","","","","","","","","","","","","","","",""
"","","","","","canvas-keyboard-response","121","209452","0.0-12.0-4.21","2d_cat_multi_stim_exp1","2022-4-11","11:26:5","25","75","3","9","10","40","30","120","25","20","[""White""]","No","Female","1700748","null","null","","","","clear_screen","","","","","","","","","","","","","","","","","","","","","","","","","",""
"","","","","","canvas-keyboard-response","122","209963","0.0-12.0-0.22","2d_cat_multi_stim_exp1","2022-4-11","11:26:5","25","75","3","9","10","40","30","120","25","20","[""White""]","No","Female","1700748","null","null","","","","fixation","","","","","","","","","","","","","","","","","","","","","","","","","",""
"","","","","","canvas-keyboard-response","123","210471","0.0-12.0-1.22","2d_cat_multi_stim_exp1","2022-4-11","11:26:5","25","75","3","9","10","40","30","120","25","20","[""White""]","No","Female","1700748","null","null","","","","clear_screen","","","","","","","","","","","","","","","","","","","","","","","","","",""
"","","","","","canvas-keyboard-response","124","211043","0.0-12.0-2.22","2d_cat_multi_stim_exp1","2022-4-11","11:26:5","25","75","3","9","10","40","30","120","25","20","[""White""]","No","Female","1700748","563","u","learn","","","learn_trial","25","75","in","1","1","","","","","","","","","","","","","","","","","","","","",""
"","","","","","canvas-keyboard-response","125","211555","0.0-12.0-3.22","2d_cat_multi_stim_exp1","2022-4-11","11:26:5","25","75","3","9","10","40","30","120","25","20","[""White""]","No","Female","1700748","null","null","learn_feedback","","","learn_feedback","25","75","in","","","","","","","","","","","","","","","","","","","","","","",""
"","","","","","canvas-keyboard-response","126","211615","0.0-12.0-4.22","2d_cat_multi_stim_exp1","2022-4-11","11:26:5","25","75","3","9","10","40","30","120","25","20","[""White""]","No","Female","1700748","null","null","","","","clear_screen","","","","","","","","","","","","","","","","","","","","","","","","","",""
"","","","","","canvas-keyboard-response","127","212124","0.0-12.0-0.23","2d_cat_multi_stim_exp1","2022-4-11","11:26:5","25","75","3","9","10","40","30","120","25","20","[""White""]","No","Female","1700748","null","null","","","","fixation","","","","","","","","","","","","","","","","","","","","","","","","","",""
"","","","","","canvas-keyboard-response","128","212636","0.0-12.0-1.23","2d_cat_multi_stim_exp1","2022-4-11","11:26:5","25","75","3","9","10","40","30","120","25","20","[""White""]","No","Female","1700748","null","null","","","","clear_screen","","","","","","","","","","","","","","","","","","","","","","","","","",""
"","","","","","canvas-keyboard-response","129","213419","0.0-12.0-2.23","2d_cat_multi_stim_exp1","2022-4-11","11:26:5","25","75","3","9","10","40","30","120","25","20","[""White""]","No","Female","1700748","773","i","learn","","","learn_trial","25","57","in","0","0","","","","","","","","","","","","","","","","","","","","",""
"","","","","","canvas-keyboard-response","130","214428","0.0-12.0-3.23","2d_cat_multi_stim_exp1","2022-4-11","11:26:5","25","75","3","9","10","40","30","120","25","20","[""White""]","No","Female","1700748","null","null","learn_feedback","","","learn_feedback","25","57","in","","","","","","","","","","","","","","","","","","","","","","",""
"","","","","","canvas-keyboard-response","131","214490","0.0-12.0-4.23","2d_cat_multi_stim_exp1","2022-4-11","11:26:5","25","75","3","9","10","40","30","120","25","20","[""White""]","No","Female","1700748","null","null","","","","clear_screen","","","","","","","","","","","","","","","","","","","","","","","","","",""
"","","","","","canvas-keyboard-response","132","215001","0.0-12.0-0.24","2d_cat_multi_stim_exp1","2022-4-11","11:26:5","25","75","3","9","10","40","30","120","25","20","[""White""]","No","Female","1700748","null","null","","","","fixation","","","","","","","","","","","","","","","","","","","","","","","","","",""
"","","","","","canvas-keyboard-response","133","215518","0.0-12.0-1.24","2d_cat_multi_stim_exp1","2022-4-11","11:26:5","25","75","3","9","10","40","30","120","25","20","[""White""]","No","Female","1700748","null","null","","","","clear_screen","","","","","","","","","","","","","","","","","","","","","","","","","",""
"","","","","","canvas-keyboard-response","134","216420","0.0-12.0-2.24","2d_cat_multi_stim_exp1","2022-4-11","11:26:5","25","75","3","9","10","40","30","120","25","20","[""White""]","No","Female","1700748","890","u","learn","","","learn_trial","25","75","in","1","1","","","","","","","","","","","","","","","","","","","","",""
"","","","","","canvas-keyboard-response","135","216929","0.0-12.0-3.24","2d_cat_multi_stim_exp1","2022-4-11","11:26:5","25","75","3","9","10","40","30","120","25","20","[""White""]","No","Female","1700748","null","null","learn_feedback","","","learn_feedback","25","75","in","","","","","","","","","","","","","","","","","","","","","","",""
"","","","","","canvas-keyboard-response","136","216990","0.0-12.0-4.24","2d_cat_multi_stim_exp1","2022-4-11","11:26:5","25","75","3","9","10","40","30","120","25","20","[""White""]","No","Female","1700748","null","null","","","","clear_screen","","","","","","","","","","","","","","","","","","","","","","","","","",""
"","","","","","canvas-keyboard-response","137","217499","0.0-12.0-0.25","2d_cat_multi_stim_exp1","2022-4-11","11:26:5","25","75","3","9","10","40","30","120","25","20","[""White""]","No","Female","1700748","null","null","","","","fixation","","","","","","","","","","","","","","","","","","","","","","","","","",""
"","","","","","canvas-keyboard-response","138","218013","0.0-12.0-1.25","2d_cat_multi_stim_exp1","2022-4-11","11:26:5","25","75","3","9","10","40","30","120","25","20","[""White""]","No","Female","1700748","null","null","","","","clear_screen","","","","","","","","","","","","","","","","","","","","","","","","","",""
"","","","","","canvas-keyboard-response","139","219955","0.0-12.0-2.25","2d_cat_multi_stim_exp1","2022-4-11","11:26:5","25","75","3","9","10","40","30","120","25","20","[""White""]","No","Female","1700748","1931","i","learn","","","learn_trial","10","40","out","0","1","","","","","","","","","","","","","","","","","","","","",""
"","","","","","canvas-keyboard-response","140","220465","0.0-12.0-3.25","2d_cat_multi_stim_exp1","2022-4-11","11:26:5","25","75","3","9","10","40","30","120","25","20","[""White""]","No","Female","1700748","null","null","learn_feedback","","","learn_feedback","10","40","out","","","","","","","","","","","","","","","","","","","","","","",""
"","","","","","canvas-keyboard-response","141","220528","0.0-12.0-4.25","2d_cat_multi_stim_exp1","2022-4-11","11:26:5","25","75","3","9","10","40","30","120","25","20","[""White""]","No","Female","1700748","null","null","","","","clear_screen","","","","","","","","","","","","","","","","","","","","","","","","","",""
"","","","","","canvas-keyboard-response","142","221040","0.0-12.0-0.26","2d_cat_multi_stim_exp1","2022-4-11","11:26:5","25","75","3","9","10","40","30","120","25","20","[""White""]","No","Female","1700748","null","null","","","","fixation","","","","","","","","","","","","","","","","","","","","","","","","","",""
"","","","","","canvas-keyboard-response","143","221550","0.0-12.0-1.26","2d_cat_multi_stim_exp1","2022-4-11","11:26:5","25","75","3","9","10","40","30","120","25","20","[""White""]","No","Female","1700748","null","null","","","","clear_screen","","","","","","","","","","","","","","","","","","","","","","","","","",""
"","","","","","canvas-keyboard-response","144","222171","0.0-12.0-2.26","2d_cat_multi_stim_exp1","2022-4-11","11:26:5","25","75","3","9","10","40","30","120","25","20","[""White""]","No","Female","1700748","611","i","learn","","","learn_trial","26.6667","40","out","0","1","","","","","","","","","","","","","","","","","","","","",""
"","","","","","canvas-keyboard-response","145","222680","0.0-12.0-3.26","2d_cat_multi_stim_exp1","2022-4-11","11:26:5","25","75","3","9","10","40","30","120","25","20","[""White""]","No","Female","1700748","null","null","learn_feedback","","","learn_feedback","26.6667","40","out","","","","","","","","","","","","","","","","","","","","","","",""
"","","","","","canvas-keyboard-response","146","222739","0.0-12.0-4.26","2d_cat_multi_stim_exp1","2022-4-11","11:26:5","25","75","3","9","10","40","30","120","25","20","[""White""]","No","Female","1700748","null","null","","","","clear_screen","","","","","","","","","","","","","","","","","","","","","","","","","",""
"","","","","","canvas-keyboard-response","147","223249","0.0-12.0-0.27","2d_cat_multi_stim_exp1","2022-4-11","11:26:5","25","75","3","9","10","40","30","120","25","20","[""White""]","No","Female","1700748","null","null","","","","fixation","","","","","","","","","","","","","","","","","","","","","","","","","",""
"","","","","","canvas-keyboard-response","148","223762","0.0-12.0-1.27","2d_cat_multi_stim_exp1","2022-4-11","11:26:5","25","75","3","9","10","40","30","120","25","20","[""White""]","No","Female","1700748","null","null","","","","clear_screen","","","","","","","","","","","","","","","","","","","","","","","","","",""
"","","","","","canvas-keyboard-response","149","224500","0.0-12.0-2.27","2d_cat_multi_stim_exp1","2022-4-11","11:26:5","25","75","3","9","10","40","30","120","25","20","[""White""]","No","Female","1700748","728","u","learn","","","learn_trial","25","75","in","1","1","","","","","","","","","","","","","","","","","","","","",""
"","","","","","canvas-keyboard-response","150","225008","0.0-12.0-3.27","2d_cat_multi_stim_exp1","2022-4-11","11:26:5","25","75","3","9","10","40","30","120","25","20","[""White""]","No","Female","1700748","null","null","learn_feedback","","","learn_feedback","25","75","in","","","","","","","","","","","","","","","","","","","","","","",""
"","","","","","canvas-keyboard-response","151","225067","0.0-12.0-4.27","2d_cat_multi_stim_exp1","2022-4-11","11:26:5","25","75","3","9","10","40","30","120","25","20","[""White""]","No","Female","1700748","null","null","","","","clear_screen","","","","","","","","","","","","","","","","","","","","","","","","","",""
"","","","","","canvas-keyboard-response","152","225579","0.0-12.0-0.28","2d_cat_multi_stim_exp1","2022-4-11","11:26:5","25","75","3","9","10","40","30","120","25","20","[""White""]","No","Female","1700748","null","null","","","","fixation","","","","","","","","","","","","","","","","","","","","","","","","","",""
"","","","","","canvas-keyboard-response","153","226089","0.0-12.0-1.28","2d_cat_multi_stim_exp1","2022-4-11","11:26:5","25","75","3","9","10","40","30","120","25","20","[""White""]","No","Female","1700748","null","null","","","","clear_screen","","","","","","","","","","","","","","","","","","","","","","","","","",""
"","","","","","canvas-keyboard-response","154","226740","0.0-12.0-2.28","2d_cat_multi_stim_exp1","2022-4-11","11:26:5","25","75","3","9","10","40","30","120","25","20","[""White""]","No","Female","1700748","643","u","learn","","","learn_trial","25","75","in","1","1","","","","","","","","","","","","","","","","","","","","",""
"","","","","","canvas-keyboard-response","155","227249","0.0-12.0-3.28","2d_cat_multi_stim_exp1","2022-4-11","11:26:5","25","75","3","9","10","40","30","120","25","20","[""White""]","No","Female","1700748","null","null","learn_feedback","","","learn_feedback","25","75","in","","","","","","","","","","","","","","","","","","","","","","",""
"","","","","","canvas-keyboard-response","156","227310","0.0-12.0-4.28","2d_cat_multi_stim_exp1","2022-4-11","11:26:5","25","75","3","9","10","40","30","120","25","20","[""White""]","No","Female","1700748","null","null","","","","clear_screen","","","","","","","","","","","","","","","","","","","","","","","","","",""
"","","","","","canvas-keyboard-response","157","227819","0.0-12.0-0.29","2d_cat_multi_stim_exp1","2022-4-11","11:26:5","25","75","3","9","10","40","30","120","25","20","[""White""]","No","Female","1700748","null","null","","","","fixation","","","","","","","","","","","","","","","","","","","","","","","","","",""
"","","","","","canvas-keyboard-response","158","228329","0.0-12.0-1.29","2d_cat_multi_stim_exp1","2022-4-11","11:26:5","25","75","3","9","10","40","30","120","25","20","[""White""]","No","Female","1700748","null","null","","","","clear_screen","","","","","","","","","","","","","","","","","","","","","","","","","",""
"","","","","","canvas-keyboard-response","159","228939","0.0-12.0-2.29","2d_cat_multi_stim_exp1","2022-4-11","11:26:5","25","75","3","9","10","40","30","120","25","20","[""White""]","No","Female","1700748","601","u","learn","","","learn_trial","25","75","in","1","1","","","","","","","","","","","","","","","","","","","","",""
"","","","","","canvas-keyboard-response","160","229448","0.0-12.0-3.29","2d_cat_multi_stim_exp1","2022-4-11","11:26:5","25","75","3","9","10","40","30","120","25","20","[""White""]","No","Female","1700748","null","null","learn_feedback","","","learn_feedback","25","75","in","","","","","","","","","","","","","","","","","","","","","","",""
"","","","","","canvas-keyboard-response","161","229511","0.0-12.0-4.29","2d_cat_multi_stim_exp1","2022-4-11","11:26:5","25","75","3","9","10","40","30","120","25","20","[""White""]","No","Female","1700748","null","null","","","","clear_screen","","","","","","","","","","","","","","","","","","","","","","","","","",""
"","","","","","canvas-keyboard-response","162","230020","0.0-12.0-0.30","2d_cat_multi_stim_exp1","2022-4-11","11:26:5","25","75","3","9","10","40","30","120","25","20","[""White""]","No","Female","1700748","null","null","","","","fixation","","","","","","","","","","","","","","","","","","","","","","","","","",""
"","","","","","canvas-keyboard-response","163","230529","0.0-12.0-1.30","2d_cat_multi_stim_exp1","2022-4-11","11:26:5","25","75","3","9","10","40","30","120","25","20","[""White""]","No","Female","1700748","null","null","","","","clear_screen","","","","","","","","","","","","","","","","","","","","","","","","","",""
"","","","","","canvas-keyboard-response","164","231051","0.0-12.0-2.30","2d_cat_multi_stim_exp1","2022-4-11","11:26:5","25","75","3","9","10","40","30","120","25","20","[""White""]","No","Female","1700748","512","u","learn","","","learn_trial","30","80","out","1","0","","","","","","","","","","","","","","","","","","","","",""
"","","","","","canvas-keyboard-response","165","232062","0.0-12.0-3.30","2d_cat_multi_stim_exp1","2022-4-11","11:26:5","25","75","3","9","10","40","30","120","25","20","[""White""]","No","Female","1700748","null","null","learn_feedback","","","learn_feedback","30","80","out","","","","","","","","","","","","","","","","","","","","","","",""
"","","","","","canvas-keyboard-response","166","232125","0.0-12.0-4.30","2d_cat_multi_stim_exp1","2022-4-11","11:26:5","25","75","3","9","10","40","30","120","25","20","[""White""]","No","Female","1700748","null","null","","","","clear_screen","","","","","","","","","","","","","","","","","","","","","","","","","",""
"","","","","","canvas-keyboard-response","167","232635","0.0-12.0-0.31","2d_cat_multi_stim_exp1","2022-4-11","11:26:5","25","75","3","9","10","40","30","120","25","20","[""White""]","No","Female","1700748","null","null","","","","fixation","","","","","","","","","","","","","","","","","","","","","","","","","",""
"","","","","","canvas-keyboard-response","168","233149","0.0-12.0-1.31","2d_cat_multi_stim_exp1","2022-4-11","11:26:5","25","75","3","9","10","40","30","120","25","20","[""White""]","No","Female","1700748","null","null","","","","clear_screen","","","","","","","","","","","","","","","","","","","","","","","","","",""
"","","","","","canvas-keyboard-response","169","234771","0.0-12.0-2.31","2d_cat_multi_stim_exp1","2022-4-11","11:26:5","25","75","3","9","10","40","30","120","25","20","[""White""]","No","Female","1700748","1611","i","learn","","","learn_trial","36.6667","110","out","0","1","","","","","","","","","","","","","","","","","","","","",""
"","","","","","canvas-keyboard-response","170","235281","0.0-12.0-3.31","2d_cat_multi_stim_exp1","2022-4-11","11:26:5","25","75","3","9","10","40","30","120","25","20","[""White""]","No","Female","1700748","null","null","learn_feedback","","","learn_feedback","36.6667","110","out","","","","","","","","","","","","","","","","","","","","","","",""
"","","","","","canvas-keyboard-response","171","235339","0.0-12.0-4.31","2d_cat_multi_stim_exp1","2022-4-11","11:26:5","25","75","3","9","10","40","30","120","25","20","[""White""]","No","Female","1700748","null","null","","","","clear_screen","","","","","","","","","","","","","","","","","","","","","","","","","",""
"","","","","","canvas-keyboard-response","172","235850","0.0-12.0-0.32","2d_cat_multi_stim_exp1","2022-4-11","11:26:5","25","75","3","9","10","40","30","120","25","20","[""White""]","No","Female","1700748","null","null","","","","fixation","","","","","","","","","","","","","","","","","","","","","","","","","",""
"","","","","","canvas-keyboard-response","173","236364","0.0-12.0-1.32","2d_cat_multi_stim_exp1","2022-4-11","11:26:5","25","75","3","9","10","40","30","120","25","20","[""White""]","No","Female","1700748","null","null","","","","clear_screen","","","","","","","","","","","","","","","","","","","","","","","","","",""
"","","","","","canvas-keyboard-response","174","237899","0.0-12.0-2.32","2d_cat_multi_stim_exp1","2022-4-11","11:26:5","25","75","3","9","10","40","30","120","25","20","[""White""]","No","Female","1700748","1525","i","learn","","","learn_trial","23.3333","60","out","0","1","","","","","","","","","","","","","","","","","","","","",""
"","","","","","canvas-keyboard-response","175","238409","0.0-12.0-3.32","2d_cat_multi_stim_exp1","2022-4-11","11:26:5","25","75","3","9","10","40","30","120","25","20","[""White""]","No","Female","1700748","null","null","learn_feedback","","","learn_feedback","23.3333","60","out","","","","","","","","","","","","","","","","","","","","","","",""
"","","","","","canvas-keyboard-response","176","238471","0.0-12.0-4.32","2d_cat_multi_stim_exp1","2022-4-11","11:26:5","25","75","3","9","10","40","30","120","25","20","[""White""]","No","Female","1700748","null","null","","","","clear_screen","","","","","","","","","","","","","","","","","","","","","","","","","",""
"","","","","","canvas-keyboard-response","177","238982","0.0-12.0-0.33","2d_cat_multi_stim_exp1","2022-4-11","11:26:5","25","75","3","9","10","40","30","120","25","20","[""White""]","No","Female","1700748","null","null","","","","fixation","","","","","","","","","","","","","","","","","","","","","","","","","",""
"","","","","","canvas-keyboard-response","178","239496","0.0-12.0-1.33","2d_cat_multi_stim_exp1","2022-4-11","11:26:5","25","75","3","9","10","40","30","120","25","20","[""White""]","No","Female","1700748","null","null","","","","clear_screen","","","","","","","","","","","","","","","","","","","","","","","","","",""
"","","","","","canvas-keyboard-response","179","240116","0.0-12.0-2.33","2d_cat_multi_stim_exp1","2022-4-11","11:26:5","25","75","3","9","10","40","30","120","25","20","[""White""]","No","Female","1700748","609","u","learn","","","learn_trial","25.4027","83.9185","in","1","1","","","","","","","","","","","","","","","","","","","","",""
"","","","","","canvas-keyboard-response","180","240624","0.0-12.0-3.33","2d_cat_multi_stim_exp1","2022-4-11","11:26:5","25","75","3","9","10","40","30","120","25","20","[""White""]","No","Female","1700748","null","null","learn_feedback","","","learn_feedback","25.4027","83.9185","in","","","","","","","","","","","","","","","","","","","","","","",""
"","","","","","canvas-keyboard-response","181","240688","0.0-12.0-4.33","2d_cat_multi_stim_exp1","2022-4-11","11:26:5","25","75","3","9","10","40","30","120","25","20","[""White""]","No","Female","1700748","null","null","","","","clear_screen","","","","","","","","","","","","","","","","","","","","","","","","","",""
"","","","","","canvas-keyboard-response","182","241196","0.0-12.0-0.34","2d_cat_multi_stim_exp1","2022-4-11","11:26:5","25","75","3","9","10","40","30","120","25","20","[""White""]","No","Female","1700748","null","null","","","","fixation","","","","","","","","","","","","","","","","","","","","","","","","","",""
"","","","","","canvas-keyboard-response","183","241710","0.0-12.0-1.34","2d_cat_multi_stim_exp1","2022-4-11","11:26:5","25","75","3","9","10","40","30","120","25","20","[""White""]","No","Female","1700748","null","null","","","","clear_screen","","","","","","","","","","","","","","","","","","","","","","","","","",""
"","","","","","canvas-keyboard-response","184","242340","0.0-12.0-2.34","2d_cat_multi_stim_exp1","2022-4-11","11:26:5","25","75","3","9","10","40","30","120","25","20","[""White""]","No","Female","1700748","621","u","learn","","","learn_trial","30","90","out","1","0","","","","","","","","","","","","","","","","","","","","",""
"","","","","","canvas-keyboard-response","185","243349","0.0-12.0-3.34","2d_cat_multi_stim_exp1","2022-4-11","11:26:5","25","75","3","9","10","40","30","120","25","20","[""White""]","No","Female","1700748","null","null","learn_feedback","","","learn_feedback","30","90","out","","","","","","","","","","","","","","","","","","","","","","",""
"","","","","","canvas-keyboard-response","186","243410","0.0-12.0-4.34","2d_cat_multi_stim_exp1","2022-4-11","11:26:5","25","75","3","9","10","40","30","120","25","20","[""White""]","No","Female","1700748","null","null","","","","clear_screen","","","","","","","","","","","","","","","","","","","","","","","","","",""
"","","","","","canvas-keyboard-response","187","243919","0.0-12.0-0.35","2d_cat_multi_stim_exp1","2022-4-11","11:26:5","25","75","3","9","10","40","30","120","25","20","[""White""]","No","Female","1700748","null","null","","","","fixation","","","","","","","","","","","","","","","","","","","","","","","","","",""
"","","","","","canvas-keyboard-response","188","244429","0.0-12.0-1.35","2d_cat_multi_stim_exp1","2022-4-11","11:26:5","25","75","3","9","10","40","30","120","25","20","[""White""]","No","Female","1700748","null","null","","","","clear_screen","","","","","","","","","","","","","","","","","","","","","","","","","",""
"","","","","","canvas-keyboard-response","189","245531","0.0-12.0-2.35","2d_cat_multi_stim_exp1","2022-4-11","11:26:5","25","75","3","9","10","40","30","120","25","20","[""White""]","No","Female","1700748","1093","i","learn","","","learn_trial","10","30","out","0","1","","","","","","","","","","","","","","","","","","","","",""
"","","","","","canvas-keyboard-response","190","246040","0.0-12.0-3.35","2d_cat_multi_stim_exp1","2022-4-11","11:26:5","25","75","3","9","10","40","30","120","25","20","[""White""]","No","Female","1700748","null","null","learn_feedback","","","learn_feedback","10","30","out","","","","","","","","","","","","","","","","","","","","","","",""
"","","","","","canvas-keyboard-response","191","246102","0.0-12.0-4.35","2d_cat_multi_stim_exp1","2022-4-11","11:26:5","25","75","3","9","10","40","30","120","25","20","[""White""]","No","Female","1700748","null","null","","","","clear_screen","","","","","","","","","","","","","","","","","","","","","","","","","",""
"","","","","","canvas-keyboard-response","192","246613","0.0-12.0-0.36","2d_cat_multi_stim_exp1","2022-4-11","11:26:5","25","75","3","9","10","40","30","120","25","20","[""White""]","No","Female","1700748","null","null","","","","fixation","","","","","","","","","","","","","","","","","","","","","","","","","",""
"","","","","","canvas-keyboard-response","193","247125","0.0-12.0-1.36","2d_cat_multi_stim_exp1","2022-4-11","11:26:5","25","75","3","9","10","40","30","120","25","20","[""White""]","No","Female","1700748","null","null","","","","clear_screen","","","","","","","","","","","","","","","","","","","","","","","","","",""
"","","","","","canvas-keyboard-response","194","248163","0.0-12.0-2.36","2d_cat_multi_stim_exp1","2022-4-11","11:26:5","25","75","3","9","10","40","30","120","25","20","[""White""]","No","Female","1700748","1028","i","learn","","","learn_trial","30","110","out","0","1","","","","","","","","","","","","","","","","","","","","",""
"","","","","","canvas-keyboard-response","195","248673","0.0-12.0-3.36","2d_cat_multi_stim_exp1","2022-4-11","11:26:5","25","75","3","9","10","40","30","120","25","20","[""White""]","No","Female","1700748","null","null","learn_feedback","","","learn_feedback","30","110","out","","","","","","","","","","","","","","","","","","","","","","",""
"","","","","","canvas-keyboard-response","196","248735","0.0-12.0-4.36","2d_cat_multi_stim_exp1","2022-4-11","11:26:5","25","75","3","9","10","40","30","120","25","20","[""White""]","No","Female","1700748","null","null","","","","clear_screen","","","","","","","","","","","","","","","","","","","","","","","","","",""
"","","","","","canvas-keyboard-response","197","249244","0.0-12.0-0.37","2d_cat_multi_stim_exp1","2022-4-11","11:26:5","25","75","3","9","10","40","30","120","25","20","[""White""]","No","Female","1700748","null","null","","","","fixation","","","","","","","","","","","","","","","","","","","","","","","","","",""
"","","","","","canvas-keyboard-response","198","249757","0.0-12.0-1.37","2d_cat_multi_stim_exp1","2022-4-11","11:26:5","25","75","3","9","10","40","30","120","25","20","[""White""]","No","Female","1700748","null","null","","","","clear_screen","","","","","","","","","","","","","","","","","","","","","","","","","",""
"","","","","","canvas-keyboard-response","199","250395","0.0-12.0-2.37","2d_cat_multi_stim_exp1","2022-4-11","11:26:5","25","75","3","9","10","40","30","120","25","20","[""White""]","No","Female","1700748","624","u","learn","","","learn_trial","22.5729","69.7099","in","1","1","","","","","","","","","","","","","","","","","","","","",""
"","","","","","canvas-keyboard-response","200","250905","0.0-12.0-3.37","2d_cat_multi_stim_exp1","2022-4-11","11:26:5","25","75","3","9","10","40","30","120","25","20","[""White""]","No","Female","1700748","null","null","learn_feedback","","","learn_feedback","22.5729","69.7099","in","","","","","","","","","","","","","","","","","","","","","","",""
"","","","","","canvas-keyboard-response","201","250967","0.0-12.0-4.37","2d_cat_multi_stim_exp1","2022-4-11","11:26:5","25","75","3","9","10","40","30","120","25","20","[""White""]","No","Female","1700748","null","null","","","","clear_screen","","","","","","","","","","","","","","","","","","","","","","","","","",""
"","","","","","canvas-keyboard-response","202","251477","0.0-12.0-0.38","2d_cat_multi_stim_exp1","2022-4-11","11:26:5","25","75","3","9","10","40","30","120","25","20","[""White""]","No","Female","1700748","null","null","","","","fixation","","","","","","","","","","","","","","","","","","","","","","","","","",""
"","","","","","canvas-keyboard-response","203","251990","0.0-12.0-1.38","2d_cat_multi_stim_exp1","2022-4-11","11:26:5","25","75","3","9","10","40","30","120","25","20","[""White""]","No","Female","1700748","null","null","","","","clear_screen","","","","","","","","","","","","","","","","","","","","","","","","","",""
"","","","","","canvas-keyboard-response","204","253459","0.0-12.0-2.38","2d_cat_multi_stim_exp1","2022-4-11","11:26:5","25","75","3","9","10","40","30","120","25","20","[""White""]","No","Female","1700748","1460","i","learn","","","learn_trial","23.3333","90","out","0","1","","","","","","","","","","","","","","","","","","","","",""
"","","","","","canvas-keyboard-response","205","253968","0.0-12.0-3.38","2d_cat_multi_stim_exp1","2022-4-11","11:26:5","25","75","3","9","10","40","30","120","25","20","[""White""]","No","Female","1700748","null","null","learn_feedback","","","learn_feedback","23.3333","90","out","","","","","","","","","","","","","","","","","","","","","","",""
"","","","","","canvas-keyboard-response","206","254032","0.0-12.0-4.38","2d_cat_multi_stim_exp1","2022-4-11","11:26:5","25","75","3","9","10","40","30","120","25","20","[""White""]","No","Female","1700748","null","null","","","","clear_screen","","","","","","","","","","","","","","","","","","","","","","","","","",""
"","","","","","canvas-keyboard-response","207","254542","0.0-12.0-0.39","2d_cat_multi_stim_exp1","2022-4-11","11:26:5","25","75","3","9","10","40","30","120","25","20","[""White""]","No","Female","1700748","null","null","","","","fixation","","","","","","","","","","","","","","","","","","","","","","","","","",""
"","","","","","canvas-keyboard-response","208","255057","0.0-12.0-1.39","2d_cat_multi_stim_exp1","2022-4-11","11:26:5","25","75","3","9","10","40","30","120","25","20","[""White""]","No","Female","1700748","null","null","","","","clear_screen","","","","","","","","","","","","","","","","","","","","","","","","","",""
"","","","","","canvas-keyboard-response","209","256675","0.0-12.0-2.39","2d_cat_multi_stim_exp1","2022-4-11","11:26:5","25","75","3","9","10","40","30","120","25","20","[""White""]","No","Female","1700748","1608","i","learn","","","learn_trial","30","60","out","0","1","","","","","","","","","","","","","","","","","","","","",""
"","","","","","canvas-keyboard-response","210","257184","0.0-12.0-3.39","2d_cat_multi_stim_exp1","2022-4-11","11:26:5","25","75","3","9","10","40","30","120","25","20","[""White""]","No","Female","1700748","null","null","learn_feedback","","","learn_feedback","30","60","out","","","","","","","","","","","","","","","","","","","","","","",""
"","","","","","canvas-keyboard-response","211","257243","0.0-12.0-4.39","2d_cat_multi_stim_exp1","2022-4-11","11:26:5","25","75","3","9","10","40","30","120","25","20","[""White""]","No","Female","1700748","null","null","","","","clear_screen","","","","","","","","","","","","","","","","","","","","","","","","","",""
"","","","","","canvas-keyboard-response","212","257753","0.0-12.0-0.40","2d_cat_multi_stim_exp1","2022-4-11","11:26:5","25","75","3","9","10","40","30","120","25","20","[""White""]","No","Female","1700748","null","null","","","","fixation","","","","","","","","","","","","","","","","","","","","","","","","","",""
"","","","","","canvas-keyboard-response","213","258269","0.0-12.0-1.40","2d_cat_multi_stim_exp1","2022-4-11","11:26:5","25","75","3","9","10","40","30","120","25","20","[""White""]","No","Female","1700748","null","null","","","","clear_screen","","","","","","","","","","","","","","","","","","","","","","","","","",""
"","","","","","canvas-keyboard-response","214","259068","0.0-12.0-2.40","2d_cat_multi_stim_exp1","2022-4-11","11:26:5","25","75","3","9","10","40","30","120","25","20","[""White""]","No","Female","1700748","787","u","learn","","","learn_trial","26.6667","70","out","1","0","","","","","","","","","","","","","","","","","","","","",""
"","","","","","canvas-keyboard-response","215","260079","0.0-12.0-3.40","2d_cat_multi_stim_exp1","2022-4-11","11:26:5","25","75","3","9","10","40","30","120","25","20","[""White""]","No","Female","1700748","null","null","learn_feedback","","","learn_feedback","26.6667","70","out","","","","","","","","","","","","","","","","","","","","","","",""
"","","","","","canvas-keyboard-response","216","260141","0.0-12.0-4.40","2d_cat_multi_stim_exp1","2022-4-11","11:26:5","25","75","3","9","10","40","30","120","25","20","[""White""]","No","Female","1700748","null","null","","","","clear_screen","","","","","","","","","","","","","","","","","","","","","","","","","",""
"","","","","","canvas-keyboard-response","217","260650","0.0-12.0-0.41","2d_cat_multi_stim_exp1","2022-4-11","11:26:5","25","75","3","9","10","40","30","120","25","20","[""White""]","No","Female","1700748","null","null","","","","fixation","","","","","","","","","","","","","","","","","","","","","","","","","",""
"","","","","","canvas-keyboard-response","218","261160","0.0-12.0-1.41","2d_cat_multi_stim_exp1","2022-4-11","11:26:5","25","75","3","9","10","40","30","120","25","20","[""White""]","No","Female","1700748","null","null","","","","clear_screen","","","","","","","","","","","","","","","","","","","","","","","","","",""
"","","","","","canvas-keyboard-response","219","264036","0.0-12.0-2.41","2d_cat_multi_stim_exp1","2022-4-11","11:26:5","25","75","3","9","10","40","30","120","25","20","[""White""]","No","Female","1700748","2866","i","learn","","","learn_trial","20.7574","87.7279","in","0","0","","","","","","","","","","","","","","","","","","","","",""
"","","","","","canvas-keyboard-response","220","265041","0.0-12.0-3.41","2d_cat_multi_stim_exp1","2022-4-11","11:26:5","25","75","3","9","10","40","30","120","25","20","[""White""]","No","Female","1700748","null","null","learn_feedback","","","learn_feedback","20.7574","87.7279","in","","","","","","","","","","","","","","","","","","","","","","",""
"","","","","","canvas-keyboard-response","221","265104","0.0-12.0-4.41","2d_cat_multi_stim_exp1","2022-4-11","11:26:5","25","75","3","9","10","40","30","120","25","20","[""White""]","No","Female","1700748","null","null","","","","clear_screen","","","","","","","","","","","","","","","","","","","","","","","","","",""
"","","","","","canvas-keyboard-response","222","265614","0.0-12.0-0.42","2d_cat_multi_stim_exp1","2022-4-11","11:26:5","25","75","3","9","10","40","30","120","25","20","[""White""]","No","Female","1700748","null","null","","","","fixation","","","","","","","","","","","","","","","","","","","","","","","","","",""
"","","","","","canvas-keyboard-response","223","266121","0.0-12.0-1.42","2d_cat_multi_stim_exp1","2022-4-11","11:26:5","25","75","3","9","10","40","30","120","25","20","[""White""]","No","Female","1700748","null","null","","","","clear_screen","","","","","","","","","","","","","","","","","","","","","","","","","",""
"","","","","","canvas-keyboard-response","224","268380","0.0-12.0-2.42","2d_cat_multi_stim_exp1","2022-4-11","11:26:5","25","75","3","9","10","40","30","120","25","20","[""White""]","No","Female","1700748","2249","i","learn","","","learn_trial","10","110","out","0","1","","","","","","","","","","","","","","","","","","","","",""
"","","","","","canvas-keyboard-response","225","268890","0.0-12.0-3.42","2d_cat_multi_stim_exp1","2022-4-11","11:26:5","25","75","3","9","10","40","30","120","25","20","[""White""]","No","Female","1700748","null","null","learn_feedback","","","learn_feedback","10","110","out","","","","","","","","","","","","","","","","","","","","","","",""
"","","","","","canvas-keyboard-response","226","268951","0.0-12.0-4.42","2d_cat_multi_stim_exp1","2022-4-11","11:26:5","25","75","3","9","10","40","30","120","25","20","[""White""]","No","Female","1700748","null","null","","","","clear_screen","","","","","","","","","","","","","","","","","","","","","","","","","",""
"","","","","","canvas-keyboard-response","227","269463","0.0-12.0-0.43","2d_cat_multi_stim_exp1","2022-4-11","11:26:5","25","75","3","9","10","40","30","120","25","20","[""White""]","No","Female","1700748","null","null","","","","fixation","","","","","","","","","","","","","","","","","","","","","","","","","",""
"","","","","","canvas-keyboard-response","228","269977","0.0-12.0-1.43","2d_cat_multi_stim_exp1","2022-4-11","11:26:5","25","75","3","9","10","40","30","120","25","20","[""White""]","No","Female","1700748","null","null","","","","clear_screen","","","","","","","","","","","","","","","","","","","","","","","","","",""
"","","","","","canvas-keyboard-response","229","270755","0.0-12.0-2.43","2d_cat_multi_stim_exp1","2022-4-11","11:26:5","25","75","3","9","10","40","30","120","25","20","[""White""]","No","Female","1700748","767","u","learn","","","learn_trial","25","75","in","1","1","","","","","","","","","","","","","","","","","","","","",""
"","","","","","canvas-keyboard-response","230","271265","0.0-12.0-3.43","2d_cat_multi_stim_exp1","2022-4-11","11:26:5","25","75","3","9","10","40","30","120","25","20","[""White""]","No","Female","1700748","null","null","learn_feedback","","","learn_feedback","25","75","in","","","","","","","","","","","","","","","","","","","","","","",""
"","","","","","canvas-keyboard-response","231","271329","0.0-12.0-4.43","2d_cat_multi_stim_exp1","2022-4-11","11:26:5","25","75","3","9","10","40","30","120","25","20","[""White""]","No","Female","1700748","null","null","","","","clear_screen","","","","","","","","","","","","","","","","","","","","","","","","","",""
"","","","","","canvas-keyboard-response","232","271839","0.0-12.0-0.44","2d_cat_multi_stim_exp1","2022-4-11","11:26:5","25","75","3","9","10","40","30","120","25","20","[""White""]","No","Female","1700748","null","null","","","","fixation","","","","","","","","","","","","","","","","","","","","","","","","","",""
"","","","","","canvas-keyboard-response","233","272354","0.0-12.0-1.44","2d_cat_multi_stim_exp1","2022-4-11","11:26:5","25","75","3","9","10","40","30","120","25","20","[""White""]","No","Female","1700748","null","null","","","","clear_screen","","","","","","","","","","","","","","","","","","","","","","","","","",""
"","","","","","canvas-keyboard-response","234","273060","0.0-12.0-2.44","2d_cat_multi_stim_exp1","2022-4-11","11:26:5","25","75","3","9","10","40","30","120","25","20","[""White""]","No","Female","1700748","696","u","learn","","","learn_trial","27.5753","79.6161","in","1","1","","","","","","","","","","","","","","","","","","","","",""
"","","","","","canvas-keyboard-response","235","273572","0.0-12.0-3.44","2d_cat_multi_stim_exp1","2022-4-11","11:26:5","25","75","3","9","10","40","30","120","25","20","[""White""]","No","Female","1700748","null","null","learn_feedback","","","learn_feedback","27.5753","79.6161","in","","","","","","","","","","","","","","","","","","","","","","",""
"","","","","","canvas-keyboard-response","236","273631","0.0-12.0-4.44","2d_cat_multi_stim_exp1","2022-4-11","11:26:5","25","75","3","9","10","40","30","120","25","20","[""White""]","No","Female","1700748","null","null","","","","clear_screen","","","","","","","","","","","","","","","","","","","","","","","","","",""
"","","","","","canvas-keyboard-response","237","274140","0.0-12.0-0.45","2d_cat_multi_stim_exp1","2022-4-11","11:26:5","25","75","3","9","10","40","30","120","25","20","[""White""]","No","Female","1700748","null","null","","","","fixation","","","","","","","","","","","","","","","","","","","","","","","","","",""
"","","","","","canvas-keyboard-response","238","274651","0.0-12.0-1.45","2d_cat_multi_stim_exp1","2022-4-11","11:26:5","25","75","3","9","10","40","30","120","25","20","[""White""]","No","Female","1700748","null","null","","","","clear_screen","","","","","","","","","","","","","","","","","","","","","","","","","",""
"","","","","","canvas-keyboard-response","239","275115","0.0-12.0-2.45","2d_cat_multi_stim_exp1","2022-4-11","11:26:5","25","75","3","9","10","40","30","120","25","20","[""White""]","No","Female","1700748","453","u","learn","","","learn_trial","28","75","in","1","1","","","","","","","","","","","","","","","","","","","","",""
"","","","","","canvas-keyboard-response","240","275628","0.0-12.0-3.45","2d_cat_multi_stim_exp1","2022-4-11","11:26:5","25","75","3","9","10","40","30","120","25","20","[""White""]","No","Female","1700748","null","null","learn_feedback","","","learn_feedback","28","75","in","","","","","","","","","","","","","","","","","","","","","","",""
"","","","","","canvas-keyboard-response","241","275690","0.0-12.0-4.45","2d_cat_multi_stim_exp1","2022-4-11","11:26:5","25","75","3","9","10","40","30","120","25","20","[""White""]","No","Female","1700748","null","null","","","","clear_screen","","","","","","","","","","","","","","","","","","","","","","","","","",""
"","","","","","canvas-keyboard-response","242","276199","0.0-12.0-0.46","2d_cat_multi_stim_exp1","2022-4-11","11:26:5","25","75","3","9","10","40","30","120","25","20","[""White""]","No","Female","1700748","null","null","","","","fixation","","","","","","","","","","","","","","","","","","","","","","","","","",""
"","","","","","canvas-keyboard-response","243","276709","0.0-12.0-1.46","2d_cat_multi_stim_exp1","2022-4-11","11:26:5","25","75","3","9","10","40","30","120","25","20","[""White""]","No","Female","1700748","null","null","","","","clear_screen","","","","","","","","","","","","","","","","","","","","","","","","","",""
"","","","","","canvas-keyboard-response","244","277396","0.0-12.0-2.46","2d_cat_multi_stim_exp1","2022-4-11","11:26:5","25","75","3","9","10","40","30","120","25","20","[""White""]","No","Female","1700748","677","i","learn","","","learn_trial","13.3333","60","out","0","1","","","","","","","","","","","","","","","","","","","","",""
"","","","","","canvas-keyboard-response","245","277905","0.0-12.0-3.46","2d_cat_multi_stim_exp1","2022-4-11","11:26:5","25","75","3","9","10","40","30","120","25","20","[""White""]","No","Female","1700748","null","null","learn_feedback","","","learn_feedback","13.3333","60","out","","","","","","","","","","","","","","","","","","","","","","",""
"","","","","","canvas-keyboard-response","246","277966","0.0-12.0-4.46","2d_cat_multi_stim_exp1","2022-4-11","11:26:5","25","75","3","9","10","40","30","120","25","20","[""White""]","No","Female","1700748","null","null","","","","clear_screen","","","","","","","","","","","","","","","","","","","","","","","","","",""
"","","","","","canvas-keyboard-response","247","278474","0.0-12.0-0.47","2d_cat_multi_stim_exp1","2022-4-11","11:26:5","25","75","3","9","10","40","30","120","25","20","[""White""]","No","Female","1700748","null","null","","","","fixation","","","","","","","","","","","","","","","","","","","","","","","","","",""
"","","","","","canvas-keyboard-response","248","278989","0.0-12.0-1.47","2d_cat_multi_stim_exp1","2022-4-11","11:26:5","25","75","3","9","10","40","30","120","25","20","[""White""]","No","Female","1700748","null","null","","","","clear_screen","","","","","","","","","","","","","","","","","","","","","","","","","",""
"","","","","","canvas-keyboard-response","249","279835","0.0-12.0-2.47","2d_cat_multi_stim_exp1","2022-4-11","11:26:5","25","75","3","9","10","40","30","120","25","20","[""White""]","No","Female","1700748","838","i","learn","","","learn_trial","36.6667","60","out","0","1","","","","","","","","","","","","","","","","","","","","",""
"","","","","","canvas-keyboard-response","250","280345","0.0-12.0-3.47","2d_cat_multi_stim_exp1","2022-4-11","11:26:5","25","75","3","9","10","40","30","120","25","20","[""White""]","No","Female","1700748","null","null","learn_feedback","","","learn_feedback","36.6667","60","out","","","","","","","","","","","","","","","","","","","","","","",""
"","","","","","canvas-keyboard-response","251","280408","0.0-12.0-4.47","2d_cat_multi_stim_exp1","2022-4-11","11:26:5","25","75","3","9","10","40","30","120","25","20","[""White""]","No","Female","1700748","null","null","","","","clear_screen","","","","","","","","","","","","","","","","","","","","","","","","","",""
"","","","","","canvas-keyboard-response","252","280916","0.0-12.0-0.48","2d_cat_multi_stim_exp1","2022-4-11","11:26:5","25","75","3","9","10","40","30","120","25","20","[""White""]","No","Female","1700748","null","null","","","","fixation","","","","","","","","","","","","","","","","","","","","","","","","","",""
"","","","","","canvas-keyboard-response","253","281426","0.0-12.0-1.48","2d_cat_multi_stim_exp1","2022-4-11","11:26:5","25","75","3","9","10","40","30","120","25","20","[""White""]","No","Female","1700748","null","null","","","","clear_screen","","","","","","","","","","","","","","","","","","","","","","","","","",""
"","","","","","canvas-keyboard-response","254","282314","0.0-12.0-2.48","2d_cat_multi_stim_exp1","2022-4-11","11:26:5","25","75","3","9","10","40","30","120","25","20","[""White""]","No","Female","1700748","879","i","learn","","","learn_trial","16.6667","60","out","0","1","","","","","","","","","","","","","","","","","","","","",""
"","","","","","canvas-keyboard-response","255","282824","0.0-12.0-3.48","2d_cat_multi_stim_exp1","2022-4-11","11:26:5","25","75","3","9","10","40","30","120","25","20","[""White""]","No","Female","1700748","null","null","learn_feedback","","","learn_feedback","16.6667","60","out","","","","","","","","","","","","","","","","","","","","","","",""
"","","","","","canvas-keyboard-response","256","282883","0.0-12.0-4.48","2d_cat_multi_stim_exp1","2022-4-11","11:26:5","25","75","3","9","10","40","30","120","25","20","[""White""]","No","Female","1700748","null","null","","","","clear_screen","","","","","","","","","","","","","","","","","","","","","","","","","",""
"","","","","","canvas-keyboard-response","257","283391","0.0-12.0-0.49","2d_cat_multi_stim_exp1","2022-4-11","11:26:5","25","75","3","9","10","40","30","120","25","20","[""White""]","No","Female","1700748","null","null","","","","fixation","","","","","","","","","","","","","","","","","","","","","","","","","",""
"","","","","","canvas-keyboard-response","258","283902","0.0-12.0-1.49","2d_cat_multi_stim_exp1","2022-4-11","11:26:5","25","75","3","9","10","40","30","120","25","20","[""White""]","No","Female","1700748","null","null","","","","clear_screen","","","","","","","","","","","","","","","","","","","","","","","","","",""
"","","","","","canvas-keyboard-response","259","285411","0.0-12.0-2.49","2d_cat_multi_stim_exp1","2022-4-11","11:26:5","25","75","3","9","10","40","30","120","25","20","[""White""]","No","Female","1700748","1497","i","learn","","","learn_trial","36.6667","40","out","0","1","","","","","","","","","","","","","","","","","","","","",""
"","","","","","canvas-keyboard-response","260","285921","0.0-12.0-3.49","2d_cat_multi_stim_exp1","2022-4-11","11:26:5","25","75","3","9","10","40","30","120","25","20","[""White""]","No","Female","1700748","null","null","learn_feedback","","","learn_feedback","36.6667","40","out","","","","","","","","","","","","","","","","","","","","","","",""
"","","","","","canvas-keyboard-response","261","285985","0.0-12.0-4.49","2d_cat_multi_stim_exp1","2022-4-11","11:26:5","25","75","3","9","10","40","30","120","25","20","[""White""]","No","Female","1700748","null","null","","","","clear_screen","","","","","","","","","","","","","","","","","","","","","","","","","",""
"","","","","","canvas-keyboard-response","262","286494","0.0-12.0-0.50","2d_cat_multi_stim_exp1","2022-4-11","11:26:5","25","75","3","9","10","40","30","120","25","20","[""White""]","No","Female","1700748","null","null","","","","fixation","","","","","","","","","","","","","","","","","","","","","","","","","",""
"","","","","","canvas-keyboard-response","263","287009","0.0-12.0-1.50","2d_cat_multi_stim_exp1","2022-4-11","11:26:5","25","75","3","9","10","40","30","120","25","20","[""White""]","No","Female","1700748","null","null","","","","clear_screen","","","","","","","","","","","","","","","","","","","","","","","","","",""
"","","","","","canvas-keyboard-response","264","287788","0.0-12.0-2.50","2d_cat_multi_stim_exp1","2022-4-11","11:26:5","25","75","3","9","10","40","30","120","25","20","[""White""]","No","Female","1700748","768","i","learn","","","learn_trial","16.6667","120","out","0","1","","","","","","","","","","","","","","","","","","","","",""
"","","","","","canvas-keyboard-response","265","288296","0.0-12.0-3.50","2d_cat_multi_stim_exp1","2022-4-11","11:26:5","25","75","3","9","10","40","30","120","25","20","[""White""]","No","Female","1700748","null","null","learn_feedback","","","learn_feedback","16.6667","120","out","","","","","","","","","","","","","","","","","","","","","","",""
"","","","","","canvas-keyboard-response","266","288355","0.0-12.0-4.50","2d_cat_multi_stim_exp1","2022-4-11","11:26:5","25","75","3","9","10","40","30","120","25","20","[""White""]","No","Female","1700748","null","null","","","","clear_screen","","","","","","","","","","","","","","","","","","","","","","","","","",""
"","","","","","canvas-keyboard-response","267","288866","0.0-12.0-0.51","2d_cat_multi_stim_exp1","2022-4-11","11:26:5","25","75","3","9","10","40","30","120","25","20","[""White""]","No","Female","1700748","null","null","","","","fixation","","","","","","","","","","","","","","","","","","","","","","","","","",""
"","","","","","canvas-keyboard-response","268","289378","0.0-12.0-1.51","2d_cat_multi_stim_exp1","2022-4-11","11:26:5","25","75","3","9","10","40","30","120","25","20","[""White""]","No","Female","1700748","null","null","","","","clear_screen","","","","","","","","","","","","","","","","","","","","","","","","","",""
"","","","","","canvas-keyboard-response","269","289955","0.0-12.0-2.51","2d_cat_multi_stim_exp1","2022-4-11","11:26:5","25","75","3","9","10","40","30","120","25","20","[""White""]","No","Female","1700748","568","u","learn","","","learn_trial","22.9268","81.5052","in","1","1","","","","","","","","","","","","","","","","","","","","",""
"","","","","","canvas-keyboard-response","270","290465","0.0-12.0-3.51","2d_cat_multi_stim_exp1","2022-4-11","11:26:5","25","75","3","9","10","40","30","120","25","20","[""White""]","No","Female","1700748","null","null","learn_feedback","","","learn_feedback","22.9268","81.5052","in","","","","","","","","","","","","","","","","","","","","","","",""
"","","","","","canvas-keyboard-response","271","290529","0.0-12.0-4.51","2d_cat_multi_stim_exp1","2022-4-11","11:26:5","25","75","3","9","10","40","30","120","25","20","[""White""]","No","Female","1700748","null","null","","","","clear_screen","","","","","","","","","","","","","","","","","","","","","","","","","",""
"","","","","","canvas-keyboard-response","272","291037","0.0-12.0-0.52","2d_cat_multi_stim_exp1","2022-4-11","11:26:5","25","75","3","9","10","40","30","120","25","20","[""White""]","No","Female","1700748","null","null","","","","fixation","","","","","","","","","","","","","","","","","","","","","","","","","",""
"","","","","","canvas-keyboard-response","273","291547","0.0-12.0-1.52","2d_cat_multi_stim_exp1","2022-4-11","11:26:5","25","75","3","9","10","40","30","120","25","20","[""White""]","No","Female","1700748","null","null","","","","clear_screen","","","","","","","","","","","","","","","","","","","","","","","","","",""
"","","","","","canvas-keyboard-response","274","292163","0.0-12.0-2.52","2d_cat_multi_stim_exp1","2022-4-11","11:26:5","25","75","3","9","10","40","30","120","25","20","[""White""]","No","Female","1700748","606","u","learn","","","learn_trial","25","75","in","1","1","","","","","","","","","","","","","","","","","","","","",""
"","","","","","canvas-keyboard-response","275","292672","0.0-12.0-3.52","2d_cat_multi_stim_exp1","2022-4-11","11:26:5","25","75","3","9","10","40","30","120","25","20","[""White""]","No","Female","1700748","null","null","learn_feedback","","","learn_feedback","25","75","in","","","","","","","","","","","","","","","","","","","","","","",""
"","","","","","canvas-keyboard-response","276","292732","0.0-12.0-4.52","2d_cat_multi_stim_exp1","2022-4-11","11:26:5","25","75","3","9","10","40","30","120","25","20","[""White""]","No","Female","1700748","null","null","","","","clear_screen","","","","","","","","","","","","","","","","","","","","","","","","","",""
"","","","","","canvas-keyboard-response","277","293242","0.0-12.0-0.53","2d_cat_multi_stim_exp1","2022-4-11","11:26:5","25","75","3","9","10","40","30","120","25","20","[""White""]","No","Female","1700748","null","null","","","","fixation","","","","","","","","","","","","","","","","","","","","","","","","","",""
"","","","","","canvas-keyboard-response","278","293751","0.0-12.0-1.53","2d_cat_multi_stim_exp1","2022-4-11","11:26:5","25","75","3","9","10","40","30","120","25","20","[""White""]","No","Female","1700748","null","null","","","","clear_screen","","","","","","","","","","","","","","","","","","","","","","","","","",""
"","","","","","canvas-keyboard-response","279","294586","0.0-12.0-2.53","2d_cat_multi_stim_exp1","2022-4-11","11:26:5","25","75","3","9","10","40","30","120","25","20","[""White""]","No","Female","1700748","823","i","learn","","","learn_trial","24.8654","66.0091","in","0","0","","","","","","","","","","","","","","","","","","","","",""
"","","","","","canvas-keyboard-response","280","295597","0.0-12.0-3.53","2d_cat_multi_stim_exp1","2022-4-11","11:26:5","25","75","3","9","10","40","30","120","25","20","[""White""]","No","Female","1700748","null","null","learn_feedback","","","learn_feedback","24.8654","66.0091","in","","","","","","","","","","","","","","","","","","","","","","",""
"","","","","","canvas-keyboard-response","281","295658","0.0-12.0-4.53","2d_cat_multi_stim_exp1","2022-4-11","11:26:5","25","75","3","9","10","40","30","120","25","20","[""White""]","No","Female","1700748","null","null","","","","clear_screen","","","","","","","","","","","","","","","","","","","","","","","","","",""
"","","","","","canvas-keyboard-response","282","296162","0.0-12.0-0.54","2d_cat_multi_stim_exp1","2022-4-11","11:26:5","25","75","3","9","10","40","30","120","25","20","[""White""]","No","Female","1700748","null","null","","","","fixation","","","","","","","","","","","","","","","","","","","","","","","","","",""
"","","","","","canvas-keyboard-response","283","296671","0.0-12.0-1.54","2d_cat_multi_stim_exp1","2022-4-11","11:26:5","25","75","3","9","10","40","30","120","25","20","[""White""]","No","Female","1700748","null","null","","","","clear_screen","","","","","","","","","","","","","","","","","","","","","","","","","",""
"","","","","","canvas-keyboard-response","284","297666","0.0-12.0-2.54","2d_cat_multi_stim_exp1","2022-4-11","11:26:5","25","75","3","9","10","40","30","120","25","20","[""White""]","No","Female","1700748","984","i","learn","","","learn_trial","13.3333","110","out","0","1","","","","","","","","","","","","","","","","","","","","",""
"","","","","","canvas-keyboard-response","285","298180","0.0-12.0-3.54","2d_cat_multi_stim_exp1","2022-4-11","11:26:5","25","75","3","9","10","40","30","120","25","20","[""White""]","No","Female","1700748","null","null","learn_feedback","","","learn_feedback","13.3333","110","out","","","","","","","","","","","","","","","","","","","","","","",""
"","","","","","canvas-keyboard-response","286","298241","0.0-12.0-4.54","2d_cat_multi_stim_exp1","2022-4-11","11:26:5","25","75","3","9","10","40","30","120","25","20","[""White""]","No","Female","1700748","null","null","","","","clear_screen","","","","","","","","","","","","","","","","","","","","","","","","","",""
"","","","","","canvas-keyboard-response","287","298752","0.0-12.0-0.55","2d_cat_multi_stim_exp1","2022-4-11","11:26:5","25","75","3","9","10","40","30","120","25","20","[""White""]","No","Female","1700748","null","null","","","","fixation","","","","","","","","","","","","","","","","","","","","","","","","","",""
"","","","","","canvas-keyboard-response","288","299267","0.0-12.0-1.55","2d_cat_multi_stim_exp1","2022-4-11","11:26:5","25","75","3","9","10","40","30","120","25","20","[""White""]","No","Female","1700748","null","null","","","","clear_screen","","","","","","","","","","","","","","","","","","","","","","","","","",""
"","","","","","canvas-keyboard-response","289","300338","0.0-12.0-2.55","2d_cat_multi_stim_exp1","2022-4-11","11:26:5","25","75","3","9","10","40","30","120","25","20","[""White""]","No","Female","1700748","1064","i","learn","","","learn_trial","23.3333","40","out","0","1","","","","","","","","","","","","","","","","","","","","",""
"","","","","","canvas-keyboard-response","290","300851","0.0-12.0-3.55","2d_cat_multi_stim_exp1","2022-4-11","11:26:5","25","75","3","9","10","40","30","120","25","20","[""White""]","No","Female","1700748","null","null","learn_feedback","","","learn_feedback","23.3333","40","out","","","","","","","","","","","","","","","","","","","","","","",""
"","","","","","canvas-keyboard-response","291","300915","0.0-12.0-4.55","2d_cat_multi_stim_exp1","2022-4-11","11:26:5","25","75","3","9","10","40","30","120","25","20","[""White""]","No","Female","1700748","null","null","","","","clear_screen","","","","","","","","","","","","","","","","","","","","","","","","","",""
"","","","","","canvas-keyboard-response","292","301424","0.0-12.0-0.56","2d_cat_multi_stim_exp1","2022-4-11","11:26:5","25","75","3","9","10","40","30","120","25","20","[""White""]","No","Female","1700748","null","null","","","","fixation","","","","","","","","","","","","","","","","","","","","","","","","","",""
"","","","","","canvas-keyboard-response","293","301934","0.0-12.0-1.56","2d_cat_multi_stim_exp1","2022-4-11","11:26:5","25","75","3","9","10","40","30","120","25","20","[""White""]","No","Female","1700748","null","null","","","","clear_screen","","","","","","","","","","","","","","","","","","","","","","","","","",""
"","","","","","canvas-keyboard-response","294","302755","0.0-12.0-2.56","2d_cat_multi_stim_exp1","2022-4-11","11:26:5","25","75","3","9","10","40","30","120","25","20","[""White""]","No","Female","1700748","810","i","learn","","","learn_trial","10","100","out","0","1","","","","","","","","","","","","","","","","","","","","",""
"","","","","","canvas-keyboard-response","295","303264","0.0-12.0-3.56","2d_cat_multi_stim_exp1","2022-4-11","11:26:5","25","75","3","9","10","40","30","120","25","20","[""White""]","No","Female","1700748","null","null","learn_feedback","","","learn_feedback","10","100","out","","","","","","","","","","","","","","","","","","","","","","",""
"","","","","","canvas-keyboard-response","296","303329","0.0-12.0-4.56","2d_cat_multi_stim_exp1","2022-4-11","11:26:5","25","75","3","9","10","40","30","120","25","20","[""White""]","No","Female","1700748","null","null","","","","clear_screen","","","","","","","","","","","","","","","","","","","","","","","","","",""
"","","","","","canvas-keyboard-response","297","303843","0.0-12.0-0.57","2d_cat_multi_stim_exp1","2022-4-11","11:26:5","25","75","3","9","10","40","30","120","25","20","[""White""]","No","Female","1700748","null","null","","","","fixation","","","","","","","","","","","","","","","","","","","","","","","","","",""
