"success","timeout","failed_images","failed_audio","failed_video","trial_type","trial_index","time_elapsed","internal_node_id","exp_name","date","time","angle_mean_in","radius_mean_in","angle_sd_in","radius_sd_in","angle_min_out","angle_max_out","radius_min_out","radius_max_out","sub_n","age","race","ethnicity","gender","exp_duration","rt","response","exp_trial_type","stimulus","view_history","screen_id","angle","radius","distribution","choice","correct","order","angle_a","radius_a","angle_b","radius_b","jkl_correct","transfer_trial_type","choice_set","abc_correct","tc_correct","tc_angle","tdc_a","tdc_b","tdc_c","pair","category_a","category_b","category_c","angle_c","radius_c","question_order"
"true","false","[]","[]","[]","preload","0","9","0.0-0.0","2d_cat_multi_stim_exp1","2022-4-13","10:22:35","25","75","3","9","10","40","30","120","33","23","[""Black or African-American""]","No","Male","1541531","","","","","","","","","","","","","","","","","","","","","","","","","","","","","","","",""
"","","","","","survey-html-form","1","2810","0.0-1.0","2d_cat_multi_stim_exp1","2022-4-13","10:22:35","25","75","3","9","10","40","30","120","33","23","[""Black or African-American""]","No","Male","1541531","2796","{""response"":""33""}","enter-sub-number","","","","","","","","","","","","","","","","","","","","","","","","","","","","",""
"true","","","","","fullscreen","2","5797","0.0-2.0","2d_cat_multi_stim_exp1","2022-4-13","10:22:35","25","75","3","9","10","40","30","120","33","23","[""Black or African-American""]","No","Male","1541531","","","","","","","","","","","","","","","","","","","","","","","","","","","","","","","",""
"","","","","","image-button-response","3","12269","0.0-3.0","2d_cat_multi_stim_exp1","2022-4-13","10:22:35","25","75","3","9","10","40","30","120","33","23","[""Black or African-American""]","No","Male","1541531","6344","0","","consent.png","","","","","","","","","","","","","","","","","","","","","","","","","","","",""
"","","","","","html-button-response","4","12996","0.0-4.0","2d_cat_multi_stim_exp1","2022-4-13","10:22:35","25","75","3","9","10","40","30","120","33","23","[""Black or African-American""]","No","Male","1541531","720","0","","<div style= ""font-size:25px;"" <p> <strong> Welcome to the experiment! </strong><br> <p style=""color:#8B0000; font-size:25px;""><strong> Please do NOT exit full screen until you are done with the experiment. </strong> </p><p style=""font-size:25px;color:#8B0000;""> <strong> The experiment will be canceled and your data will be lost <br> if you try to go back or refresh the page at any point during the experiment.</strong> </p><br><p> <strong> Thanks in advance for your contribution to our research! </strong></p>","","","","","","","","","","","","","","","","","","","","","","","","","","","",""
"","","","","","instructions","5","22843","0.0-5.0","2d_cat_multi_stim_exp1","2022-4-13","10:22:35","25","75","3","9","10","40","30","120","33","23","[""Black or African-American""]","No","Male","1541531","9841","","","","[{""page_index"":0,""viewing_time"":6281},{""page_index"":1,""viewing_time"":1000},{""page_index"":2,""viewing_time"":1072},{""page_index"":3,""viewing_time"":1488}]","instructions_1","","","","","","","","","","","","","","","","","","","","","","","","","",""
"","","","","","instructions","6","24051","0.0-6.0","2d_cat_multi_stim_exp1","2022-4-13","10:22:35","25","75","3","9","10","40","30","120","33","23","[""Black or African-American""]","No","Male","1541531","1204","","","","[{""page_index"":0,""viewing_time"":1203}]","Click to see the kinds of turtles that will appear in the study.","","","","","","","","","","","","","","","","","","","","","","","","","",""
"","","","","","canvas-keyboard-response","7","39070","0.0-7.0","2d_cat_multi_stim_exp1","2022-4-13","10:22:35","25","75","3","9","10","40","30","120","33","23","[""Black or African-American""]","No","Male","1541531","null","null","","","","demo_range","","","","","","","","","","","","","","","","","","","","","","","","","",""
"","","","","","instructions","8","40450","0.0-8.0","2d_cat_multi_stim_exp1","2022-4-13","10:22:35","25","75","3","9","10","40","30","120","33","23","[""Black or African-American""]","No","Male","1541531","879","","","","[{""page_index"":0,""viewing_time"":879}]","Click to see some turtles in the subspecies.","","","","","","","","","","","","","","","","","","","","","","","","","",""
"","","","","","canvas-keyboard-response","9","55468","0.0-9.0","2d_cat_multi_stim_exp1","2022-4-13","10:22:35","25","75","3","9","10","40","30","120","33","23","[""Black or African-American""]","No","Male","1541531","null","null","","","","demo_in","","","","","","","","","","","","","","","","","","","","","","","","","",""
"","","","","","instructions","10","58330","0.0-10.0","2d_cat_multi_stim_exp1","2022-4-13","10:22:35","25","75","3","9","10","40","30","120","33","23","[""Black or African-American""]","No","Male","1541531","2359","","","","[{""page_index"":0,""viewing_time"":951},{""page_index"":1,""viewing_time"":641},{""page_index"":2,""viewing_time"":767}]","instructions_2","","","","","","","","","","","","","","","","","","","","","","","","","",""
"","","","","","instructions","11","59323","0.0-11.0","2d_cat_multi_stim_exp1","2022-4-13","10:22:35","25","75","3","9","10","40","30","120","33","23","[""Black or African-American""]","No","Male","1541531","991","","","","[{""page_index"":0,""viewing_time"":991}]","Click to begin the first phase of the experiment.","","","","","","","","","","","","","","","","","","","","","","","","","",""
"","","","","","canvas-keyboard-response","12","59835","0.0-12.0-0.0","2d_cat_multi_stim_exp1","2022-4-13","10:22:35","25","75","3","9","10","40","30","120","33","23","[""Black or African-American""]","No","Male","1541531","null","null","","","","fixation","","","","","","","","","","","","","","","","","","","","","","","","","",""
"","","","","","canvas-keyboard-response","13","60347","0.0-12.0-1.0","2d_cat_multi_stim_exp1","2022-4-13","10:22:35","25","75","3","9","10","40","30","120","33","23","[""Black or African-American""]","No","Male","1541531","null","null","","","","clear_screen","","","","","","","","","","","","","","","","","","","","","","","","","",""
"","","","","","canvas-keyboard-response","14","62396","0.0-12.0-2.0","2d_cat_multi_stim_exp1","2022-4-13","10:22:35","25","75","3","9","10","40","30","120","33","23","[""Black or African-American""]","No","Male","1541531","2034","u","learn","","","learn_trial","22.2971","78.905","in","1","1","","","","","","","","","","","","","","","","","","","","",""
"","","","","","canvas-keyboard-response","15","62906","0.0-12.0-3.0","2d_cat_multi_stim_exp1","2022-4-13","10:22:35","25","75","3","9","10","40","30","120","33","23","[""Black or African-American""]","No","Male","1541531","null","null","learn_feedback","","","learn_feedback","22.2971","78.905","in","","","","","","","","","","","","","","","","","","","","","","",""
"","","","","","canvas-keyboard-response","16","62966","0.0-12.0-4.0","2d_cat_multi_stim_exp1","2022-4-13","10:22:35","25","75","3","9","10","40","30","120","33","23","[""Black or African-American""]","No","Male","1541531","null","null","","","","clear_screen","","","","","","","","","","","","","","","","","","","","","","","","","",""
"","","","","","canvas-keyboard-response","17","63480","0.0-12.0-0.1","2d_cat_multi_stim_exp1","2022-4-13","10:22:35","25","75","3","9","10","40","30","120","33","23","[""Black or African-American""]","No","Male","1541531","null","null","","","","fixation","","","","","","","","","","","","","","","","","","","","","","","","","",""
"","","","","","canvas-keyboard-response","18","63995","0.0-12.0-1.1","2d_cat_multi_stim_exp1","2022-4-13","10:22:35","25","75","3","9","10","40","30","120","33","23","[""Black or African-American""]","No","Male","1541531","null","null","","","","clear_screen","","","","","","","","","","","","","","","","","","","","","","","","","",""
"","","","","","canvas-keyboard-response","19","64803","0.0-12.0-2.1","2d_cat_multi_stim_exp1","2022-4-13","10:22:35","25","75","3","9","10","40","30","120","33","23","[""Black or African-American""]","No","Male","1541531","798","i","learn","","","learn_trial","23.3333","30","out","0","1","","","","","","","","","","","","","","","","","","","","",""
"","","","","","canvas-keyboard-response","20","65314","0.0-12.0-3.1","2d_cat_multi_stim_exp1","2022-4-13","10:22:35","25","75","3","9","10","40","30","120","33","23","[""Black or African-American""]","No","Male","1541531","null","null","learn_feedback","","","learn_feedback","23.3333","30","out","","","","","","","","","","","","","","","","","","","","","","",""
"","","","","","canvas-keyboard-response","21","65379","0.0-12.0-4.1","2d_cat_multi_stim_exp1","2022-4-13","10:22:35","25","75","3","9","10","40","30","120","33","23","[""Black or African-American""]","No","Male","1541531","null","null","","","","clear_screen","","","","","","","","","","","","","","","","","","","","","","","","","",""
"","","","","","canvas-keyboard-response","22","65889","0.0-12.0-0.2","2d_cat_multi_stim_exp1","2022-4-13","10:22:35","25","75","3","9","10","40","30","120","33","23","[""Black or African-American""]","No","Male","1541531","null","null","","","","fixation","","","","","","","","","","","","","","","","","","","","","","","","","",""
"","","","","","canvas-keyboard-response","23","66403","0.0-12.0-1.2","2d_cat_multi_stim_exp1","2022-4-13","10:22:35","25","75","3","9","10","40","30","120","33","23","[""Black or African-American""]","No","Male","1541531","null","null","","","","clear_screen","","","","","","","","","","","","","","","","","","","","","","","","","",""
"","","","","","canvas-keyboard-response","24","67332","0.0-12.0-2.2","2d_cat_multi_stim_exp1","2022-4-13","10:22:35","25","75","3","9","10","40","30","120","33","23","[""Black or African-American""]","No","Male","1541531","914","i","learn","","","learn_trial","13.3333","90","out","0","1","","","","","","","","","","","","","","","","","","","","",""
"","","","","","canvas-keyboard-response","25","67844","0.0-12.0-3.2","2d_cat_multi_stim_exp1","2022-4-13","10:22:35","25","75","3","9","10","40","30","120","33","23","[""Black or African-American""]","No","Male","1541531","null","null","learn_feedback","","","learn_feedback","13.3333","90","out","","","","","","","","","","","","","","","","","","","","","","",""
"","","","","","canvas-keyboard-response","26","67905","0.0-12.0-4.2","2d_cat_multi_stim_exp1","2022-4-13","10:22:35","25","75","3","9","10","40","30","120","33","23","[""Black or African-American""]","No","Male","1541531","null","null","","","","clear_screen","","","","","","","","","","","","","","","","","","","","","","","","","",""
"","","","","","canvas-keyboard-response","27","68416","0.0-12.0-0.3","2d_cat_multi_stim_exp1","2022-4-13","10:22:35","25","75","3","9","10","40","30","120","33","23","[""Black or African-American""]","No","Male","1541531","null","null","","","","fixation","","","","","","","","","","","","","","","","","","","","","","","","","",""
"","","","","","canvas-keyboard-response","28","68921","0.0-12.0-1.3","2d_cat_multi_stim_exp1","2022-4-13","10:22:35","25","75","3","9","10","40","30","120","33","23","[""Black or African-American""]","No","Male","1541531","null","null","","","","clear_screen","","","","","","","","","","","","","","","","","","","","","","","","","",""
"","","","","","canvas-keyboard-response","29","69970","0.0-12.0-2.3","2d_cat_multi_stim_exp1","2022-4-13","10:22:35","25","75","3","9","10","40","30","120","33","23","[""Black or African-American""]","No","Male","1541531","1044","i","learn","","","learn_trial","29.2426","62.2721","in","0","0","","","","","","","","","","","","","","","","","","","","",""
"","","","","","canvas-keyboard-response","30","70977","0.0-12.0-3.3","2d_cat_multi_stim_exp1","2022-4-13","10:22:35","25","75","3","9","10","40","30","120","33","23","[""Black or African-American""]","No","Male","1541531","null","null","learn_feedback","","","learn_feedback","29.2426","62.2721","in","","","","","","","","","","","","","","","","","","","","","","",""
"","","","","","canvas-keyboard-response","31","71037","0.0-12.0-4.3","2d_cat_multi_stim_exp1","2022-4-13","10:22:35","25","75","3","9","10","40","30","120","33","23","[""Black or African-American""]","No","Male","1541531","null","null","","","","clear_screen","","","","","","","","","","","","","","","","","","","","","","","","","",""
"","","","","","canvas-keyboard-response","32","71542","0.0-12.0-0.4","2d_cat_multi_stim_exp1","2022-4-13","10:22:35","25","75","3","9","10","40","30","120","33","23","[""Black or African-American""]","No","Male","1541531","null","null","","","","fixation","","","","","","","","","","","","","","","","","","","","","","","","","",""
"","","","","","canvas-keyboard-response","33","72048","0.0-12.0-1.4","2d_cat_multi_stim_exp1","2022-4-13","10:22:35","25","75","3","9","10","40","30","120","33","23","[""Black or African-American""]","No","Male","1541531","null","null","","","","clear_screen","","","","","","","","","","","","","","","","","","","","","","","","","",""
"","","","","","canvas-keyboard-response","34","72754","0.0-12.0-2.4","2d_cat_multi_stim_exp1","2022-4-13","10:22:35","25","75","3","9","10","40","30","120","33","23","[""Black or African-American""]","No","Male","1541531","697","u","learn","","","learn_trial","25","75","in","1","1","","","","","","","","","","","","","","","","","","","","",""
"","","","","","canvas-keyboard-response","35","73261","0.0-12.0-3.4","2d_cat_multi_stim_exp1","2022-4-13","10:22:35","25","75","3","9","10","40","30","120","33","23","[""Black or African-American""]","No","Male","1541531","null","null","learn_feedback","","","learn_feedback","25","75","in","","","","","","","","","","","","","","","","","","","","","","",""
"","","","","","canvas-keyboard-response","36","73317","0.0-12.0-4.4","2d_cat_multi_stim_exp1","2022-4-13","10:22:35","25","75","3","9","10","40","30","120","33","23","[""Black or African-American""]","No","Male","1541531","null","null","","","","clear_screen","","","","","","","","","","","","","","","","","","","","","","","","","",""
"","","","","","canvas-keyboard-response","37","73823","0.0-12.0-0.5","2d_cat_multi_stim_exp1","2022-4-13","10:22:35","25","75","3","9","10","40","30","120","33","23","[""Black or African-American""]","No","Male","1541531","null","null","","","","fixation","","","","","","","","","","","","","","","","","","","","","","","","","",""
"","","","","","canvas-keyboard-response","38","74334","0.0-12.0-1.5","2d_cat_multi_stim_exp1","2022-4-13","10:22:35","25","75","3","9","10","40","30","120","33","23","[""Black or African-American""]","No","Male","1541531","null","null","","","","clear_screen","","","","","","","","","","","","","","","","","","","","","","","","","",""
"","","","","","canvas-keyboard-response","39","75172","0.0-12.0-2.5","2d_cat_multi_stim_exp1","2022-4-13","10:22:35","25","75","3","9","10","40","30","120","33","23","[""Black or African-American""]","No","Male","1541531","828","u","learn","","","learn_trial","25","75","in","1","1","","","","","","","","","","","","","","","","","","","","",""
"","","","","","canvas-keyboard-response","40","75685","0.0-12.0-3.5","2d_cat_multi_stim_exp1","2022-4-13","10:22:35","25","75","3","9","10","40","30","120","33","23","[""Black or African-American""]","No","Male","1541531","null","null","learn_feedback","","","learn_feedback","25","75","in","","","","","","","","","","","","","","","","","","","","","","",""
"","","","","","canvas-keyboard-response","41","75747","0.0-12.0-4.5","2d_cat_multi_stim_exp1","2022-4-13","10:22:35","25","75","3","9","10","40","30","120","33","23","[""Black or African-American""]","No","Male","1541531","null","null","","","","clear_screen","","","","","","","","","","","","","","","","","","","","","","","","","",""
"","","","","","canvas-keyboard-response","42","76257","0.0-12.0-0.6","2d_cat_multi_stim_exp1","2022-4-13","10:22:35","25","75","3","9","10","40","30","120","33","23","[""Black or African-American""]","No","Male","1541531","null","null","","","","fixation","","","","","","","","","","","","","","","","","","","","","","","","","",""
"","","","","","canvas-keyboard-response","43","76767","0.0-12.0-1.6","2d_cat_multi_stim_exp1","2022-4-13","10:22:35","25","75","3","9","10","40","30","120","33","23","[""Black or African-American""]","No","Male","1541531","null","null","","","","clear_screen","","","","","","","","","","","","","","","","","","","","","","","","","",""
"","","","","","canvas-keyboard-response","44","77483","0.0-12.0-2.6","2d_cat_multi_stim_exp1","2022-4-13","10:22:35","25","75","3","9","10","40","30","120","33","23","[""Black or African-American""]","No","Male","1541531","704","u","learn","","","learn_trial","25","75","in","1","1","","","","","","","","","","","","","","","","","","","","",""
"","","","","","canvas-keyboard-response","45","77994","0.0-12.0-3.6","2d_cat_multi_stim_exp1","2022-4-13","10:22:35","25","75","3","9","10","40","30","120","33","23","[""Black or African-American""]","No","Male","1541531","null","null","learn_feedback","","","learn_feedback","25","75","in","","","","","","","","","","","","","","","","","","","","","","",""
"","","","","","canvas-keyboard-response","46","78058","0.0-12.0-4.6","2d_cat_multi_stim_exp1","2022-4-13","10:22:35","25","75","3","9","10","40","30","120","33","23","[""Black or African-American""]","No","Male","1541531","null","null","","","","clear_screen","","","","","","","","","","","","","","","","","","","","","","","","","",""
"","","","","","canvas-keyboard-response","47","78571","0.0-12.0-0.7","2d_cat_multi_stim_exp1","2022-4-13","10:22:35","25","75","3","9","10","40","30","120","33","23","[""Black or African-American""]","No","Male","1541531","null","null","","","","fixation","","","","","","","","","","","","","","","","","","","","","","","","","",""
"","","","","","canvas-keyboard-response","48","79084","0.0-12.0-1.7","2d_cat_multi_stim_exp1","2022-4-13","10:22:35","25","75","3","9","10","40","30","120","33","23","[""Black or African-American""]","No","Male","1541531","null","null","","","","clear_screen","","","","","","","","","","","","","","","","","","","","","","","","","",""
"","","","","","canvas-keyboard-response","49","79915","0.0-12.0-2.7","2d_cat_multi_stim_exp1","2022-4-13","10:22:35","25","75","3","9","10","40","30","120","33","23","[""Black or African-American""]","No","Male","1541531","822","i","learn","","","learn_trial","20.7574","87.7279","in","0","0","","","","","","","","","","","","","","","","","","","","",""
"","","","","","canvas-keyboard-response","50","80929","0.0-12.0-3.7","2d_cat_multi_stim_exp1","2022-4-13","10:22:35","25","75","3","9","10","40","30","120","33","23","[""Black or African-American""]","No","Male","1541531","null","null","learn_feedback","","","learn_feedback","20.7574","87.7279","in","","","","","","","","","","","","","","","","","","","","","","",""
"","","","","","canvas-keyboard-response","51","80991","0.0-12.0-4.7","2d_cat_multi_stim_exp1","2022-4-13","10:22:35","25","75","3","9","10","40","30","120","33","23","[""Black or African-American""]","No","Male","1541531","null","null","","","","clear_screen","","","","","","","","","","","","","","","","","","","","","","","","","",""
"","","","","","canvas-keyboard-response","52","81502","0.0-12.0-0.8","2d_cat_multi_stim_exp1","2022-4-13","10:22:35","25","75","3","9","10","40","30","120","33","23","[""Black or African-American""]","No","Male","1541531","null","null","","","","fixation","","","","","","","","","","","","","","","","","","","","","","","","","",""
"","","","","","canvas-keyboard-response","53","82017","0.0-12.0-1.8","2d_cat_multi_stim_exp1","2022-4-13","10:22:35","25","75","3","9","10","40","30","120","33","23","[""Black or African-American""]","No","Male","1541531","null","null","","","","clear_screen","","","","","","","","","","","","","","","","","","","","","","","","","",""
"","","","","","canvas-keyboard-response","54","82971","0.0-12.0-2.8","2d_cat_multi_stim_exp1","2022-4-13","10:22:35","25","75","3","9","10","40","30","120","33","23","[""Black or African-American""]","No","Male","1541531","938","i","learn","","","learn_trial","23.3333","90","out","0","1","","","","","","","","","","","","","","","","","","","","",""
"","","","","","canvas-keyboard-response","55","83481","0.0-12.0-3.8","2d_cat_multi_stim_exp1","2022-4-13","10:22:35","25","75","3","9","10","40","30","120","33","23","[""Black or African-American""]","No","Male","1541531","null","null","learn_feedback","","","learn_feedback","23.3333","90","out","","","","","","","","","","","","","","","","","","","","","","",""
"","","","","","canvas-keyboard-response","56","83543","0.0-12.0-4.8","2d_cat_multi_stim_exp1","2022-4-13","10:22:35","25","75","3","9","10","40","30","120","33","23","[""Black or African-American""]","No","Male","1541531","null","null","","","","clear_screen","","","","","","","","","","","","","","","","","","","","","","","","","",""
"","","","","","canvas-keyboard-response","57","84055","0.0-12.0-0.9","2d_cat_multi_stim_exp1","2022-4-13","10:22:35","25","75","3","9","10","40","30","120","33","23","[""Black or African-American""]","No","Male","1541531","null","null","","","","fixation","","","","","","","","","","","","","","","","","","","","","","","","","",""
"","","","","","canvas-keyboard-response","58","84570","0.0-12.0-1.9","2d_cat_multi_stim_exp1","2022-4-13","10:22:35","25","75","3","9","10","40","30","120","33","23","[""Black or African-American""]","No","Male","1541531","null","null","","","","clear_screen","","","","","","","","","","","","","","","","","","","","","","","","","",""
"","","","","","canvas-keyboard-response","59","85459","0.0-12.0-2.9","2d_cat_multi_stim_exp1","2022-4-13","10:22:35","25","75","3","9","10","40","30","120","33","23","[""Black or African-American""]","No","Male","1541531","876","i","learn","","","learn_trial","13.3333","60","out","0","1","","","","","","","","","","","","","","","","","","","","",""
"","","","","","canvas-keyboard-response","60","85973","0.0-12.0-3.9","2d_cat_multi_stim_exp1","2022-4-13","10:22:35","25","75","3","9","10","40","30","120","33","23","[""Black or African-American""]","No","Male","1541531","null","null","learn_feedback","","","learn_feedback","13.3333","60","out","","","","","","","","","","","","","","","","","","","","","","",""
"","","","","","canvas-keyboard-response","61","86035","0.0-12.0-4.9","2d_cat_multi_stim_exp1","2022-4-13","10:22:35","25","75","3","9","10","40","30","120","33","23","[""Black or African-American""]","No","Male","1541531","null","null","","","","clear_screen","","","","","","","","","","","","","","","","","","","","","","","","","",""
"","","","","","canvas-keyboard-response","62","86548","0.0-12.0-0.10","2d_cat_multi_stim_exp1","2022-4-13","10:22:35","25","75","3","9","10","40","30","120","33","23","[""Black or African-American""]","No","Male","1541531","null","null","","","","fixation","","","","","","","","","","","","","","","","","","","","","","","","","",""
"","","","","","canvas-keyboard-response","63","87063","0.0-12.0-1.10","2d_cat_multi_stim_exp1","2022-4-13","10:22:35","25","75","3","9","10","40","30","120","33","23","[""Black or African-American""]","No","Male","1541531","null","null","","","","clear_screen","","","","","","","","","","","","","","","","","","","","","","","","","",""
"","","","","","canvas-keyboard-response","64","88252","0.0-12.0-2.10","2d_cat_multi_stim_exp1","2022-4-13","10:22:35","25","75","3","9","10","40","30","120","33","23","[""Black or African-American""]","No","Male","1541531","1179","i","learn","","","learn_trial","25","75","in","0","0","","","","","","","","","","","","","","","","","","","","",""
"","","","","","canvas-keyboard-response","65","89262","0.0-12.0-3.10","2d_cat_multi_stim_exp1","2022-4-13","10:22:35","25","75","3","9","10","40","30","120","33","23","[""Black or African-American""]","No","Male","1541531","null","null","learn_feedback","","","learn_feedback","25","75","in","","","","","","","","","","","","","","","","","","","","","","",""
"","","","","","canvas-keyboard-response","66","89324","0.0-12.0-4.10","2d_cat_multi_stim_exp1","2022-4-13","10:22:35","25","75","3","9","10","40","30","120","33","23","[""Black or African-American""]","No","Male","1541531","null","null","","","","clear_screen","","","","","","","","","","","","","","","","","","","","","","","","","",""
"","","","","","canvas-keyboard-response","67","89835","0.0-12.0-0.11","2d_cat_multi_stim_exp1","2022-4-13","10:22:35","25","75","3","9","10","40","30","120","33","23","[""Black or African-American""]","No","Male","1541531","null","null","","","","fixation","","","","","","","","","","","","","","","","","","","","","","","","","",""
"","","","","","canvas-keyboard-response","68","90345","0.0-12.0-1.11","2d_cat_multi_stim_exp1","2022-4-13","10:22:35","25","75","3","9","10","40","30","120","33","23","[""Black or African-American""]","No","Male","1541531","null","null","","","","clear_screen","","","","","","","","","","","","","","","","","","","","","","","","","",""
"","","","","","canvas-keyboard-response","69","91011","0.0-12.0-2.11","2d_cat_multi_stim_exp1","2022-4-13","10:22:35","25","75","3","9","10","40","30","120","33","23","[""Black or African-American""]","No","Male","1541531","655","u","learn","","","learn_trial","22.1081","72.6057","in","1","1","","","","","","","","","","","","","","","","","","","","",""
"","","","","","canvas-keyboard-response","70","91521","0.0-12.0-3.11","2d_cat_multi_stim_exp1","2022-4-13","10:22:35","25","75","3","9","10","40","30","120","33","23","[""Black or African-American""]","No","Male","1541531","null","null","learn_feedback","","","learn_feedback","22.1081","72.6057","in","","","","","","","","","","","","","","","","","","","","","","",""
"","","","","","canvas-keyboard-response","71","91584","0.0-12.0-4.11","2d_cat_multi_stim_exp1","2022-4-13","10:22:35","25","75","3","9","10","40","30","120","33","23","[""Black or African-American""]","No","Male","1541531","null","null","","","","clear_screen","","","","","","","","","","","","","","","","","","","","","","","","","",""
"","","","","","canvas-keyboard-response","72","92096","0.0-12.0-0.12","2d_cat_multi_stim_exp1","2022-4-13","10:22:35","25","75","3","9","10","40","30","120","33","23","[""Black or African-American""]","No","Male","1541531","null","null","","","","fixation","","","","","","","","","","","","","","","","","","","","","","","","","",""
"","","","","","canvas-keyboard-response","73","92611","0.0-12.0-1.12","2d_cat_multi_stim_exp1","2022-4-13","10:22:35","25","75","3","9","10","40","30","120","33","23","[""Black or African-American""]","No","Male","1541531","null","null","","","","clear_screen","","","","","","","","","","","","","","","","","","","","","","","","","",""
"","","","","","canvas-keyboard-response","74","93426","0.0-12.0-2.12","2d_cat_multi_stim_exp1","2022-4-13","10:22:35","25","75","3","9","10","40","30","120","33","23","[""Black or African-American""]","No","Male","1541531","807","u","learn","","","learn_trial","25","75","in","1","1","","","","","","","","","","","","","","","","","","","","",""
"","","","","","canvas-keyboard-response","75","93936","0.0-12.0-3.12","2d_cat_multi_stim_exp1","2022-4-13","10:22:35","25","75","3","9","10","40","30","120","33","23","[""Black or African-American""]","No","Male","1541531","null","null","learn_feedback","","","learn_feedback","25","75","in","","","","","","","","","","","","","","","","","","","","","","",""
"","","","","","canvas-keyboard-response","76","93999","0.0-12.0-4.12","2d_cat_multi_stim_exp1","2022-4-13","10:22:35","25","75","3","9","10","40","30","120","33","23","[""Black or African-American""]","No","Male","1541531","null","null","","","","clear_screen","","","","","","","","","","","","","","","","","","","","","","","","","",""
"","","","","","canvas-keyboard-response","77","94512","0.0-12.0-0.13","2d_cat_multi_stim_exp1","2022-4-13","10:22:35","25","75","3","9","10","40","30","120","33","23","[""Black or African-American""]","No","Male","1541531","null","null","","","","fixation","","","","","","","","","","","","","","","","","","","","","","","","","",""
"","","","","","canvas-keyboard-response","78","95026","0.0-12.0-1.13","2d_cat_multi_stim_exp1","2022-4-13","10:22:35","25","75","3","9","10","40","30","120","33","23","[""Black or African-American""]","No","Male","1541531","null","null","","","","clear_screen","","","","","","","","","","","","","","","","","","","","","","","","","",""
"","","","","","canvas-keyboard-response","79","95819","0.0-12.0-2.13","2d_cat_multi_stim_exp1","2022-4-13","10:22:35","25","75","3","9","10","40","30","120","33","23","[""Black or African-American""]","No","Male","1541531","784","i","learn","","","learn_trial","40","70","out","0","1","","","","","","","","","","","","","","","","","","","","",""
"","","","","","canvas-keyboard-response","80","96330","0.0-12.0-3.13","2d_cat_multi_stim_exp1","2022-4-13","10:22:35","25","75","3","9","10","40","30","120","33","23","[""Black or African-American""]","No","Male","1541531","null","null","learn_feedback","","","learn_feedback","40","70","out","","","","","","","","","","","","","","","","","","","","","","",""
"","","","","","canvas-keyboard-response","81","96394","0.0-12.0-4.13","2d_cat_multi_stim_exp1","2022-4-13","10:22:35","25","75","3","9","10","40","30","120","33","23","[""Black or African-American""]","No","Male","1541531","null","null","","","","clear_screen","","","","","","","","","","","","","","","","","","","","","","","","","",""
"","","","","","canvas-keyboard-response","82","96904","0.0-12.0-0.14","2d_cat_multi_stim_exp1","2022-4-13","10:22:35","25","75","3","9","10","40","30","120","33","23","[""Black or African-American""]","No","Male","1541531","null","null","","","","fixation","","","","","","","","","","","","","","","","","","","","","","","","","",""
"","","","","","canvas-keyboard-response","83","97414","0.0-12.0-1.14","2d_cat_multi_stim_exp1","2022-4-13","10:22:35","25","75","3","9","10","40","30","120","33","23","[""Black or African-American""]","No","Male","1541531","null","null","","","","clear_screen","","","","","","","","","","","","","","","","","","","","","","","","","",""
"","","","","","canvas-keyboard-response","84","99059","0.0-12.0-2.14","2d_cat_multi_stim_exp1","2022-4-13","10:22:35","25","75","3","9","10","40","30","120","33","23","[""Black or African-American""]","No","Male","1541531","1636","u","learn","","","learn_trial","16.6667","110","out","1","0","","","","","","","","","","","","","","","","","","","","",""
"","","","","","canvas-keyboard-response","85","100070","0.0-12.0-3.14","2d_cat_multi_stim_exp1","2022-4-13","10:22:35","25","75","3","9","10","40","30","120","33","23","[""Black or African-American""]","No","Male","1541531","null","null","learn_feedback","","","learn_feedback","16.6667","110","out","","","","","","","","","","","","","","","","","","","","","","",""
"","","","","","canvas-keyboard-response","86","100132","0.0-12.0-4.14","2d_cat_multi_stim_exp1","2022-4-13","10:22:35","25","75","3","9","10","40","30","120","33","23","[""Black or African-American""]","No","Male","1541531","null","null","","","","clear_screen","","","","","","","","","","","","","","","","","","","","","","","","","",""
"","","","","","canvas-keyboard-response","87","100645","0.0-12.0-0.15","2d_cat_multi_stim_exp1","2022-4-13","10:22:35","25","75","3","9","10","40","30","120","33","23","[""Black or African-American""]","No","Male","1541531","null","null","","","","fixation","","","","","","","","","","","","","","","","","","","","","","","","","",""
"","","","","","canvas-keyboard-response","88","101158","0.0-12.0-1.15","2d_cat_multi_stim_exp1","2022-4-13","10:22:35","25","75","3","9","10","40","30","120","33","23","[""Black or African-American""]","No","Male","1541531","null","null","","","","clear_screen","","","","","","","","","","","","","","","","","","","","","","","","","",""
"","","","","","canvas-keyboard-response","89","102059","0.0-12.0-2.15","2d_cat_multi_stim_exp1","2022-4-13","10:22:35","25","75","3","9","10","40","30","120","33","23","[""Black or African-American""]","No","Male","1541531","889","i","learn","","","learn_trial","16.6667","30","out","0","1","","","","","","","","","","","","","","","","","","","","",""
"","","","","","canvas-keyboard-response","90","102568","0.0-12.0-3.15","2d_cat_multi_stim_exp1","2022-4-13","10:22:35","25","75","3","9","10","40","30","120","33","23","[""Black or African-American""]","No","Male","1541531","null","null","learn_feedback","","","learn_feedback","16.6667","30","out","","","","","","","","","","","","","","","","","","","","","","",""
"","","","","","canvas-keyboard-response","91","102628","0.0-12.0-4.15","2d_cat_multi_stim_exp1","2022-4-13","10:22:35","25","75","3","9","10","40","30","120","33","23","[""Black or African-American""]","No","Male","1541531","null","null","","","","clear_screen","","","","","","","","","","","","","","","","","","","","","","","","","",""
"","","","","","canvas-keyboard-response","92","103144","0.0-12.0-0.16","2d_cat_multi_stim_exp1","2022-4-13","10:22:35","25","75","3","9","10","40","30","120","33","23","[""Black or African-American""]","No","Male","1541531","null","null","","","","fixation","","","","","","","","","","","","","","","","","","","","","","","","","",""
"","","","","","canvas-keyboard-response","93","103655","0.0-12.0-1.16","2d_cat_multi_stim_exp1","2022-4-13","10:22:35","25","75","3","9","10","40","30","120","33","23","[""Black or African-American""]","No","Male","1541531","null","null","","","","clear_screen","","","","","","","","","","","","","","","","","","","","","","","","","",""
"","","","","","canvas-keyboard-response","94","104522","0.0-12.0-2.16","2d_cat_multi_stim_exp1","2022-4-13","10:22:35","25","75","3","9","10","40","30","120","33","23","[""Black or African-American""]","No","Male","1541531","853","u","learn","","","learn_trial","36.6667","50","out","1","0","","","","","","","","","","","","","","","","","","","","",""
"","","","","","canvas-keyboard-response","95","105535","0.0-12.0-3.16","2d_cat_multi_stim_exp1","2022-4-13","10:22:35","25","75","3","9","10","40","30","120","33","23","[""Black or African-American""]","No","Male","1541531","null","null","learn_feedback","","","learn_feedback","36.6667","50","out","","","","","","","","","","","","","","","","","","","","","","",""
"","","","","","canvas-keyboard-response","96","105599","0.0-12.0-4.16","2d_cat_multi_stim_exp1","2022-4-13","10:22:35","25","75","3","9","10","40","30","120","33","23","[""Black or African-American""]","No","Male","1541531","null","null","","","","clear_screen","","","","","","","","","","","","","","","","","","","","","","","","","",""
"","","","","","canvas-keyboard-response","97","106109","0.0-12.0-0.17","2d_cat_multi_stim_exp1","2022-4-13","10:22:35","25","75","3","9","10","40","30","120","33","23","[""Black or African-American""]","No","Male","1541531","null","null","","","","fixation","","","","","","","","","","","","","","","","","","","","","","","","","",""
"","","","","","canvas-keyboard-response","98","106620","0.0-12.0-1.17","2d_cat_multi_stim_exp1","2022-4-13","10:22:35","25","75","3","9","10","40","30","120","33","23","[""Black or African-American""]","No","Male","1541531","null","null","","","","clear_screen","","","","","","","","","","","","","","","","","","","","","","","","","",""
"","","","","","canvas-keyboard-response","99","107379","0.0-12.0-2.17","2d_cat_multi_stim_exp1","2022-4-13","10:22:35","25","75","3","9","10","40","30","120","33","23","[""Black or African-American""]","No","Male","1541531","748","u","learn","","","learn_trial","25","75","in","1","1","","","","","","","","","","","","","","","","","","","","",""
"","","","","","canvas-keyboard-response","100","107891","0.0-12.0-3.17","2d_cat_multi_stim_exp1","2022-4-13","10:22:35","25","75","3","9","10","40","30","120","33","23","[""Black or African-American""]","No","Male","1541531","null","null","learn_feedback","","","learn_feedback","25","75","in","","","","","","","","","","","","","","","","","","","","","","",""
"","","","","","canvas-keyboard-response","101","107952","0.0-12.0-4.17","2d_cat_multi_stim_exp1","2022-4-13","10:22:35","25","75","3","9","10","40","30","120","33","23","[""Black or African-American""]","No","Male","1541531","null","null","","","","clear_screen","","","","","","","","","","","","","","","","","","","","","","","","","",""
"","","","","","canvas-keyboard-response","102","108462","0.0-12.0-0.18","2d_cat_multi_stim_exp1","2022-4-13","10:22:35","25","75","3","9","10","40","30","120","33","23","[""Black or African-American""]","No","Male","1541531","null","null","","","","fixation","","","","","","","","","","","","","","","","","","","","","","","","","",""
"","","","","","canvas-keyboard-response","103","108976","0.0-12.0-1.18","2d_cat_multi_stim_exp1","2022-4-13","10:22:35","25","75","3","9","10","40","30","120","33","23","[""Black or African-American""]","No","Male","1541531","null","null","","","","clear_screen","","","","","","","","","","","","","","","","","","","","","","","","","",""
"","","","","","canvas-keyboard-response","104","109867","0.0-12.0-2.18","2d_cat_multi_stim_exp1","2022-4-13","10:22:35","25","75","3","9","10","40","30","120","33","23","[""Black or African-American""]","No","Male","1541531","878","u","learn","","","learn_trial","25","75","in","1","1","","","","","","","","","","","","","","","","","","","","",""
"","","","","","canvas-keyboard-response","105","110381","0.0-12.0-3.18","2d_cat_multi_stim_exp1","2022-4-13","10:22:35","25","75","3","9","10","40","30","120","33","23","[""Black or African-American""]","No","Male","1541531","null","null","learn_feedback","","","learn_feedback","25","75","in","","","","","","","","","","","","","","","","","","","","","","",""
"","","","","","canvas-keyboard-response","106","110443","0.0-12.0-4.18","2d_cat_multi_stim_exp1","2022-4-13","10:22:35","25","75","3","9","10","40","30","120","33","23","[""Black or African-American""]","No","Male","1541531","null","null","","","","clear_screen","","","","","","","","","","","","","","","","","","","","","","","","","",""
"","","","","","canvas-keyboard-response","107","110954","0.0-12.0-0.19","2d_cat_multi_stim_exp1","2022-4-13","10:22:35","25","75","3","9","10","40","30","120","33","23","[""Black or African-American""]","No","Male","1541531","null","null","","","","fixation","","","","","","","","","","","","","","","","","","","","","","","","","",""
"","","","","","canvas-keyboard-response","108","111469","0.0-12.0-1.19","2d_cat_multi_stim_exp1","2022-4-13","10:22:35","25","75","3","9","10","40","30","120","33","23","[""Black or African-American""]","No","Male","1541531","null","null","","","","clear_screen","","","","","","","","","","","","","","","","","","","","","","","","","",""
"","","","","","canvas-keyboard-response","109","112299","0.0-12.0-2.19","2d_cat_multi_stim_exp1","2022-4-13","10:22:35","25","75","3","9","10","40","30","120","33","23","[""Black or African-American""]","No","Male","1541531","818","i","learn","","","learn_trial","25.9271","66.4405","in","0","0","","","","","","","","","","","","","","","","","","","","",""
"","","","","","canvas-keyboard-response","110","113308","0.0-12.0-3.19","2d_cat_multi_stim_exp1","2022-4-13","10:22:35","25","75","3","9","10","40","30","120","33","23","[""Black or African-American""]","No","Male","1541531","null","null","learn_feedback","","","learn_feedback","25.9271","66.4405","in","","","","","","","","","","","","","","","","","","","","","","",""
"","","","","","canvas-keyboard-response","111","113373","0.0-12.0-4.19","2d_cat_multi_stim_exp1","2022-4-13","10:22:35","25","75","3","9","10","40","30","120","33","23","[""Black or African-American""]","No","Male","1541531","null","null","","","","clear_screen","","","","","","","","","","","","","","","","","","","","","","","","","",""
"","","","","","canvas-keyboard-response","112","113885","0.0-12.0-0.20","2d_cat_multi_stim_exp1","2022-4-13","10:22:35","25","75","3","9","10","40","30","120","33","23","[""Black or African-American""]","No","Male","1541531","null","null","","","","fixation","","","","","","","","","","","","","","","","","","","","","","","","","",""
"","","","","","canvas-keyboard-response","113","114397","0.0-12.0-1.20","2d_cat_multi_stim_exp1","2022-4-13","10:22:35","25","75","3","9","10","40","30","120","33","23","[""Black or African-American""]","No","Male","1541531","null","null","","","","clear_screen","","","","","","","","","","","","","","","","","","","","","","","","","",""
"","","","","","canvas-keyboard-response","114","115172","0.0-12.0-2.20","2d_cat_multi_stim_exp1","2022-4-13","10:22:35","25","75","3","9","10","40","30","120","33","23","[""Black or African-American""]","No","Male","1541531","762","u","learn","","","learn_trial","23.3473","82.5112","in","1","1","","","","","","","","","","","","","","","","","","","","",""
"","","","","","canvas-keyboard-response","115","115684","0.0-12.0-3.20","2d_cat_multi_stim_exp1","2022-4-13","10:22:35","25","75","3","9","10","40","30","120","33","23","[""Black or African-American""]","No","Male","1541531","null","null","learn_feedback","","","learn_feedback","23.3473","82.5112","in","","","","","","","","","","","","","","","","","","","","","","",""
"","","","","","canvas-keyboard-response","116","115743","0.0-12.0-4.20","2d_cat_multi_stim_exp1","2022-4-13","10:22:35","25","75","3","9","10","40","30","120","33","23","[""Black or African-American""]","No","Male","1541531","null","null","","","","clear_screen","","","","","","","","","","","","","","","","","","","","","","","","","",""
"","","","","","canvas-keyboard-response","117","116252","0.0-12.0-0.21","2d_cat_multi_stim_exp1","2022-4-13","10:22:35","25","75","3","9","10","40","30","120","33","23","[""Black or African-American""]","No","Male","1541531","null","null","","","","fixation","","","","","","","","","","","","","","","","","","","","","","","","","",""
"","","","","","canvas-keyboard-response","118","116763","0.0-12.0-1.21","2d_cat_multi_stim_exp1","2022-4-13","10:22:35","25","75","3","9","10","40","30","120","33","23","[""Black or African-American""]","No","Male","1541531","null","null","","","","clear_screen","","","","","","","","","","","","","","","","","","","","","","","","","",""
"","","","","","canvas-keyboard-response","119","117474","0.0-12.0-2.21","2d_cat_multi_stim_exp1","2022-4-13","10:22:35","25","75","3","9","10","40","30","120","33","23","[""Black or African-American""]","No","Male","1541531","704","i","learn","","","learn_trial","23.3333","60","out","0","1","","","","","","","","","","","","","","","","","","","","",""
"","","","","","canvas-keyboard-response","120","117988","0.0-12.0-3.21","2d_cat_multi_stim_exp1","2022-4-13","10:22:35","25","75","3","9","10","40","30","120","33","23","[""Black or African-American""]","No","Male","1541531","null","null","learn_feedback","","","learn_feedback","23.3333","60","out","","","","","","","","","","","","","","","","","","","","","","",""
"","","","","","canvas-keyboard-response","121","118048","0.0-12.0-4.21","2d_cat_multi_stim_exp1","2022-4-13","10:22:35","25","75","3","9","10","40","30","120","33","23","[""Black or African-American""]","No","Male","1541531","null","null","","","","clear_screen","","","","","","","","","","","","","","","","","","","","","","","","","",""
"","","","","","canvas-keyboard-response","122","118560","0.0-12.0-0.22","2d_cat_multi_stim_exp1","2022-4-13","10:22:35","25","75","3","9","10","40","30","120","33","23","[""Black or African-American""]","No","Male","1541531","null","null","","","","fixation","","","","","","","","","","","","","","","","","","","","","","","","","",""
"","","","","","canvas-keyboard-response","123","119071","0.0-12.0-1.22","2d_cat_multi_stim_exp1","2022-4-13","10:22:35","25","75","3","9","10","40","30","120","33","23","[""Black or African-American""]","No","Male","1541531","null","null","","","","clear_screen","","","","","","","","","","","","","","","","","","","","","","","","","",""
"","","","","","canvas-keyboard-response","124","120307","0.0-12.0-2.22","2d_cat_multi_stim_exp1","2022-4-13","10:22:35","25","75","3","9","10","40","30","120","33","23","[""Black or African-American""]","No","Male","1541531","1226","i","learn","","","learn_trial","25","75","in","0","0","","","","","","","","","","","","","","","","","","","","",""
"","","","","","canvas-keyboard-response","125","121318","0.0-12.0-3.22","2d_cat_multi_stim_exp1","2022-4-13","10:22:35","25","75","3","9","10","40","30","120","33","23","[""Black or African-American""]","No","Male","1541531","null","null","learn_feedback","","","learn_feedback","25","75","in","","","","","","","","","","","","","","","","","","","","","","",""
"","","","","","canvas-keyboard-response","126","121383","0.0-12.0-4.22","2d_cat_multi_stim_exp1","2022-4-13","10:22:35","25","75","3","9","10","40","30","120","33","23","[""Black or African-American""]","No","Male","1541531","null","null","","","","clear_screen","","","","","","","","","","","","","","","","","","","","","","","","","",""
"","","","","","canvas-keyboard-response","127","121895","0.0-12.0-0.23","2d_cat_multi_stim_exp1","2022-4-13","10:22:35","25","75","3","9","10","40","30","120","33","23","[""Black or African-American""]","No","Male","1541531","null","null","","","","fixation","","","","","","","","","","","","","","","","","","","","","","","","","",""
"","","","","","canvas-keyboard-response","128","122407","0.0-12.0-1.23","2d_cat_multi_stim_exp1","2022-4-13","10:22:35","25","75","3","9","10","40","30","120","33","23","[""Black or African-American""]","No","Male","1541531","null","null","","","","clear_screen","","","","","","","","","","","","","","","","","","","","","","","","","",""
"","","","","","canvas-keyboard-response","129","123099","0.0-12.0-2.23","2d_cat_multi_stim_exp1","2022-4-13","10:22:35","25","75","3","9","10","40","30","120","33","23","[""Black or African-American""]","No","Male","1541531","679","i","learn","","","learn_trial","26.6667","40","out","0","1","","","","","","","","","","","","","","","","","","","","",""
"","","","","","canvas-keyboard-response","130","123608","0.0-12.0-3.23","2d_cat_multi_stim_exp1","2022-4-13","10:22:35","25","75","3","9","10","40","30","120","33","23","[""Black or African-American""]","No","Male","1541531","null","null","learn_feedback","","","learn_feedback","26.6667","40","out","","","","","","","","","","","","","","","","","","","","","","",""
"","","","","","canvas-keyboard-response","131","123669","0.0-12.0-4.23","2d_cat_multi_stim_exp1","2022-4-13","10:22:35","25","75","3","9","10","40","30","120","33","23","[""Black or African-American""]","No","Male","1541531","null","null","","","","clear_screen","","","","","","","","","","","","","","","","","","","","","","","","","",""
"","","","","","canvas-keyboard-response","132","124182","0.0-12.0-0.24","2d_cat_multi_stim_exp1","2022-4-13","10:22:35","25","75","3","9","10","40","30","120","33","23","[""Black or African-American""]","No","Male","1541531","null","null","","","","fixation","","","","","","","","","","","","","","","","","","","","","","","","","",""
"","","","","","canvas-keyboard-response","133","124693","0.0-12.0-1.24","2d_cat_multi_stim_exp1","2022-4-13","10:22:35","25","75","3","9","10","40","30","120","33","23","[""Black or African-American""]","No","Male","1541531","null","null","","","","clear_screen","","","","","","","","","","","","","","","","","","","","","","","","","",""
"","","","","","canvas-keyboard-response","134","125507","0.0-12.0-2.24","2d_cat_multi_stim_exp1","2022-4-13","10:22:35","25","75","3","9","10","40","30","120","33","23","[""Black or African-American""]","No","Male","1541531","802","u","learn","","","learn_trial","25","75","in","1","1","","","","","","","","","","","","","","","","","","","","",""
"","","","","","canvas-keyboard-response","135","126016","0.0-12.0-3.24","2d_cat_multi_stim_exp1","2022-4-13","10:22:35","25","75","3","9","10","40","30","120","33","23","[""Black or African-American""]","No","Male","1541531","null","null","learn_feedback","","","learn_feedback","25","75","in","","","","","","","","","","","","","","","","","","","","","","",""
"","","","","","canvas-keyboard-response","136","126076","0.0-12.0-4.24","2d_cat_multi_stim_exp1","2022-4-13","10:22:35","25","75","3","9","10","40","30","120","33","23","[""Black or African-American""]","No","Male","1541531","null","null","","","","clear_screen","","","","","","","","","","","","","","","","","","","","","","","","","",""
"","","","","","canvas-keyboard-response","137","126589","0.0-12.0-0.25","2d_cat_multi_stim_exp1","2022-4-13","10:22:35","25","75","3","9","10","40","30","120","33","23","[""Black or African-American""]","No","Male","1541531","null","null","","","","fixation","","","","","","","","","","","","","","","","","","","","","","","","","",""
"","","","","","canvas-keyboard-response","138","127103","0.0-12.0-1.25","2d_cat_multi_stim_exp1","2022-4-13","10:22:35","25","75","3","9","10","40","30","120","33","23","[""Black or African-American""]","No","Male","1541531","null","null","","","","clear_screen","","","","","","","","","","","","","","","","","","","","","","","","","",""
"","","","","","canvas-keyboard-response","139","128011","0.0-12.0-2.25","2d_cat_multi_stim_exp1","2022-4-13","10:22:35","25","75","3","9","10","40","30","120","33","23","[""Black or African-American""]","No","Male","1541531","898","i","learn","","","learn_trial","33.3333","120","out","0","1","","","","","","","","","","","","","","","","","","","","",""
"","","","","","canvas-keyboard-response","140","128521","0.0-12.0-3.25","2d_cat_multi_stim_exp1","2022-4-13","10:22:35","25","75","3","9","10","40","30","120","33","23","[""Black or African-American""]","No","Male","1541531","null","null","learn_feedback","","","learn_feedback","33.3333","120","out","","","","","","","","","","","","","","","","","","","","","","",""
"","","","","","canvas-keyboard-response","141","128584","0.0-12.0-4.25","2d_cat_multi_stim_exp1","2022-4-13","10:22:35","25","75","3","9","10","40","30","120","33","23","[""Black or African-American""]","No","Male","1541531","null","null","","","","clear_screen","","","","","","","","","","","","","","","","","","","","","","","","","",""
"","","","","","canvas-keyboard-response","142","129092","0.0-12.0-0.26","2d_cat_multi_stim_exp1","2022-4-13","10:22:35","25","75","3","9","10","40","30","120","33","23","[""Black or African-American""]","No","Male","1541531","null","null","","","","fixation","","","","","","","","","","","","","","","","","","","","","","","","","",""
"","","","","","canvas-keyboard-response","143","129604","0.0-12.0-1.26","2d_cat_multi_stim_exp1","2022-4-13","10:22:35","25","75","3","9","10","40","30","120","33","23","[""Black or African-American""]","No","Male","1541531","null","null","","","","clear_screen","","","","","","","","","","","","","","","","","","","","","","","","","",""
"","","","","","canvas-keyboard-response","144","130877","0.0-12.0-2.26","2d_cat_multi_stim_exp1","2022-4-13","10:22:35","25","75","3","9","10","40","30","120","33","23","[""Black or African-American""]","No","Male","1541531","1262","i","learn","","","learn_trial","30","110","out","0","1","","","","","","","","","","","","","","","","","","","","",""
"","","","","","canvas-keyboard-response","145","131381","0.0-12.0-3.26","2d_cat_multi_stim_exp1","2022-4-13","10:22:35","25","75","3","9","10","40","30","120","33","23","[""Black or African-American""]","No","Male","1541531","null","null","learn_feedback","","","learn_feedback","30","110","out","","","","","","","","","","","","","","","","","","","","","","",""
"","","","","","canvas-keyboard-response","146","131443","0.0-12.0-4.26","2d_cat_multi_stim_exp1","2022-4-13","10:22:35","25","75","3","9","10","40","30","120","33","23","[""Black or African-American""]","No","Male","1541531","null","null","","","","clear_screen","","","","","","","","","","","","","","","","","","","","","","","","","",""
"","","","","","canvas-keyboard-response","147","131956","0.0-12.0-0.27","2d_cat_multi_stim_exp1","2022-4-13","10:22:35","25","75","3","9","10","40","30","120","33","23","[""Black or African-American""]","No","Male","1541531","null","null","","","","fixation","","","","","","","","","","","","","","","","","","","","","","","","","",""
"","","","","","canvas-keyboard-response","148","132467","0.0-12.0-1.27","2d_cat_multi_stim_exp1","2022-4-13","10:22:35","25","75","3","9","10","40","30","120","33","23","[""Black or African-American""]","No","Male","1541531","null","null","","","","clear_screen","","","","","","","","","","","","","","","","","","","","","","","","","",""
"","","","","","canvas-keyboard-response","149","133347","0.0-12.0-2.27","2d_cat_multi_stim_exp1","2022-4-13","10:22:35","25","75","3","9","10","40","30","120","33","23","[""Black or African-American""]","No","Male","1541531","871","u","learn","","","learn_trial","20","80","out","1","0","","","","","","","","","","","","","","","","","","","","",""
"","","","","","canvas-keyboard-response","150","134360","0.0-12.0-3.27","2d_cat_multi_stim_exp1","2022-4-13","10:22:35","25","75","3","9","10","40","30","120","33","23","[""Black or African-American""]","No","Male","1541531","null","null","learn_feedback","","","learn_feedback","20","80","out","","","","","","","","","","","","","","","","","","","","","","",""
"","","","","","canvas-keyboard-response","151","134420","0.0-12.0-4.27","2d_cat_multi_stim_exp1","2022-4-13","10:22:35","25","75","3","9","10","40","30","120","33","23","[""Black or African-American""]","No","Male","1541531","null","null","","","","clear_screen","","","","","","","","","","","","","","","","","","","","","","","","","",""
"","","","","","canvas-keyboard-response","152","134931","0.0-12.0-0.28","2d_cat_multi_stim_exp1","2022-4-13","10:22:35","25","75","3","9","10","40","30","120","33","23","[""Black or African-American""]","No","Male","1541531","null","null","","","","fixation","","","","","","","","","","","","","","","","","","","","","","","","","",""
"","","","","","canvas-keyboard-response","153","135441","0.0-12.0-1.28","2d_cat_multi_stim_exp1","2022-4-13","10:22:35","25","75","3","9","10","40","30","120","33","23","[""Black or African-American""]","No","Male","1541531","null","null","","","","clear_screen","","","","","","","","","","","","","","","","","","","","","","","","","",""
"","","","","","canvas-keyboard-response","154","136586","0.0-12.0-2.28","2d_cat_multi_stim_exp1","2022-4-13","10:22:35","25","75","3","9","10","40","30","120","33","23","[""Black or African-American""]","No","Male","1541531","1134","u","learn","","","learn_trial","25","75","in","1","1","","","","","","","","","","","","","","","","","","","","",""
"","","","","","canvas-keyboard-response","155","137100","0.0-12.0-3.28","2d_cat_multi_stim_exp1","2022-4-13","10:22:35","25","75","3","9","10","40","30","120","33","23","[""Black or African-American""]","No","Male","1541531","null","null","learn_feedback","","","learn_feedback","25","75","in","","","","","","","","","","","","","","","","","","","","","","",""
"","","","","","canvas-keyboard-response","156","137164","0.0-12.0-4.28","2d_cat_multi_stim_exp1","2022-4-13","10:22:35","25","75","3","9","10","40","30","120","33","23","[""Black or African-American""]","No","Male","1541531","null","null","","","","clear_screen","","","","","","","","","","","","","","","","","","","","","","","","","",""
"","","","","","canvas-keyboard-response","157","137676","0.0-12.0-0.29","2d_cat_multi_stim_exp1","2022-4-13","10:22:35","25","75","3","9","10","40","30","120","33","23","[""Black or African-American""]","No","Male","1541531","null","null","","","","fixation","","","","","","","","","","","","","","","","","","","","","","","","","",""
"","","","","","canvas-keyboard-response","158","138187","0.0-12.0-1.29","2d_cat_multi_stim_exp1","2022-4-13","10:22:35","25","75","3","9","10","40","30","120","33","23","[""Black or African-American""]","No","Male","1541531","null","null","","","","clear_screen","","","","","","","","","","","","","","","","","","","","","","","","","",""
"","","","","","canvas-keyboard-response","159","138892","0.0-12.0-2.29","2d_cat_multi_stim_exp1","2022-4-13","10:22:35","25","75","3","9","10","40","30","120","33","23","[""Black or African-American""]","No","Male","1541531","695","i","learn","","","learn_trial","25","75","in","0","0","","","","","","","","","","","","","","","","","","","","",""
"","","","","","canvas-keyboard-response","160","139902","0.0-12.0-3.29","2d_cat_multi_stim_exp1","2022-4-13","10:22:35","25","75","3","9","10","40","30","120","33","23","[""Black or African-American""]","No","Male","1541531","null","null","learn_feedback","","","learn_feedback","25","75","in","","","","","","","","","","","","","","","","","","","","","","",""
"","","","","","canvas-keyboard-response","161","139962","0.0-12.0-4.29","2d_cat_multi_stim_exp1","2022-4-13","10:22:35","25","75","3","9","10","40","30","120","33","23","[""Black or African-American""]","No","Male","1541531","null","null","","","","clear_screen","","","","","","","","","","","","","","","","","","","","","","","","","",""
"","","","","","canvas-keyboard-response","162","140475","0.0-12.0-0.30","2d_cat_multi_stim_exp1","2022-4-13","10:22:35","25","75","3","9","10","40","30","120","33","23","[""Black or African-American""]","No","Male","1541531","null","null","","","","fixation","","","","","","","","","","","","","","","","","","","","","","","","","",""
"","","","","","canvas-keyboard-response","163","140987","0.0-12.0-1.30","2d_cat_multi_stim_exp1","2022-4-13","10:22:35","25","75","3","9","10","40","30","120","33","23","[""Black or African-American""]","No","Male","1541531","null","null","","","","clear_screen","","","","","","","","","","","","","","","","","","","","","","","","","",""
"","","","","","canvas-keyboard-response","164","141747","0.0-12.0-2.30","2d_cat_multi_stim_exp1","2022-4-13","10:22:35","25","75","3","9","10","40","30","120","33","23","[""Black or African-American""]","No","Male","1541531","747","i","learn","","","learn_trial","40","40","out","0","1","","","","","","","","","","","","","","","","","","","","",""
"","","","","","canvas-keyboard-response","165","142256","0.0-12.0-3.30","2d_cat_multi_stim_exp1","2022-4-13","10:22:35","25","75","3","9","10","40","30","120","33","23","[""Black or African-American""]","No","Male","1541531","null","null","learn_feedback","","","learn_feedback","40","40","out","","","","","","","","","","","","","","","","","","","","","","",""
"","","","","","canvas-keyboard-response","166","142316","0.0-12.0-4.30","2d_cat_multi_stim_exp1","2022-4-13","10:22:35","25","75","3","9","10","40","30","120","33","23","[""Black or African-American""]","No","Male","1541531","null","null","","","","clear_screen","","","","","","","","","","","","","","","","","","","","","","","","","",""
"","","","","","canvas-keyboard-response","167","142827","0.0-12.0-0.31","2d_cat_multi_stim_exp1","2022-4-13","10:22:35","25","75","3","9","10","40","30","120","33","23","[""Black or African-American""]","No","Male","1541531","null","null","","","","fixation","","","","","","","","","","","","","","","","","","","","","","","","","",""
"","","","","","canvas-keyboard-response","168","143338","0.0-12.0-1.31","2d_cat_multi_stim_exp1","2022-4-13","10:22:35","25","75","3","9","10","40","30","120","33","23","[""Black or African-American""]","No","Male","1541531","null","null","","","","clear_screen","","","","","","","","","","","","","","","","","","","","","","","","","",""
"","","","","","canvas-keyboard-response","169","144035","0.0-12.0-2.31","2d_cat_multi_stim_exp1","2022-4-13","10:22:35","25","75","3","9","10","40","30","120","33","23","[""Black or African-American""]","No","Male","1541531","686","i","learn","","","learn_trial","33.3333","60","out","0","1","","","","","","","","","","","","","","","","","","","","",""
"","","","","","canvas-keyboard-response","170","144546","0.0-12.0-3.31","2d_cat_multi_stim_exp1","2022-4-13","10:22:35","25","75","3","9","10","40","30","120","33","23","[""Black or African-American""]","No","Male","1541531","null","null","learn_feedback","","","learn_feedback","33.3333","60","out","","","","","","","","","","","","","","","","","","","","","","",""
"","","","","","canvas-keyboard-response","171","144608","0.0-12.0-4.31","2d_cat_multi_stim_exp1","2022-4-13","10:22:35","25","75","3","9","10","40","30","120","33","23","[""Black or African-American""]","No","Male","1541531","null","null","","","","clear_screen","","","","","","","","","","","","","","","","","","","","","","","","","",""
"","","","","","canvas-keyboard-response","172","145121","0.0-12.0-0.32","2d_cat_multi_stim_exp1","2022-4-13","10:22:35","25","75","3","9","10","40","30","120","33","23","[""Black or African-American""]","No","Male","1541531","null","null","","","","fixation","","","","","","","","","","","","","","","","","","","","","","","","","",""
"","","","","","canvas-keyboard-response","173","145632","0.0-12.0-1.32","2d_cat_multi_stim_exp1","2022-4-13","10:22:35","25","75","3","9","10","40","30","120","33","23","[""Black or African-American""]","No","Male","1541531","null","null","","","","clear_screen","","","","","","","","","","","","","","","","","","","","","","","","","",""
"","","","","","canvas-keyboard-response","174","146612","0.0-12.0-2.32","2d_cat_multi_stim_exp1","2022-4-13","10:22:35","25","75","3","9","10","40","30","120","33","23","[""Black or African-American""]","No","Male","1541531","970","i","learn","","","learn_trial","20","30","out","0","1","","","","","","","","","","","","","","","","","","","","",""
"","","","","","canvas-keyboard-response","175","147123","0.0-12.0-3.32","2d_cat_multi_stim_exp1","2022-4-13","10:22:35","25","75","3","9","10","40","30","120","33","23","[""Black or African-American""]","No","Male","1541531","null","null","learn_feedback","","","learn_feedback","20","30","out","","","","","","","","","","","","","","","","","","","","","","",""
"","","","","","canvas-keyboard-response","176","147183","0.0-12.0-4.32","2d_cat_multi_stim_exp1","2022-4-13","10:22:35","25","75","3","9","10","40","30","120","33","23","[""Black or African-American""]","No","Male","1541531","null","null","","","","clear_screen","","","","","","","","","","","","","","","","","","","","","","","","","",""
"","","","","","canvas-keyboard-response","177","147693","0.0-12.0-0.33","2d_cat_multi_stim_exp1","2022-4-13","10:22:35","25","75","3","9","10","40","30","120","33","23","[""Black or African-American""]","No","Male","1541531","null","null","","","","fixation","","","","","","","","","","","","","","","","","","","","","","","","","",""
"","","","","","canvas-keyboard-response","178","148204","0.0-12.0-1.33","2d_cat_multi_stim_exp1","2022-4-13","10:22:35","25","75","3","9","10","40","30","120","33","23","[""Black or African-American""]","No","Male","1541531","null","null","","","","clear_screen","","","","","","","","","","","","","","","","","","","","","","","","","",""
"","","","","","canvas-keyboard-response","179","148803","0.0-12.0-2.33","2d_cat_multi_stim_exp1","2022-4-13","10:22:35","25","75","3","9","10","40","30","120","33","23","[""Black or African-American""]","No","Male","1541531","587","u","learn","","","learn_trial","27.5753","79.6161","in","1","1","","","","","","","","","","","","","","","","","","","","",""
"","","","","","canvas-keyboard-response","180","149315","0.0-12.0-3.33","2d_cat_multi_stim_exp1","2022-4-13","10:22:35","25","75","3","9","10","40","30","120","33","23","[""Black or African-American""]","No","Male","1541531","null","null","learn_feedback","","","learn_feedback","27.5753","79.6161","in","","","","","","","","","","","","","","","","","","","","","","",""
"","","","","","canvas-keyboard-response","181","149377","0.0-12.0-4.33","2d_cat_multi_stim_exp1","2022-4-13","10:22:35","25","75","3","9","10","40","30","120","33","23","[""Black or African-American""]","No","Male","1541531","null","null","","","","clear_screen","","","","","","","","","","","","","","","","","","","","","","","","","",""
"","","","","","canvas-keyboard-response","182","149888","0.0-12.0-0.34","2d_cat_multi_stim_exp1","2022-4-13","10:22:35","25","75","3","9","10","40","30","120","33","23","[""Black or African-American""]","No","Male","1541531","null","null","","","","fixation","","","","","","","","","","","","","","","","","","","","","","","","","",""
"","","","","","canvas-keyboard-response","183","150403","0.0-12.0-1.34","2d_cat_multi_stim_exp1","2022-4-13","10:22:35","25","75","3","9","10","40","30","120","33","23","[""Black or African-American""]","No","Male","1541531","null","null","","","","clear_screen","","","","","","","","","","","","","","","","","","","","","","","","","",""
"","","","","","canvas-keyboard-response","184","151379","0.0-12.0-2.34","2d_cat_multi_stim_exp1","2022-4-13","10:22:35","25","75","3","9","10","40","30","120","33","23","[""Black or African-American""]","No","Male","1541531","967","i","learn","","","learn_trial","10","90","out","0","1","","","","","","","","","","","","","","","","","","","","",""
"","","","","","canvas-keyboard-response","185","151890","0.0-12.0-3.34","2d_cat_multi_stim_exp1","2022-4-13","10:22:35","25","75","3","9","10","40","30","120","33","23","[""Black or African-American""]","No","Male","1541531","null","null","learn_feedback","","","learn_feedback","10","90","out","","","","","","","","","","","","","","","","","","","","","","",""
"","","","","","canvas-keyboard-response","186","151954","0.0-12.0-4.34","2d_cat_multi_stim_exp1","2022-4-13","10:22:35","25","75","3","9","10","40","30","120","33","23","[""Black or African-American""]","No","Male","1541531","null","null","","","","clear_screen","","","","","","","","","","","","","","","","","","","","","","","","","",""
"","","","","","canvas-keyboard-response","187","152464","0.0-12.0-0.35","2d_cat_multi_stim_exp1","2022-4-13","10:22:35","25","75","3","9","10","40","30","120","33","23","[""Black or African-American""]","No","Male","1541531","null","null","","","","fixation","","","","","","","","","","","","","","","","","","","","","","","","","",""
"","","","","","canvas-keyboard-response","188","152973","0.0-12.0-1.35","2d_cat_multi_stim_exp1","2022-4-13","10:22:35","25","75","3","9","10","40","30","120","33","23","[""Black or African-American""]","No","Male","1541531","null","null","","","","clear_screen","","","","","","","","","","","","","","","","","","","","","","","","","",""
"","","","","","canvas-keyboard-response","189","155698","0.0-12.0-2.35","2d_cat_multi_stim_exp1","2022-4-13","10:22:35","25","75","3","9","10","40","30","120","33","23","[""Black or African-American""]","No","Male","1541531","2714","i","learn","","","learn_trial","22.9268","68.4948","in","0","0","","","","","","","","","","","","","","","","","","","","",""
"","","","","","canvas-keyboard-response","190","156712","0.0-12.0-3.35","2d_cat_multi_stim_exp1","2022-4-13","10:22:35","25","75","3","9","10","40","30","120","33","23","[""Black or African-American""]","No","Male","1541531","null","null","learn_feedback","","","learn_feedback","22.9268","68.4948","in","","","","","","","","","","","","","","","","","","","","","","",""
"","","","","","canvas-keyboard-response","191","156772","0.0-12.0-4.35","2d_cat_multi_stim_exp1","2022-4-13","10:22:35","25","75","3","9","10","40","30","120","33","23","[""Black or African-American""]","No","Male","1541531","null","null","","","","clear_screen","","","","","","","","","","","","","","","","","","","","","","","","","",""
"","","","","","canvas-keyboard-response","192","157282","0.0-12.0-0.36","2d_cat_multi_stim_exp1","2022-4-13","10:22:35","25","75","3","9","10","40","30","120","33","23","[""Black or African-American""]","No","Male","1541531","null","null","","","","fixation","","","","","","","","","","","","","","","","","","","","","","","","","",""
"","","","","","canvas-keyboard-response","193","157798","0.0-12.0-1.36","2d_cat_multi_stim_exp1","2022-4-13","10:22:35","25","75","3","9","10","40","30","120","33","23","[""Black or African-American""]","No","Male","1541531","null","null","","","","clear_screen","","","","","","","","","","","","","","","","","","","","","","","","","",""
"","","","","","canvas-keyboard-response","194","160508","0.0-12.0-2.36","2d_cat_multi_stim_exp1","2022-4-13","10:22:35","25","75","3","9","10","40","30","120","33","23","[""Black or African-American""]","No","Male","1541531","2696","i","learn","","","learn_trial","13.3333","100","out","0","1","","","","","","","","","","","","","","","","","","","","",""
"","","","","","canvas-keyboard-response","195","161021","0.0-12.0-3.36","2d_cat_multi_stim_exp1","2022-4-13","10:22:35","25","75","3","9","10","40","30","120","33","23","[""Black or African-American""]","No","Male","1541531","null","null","learn_feedback","","","learn_feedback","13.3333","100","out","","","","","","","","","","","","","","","","","","","","","","",""
"","","","","","canvas-keyboard-response","196","161083","0.0-12.0-4.36","2d_cat_multi_stim_exp1","2022-4-13","10:22:35","25","75","3","9","10","40","30","120","33","23","[""Black or African-American""]","No","Male","1541531","null","null","","","","clear_screen","","","","","","","","","","","","","","","","","","","","","","","","","",""
"","","","","","canvas-keyboard-response","197","161593","0.0-12.0-0.37","2d_cat_multi_stim_exp1","2022-4-13","10:22:35","25","75","3","9","10","40","30","120","33","23","[""Black or African-American""]","No","Male","1541531","null","null","","","","fixation","","","","","","","","","","","","","","","","","","","","","","","","","",""
"","","","","","canvas-keyboard-response","198","162105","0.0-12.0-1.37","2d_cat_multi_stim_exp1","2022-4-13","10:22:35","25","75","3","9","10","40","30","120","33","23","[""Black or African-American""]","No","Male","1541531","null","null","","","","clear_screen","","","","","","","","","","","","","","","","","","","","","","","","","",""
"","","","","","canvas-keyboard-response","199","163331","0.0-12.0-2.37","2d_cat_multi_stim_exp1","2022-4-13","10:22:35","25","75","3","9","10","40","30","120","33","23","[""Black or African-American""]","No","Male","1541531","1215","i","learn","","","learn_trial","26.4216","67.0746","in","0","0","","","","","","","","","","","","","","","","","","","","",""
"","","","","","canvas-keyboard-response","200","164342","0.0-12.0-3.37","2d_cat_multi_stim_exp1","2022-4-13","10:22:35","25","75","3","9","10","40","30","120","33","23","[""Black or African-American""]","No","Male","1541531","null","null","learn_feedback","","","learn_feedback","26.4216","67.0746","in","","","","","","","","","","","","","","","","","","","","","","",""
"","","","","","canvas-keyboard-response","201","164402","0.0-12.0-4.37","2d_cat_multi_stim_exp1","2022-4-13","10:22:35","25","75","3","9","10","40","30","120","33","23","[""Black or African-American""]","No","Male","1541531","null","null","","","","clear_screen","","","","","","","","","","","","","","","","","","","","","","","","","",""
"","","","","","canvas-keyboard-response","202","164915","0.0-12.0-0.38","2d_cat_multi_stim_exp1","2022-4-13","10:22:35","25","75","3","9","10","40","30","120","33","23","[""Black or African-American""]","No","Male","1541531","null","null","","","","fixation","","","","","","","","","","","","","","","","","","","","","","","","","",""
"","","","","","canvas-keyboard-response","203","165428","0.0-12.0-1.38","2d_cat_multi_stim_exp1","2022-4-13","10:22:35","25","75","3","9","10","40","30","120","33","23","[""Black or African-American""]","No","Male","1541531","null","null","","","","clear_screen","","","","","","","","","","","","","","","","","","","","","","","","","",""
"","","","","","canvas-keyboard-response","204","166179","0.0-12.0-2.38","2d_cat_multi_stim_exp1","2022-4-13","10:22:35","25","75","3","9","10","40","30","120","33","23","[""Black or African-American""]","No","Male","1541531","742","i","learn","","","learn_trial","23.3333","40","out","0","1","","","","","","","","","","","","","","","","","","","","",""
"","","","","","canvas-keyboard-response","205","166691","0.0-12.0-3.38","2d_cat_multi_stim_exp1","2022-4-13","10:22:35","25","75","3","9","10","40","30","120","33","23","[""Black or African-American""]","No","Male","1541531","null","null","learn_feedback","","","learn_feedback","23.3333","40","out","","","","","","","","","","","","","","","","","","","","","","",""
"","","","","","canvas-keyboard-response","206","166751","0.0-12.0-4.38","2d_cat_multi_stim_exp1","2022-4-13","10:22:35","25","75","3","9","10","40","30","120","33","23","[""Black or African-American""]","No","Male","1541531","null","null","","","","clear_screen","","","","","","","","","","","","","","","","","","","","","","","","","",""
"","","","","","canvas-keyboard-response","207","167262","0.0-12.0-0.39","2d_cat_multi_stim_exp1","2022-4-13","10:22:35","25","75","3","9","10","40","30","120","33","23","[""Black or African-American""]","No","Male","1541531","null","null","","","","fixation","","","","","","","","","","","","","","","","","","","","","","","","","",""
"","","","","","canvas-keyboard-response","208","167772","0.0-12.0-1.39","2d_cat_multi_stim_exp1","2022-4-13","10:22:35","25","75","3","9","10","40","30","120","33","23","[""Black or African-American""]","No","Male","1541531","null","null","","","","clear_screen","","","","","","","","","","","","","","","","","","","","","","","","","",""
"","","","","","canvas-keyboard-response","209","168803","0.0-12.0-2.39","2d_cat_multi_stim_exp1","2022-4-13","10:22:35","25","75","3","9","10","40","30","120","33","23","[""Black or African-American""]","No","Male","1541531","1020","i","learn","","","learn_trial","20","60","out","0","1","","","","","","","","","","","","","","","","","","","","",""
"","","","","","canvas-keyboard-response","210","169314","0.0-12.0-3.39","2d_cat_multi_stim_exp1","2022-4-13","10:22:35","25","75","3","9","10","40","30","120","33","23","[""Black or African-American""]","No","Male","1541531","null","null","learn_feedback","","","learn_feedback","20","60","out","","","","","","","","","","","","","","","","","","","","","","",""
"","","","","","canvas-keyboard-response","211","169376","0.0-12.0-4.39","2d_cat_multi_stim_exp1","2022-4-13","10:22:35","25","75","3","9","10","40","30","120","33","23","[""Black or African-American""]","No","Male","1541531","null","null","","","","clear_screen","","","","","","","","","","","","","","","","","","","","","","","","","",""
"","","","","","canvas-keyboard-response","212","169885","0.0-12.0-0.40","2d_cat_multi_stim_exp1","2022-4-13","10:22:35","25","75","3","9","10","40","30","120","33","23","[""Black or African-American""]","No","Male","1541531","null","null","","","","fixation","","","","","","","","","","","","","","","","","","","","","","","","","",""
"","","","","","canvas-keyboard-response","213","170397","0.0-12.0-1.40","2d_cat_multi_stim_exp1","2022-4-13","10:22:35","25","75","3","9","10","40","30","120","33","23","[""Black or African-American""]","No","Male","1541531","null","null","","","","clear_screen","","","","","","","","","","","","","","","","","","","","","","","","","",""
"","","","","","canvas-keyboard-response","214","171114","0.0-12.0-2.40","2d_cat_multi_stim_exp1","2022-4-13","10:22:35","25","75","3","9","10","40","30","120","33","23","[""Black or African-American""]","No","Male","1541531","709","i","learn","","","learn_trial","10","70","out","0","1","","","","","","","","","","","","","","","","","","","","",""
"","","","","","canvas-keyboard-response","215","171628","0.0-12.0-3.40","2d_cat_multi_stim_exp1","2022-4-13","10:22:35","25","75","3","9","10","40","30","120","33","23","[""Black or African-American""]","No","Male","1541531","null","null","learn_feedback","","","learn_feedback","10","70","out","","","","","","","","","","","","","","","","","","","","","","",""
"","","","","","canvas-keyboard-response","216","171692","0.0-12.0-4.40","2d_cat_multi_stim_exp1","2022-4-13","10:22:35","25","75","3","9","10","40","30","120","33","23","[""Black or African-American""]","No","Male","1541531","null","null","","","","clear_screen","","","","","","","","","","","","","","","","","","","","","","","","","",""
"","","","","","canvas-keyboard-response","217","172201","0.0-12.0-0.41","2d_cat_multi_stim_exp1","2022-4-13","10:22:35","25","75","3","9","10","40","30","120","33","23","[""Black or African-American""]","No","Male","1541531","null","null","","","","fixation","","","","","","","","","","","","","","","","","","","","","","","","","",""
"","","","","","canvas-keyboard-response","218","172713","0.0-12.0-1.41","2d_cat_multi_stim_exp1","2022-4-13","10:22:35","25","75","3","9","10","40","30","120","33","23","[""Black or African-American""]","No","Male","1541531","null","null","","","","clear_screen","","","","","","","","","","","","","","","","","","","","","","","","","",""
"","","","","","canvas-keyboard-response","219","173211","0.0-12.0-2.41","2d_cat_multi_stim_exp1","2022-4-13","10:22:35","25","75","3","9","10","40","30","120","33","23","[""Black or African-American""]","No","Male","1541531","493","u","learn","","","learn_trial","30","70","out","1","0","","","","","","","","","","","","","","","","","","","","",""
"","","","","","canvas-keyboard-response","220","174225","0.0-12.0-3.41","2d_cat_multi_stim_exp1","2022-4-13","10:22:35","25","75","3","9","10","40","30","120","33","23","[""Black or African-American""]","No","Male","1541531","null","null","learn_feedback","","","learn_feedback","30","70","out","","","","","","","","","","","","","","","","","","","","","","",""
"","","","","","canvas-keyboard-response","221","174287","0.0-12.0-4.41","2d_cat_multi_stim_exp1","2022-4-13","10:22:35","25","75","3","9","10","40","30","120","33","23","[""Black or African-American""]","No","Male","1541531","null","null","","","","clear_screen","","","","","","","","","","","","","","","","","","","","","","","","","",""
"","","","","","canvas-keyboard-response","222","174798","0.0-12.0-0.42","2d_cat_multi_stim_exp1","2022-4-13","10:22:35","25","75","3","9","10","40","30","120","33","23","[""Black or African-American""]","No","Male","1541531","null","null","","","","fixation","","","","","","","","","","","","","","","","","","","","","","","","","",""
"","","","","","canvas-keyboard-response","223","175309","0.0-12.0-1.42","2d_cat_multi_stim_exp1","2022-4-13","10:22:35","25","75","3","9","10","40","30","120","33","23","[""Black or African-American""]","No","Male","1541531","null","null","","","","clear_screen","","","","","","","","","","","","","","","","","","","","","","","","","",""
"","","","","","canvas-keyboard-response","224","176179","0.0-12.0-2.42","2d_cat_multi_stim_exp1","2022-4-13","10:22:35","25","75","3","9","10","40","30","120","33","23","[""Black or African-American""]","No","Male","1541531","855","u","learn","","","learn_trial","25","75","in","1","1","","","","","","","","","","","","","","","","","","","","",""
"","","","","","canvas-keyboard-response","225","176690","0.0-12.0-3.42","2d_cat_multi_stim_exp1","2022-4-13","10:22:35","25","75","3","9","10","40","30","120","33","23","[""Black or African-American""]","No","Male","1541531","null","null","learn_feedback","","","learn_feedback","25","75","in","","","","","","","","","","","","","","","","","","","","","","",""
"","","","","","canvas-keyboard-response","226","176754","0.0-12.0-4.42","2d_cat_multi_stim_exp1","2022-4-13","10:22:35","25","75","3","9","10","40","30","120","33","23","[""Black or African-American""]","No","Male","1541531","null","null","","","","clear_screen","","","","","","","","","","","","","","","","","","","","","","","","","",""
"","","","","","canvas-keyboard-response","227","177266","0.0-12.0-0.43","2d_cat_multi_stim_exp1","2022-4-13","10:22:35","25","75","3","9","10","40","30","120","33","23","[""Black or African-American""]","No","Male","1541531","null","null","","","","fixation","","","","","","","","","","","","","","","","","","","","","","","","","",""
"","","","","","canvas-keyboard-response","228","177777","0.0-12.0-1.43","2d_cat_multi_stim_exp1","2022-4-13","10:22:35","25","75","3","9","10","40","30","120","33","23","[""Black or African-American""]","No","Male","1541531","null","null","","","","clear_screen","","","","","","","","","","","","","","","","","","","","","","","","","",""
"","","","","","canvas-keyboard-response","229","178659","0.0-12.0-2.43","2d_cat_multi_stim_exp1","2022-4-13","10:22:35","25","75","3","9","10","40","30","120","33","23","[""Black or African-American""]","No","Male","1541531","868","i","learn","","","learn_trial","36.6667","120","out","0","1","","","","","","","","","","","","","","","","","","","","",""
"","","","","","canvas-keyboard-response","230","179173","0.0-12.0-3.43","2d_cat_multi_stim_exp1","2022-4-13","10:22:35","25","75","3","9","10","40","30","120","33","23","[""Black or African-American""]","No","Male","1541531","null","null","learn_feedback","","","learn_feedback","36.6667","120","out","","","","","","","","","","","","","","","","","","","","","","",""
"","","","","","canvas-keyboard-response","231","179234","0.0-12.0-4.43","2d_cat_multi_stim_exp1","2022-4-13","10:22:35","25","75","3","9","10","40","30","120","33","23","[""Black or African-American""]","No","Male","1541531","null","null","","","","clear_screen","","","","","","","","","","","","","","","","","","","","","","","","","",""
"","","","","","canvas-keyboard-response","232","179745","0.0-12.0-0.44","2d_cat_multi_stim_exp1","2022-4-13","10:22:35","25","75","3","9","10","40","30","120","33","23","[""Black or African-American""]","No","Male","1541531","null","null","","","","fixation","","","","","","","","","","","","","","","","","","","","","","","","","",""
"","","","","","canvas-keyboard-response","233","180259","0.0-12.0-1.44","2d_cat_multi_stim_exp1","2022-4-13","10:22:35","25","75","3","9","10","40","30","120","33","23","[""Black or African-American""]","No","Male","1541531","null","null","","","","clear_screen","","","","","","","","","","","","","","","","","","","","","","","","","",""
"","","","","","canvas-keyboard-response","234","181587","0.0-12.0-2.44","2d_cat_multi_stim_exp1","2022-4-13","10:22:35","25","75","3","9","10","40","30","120","33","23","[""Black or African-American""]","No","Male","1541531","1318","i","learn","","","learn_trial","10","60","out","0","1","","","","","","","","","","","","","","","","","","","","",""
"","","","","","canvas-keyboard-response","235","182101","0.0-12.0-3.44","2d_cat_multi_stim_exp1","2022-4-13","10:22:35","25","75","3","9","10","40","30","120","33","23","[""Black or African-American""]","No","Male","1541531","null","null","learn_feedback","","","learn_feedback","10","60","out","","","","","","","","","","","","","","","","","","","","","","",""
"","","","","","canvas-keyboard-response","236","182163","0.0-12.0-4.44","2d_cat_multi_stim_exp1","2022-4-13","10:22:35","25","75","3","9","10","40","30","120","33","23","[""Black or African-American""]","No","Male","1541531","null","null","","","","clear_screen","","","","","","","","","","","","","","","","","","","","","","","","","",""
"","","","","","canvas-keyboard-response","237","182673","0.0-12.0-0.45","2d_cat_multi_stim_exp1","2022-4-13","10:22:35","25","75","3","9","10","40","30","120","33","23","[""Black or African-American""]","No","Male","1541531","null","null","","","","fixation","","","","","","","","","","","","","","","","","","","","","","","","","",""
"","","","","","canvas-keyboard-response","238","183184","0.0-12.0-1.45","2d_cat_multi_stim_exp1","2022-4-13","10:22:35","25","75","3","9","10","40","30","120","33","23","[""Black or African-American""]","No","Male","1541531","null","null","","","","clear_screen","","","","","","","","","","","","","","","","","","","","","","","","","",""
"","","","","","canvas-keyboard-response","239","184323","0.0-12.0-2.45","2d_cat_multi_stim_exp1","2022-4-13","10:22:35","25","75","3","9","10","40","30","120","33","23","[""Black or African-American""]","No","Male","1541531","1128","i","learn","","","learn_trial","16.6667","70","out","0","1","","","","","","","","","","","","","","","","","","","","",""
"","","","","","canvas-keyboard-response","240","184836","0.0-12.0-3.45","2d_cat_multi_stim_exp1","2022-4-13","10:22:35","25","75","3","9","10","40","30","120","33","23","[""Black or African-American""]","No","Male","1541531","null","null","learn_feedback","","","learn_feedback","16.6667","70","out","","","","","","","","","","","","","","","","","","","","","","",""
"","","","","","canvas-keyboard-response","241","184897","0.0-12.0-4.45","2d_cat_multi_stim_exp1","2022-4-13","10:22:35","25","75","3","9","10","40","30","120","33","23","[""Black or African-American""]","No","Male","1541531","null","null","","","","clear_screen","","","","","","","","","","","","","","","","","","","","","","","","","",""
"","","","","","canvas-keyboard-response","242","185408","0.0-12.0-0.46","2d_cat_multi_stim_exp1","2022-4-13","10:22:35","25","75","3","9","10","40","30","120","33","23","[""Black or African-American""]","No","Male","1541531","null","null","","","","fixation","","","","","","","","","","","","","","","","","","","","","","","","","",""
"","","","","","canvas-keyboard-response","243","185923","0.0-12.0-1.46","2d_cat_multi_stim_exp1","2022-4-13","10:22:35","25","75","3","9","10","40","30","120","33","23","[""Black or African-American""]","No","Male","1541531","null","null","","","","clear_screen","","","","","","","","","","","","","","","","","","","","","","","","","",""
"","","","","","canvas-keyboard-response","244","186867","0.0-12.0-2.46","2d_cat_multi_stim_exp1","2022-4-13","10:22:35","25","75","3","9","10","40","30","120","33","23","[""Black or African-American""]","No","Male","1541531","935","i","learn","","","learn_trial","24.8654","66.0091","in","0","0","","","","","","","","","","","","","","","","","","","","",""
"","","","","","canvas-keyboard-response","245","187878","0.0-12.0-3.46","2d_cat_multi_stim_exp1","2022-4-13","10:22:35","25","75","3","9","10","40","30","120","33","23","[""Black or African-American""]","No","Male","1541531","null","null","learn_feedback","","","learn_feedback","24.8654","66.0091","in","","","","","","","","","","","","","","","","","","","","","","",""
"","","","","","canvas-keyboard-response","246","187943","0.0-12.0-4.46","2d_cat_multi_stim_exp1","2022-4-13","10:22:35","25","75","3","9","10","40","30","120","33","23","[""Black or African-American""]","No","Male","1541531","null","null","","","","clear_screen","","","","","","","","","","","","","","","","","","","","","","","","","",""
"","","","","","canvas-keyboard-response","247","188452","0.0-12.0-0.47","2d_cat_multi_stim_exp1","2022-4-13","10:22:35","25","75","3","9","10","40","30","120","33","23","[""Black or African-American""]","No","Male","1541531","null","null","","","","fixation","","","","","","","","","","","","","","","","","","","","","","","","","",""
"","","","","","canvas-keyboard-response","248","188966","0.0-12.0-1.47","2d_cat_multi_stim_exp1","2022-4-13","10:22:35","25","75","3","9","10","40","30","120","33","23","[""Black or African-American""]","No","Male","1541531","null","null","","","","clear_screen","","","","","","","","","","","","","","","","","","","","","","","","","",""
"","","","","","canvas-keyboard-response","249","189731","0.0-12.0-2.47","2d_cat_multi_stim_exp1","2022-4-13","10:22:35","25","75","3","9","10","40","30","120","33","23","[""Black or African-American""]","No","Male","1541531","755","i","learn","","","learn_trial","33.3333","70","out","0","1","","","","","","","","","","","","","","","","","","","","",""
"","","","","","canvas-keyboard-response","250","190242","0.0-12.0-3.47","2d_cat_multi_stim_exp1","2022-4-13","10:22:35","25","75","3","9","10","40","30","120","33","23","[""Black or African-American""]","No","Male","1541531","null","null","learn_feedback","","","learn_feedback","33.3333","70","out","","","","","","","","","","","","","","","","","","","","","","",""
"","","","","","canvas-keyboard-response","251","190306","0.0-12.0-4.47","2d_cat_multi_stim_exp1","2022-4-13","10:22:35","25","75","3","9","10","40","30","120","33","23","[""Black or African-American""]","No","Male","1541531","null","null","","","","clear_screen","","","","","","","","","","","","","","","","","","","","","","","","","",""
"","","","","","canvas-keyboard-response","252","190815","0.0-12.0-0.48","2d_cat_multi_stim_exp1","2022-4-13","10:22:35","25","75","3","9","10","40","30","120","33","23","[""Black or African-American""]","No","Male","1541531","null","null","","","","fixation","","","","","","","","","","","","","","","","","","","","","","","","","",""
"","","","","","canvas-keyboard-response","253","191327","0.0-12.0-1.48","2d_cat_multi_stim_exp1","2022-4-13","10:22:35","25","75","3","9","10","40","30","120","33","23","[""Black or African-American""]","No","Male","1541531","null","null","","","","clear_screen","","","","","","","","","","","","","","","","","","","","","","","","","",""
"","","","","","canvas-keyboard-response","254","191955","0.0-12.0-2.48","2d_cat_multi_stim_exp1","2022-4-13","10:22:35","25","75","3","9","10","40","30","120","33","23","[""Black or African-American""]","No","Male","1541531","616","i","learn","","","learn_trial","30","50","out","0","1","","","","","","","","","","","","","","","","","","","","",""
"","","","","","canvas-keyboard-response","255","192465","0.0-12.0-3.48","2d_cat_multi_stim_exp1","2022-4-13","10:22:35","25","75","3","9","10","40","30","120","33","23","[""Black or African-American""]","No","Male","1541531","null","null","learn_feedback","","","learn_feedback","30","50","out","","","","","","","","","","","","","","","","","","","","","","",""
"","","","","","canvas-keyboard-response","256","192525","0.0-12.0-4.48","2d_cat_multi_stim_exp1","2022-4-13","10:22:35","25","75","3","9","10","40","30","120","33","23","[""Black or African-American""]","No","Male","1541531","null","null","","","","clear_screen","","","","","","","","","","","","","","","","","","","","","","","","","",""
"","","","","","canvas-keyboard-response","257","193034","0.0-12.0-0.49","2d_cat_multi_stim_exp1","2022-4-13","10:22:35","25","75","3","9","10","40","30","120","33","23","[""Black or African-American""]","No","Male","1541531","null","null","","","","fixation","","","","","","","","","","","","","","","","","","","","","","","","","",""
"","","","","","canvas-keyboard-response","258","193551","0.0-12.0-1.49","2d_cat_multi_stim_exp1","2022-4-13","10:22:35","25","75","3","9","10","40","30","120","33","23","[""Black or African-American""]","No","Male","1541531","null","null","","","","clear_screen","","","","","","","","","","","","","","","","","","","","","","","","","",""
"","","","","","canvas-keyboard-response","259","194323","0.0-12.0-2.49","2d_cat_multi_stim_exp1","2022-4-13","10:22:35","25","75","3","9","10","40","30","120","33","23","[""Black or African-American""]","No","Male","1541531","763","u","learn","","","learn_trial","22.0121","74.1932","in","1","1","","","","","","","","","","","","","","","","","","","","",""
"","","","","","canvas-keyboard-response","260","194834","0.0-12.0-3.49","2d_cat_multi_stim_exp1","2022-4-13","10:22:35","25","75","3","9","10","40","30","120","33","23","[""Black or African-American""]","No","Male","1541531","null","null","learn_feedback","","","learn_feedback","22.0121","74.1932","in","","","","","","","","","","","","","","","","","","","","","","",""
"","","","","","canvas-keyboard-response","261","194895","0.0-12.0-4.49","2d_cat_multi_stim_exp1","2022-4-13","10:22:35","25","75","3","9","10","40","30","120","33","23","[""Black or African-American""]","No","Male","1541531","null","null","","","","clear_screen","","","","","","","","","","","","","","","","","","","","","","","","","",""
"","","","","","canvas-keyboard-response","262","195406","0.0-12.0-0.50","2d_cat_multi_stim_exp1","2022-4-13","10:22:35","25","75","3","9","10","40","30","120","33","23","[""Black or African-American""]","No","Male","1541531","null","null","","","","fixation","","","","","","","","","","","","","","","","","","","","","","","","","",""
"","","","","","canvas-keyboard-response","263","195919","0.0-12.0-1.50","2d_cat_multi_stim_exp1","2022-4-13","10:22:35","25","75","3","9","10","40","30","120","33","23","[""Black or African-American""]","No","Male","1541531","null","null","","","","clear_screen","","","","","","","","","","","","","","","","","","","","","","","","","",""
"","","","","","canvas-keyboard-response","264","196491","0.0-12.0-2.50","2d_cat_multi_stim_exp1","2022-4-13","10:22:35","25","75","3","9","10","40","30","120","33","23","[""Black or African-American""]","No","Male","1541531","560","u","learn","","","learn_trial","25","75","in","1","1","","","","","","","","","","","","","","","","","","","","",""
"","","","","","canvas-keyboard-response","265","197004","0.0-12.0-3.50","2d_cat_multi_stim_exp1","2022-4-13","10:22:35","25","75","3","9","10","40","30","120","33","23","[""Black or African-American""]","No","Male","1541531","null","null","learn_feedback","","","learn_feedback","25","75","in","","","","","","","","","","","","","","","","","","","","","","",""
"","","","","","canvas-keyboard-response","266","197064","0.0-12.0-4.50","2d_cat_multi_stim_exp1","2022-4-13","10:22:35","25","75","3","9","10","40","30","120","33","23","[""Black or African-American""]","No","Male","1541531","null","null","","","","clear_screen","","","","","","","","","","","","","","","","","","","","","","","","","",""
"","","","","","canvas-keyboard-response","267","197574","0.0-12.0-0.51","2d_cat_multi_stim_exp1","2022-4-13","10:22:35","25","75","3","9","10","40","30","120","33","23","[""Black or African-American""]","No","Male","1541531","null","null","","","","fixation","","","","","","","","","","","","","","","","","","","","","","","","","",""
"","","","","","canvas-keyboard-response","268","198087","0.0-12.0-1.51","2d_cat_multi_stim_exp1","2022-4-13","10:22:35","25","75","3","9","10","40","30","120","33","23","[""Black or African-American""]","No","Male","1541531","null","null","","","","clear_screen","","","","","","","","","","","","","","","","","","","","","","","","","",""
"","","","","","canvas-keyboard-response","269","198555","0.0-12.0-2.51","2d_cat_multi_stim_exp1","2022-4-13","10:22:35","25","75","3","9","10","40","30","120","33","23","[""Black or African-American""]","No","Male","1541531","457","i","learn","","","learn_trial","13.3333","110","out","0","1","","","","","","","","","","","","","","","","","","","","",""
"","","","","","canvas-keyboard-response","270","199068","0.0-12.0-3.51","2d_cat_multi_stim_exp1","2022-4-13","10:22:35","25","75","3","9","10","40","30","120","33","23","[""Black or African-American""]","No","Male","1541531","null","null","learn_feedback","","","learn_feedback","13.3333","110","out","","","","","","","","","","","","","","","","","","","","","","",""
"","","","","","canvas-keyboard-response","271","199131","0.0-12.0-4.51","2d_cat_multi_stim_exp1","2022-4-13","10:22:35","25","75","3","9","10","40","30","120","33","23","[""Black or African-American""]","No","Male","1541531","null","null","","","","clear_screen","","","","","","","","","","","","","","","","","","","","","","","","","",""
"","","","","","canvas-keyboard-response","272","199641","0.0-12.0-0.52","2d_cat_multi_stim_exp1","2022-4-13","10:22:35","25","75","3","9","10","40","30","120","33","23","[""Black or African-American""]","No","Male","1541531","null","null","","","","fixation","","","","","","","","","","","","","","","","","","","","","","","","","",""
"","","","","","canvas-keyboard-response","273","200152","0.0-12.0-1.52","2d_cat_multi_stim_exp1","2022-4-13","10:22:35","25","75","3","9","10","40","30","120","33","23","[""Black or African-American""]","No","Male","1541531","null","null","","","","clear_screen","","","","","","","","","","","","","","","","","","","","","","","","","",""
"","","","","","canvas-keyboard-response","274","200891","0.0-12.0-2.52","2d_cat_multi_stim_exp1","2022-4-13","10:22:35","25","75","3","9","10","40","30","120","33","23","[""Black or African-American""]","No","Male","1541531","727","i","learn","","","learn_trial","20","110","out","0","1","","","","","","","","","","","","","","","","","","","","",""
"","","","","","canvas-keyboard-response","275","201405","0.0-12.0-3.52","2d_cat_multi_stim_exp1","2022-4-13","10:22:35","25","75","3","9","10","40","30","120","33","23","[""Black or African-American""]","No","Male","1541531","null","null","learn_feedback","","","learn_feedback","20","110","out","","","","","","","","","","","","","","","","","","","","","","",""
"","","","","","canvas-keyboard-response","276","201468","0.0-12.0-4.52","2d_cat_multi_stim_exp1","2022-4-13","10:22:35","25","75","3","9","10","40","30","120","33","23","[""Black or African-American""]","No","Male","1541531","null","null","","","","clear_screen","","","","","","","","","","","","","","","","","","","","","","","","","",""
"","","","","","canvas-keyboard-response","277","201978","0.0-12.0-0.53","2d_cat_multi_stim_exp1","2022-4-13","10:22:35","25","75","3","9","10","40","30","120","33","23","[""Black or African-American""]","No","Male","1541531","null","null","","","","fixation","","","","","","","","","","","","","","","","","","","","","","","","","",""
"","","","","","canvas-keyboard-response","278","202491","0.0-12.0-1.53","2d_cat_multi_stim_exp1","2022-4-13","10:22:35","25","75","3","9","10","40","30","120","33","23","[""Black or African-American""]","No","Male","1541531","null","null","","","","clear_screen","","","","","","","","","","","","","","","","","","","","","","","","","",""
"","","","","","canvas-keyboard-response","279","203123","0.0-12.0-2.53","2d_cat_multi_stim_exp1","2022-4-13","10:22:35","25","75","3","9","10","40","30","120","33","23","[""Black or African-American""]","No","Male","1541531","622","i","learn","","","learn_trial","16.6667","120","out","0","1","","","","","","","","","","","","","","","","","","","","",""
"","","","","","canvas-keyboard-response","280","203633","0.0-12.0-3.53","2d_cat_multi_stim_exp1","2022-4-13","10:22:35","25","75","3","9","10","40","30","120","33","23","[""Black or African-American""]","No","Male","1541531","null","null","learn_feedback","","","learn_feedback","16.6667","120","out","","","","","","","","","","","","","","","","","","","","","","",""
"","","","","","canvas-keyboard-response","281","203694","0.0-12.0-4.53","2d_cat_multi_stim_exp1","2022-4-13","10:22:35","25","75","3","9","10","40","30","120","33","23","[""Black or African-American""]","No","Male","1541531","null","null","","","","clear_screen","","","","","","","","","","","","","","","","","","","","","","","","","",""
