"success","timeout","failed_images","failed_audio","failed_video","trial_type","trial_index","time_elapsed","internal_node_id","exp_name","date","time","angle_mean_in","radius_mean_in","angle_sd_in","radius_sd_in","angle_min_out","angle_max_out","radius_min_out","radius_max_out","sub_n","age","race","ethnicity","gender","exp_duration","rt","response","exp_trial_type","stimulus","view_history","screen_id","angle","radius","distribution","correct","choice","order","angle_a","radius_a","angle_b","radius_b","angle_c","radius_c","jkl_correct","transfer_trial_type","choice_set","abc_correct","tc_correct","tc_angle","tdc_a","tdc_b","tdc_c","pair","category_a","category_b","category_c","question_order"
"true","false","[]","[]","[]","preload","0","76","0.0-0.0","2d_cat_multi_stim_exp1","2022-4-15","14:6:12","25","75","3","9","10","40","30","120","41","19","[""Asian"",""White""]","No","Female","2015765","","","","","","","","","","","","","","","","","","","","","","","","","","","","","","","",""
"","","","","","survey-html-form","1","2565","0.0-1.0","2d_cat_multi_stim_exp1","2022-4-15","14:6:12","25","75","3","9","10","40","30","120","41","19","[""Asian"",""White""]","No","Female","2015765","2455","{""response"":""41""}","enter-sub-number","","","","","","","","","","","","","","","","","","","","","","","","","","","","",""
"true","","","","","fullscreen","2","5286","0.0-2.0","2d_cat_multi_stim_exp1","2022-4-15","14:6:12","25","75","3","9","10","40","30","120","41","19","[""Asian"",""White""]","No","Female","2015765","","","","","","","","","","","","","","","","","","","","","","","","","","","","","","","",""
"","","","","","image-button-response","3","67487","0.0-3.0","2d_cat_multi_stim_exp1","2022-4-15","14:6:12","25","75","3","9","10","40","30","120","41","19","[""Asian"",""White""]","No","Female","2015765","62195","0","","consent.png","","","","","","","","","","","","","","","","","","","","","","","","","","","",""
"","","","","","html-button-response","4","72215","0.0-4.0","2d_cat_multi_stim_exp1","2022-4-15","14:6:12","25","75","3","9","10","40","30","120","41","19","[""Asian"",""White""]","No","Female","2015765","4723","0","","<div style= ""font-size:25px;"" <p> <strong> Welcome to the experiment! </strong><br> <p style=""color:#8B0000; font-size:25px;""><strong> Please do NOT exit full screen until you are done with the experiment. </strong> </p><p style=""font-size:25px;color:#8B0000;""> <strong> The experiment will be canceled and your data will be lost <br> if you try to go back or refresh the page at any point during the experiment.</strong> </p><br><p> <strong> Thanks in advance for your contribution to our research! </strong></p>","","","","","","","","","","","","","","","","","","","","","","","","","","","",""
"","","","","","instructions","5","110053","0.0-5.0","2d_cat_multi_stim_exp1","2022-4-15","14:6:12","25","75","3","9","10","40","30","120","41","19","[""Asian"",""White""]","No","Female","2015765","37833","","","","[{""page_index"":0,""viewing_time"":12473},{""page_index"":1,""viewing_time"":1936},{""page_index"":2,""viewing_time"":12248},{""page_index"":3,""viewing_time"":11175}]","instructions_1","","","","","","","","","","","","","","","","","","","","","","","","","",""
"","","","","","instructions","6","112309","0.0-6.0","2d_cat_multi_stim_exp1","2022-4-15","14:6:12","25","75","3","9","10","40","30","120","41","19","[""Asian"",""White""]","No","Female","2015765","2253","","","","[{""page_index"":0,""viewing_time"":2252}]","Click to see the kinds of turtles that will appear in the study.","","","","","","","","","","","","","","","","","","","","","","","","","",""
"","","","","","canvas-keyboard-response","7","127333","0.0-7.0","2d_cat_multi_stim_exp1","2022-4-15","14:6:12","25","75","3","9","10","40","30","120","41","19","[""Asian"",""White""]","No","Female","2015765","null","null","","","","demo_range","","","","","","","","","","","","","","","","","","","","","","","","","",""
"","","","","","instructions","8","129445","0.0-8.0","2d_cat_multi_stim_exp1","2022-4-15","14:6:12","25","75","3","9","10","40","30","120","41","19","[""Asian"",""White""]","No","Female","2015765","1611","","","","[{""page_index"":0,""viewing_time"":1610}]","Click to see some turtles in the subspecies.","","","","","","","","","","","","","","","","","","","","","","","","","",""
"","","","","","canvas-keyboard-response","9","144464","0.0-9.0","2d_cat_multi_stim_exp1","2022-4-15","14:6:12","25","75","3","9","10","40","30","120","41","19","[""Asian"",""White""]","No","Female","2015765","null","null","","","","demo_in","","","","","","","","","","","","","","","","","","","","","","","","","",""
"","","","","","instructions","10","164645","0.0-10.0","2d_cat_multi_stim_exp1","2022-4-15","14:6:12","25","75","3","9","10","40","30","120","41","19","[""Asian"",""White""]","No","Female","2015765","19679","","","","[{""page_index"":0,""viewing_time"":2822},{""page_index"":1,""viewing_time"":10376},{""page_index"":2,""viewing_time"":6480}]","instructions_2","","","","","","","","","","","","","","","","","","","","","","","","","",""
"","","","","","instructions","11","166260","0.0-11.0","2d_cat_multi_stim_exp1","2022-4-15","14:6:12","25","75","3","9","10","40","30","120","41","19","[""Asian"",""White""]","No","Female","2015765","1614","","","","[{""page_index"":0,""viewing_time"":1614}]","Click to begin the first phase of the experiment.","","","","","","","","","","","","","","","","","","","","","","","","","",""
"","","","","","canvas-keyboard-response","12","166772","0.0-12.0-0.0","2d_cat_multi_stim_exp1","2022-4-15","14:6:12","25","75","3","9","10","40","30","120","41","19","[""Asian"",""White""]","No","Female","2015765","null","null","","","","fixation","","","","","","","","","","","","","","","","","","","","","","","","","",""
"","","","","","canvas-keyboard-response","13","167282","0.0-12.0-1.0","2d_cat_multi_stim_exp1","2022-4-15","14:6:12","25","75","3","9","10","40","30","120","41","19","[""Asian"",""White""]","No","Female","2015765","null","null","","","","clear_screen","","","","","","","","","","","","","","","","","","","","","","","","","",""
"","","","","","canvas-keyboard-response","14","171196","0.0-12.0-2.0","2d_cat_multi_stim_exp1","2022-4-15","14:6:12","25","75","3","9","10","40","30","120","41","19","[""Asian"",""White""]","No","Female","2015765","3903","i","learn","","","learn_trial","25","75","in","0","0","","","","","","","","","","","","","","","","","","","","",""
"","","","","","canvas-keyboard-response","15","172211","0.0-12.0-3.0","2d_cat_multi_stim_exp1","2022-4-15","14:6:12","25","75","3","9","10","40","30","120","41","19","[""Asian"",""White""]","No","Female","2015765","null","null","learn_feedback","","","learn_feedback","25","75","in","","","","","","","","","","","","","","","","","","","","","","",""
"","","","","","canvas-keyboard-response","16","172271","0.0-12.0-4.0","2d_cat_multi_stim_exp1","2022-4-15","14:6:12","25","75","3","9","10","40","30","120","41","19","[""Asian"",""White""]","No","Female","2015765","null","null","","","","clear_screen","","","","","","","","","","","","","","","","","","","","","","","","","",""
"","","","","","canvas-keyboard-response","17","172780","0.0-12.0-0.1","2d_cat_multi_stim_exp1","2022-4-15","14:6:12","25","75","3","9","10","40","30","120","41","19","[""Asian"",""White""]","No","Female","2015765","null","null","","","","fixation","","","","","","","","","","","","","","","","","","","","","","","","","",""
"","","","","","canvas-keyboard-response","18","173289","0.0-12.0-1.1","2d_cat_multi_stim_exp1","2022-4-15","14:6:12","25","75","3","9","10","40","30","120","41","19","[""Asian"",""White""]","No","Female","2015765","null","null","","","","clear_screen","","","","","","","","","","","","","","","","","","","","","","","","","",""
"","","","","","canvas-keyboard-response","19","175867","0.0-12.0-2.1","2d_cat_multi_stim_exp1","2022-4-15","14:6:12","25","75","3","9","10","40","30","120","41","19","[""Asian"",""White""]","No","Female","2015765","2567","u","learn","","","learn_trial","23.8209","66.7243","in","1","1","","","","","","","","","","","","","","","","","","","","",""
"","","","","","canvas-keyboard-response","20","176378","0.0-12.0-3.1","2d_cat_multi_stim_exp1","2022-4-15","14:6:12","25","75","3","9","10","40","30","120","41","19","[""Asian"",""White""]","No","Female","2015765","null","null","learn_feedback","","","learn_feedback","23.8209","66.7243","in","","","","","","","","","","","","","","","","","","","","","","",""
"","","","","","canvas-keyboard-response","21","176437","0.0-12.0-4.1","2d_cat_multi_stim_exp1","2022-4-15","14:6:12","25","75","3","9","10","40","30","120","41","19","[""Asian"",""White""]","No","Female","2015765","null","null","","","","clear_screen","","","","","","","","","","","","","","","","","","","","","","","","","",""
"","","","","","canvas-keyboard-response","22","176946","0.0-12.0-0.2","2d_cat_multi_stim_exp1","2022-4-15","14:6:12","25","75","3","9","10","40","30","120","41","19","[""Asian"",""White""]","No","Female","2015765","null","null","","","","fixation","","","","","","","","","","","","","","","","","","","","","","","","","",""
"","","","","","canvas-keyboard-response","23","177456","0.0-12.0-1.2","2d_cat_multi_stim_exp1","2022-4-15","14:6:12","25","75","3","9","10","40","30","120","41","19","[""Asian"",""White""]","No","Female","2015765","null","null","","","","clear_screen","","","","","","","","","","","","","","","","","","","","","","","","","",""
"","","","","","canvas-keyboard-response","24","179202","0.0-12.0-2.2","2d_cat_multi_stim_exp1","2022-4-15","14:6:12","25","75","3","9","10","40","30","120","41","19","[""Asian"",""White""]","No","Female","2015765","1737","u","learn","","","learn_trial","27.8087","71.8376","in","1","1","","","","","","","","","","","","","","","","","","","","",""
"","","","","","canvas-keyboard-response","25","179712","0.0-12.0-3.2","2d_cat_multi_stim_exp1","2022-4-15","14:6:12","25","75","3","9","10","40","30","120","41","19","[""Asian"",""White""]","No","Female","2015765","null","null","learn_feedback","","","learn_feedback","27.8087","71.8376","in","","","","","","","","","","","","","","","","","","","","","","",""
"","","","","","canvas-keyboard-response","26","179771","0.0-12.0-4.2","2d_cat_multi_stim_exp1","2022-4-15","14:6:12","25","75","3","9","10","40","30","120","41","19","[""Asian"",""White""]","No","Female","2015765","null","null","","","","clear_screen","","","","","","","","","","","","","","","","","","","","","","","","","",""
"","","","","","canvas-keyboard-response","27","180282","0.0-12.0-0.3","2d_cat_multi_stim_exp1","2022-4-15","14:6:12","25","75","3","9","10","40","30","120","41","19","[""Asian"",""White""]","No","Female","2015765","null","null","","","","fixation","","","","","","","","","","","","","","","","","","","","","","","","","",""
"","","","","","canvas-keyboard-response","28","180791","0.0-12.0-1.3","2d_cat_multi_stim_exp1","2022-4-15","14:6:12","25","75","3","9","10","40","30","120","41","19","[""Asian"",""White""]","No","Female","2015765","null","null","","","","clear_screen","","","","","","","","","","","","","","","","","","","","","","","","","",""
"","","","","","canvas-keyboard-response","29","182170","0.0-12.0-2.3","2d_cat_multi_stim_exp1","2022-4-15","14:6:12","25","75","3","9","10","40","30","120","41","19","[""Asian"",""White""]","No","Female","2015765","1370","u","learn","","","learn_trial","27.5753","70.3839","in","1","1","","","","","","","","","","","","","","","","","","","","",""
"","","","","","canvas-keyboard-response","30","182681","0.0-12.0-3.3","2d_cat_multi_stim_exp1","2022-4-15","14:6:12","25","75","3","9","10","40","30","120","41","19","[""Asian"",""White""]","No","Female","2015765","null","null","learn_feedback","","","learn_feedback","27.5753","70.3839","in","","","","","","","","","","","","","","","","","","","","","","",""
"","","","","","canvas-keyboard-response","31","182742","0.0-12.0-4.3","2d_cat_multi_stim_exp1","2022-4-15","14:6:12","25","75","3","9","10","40","30","120","41","19","[""Asian"",""White""]","No","Female","2015765","null","null","","","","clear_screen","","","","","","","","","","","","","","","","","","","","","","","","","",""
"","","","","","canvas-keyboard-response","32","183253","0.0-12.0-0.4","2d_cat_multi_stim_exp1","2022-4-15","14:6:12","25","75","3","9","10","40","30","120","41","19","[""Asian"",""White""]","No","Female","2015765","null","null","","","","fixation","","","","","","","","","","","","","","","","","","","","","","","","","",""
"","","","","","canvas-keyboard-response","33","183765","0.0-12.0-1.4","2d_cat_multi_stim_exp1","2022-4-15","14:6:12","25","75","3","9","10","40","30","120","41","19","[""Asian"",""White""]","No","Female","2015765","null","null","","","","clear_screen","","","","","","","","","","","","","","","","","","","","","","","","","",""
"","","","","","canvas-keyboard-response","34","184923","0.0-12.0-2.4","2d_cat_multi_stim_exp1","2022-4-15","14:6:12","25","75","3","9","10","40","30","120","41","19","[""Asian"",""White""]","No","Female","2015765","1147","u","learn","","","learn_trial","27.9518","76.607","in","1","1","","","","","","","","","","","","","","","","","","","","",""
"","","","","","canvas-keyboard-response","35","185431","0.0-12.0-3.4","2d_cat_multi_stim_exp1","2022-4-15","14:6:12","25","75","3","9","10","40","30","120","41","19","[""Asian"",""White""]","No","Female","2015765","null","null","learn_feedback","","","learn_feedback","27.9518","76.607","in","","","","","","","","","","","","","","","","","","","","","","",""
"","","","","","canvas-keyboard-response","36","185492","0.0-12.0-4.4","2d_cat_multi_stim_exp1","2022-4-15","14:6:12","25","75","3","9","10","40","30","120","41","19","[""Asian"",""White""]","No","Female","2015765","null","null","","","","clear_screen","","","","","","","","","","","","","","","","","","","","","","","","","",""
"","","","","","canvas-keyboard-response","37","186001","0.0-12.0-0.5","2d_cat_multi_stim_exp1","2022-4-15","14:6:12","25","75","3","9","10","40","30","120","41","19","[""Asian"",""White""]","No","Female","2015765","null","null","","","","fixation","","","","","","","","","","","","","","","","","","","","","","","","","",""
"","","","","","canvas-keyboard-response","38","186511","0.0-12.0-1.5","2d_cat_multi_stim_exp1","2022-4-15","14:6:12","25","75","3","9","10","40","30","120","41","19","[""Asian"",""White""]","No","Female","2015765","null","null","","","","clear_screen","","","","","","","","","","","","","","","","","","","","","","","","","",""
"","","","","","canvas-keyboard-response","39","188547","0.0-12.0-2.5","2d_cat_multi_stim_exp1","2022-4-15","14:6:12","25","75","3","9","10","40","30","120","41","19","[""Asian"",""White""]","No","Female","2015765","2026","i","learn","","","learn_trial","30","30","out","1","0","","","","","","","","","","","","","","","","","","","","",""
"","","","","","canvas-keyboard-response","40","189060","0.0-12.0-3.5","2d_cat_multi_stim_exp1","2022-4-15","14:6:12","25","75","3","9","10","40","30","120","41","19","[""Asian"",""White""]","No","Female","2015765","null","null","learn_feedback","","","learn_feedback","30","30","out","","","","","","","","","","","","","","","","","","","","","","",""
"","","","","","canvas-keyboard-response","41","189120","0.0-12.0-4.5","2d_cat_multi_stim_exp1","2022-4-15","14:6:12","25","75","3","9","10","40","30","120","41","19","[""Asian"",""White""]","No","Female","2015765","null","null","","","","clear_screen","","","","","","","","","","","","","","","","","","","","","","","","","",""
"","","","","","canvas-keyboard-response","42","189629","0.0-12.0-0.6","2d_cat_multi_stim_exp1","2022-4-15","14:6:12","25","75","3","9","10","40","30","120","41","19","[""Asian"",""White""]","No","Female","2015765","null","null","","","","fixation","","","","","","","","","","","","","","","","","","","","","","","","","",""
"","","","","","canvas-keyboard-response","43","190140","0.0-12.0-1.6","2d_cat_multi_stim_exp1","2022-4-15","14:6:12","25","75","3","9","10","40","30","120","41","19","[""Asian"",""White""]","No","Female","2015765","null","null","","","","clear_screen","","","","","","","","","","","","","","","","","","","","","","","","","",""
"","","","","","canvas-keyboard-response","44","191538","0.0-12.0-2.6","2d_cat_multi_stim_exp1","2022-4-15","14:6:12","25","75","3","9","10","40","30","120","41","19","[""Asian"",""White""]","No","Female","2015765","1389","u","learn","","","learn_trial","25","75","in","1","1","","","","","","","","","","","","","","","","","","","","",""
"","","","","","canvas-keyboard-response","45","192048","0.0-12.0-3.6","2d_cat_multi_stim_exp1","2022-4-15","14:6:12","25","75","3","9","10","40","30","120","41","19","[""Asian"",""White""]","No","Female","2015765","null","null","learn_feedback","","","learn_feedback","25","75","in","","","","","","","","","","","","","","","","","","","","","","",""
"","","","","","canvas-keyboard-response","46","192110","0.0-12.0-4.6","2d_cat_multi_stim_exp1","2022-4-15","14:6:12","25","75","3","9","10","40","30","120","41","19","[""Asian"",""White""]","No","Female","2015765","null","null","","","","clear_screen","","","","","","","","","","","","","","","","","","","","","","","","","",""
"","","","","","canvas-keyboard-response","47","192617","0.0-12.0-0.7","2d_cat_multi_stim_exp1","2022-4-15","14:6:12","25","75","3","9","10","40","30","120","41","19","[""Asian"",""White""]","No","Female","2015765","null","null","","","","fixation","","","","","","","","","","","","","","","","","","","","","","","","","",""
"","","","","","canvas-keyboard-response","48","193126","0.0-12.0-1.7","2d_cat_multi_stim_exp1","2022-4-15","14:6:12","25","75","3","9","10","40","30","120","41","19","[""Asian"",""White""]","No","Female","2015765","null","null","","","","clear_screen","","","","","","","","","","","","","","","","","","","","","","","","","",""
"","","","","","canvas-keyboard-response","49","195595","0.0-12.0-2.7","2d_cat_multi_stim_exp1","2022-4-15","14:6:12","25","75","3","9","10","40","30","120","41","19","[""Asian"",""White""]","No","Female","2015765","2460","i","learn","","","learn_trial","40","30","out","1","0","","","","","","","","","","","","","","","","","","","","",""
"","","","","","canvas-keyboard-response","50","196105","0.0-12.0-3.7","2d_cat_multi_stim_exp1","2022-4-15","14:6:12","25","75","3","9","10","40","30","120","41","19","[""Asian"",""White""]","No","Female","2015765","null","null","learn_feedback","","","learn_feedback","40","30","out","","","","","","","","","","","","","","","","","","","","","","",""
"","","","","","canvas-keyboard-response","51","196163","0.0-12.0-4.7","2d_cat_multi_stim_exp1","2022-4-15","14:6:12","25","75","3","9","10","40","30","120","41","19","[""Asian"",""White""]","No","Female","2015765","null","null","","","","clear_screen","","","","","","","","","","","","","","","","","","","","","","","","","",""
"","","","","","canvas-keyboard-response","52","196672","0.0-12.0-0.8","2d_cat_multi_stim_exp1","2022-4-15","14:6:12","25","75","3","9","10","40","30","120","41","19","[""Asian"",""White""]","No","Female","2015765","null","null","","","","fixation","","","","","","","","","","","","","","","","","","","","","","","","","",""
"","","","","","canvas-keyboard-response","53","197181","0.0-12.0-1.8","2d_cat_multi_stim_exp1","2022-4-15","14:6:12","25","75","3","9","10","40","30","120","41","19","[""Asian"",""White""]","No","Female","2015765","null","null","","","","clear_screen","","","","","","","","","","","","","","","","","","","","","","","","","",""
"","","","","","canvas-keyboard-response","54","198387","0.0-12.0-2.8","2d_cat_multi_stim_exp1","2022-4-15","14:6:12","25","75","3","9","10","40","30","120","41","19","[""Asian"",""White""]","No","Female","2015765","1196","u","learn","","","learn_trial","25","75","in","1","1","","","","","","","","","","","","","","","","","","","","",""
"","","","","","canvas-keyboard-response","55","198896","0.0-12.0-3.8","2d_cat_multi_stim_exp1","2022-4-15","14:6:12","25","75","3","9","10","40","30","120","41","19","[""Asian"",""White""]","No","Female","2015765","null","null","learn_feedback","","","learn_feedback","25","75","in","","","","","","","","","","","","","","","","","","","","","","",""
"","","","","","canvas-keyboard-response","56","198955","0.0-12.0-4.8","2d_cat_multi_stim_exp1","2022-4-15","14:6:12","25","75","3","9","10","40","30","120","41","19","[""Asian"",""White""]","No","Female","2015765","null","null","","","","clear_screen","","","","","","","","","","","","","","","","","","","","","","","","","",""
"","","","","","canvas-keyboard-response","57","199464","0.0-12.0-0.9","2d_cat_multi_stim_exp1","2022-4-15","14:6:12","25","75","3","9","10","40","30","120","41","19","[""Asian"",""White""]","No","Female","2015765","null","null","","","","fixation","","","","","","","","","","","","","","","","","","","","","","","","","",""
"","","","","","canvas-keyboard-response","58","199974","0.0-12.0-1.9","2d_cat_multi_stim_exp1","2022-4-15","14:6:12","25","75","3","9","10","40","30","120","41","19","[""Asian"",""White""]","No","Female","2015765","null","null","","","","clear_screen","","","","","","","","","","","","","","","","","","","","","","","","","",""
"","","","","","canvas-keyboard-response","59","201594","0.0-12.0-2.9","2d_cat_multi_stim_exp1","2022-4-15","14:6:12","25","75","3","9","10","40","30","120","41","19","[""Asian"",""White""]","No","Female","2015765","1610","u","learn","","","learn_trial","25.4027","83.9185","in","1","1","","","","","","","","","","","","","","","","","","","","",""
"","","","","","canvas-keyboard-response","60","202104","0.0-12.0-3.9","2d_cat_multi_stim_exp1","2022-4-15","14:6:12","25","75","3","9","10","40","30","120","41","19","[""Asian"",""White""]","No","Female","2015765","null","null","learn_feedback","","","learn_feedback","25.4027","83.9185","in","","","","","","","","","","","","","","","","","","","","","","",""
"","","","","","canvas-keyboard-response","61","202163","0.0-12.0-4.9","2d_cat_multi_stim_exp1","2022-4-15","14:6:12","25","75","3","9","10","40","30","120","41","19","[""Asian"",""White""]","No","Female","2015765","null","null","","","","clear_screen","","","","","","","","","","","","","","","","","","","","","","","","","",""
"","","","","","canvas-keyboard-response","62","202675","0.0-12.0-0.10","2d_cat_multi_stim_exp1","2022-4-15","14:6:12","25","75","3","9","10","40","30","120","41","19","[""Asian"",""White""]","No","Female","2015765","null","null","","","","fixation","","","","","","","","","","","","","","","","","","","","","","","","","",""
"","","","","","canvas-keyboard-response","63","203184","0.0-12.0-1.10","2d_cat_multi_stim_exp1","2022-4-15","14:6:12","25","75","3","9","10","40","30","120","41","19","[""Asian"",""White""]","No","Female","2015765","null","null","","","","clear_screen","","","","","","","","","","","","","","","","","","","","","","","","","",""
"","","","","","canvas-keyboard-response","64","204955","0.0-12.0-2.10","2d_cat_multi_stim_exp1","2022-4-15","14:6:12","25","75","3","9","10","40","30","120","41","19","[""Asian"",""White""]","No","Female","2015765","1762","u","learn","","","learn_trial","16.6667","50","out","0","1","","","","","","","","","","","","","","","","","","","","",""
"","","","","","canvas-keyboard-response","65","205966","0.0-12.0-3.10","2d_cat_multi_stim_exp1","2022-4-15","14:6:12","25","75","3","9","10","40","30","120","41","19","[""Asian"",""White""]","No","Female","2015765","null","null","learn_feedback","","","learn_feedback","16.6667","50","out","","","","","","","","","","","","","","","","","","","","","","",""
"","","","","","canvas-keyboard-response","66","206025","0.0-12.0-4.10","2d_cat_multi_stim_exp1","2022-4-15","14:6:12","25","75","3","9","10","40","30","120","41","19","[""Asian"",""White""]","No","Female","2015765","null","null","","","","clear_screen","","","","","","","","","","","","","","","","","","","","","","","","","",""
"","","","","","canvas-keyboard-response","67","206533","0.0-12.0-0.11","2d_cat_multi_stim_exp1","2022-4-15","14:6:12","25","75","3","9","10","40","30","120","41","19","[""Asian"",""White""]","No","Female","2015765","null","null","","","","fixation","","","","","","","","","","","","","","","","","","","","","","","","","",""
"","","","","","canvas-keyboard-response","68","207043","0.0-12.0-1.11","2d_cat_multi_stim_exp1","2022-4-15","14:6:12","25","75","3","9","10","40","30","120","41","19","[""Asian"",""White""]","No","Female","2015765","null","null","","","","clear_screen","","","","","","","","","","","","","","","","","","","","","","","","","",""
"","","","","","canvas-keyboard-response","69","208745","0.0-12.0-2.11","2d_cat_multi_stim_exp1","2022-4-15","14:6:12","25","75","3","9","10","40","30","120","41","19","[""Asian"",""White""]","No","Female","2015765","1693","i","learn","","","learn_trial","30","110","out","1","0","","","","","","","","","","","","","","","","","","","","",""
"","","","","","canvas-keyboard-response","70","209256","0.0-12.0-3.11","2d_cat_multi_stim_exp1","2022-4-15","14:6:12","25","75","3","9","10","40","30","120","41","19","[""Asian"",""White""]","No","Female","2015765","null","null","learn_feedback","","","learn_feedback","30","110","out","","","","","","","","","","","","","","","","","","","","","","",""
"","","","","","canvas-keyboard-response","71","209315","0.0-12.0-4.11","2d_cat_multi_stim_exp1","2022-4-15","14:6:12","25","75","3","9","10","40","30","120","41","19","[""Asian"",""White""]","No","Female","2015765","null","null","","","","clear_screen","","","","","","","","","","","","","","","","","","","","","","","","","",""
"","","","","","canvas-keyboard-response","72","209823","0.0-12.0-0.12","2d_cat_multi_stim_exp1","2022-4-15","14:6:12","25","75","3","9","10","40","30","120","41","19","[""Asian"",""White""]","No","Female","2015765","null","null","","","","fixation","","","","","","","","","","","","","","","","","","","","","","","","","",""
"","","","","","canvas-keyboard-response","73","210333","0.0-12.0-1.12","2d_cat_multi_stim_exp1","2022-4-15","14:6:12","25","75","3","9","10","40","30","120","41","19","[""Asian"",""White""]","No","Female","2015765","null","null","","","","clear_screen","","","","","","","","","","","","","","","","","","","","","","","","","",""
"","","","","","canvas-keyboard-response","74","211713","0.0-12.0-2.12","2d_cat_multi_stim_exp1","2022-4-15","14:6:12","25","75","3","9","10","40","30","120","41","19","[""Asian"",""White""]","No","Female","2015765","1372","u","learn","","","learn_trial","25","75","in","1","1","","","","","","","","","","","","","","","","","","","","",""
"","","","","","canvas-keyboard-response","75","212223","0.0-12.0-3.12","2d_cat_multi_stim_exp1","2022-4-15","14:6:12","25","75","3","9","10","40","30","120","41","19","[""Asian"",""White""]","No","Female","2015765","null","null","learn_feedback","","","learn_feedback","25","75","in","","","","","","","","","","","","","","","","","","","","","","",""
"","","","","","canvas-keyboard-response","76","212282","0.0-12.0-4.12","2d_cat_multi_stim_exp1","2022-4-15","14:6:12","25","75","3","9","10","40","30","120","41","19","[""Asian"",""White""]","No","Female","2015765","null","null","","","","clear_screen","","","","","","","","","","","","","","","","","","","","","","","","","",""
"","","","","","canvas-keyboard-response","77","212791","0.0-12.0-0.13","2d_cat_multi_stim_exp1","2022-4-15","14:6:12","25","75","3","9","10","40","30","120","41","19","[""Asian"",""White""]","No","Female","2015765","null","null","","","","fixation","","","","","","","","","","","","","","","","","","","","","","","","","",""
"","","","","","canvas-keyboard-response","78","213302","0.0-12.0-1.13","2d_cat_multi_stim_exp1","2022-4-15","14:6:12","25","75","3","9","10","40","30","120","41","19","[""Asian"",""White""]","No","Female","2015765","null","null","","","","clear_screen","","","","","","","","","","","","","","","","","","","","","","","","","",""
"","","","","","canvas-keyboard-response","79","214147","0.0-12.0-2.13","2d_cat_multi_stim_exp1","2022-4-15","14:6:12","25","75","3","9","10","40","30","120","41","19","[""Asian"",""White""]","No","Female","2015765","833","u","learn","","","learn_trial","20","90","out","0","1","","","","","","","","","","","","","","","","","","","","",""
"","","","","","canvas-keyboard-response","80","215157","0.0-12.0-3.13","2d_cat_multi_stim_exp1","2022-4-15","14:6:12","25","75","3","9","10","40","30","120","41","19","[""Asian"",""White""]","No","Female","2015765","null","null","learn_feedback","","","learn_feedback","20","90","out","","","","","","","","","","","","","","","","","","","","","","",""
"","","","","","canvas-keyboard-response","81","215218","0.0-12.0-4.13","2d_cat_multi_stim_exp1","2022-4-15","14:6:12","25","75","3","9","10","40","30","120","41","19","[""Asian"",""White""]","No","Female","2015765","null","null","","","","clear_screen","","","","","","","","","","","","","","","","","","","","","","","","","",""
"","","","","","canvas-keyboard-response","82","215729","0.0-12.0-0.14","2d_cat_multi_stim_exp1","2022-4-15","14:6:12","25","75","3","9","10","40","30","120","41","19","[""Asian"",""White""]","No","Female","2015765","null","null","","","","fixation","","","","","","","","","","","","","","","","","","","","","","","","","",""
"","","","","","canvas-keyboard-response","83","216238","0.0-12.0-1.14","2d_cat_multi_stim_exp1","2022-4-15","14:6:12","25","75","3","9","10","40","30","120","41","19","[""Asian"",""White""]","No","Female","2015765","null","null","","","","clear_screen","","","","","","","","","","","","","","","","","","","","","","","","","",""
"","","","","","canvas-keyboard-response","84","217754","0.0-12.0-2.14","2d_cat_multi_stim_exp1","2022-4-15","14:6:12","25","75","3","9","10","40","30","120","41","19","[""Asian"",""White""]","No","Female","2015765","1505","u","learn","","","learn_trial","25","75","in","1","1","","","","","","","","","","","","","","","","","","","","",""
"","","","","","canvas-keyboard-response","85","218265","0.0-12.0-3.14","2d_cat_multi_stim_exp1","2022-4-15","14:6:12","25","75","3","9","10","40","30","120","41","19","[""Asian"",""White""]","No","Female","2015765","null","null","learn_feedback","","","learn_feedback","25","75","in","","","","","","","","","","","","","","","","","","","","","","",""
"","","","","","canvas-keyboard-response","86","218325","0.0-12.0-4.14","2d_cat_multi_stim_exp1","2022-4-15","14:6:12","25","75","3","9","10","40","30","120","41","19","[""Asian"",""White""]","No","Female","2015765","null","null","","","","clear_screen","","","","","","","","","","","","","","","","","","","","","","","","","",""
"","","","","","canvas-keyboard-response","87","218835","0.0-12.0-0.15","2d_cat_multi_stim_exp1","2022-4-15","14:6:12","25","75","3","9","10","40","30","120","41","19","[""Asian"",""White""]","No","Female","2015765","null","null","","","","fixation","","","","","","","","","","","","","","","","","","","","","","","","","",""
"","","","","","canvas-keyboard-response","88","219345","0.0-12.0-1.15","2d_cat_multi_stim_exp1","2022-4-15","14:6:12","25","75","3","9","10","40","30","120","41","19","[""Asian"",""White""]","No","Female","2015765","null","null","","","","clear_screen","","","","","","","","","","","","","","","","","","","","","","","","","",""
"","","","","","canvas-keyboard-response","89","220370","0.0-12.0-2.15","2d_cat_multi_stim_exp1","2022-4-15","14:6:12","25","75","3","9","10","40","30","120","41","19","[""Asian"",""White""]","No","Female","2015765","1015","u","learn","","","learn_trial","22.9268","68.4948","in","1","1","","","","","","","","","","","","","","","","","","","","",""
"","","","","","canvas-keyboard-response","90","220881","0.0-12.0-3.15","2d_cat_multi_stim_exp1","2022-4-15","14:6:12","25","75","3","9","10","40","30","120","41","19","[""Asian"",""White""]","No","Female","2015765","null","null","learn_feedback","","","learn_feedback","22.9268","68.4948","in","","","","","","","","","","","","","","","","","","","","","","",""
"","","","","","canvas-keyboard-response","91","220940","0.0-12.0-4.15","2d_cat_multi_stim_exp1","2022-4-15","14:6:12","25","75","3","9","10","40","30","120","41","19","[""Asian"",""White""]","No","Female","2015765","null","null","","","","clear_screen","","","","","","","","","","","","","","","","","","","","","","","","","",""
"","","","","","canvas-keyboard-response","92","221449","0.0-12.0-0.16","2d_cat_multi_stim_exp1","2022-4-15","14:6:12","25","75","3","9","10","40","30","120","41","19","[""Asian"",""White""]","No","Female","2015765","null","null","","","","fixation","","","","","","","","","","","","","","","","","","","","","","","","","",""
"","","","","","canvas-keyboard-response","93","221958","0.0-12.0-1.16","2d_cat_multi_stim_exp1","2022-4-15","14:6:12","25","75","3","9","10","40","30","120","41","19","[""Asian"",""White""]","No","Female","2015765","null","null","","","","clear_screen","","","","","","","","","","","","","","","","","","","","","","","","","",""
"","","","","","canvas-keyboard-response","94","222906","0.0-12.0-2.16","2d_cat_multi_stim_exp1","2022-4-15","14:6:12","25","75","3","9","10","40","30","120","41","19","[""Asian"",""White""]","No","Female","2015765","934","u","learn","","","learn_trial","25","75","in","1","1","","","","","","","","","","","","","","","","","","","","",""
"","","","","","canvas-keyboard-response","95","223415","0.0-12.0-3.16","2d_cat_multi_stim_exp1","2022-4-15","14:6:12","25","75","3","9","10","40","30","120","41","19","[""Asian"",""White""]","No","Female","2015765","null","null","learn_feedback","","","learn_feedback","25","75","in","","","","","","","","","","","","","","","","","","","","","","",""
"","","","","","canvas-keyboard-response","96","223475","0.0-12.0-4.16","2d_cat_multi_stim_exp1","2022-4-15","14:6:12","25","75","3","9","10","40","30","120","41","19","[""Asian"",""White""]","No","Female","2015765","null","null","","","","clear_screen","","","","","","","","","","","","","","","","","","","","","","","","","",""
"","","","","","canvas-keyboard-response","97","223984","0.0-12.0-0.17","2d_cat_multi_stim_exp1","2022-4-15","14:6:12","25","75","3","9","10","40","30","120","41","19","[""Asian"",""White""]","No","Female","2015765","null","null","","","","fixation","","","","","","","","","","","","","","","","","","","","","","","","","",""
"","","","","","canvas-keyboard-response","98","224494","0.0-12.0-1.17","2d_cat_multi_stim_exp1","2022-4-15","14:6:12","25","75","3","9","10","40","30","120","41","19","[""Asian"",""White""]","No","Female","2015765","null","null","","","","clear_screen","","","","","","","","","","","","","","","","","","","","","","","","","",""
"","","","","","canvas-keyboard-response","99","225258","0.0-12.0-2.17","2d_cat_multi_stim_exp1","2022-4-15","14:6:12","25","75","3","9","10","40","30","120","41","19","[""Asian"",""White""]","No","Female","2015765","756","u","learn","","","learn_trial","25","75","in","1","1","","","","","","","","","","","","","","","","","","","","",""
"","","","","","canvas-keyboard-response","100","225767","0.0-12.0-3.17","2d_cat_multi_stim_exp1","2022-4-15","14:6:12","25","75","3","9","10","40","30","120","41","19","[""Asian"",""White""]","No","Female","2015765","null","null","learn_feedback","","","learn_feedback","25","75","in","","","","","","","","","","","","","","","","","","","","","","",""
"","","","","","canvas-keyboard-response","101","225826","0.0-12.0-4.17","2d_cat_multi_stim_exp1","2022-4-15","14:6:12","25","75","3","9","10","40","30","120","41","19","[""Asian"",""White""]","No","Female","2015765","null","null","","","","clear_screen","","","","","","","","","","","","","","","","","","","","","","","","","",""
"","","","","","canvas-keyboard-response","102","226335","0.0-12.0-0.18","2d_cat_multi_stim_exp1","2022-4-15","14:6:12","25","75","3","9","10","40","30","120","41","19","[""Asian"",""White""]","No","Female","2015765","null","null","","","","fixation","","","","","","","","","","","","","","","","","","","","","","","","","",""
"","","","","","canvas-keyboard-response","103","226844","0.0-12.0-1.18","2d_cat_multi_stim_exp1","2022-4-15","14:6:12","25","75","3","9","10","40","30","120","41","19","[""Asian"",""White""]","No","Female","2015765","null","null","","","","clear_screen","","","","","","","","","","","","","","","","","","","","","","","","","",""
"","","","","","canvas-keyboard-response","104","227954","0.0-12.0-2.18","2d_cat_multi_stim_exp1","2022-4-15","14:6:12","25","75","3","9","10","40","30","120","41","19","[""Asian"",""White""]","No","Female","2015765","1100","i","learn","","","learn_trial","26.6667","110","out","1","0","","","","","","","","","","","","","","","","","","","","",""
"","","","","","canvas-keyboard-response","105","228465","0.0-12.0-3.18","2d_cat_multi_stim_exp1","2022-4-15","14:6:12","25","75","3","9","10","40","30","120","41","19","[""Asian"",""White""]","No","Female","2015765","null","null","learn_feedback","","","learn_feedback","26.6667","110","out","","","","","","","","","","","","","","","","","","","","","","",""
"","","","","","canvas-keyboard-response","106","228523","0.0-12.0-4.18","2d_cat_multi_stim_exp1","2022-4-15","14:6:12","25","75","3","9","10","40","30","120","41","19","[""Asian"",""White""]","No","Female","2015765","null","null","","","","clear_screen","","","","","","","","","","","","","","","","","","","","","","","","","",""
"","","","","","canvas-keyboard-response","107","229032","0.0-12.0-0.19","2d_cat_multi_stim_exp1","2022-4-15","14:6:12","25","75","3","9","10","40","30","120","41","19","[""Asian"",""White""]","No","Female","2015765","null","null","","","","fixation","","","","","","","","","","","","","","","","","","","","","","","","","",""
"","","","","","canvas-keyboard-response","108","229545","0.0-12.0-1.19","2d_cat_multi_stim_exp1","2022-4-15","14:6:12","25","75","3","9","10","40","30","120","41","19","[""Asian"",""White""]","No","Female","2015765","null","null","","","","clear_screen","","","","","","","","","","","","","","","","","","","","","","","","","",""
"","","","","","canvas-keyboard-response","109","230354","0.0-12.0-2.19","2d_cat_multi_stim_exp1","2022-4-15","14:6:12","25","75","3","9","10","40","30","120","41","19","[""Asian"",""White""]","No","Female","2015765","796","u","learn","","","learn_trial","25","75","in","1","1","","","","","","","","","","","","","","","","","","","","",""
"","","","","","canvas-keyboard-response","110","230864","0.0-12.0-3.19","2d_cat_multi_stim_exp1","2022-4-15","14:6:12","25","75","3","9","10","40","30","120","41","19","[""Asian"",""White""]","No","Female","2015765","null","null","learn_feedback","","","learn_feedback","25","75","in","","","","","","","","","","","","","","","","","","","","","","",""
"","","","","","canvas-keyboard-response","111","230923","0.0-12.0-4.19","2d_cat_multi_stim_exp1","2022-4-15","14:6:12","25","75","3","9","10","40","30","120","41","19","[""Asian"",""White""]","No","Female","2015765","null","null","","","","clear_screen","","","","","","","","","","","","","","","","","","","","","","","","","",""
"","","","","","canvas-keyboard-response","112","231432","0.0-12.0-0.20","2d_cat_multi_stim_exp1","2022-4-15","14:6:12","25","75","3","9","10","40","30","120","41","19","[""Asian"",""White""]","No","Female","2015765","null","null","","","","fixation","","","","","","","","","","","","","","","","","","","","","","","","","",""
"","","","","","canvas-keyboard-response","113","231942","0.0-12.0-1.20","2d_cat_multi_stim_exp1","2022-4-15","14:6:12","25","75","3","9","10","40","30","120","41","19","[""Asian"",""White""]","No","Female","2015765","null","null","","","","clear_screen","","","","","","","","","","","","","","","","","","","","","","","","","",""
"","","","","","canvas-keyboard-response","114","232778","0.0-12.0-2.20","2d_cat_multi_stim_exp1","2022-4-15","14:6:12","25","75","3","9","10","40","30","120","41","19","[""Asian"",""White""]","No","Female","2015765","827","u","learn","","","learn_trial","25","75","in","1","1","","","","","","","","","","","","","","","","","","","","",""
"","","","","","canvas-keyboard-response","115","233287","0.0-12.0-3.20","2d_cat_multi_stim_exp1","2022-4-15","14:6:12","25","75","3","9","10","40","30","120","41","19","[""Asian"",""White""]","No","Female","2015765","null","null","learn_feedback","","","learn_feedback","25","75","in","","","","","","","","","","","","","","","","","","","","","","",""
"","","","","","canvas-keyboard-response","116","233346","0.0-12.0-4.20","2d_cat_multi_stim_exp1","2022-4-15","14:6:12","25","75","3","9","10","40","30","120","41","19","[""Asian"",""White""]","No","Female","2015765","null","null","","","","clear_screen","","","","","","","","","","","","","","","","","","","","","","","","","",""
"","","","","","canvas-keyboard-response","117","233855","0.0-12.0-0.21","2d_cat_multi_stim_exp1","2022-4-15","14:6:12","25","75","3","9","10","40","30","120","41","19","[""Asian"",""White""]","No","Female","2015765","null","null","","","","fixation","","","","","","","","","","","","","","","","","","","","","","","","","",""
"","","","","","canvas-keyboard-response","118","234365","0.0-12.0-1.21","2d_cat_multi_stim_exp1","2022-4-15","14:6:12","25","75","3","9","10","40","30","120","41","19","[""Asian"",""White""]","No","Female","2015765","null","null","","","","clear_screen","","","","","","","","","","","","","","","","","","","","","","","","","",""
"","","","","","canvas-keyboard-response","119","235034","0.0-12.0-2.21","2d_cat_multi_stim_exp1","2022-4-15","14:6:12","25","75","3","9","10","40","30","120","41","19","[""Asian"",""White""]","No","Female","2015765","659","u","learn","","","learn_trial","22.2971","71.095","in","1","1","","","","","","","","","","","","","","","","","","","","",""
"","","","","","canvas-keyboard-response","120","235543","0.0-12.0-3.21","2d_cat_multi_stim_exp1","2022-4-15","14:6:12","25","75","3","9","10","40","30","120","41","19","[""Asian"",""White""]","No","Female","2015765","null","null","learn_feedback","","","learn_feedback","22.2971","71.095","in","","","","","","","","","","","","","","","","","","","","","","",""
"","","","","","canvas-keyboard-response","121","235603","0.0-12.0-4.21","2d_cat_multi_stim_exp1","2022-4-15","14:6:12","25","75","3","9","10","40","30","120","41","19","[""Asian"",""White""]","No","Female","2015765","null","null","","","","clear_screen","","","","","","","","","","","","","","","","","","","","","","","","","",""
"","","","","","canvas-keyboard-response","122","236112","0.0-12.0-0.22","2d_cat_multi_stim_exp1","2022-4-15","14:6:12","25","75","3","9","10","40","30","120","41","19","[""Asian"",""White""]","No","Female","2015765","null","null","","","","fixation","","","","","","","","","","","","","","","","","","","","","","","","","",""
"","","","","","canvas-keyboard-response","123","236621","0.0-12.0-1.22","2d_cat_multi_stim_exp1","2022-4-15","14:6:12","25","75","3","9","10","40","30","120","41","19","[""Asian"",""White""]","No","Female","2015765","null","null","","","","clear_screen","","","","","","","","","","","","","","","","","","","","","","","","","",""
"","","","","","canvas-keyboard-response","124","238586","0.0-12.0-2.22","2d_cat_multi_stim_exp1","2022-4-15","14:6:12","25","75","3","9","10","40","30","120","41","19","[""Asian"",""White""]","No","Female","2015765","1957","i","learn","","","learn_trial","30","90","out","1","0","","","","","","","","","","","","","","","","","","","","",""
"","","","","","canvas-keyboard-response","125","239097","0.0-12.0-3.22","2d_cat_multi_stim_exp1","2022-4-15","14:6:12","25","75","3","9","10","40","30","120","41","19","[""Asian"",""White""]","No","Female","2015765","null","null","learn_feedback","","","learn_feedback","30","90","out","","","","","","","","","","","","","","","","","","","","","","",""
"","","","","","canvas-keyboard-response","126","239156","0.0-12.0-4.22","2d_cat_multi_stim_exp1","2022-4-15","14:6:12","25","75","3","9","10","40","30","120","41","19","[""Asian"",""White""]","No","Female","2015765","null","null","","","","clear_screen","","","","","","","","","","","","","","","","","","","","","","","","","",""
"","","","","","canvas-keyboard-response","127","239665","0.0-12.0-0.23","2d_cat_multi_stim_exp1","2022-4-15","14:6:12","25","75","3","9","10","40","30","120","41","19","[""Asian"",""White""]","No","Female","2015765","null","null","","","","fixation","","","","","","","","","","","","","","","","","","","","","","","","","",""
"","","","","","canvas-keyboard-response","128","240174","0.0-12.0-1.23","2d_cat_multi_stim_exp1","2022-4-15","14:6:12","25","75","3","9","10","40","30","120","41","19","[""Asian"",""White""]","No","Female","2015765","null","null","","","","clear_screen","","","","","","","","","","","","","","","","","","","","","","","","","",""
"","","","","","canvas-keyboard-response","129","241530","0.0-12.0-2.23","2d_cat_multi_stim_exp1","2022-4-15","14:6:12","25","75","3","9","10","40","30","120","41","19","[""Asian"",""White""]","No","Female","2015765","1347","u","learn","","","learn_trial","25","75","in","1","1","","","","","","","","","","","","","","","","","","","","",""
"","","","","","canvas-keyboard-response","130","242041","0.0-12.0-3.23","2d_cat_multi_stim_exp1","2022-4-15","14:6:12","25","75","3","9","10","40","30","120","41","19","[""Asian"",""White""]","No","Female","2015765","null","null","learn_feedback","","","learn_feedback","25","75","in","","","","","","","","","","","","","","","","","","","","","","",""
"","","","","","canvas-keyboard-response","131","242099","0.0-12.0-4.23","2d_cat_multi_stim_exp1","2022-4-15","14:6:12","25","75","3","9","10","40","30","120","41","19","[""Asian"",""White""]","No","Female","2015765","null","null","","","","clear_screen","","","","","","","","","","","","","","","","","","","","","","","","","",""
"","","","","","canvas-keyboard-response","132","242608","0.0-12.0-0.24","2d_cat_multi_stim_exp1","2022-4-15","14:6:12","25","75","3","9","10","40","30","120","41","19","[""Asian"",""White""]","No","Female","2015765","null","null","","","","fixation","","","","","","","","","","","","","","","","","","","","","","","","","",""
"","","","","","canvas-keyboard-response","133","243118","0.0-12.0-1.24","2d_cat_multi_stim_exp1","2022-4-15","14:6:12","25","75","3","9","10","40","30","120","41","19","[""Asian"",""White""]","No","Female","2015765","null","null","","","","clear_screen","","","","","","","","","","","","","","","","","","","","","","","","","",""
"","","","","","canvas-keyboard-response","134","243801","0.0-12.0-2.24","2d_cat_multi_stim_exp1","2022-4-15","14:6:12","25","75","3","9","10","40","30","120","41","19","[""Asian"",""White""]","No","Female","2015765","675","u","learn","","","learn_trial","25","75","in","1","1","","","","","","","","","","","","","","","","","","","","",""
"","","","","","canvas-keyboard-response","135","244313","0.0-12.0-3.24","2d_cat_multi_stim_exp1","2022-4-15","14:6:12","25","75","3","9","10","40","30","120","41","19","[""Asian"",""White""]","No","Female","2015765","null","null","learn_feedback","","","learn_feedback","25","75","in","","","","","","","","","","","","","","","","","","","","","","",""
"","","","","","canvas-keyboard-response","136","244374","0.0-12.0-4.24","2d_cat_multi_stim_exp1","2022-4-15","14:6:12","25","75","3","9","10","40","30","120","41","19","[""Asian"",""White""]","No","Female","2015765","null","null","","","","clear_screen","","","","","","","","","","","","","","","","","","","","","","","","","",""
"","","","","","canvas-keyboard-response","137","244886","0.0-12.0-0.25","2d_cat_multi_stim_exp1","2022-4-15","14:6:12","25","75","3","9","10","40","30","120","41","19","[""Asian"",""White""]","No","Female","2015765","null","null","","","","fixation","","","","","","","","","","","","","","","","","","","","","","","","","",""
"","","","","","canvas-keyboard-response","138","245397","0.0-12.0-1.25","2d_cat_multi_stim_exp1","2022-4-15","14:6:12","25","75","3","9","10","40","30","120","41","19","[""Asian"",""White""]","No","Female","2015765","null","null","","","","clear_screen","","","","","","","","","","","","","","","","","","","","","","","","","",""
"","","","","","canvas-keyboard-response","139","246315","0.0-12.0-2.25","2d_cat_multi_stim_exp1","2022-4-15","14:6:12","25","75","3","9","10","40","30","120","41","19","[""Asian"",""White""]","No","Female","2015765","905","u","learn","","","learn_trial","25","75","in","1","1","","","","","","","","","","","","","","","","","","","","",""
"","","","","","canvas-keyboard-response","140","246824","0.0-12.0-3.25","2d_cat_multi_stim_exp1","2022-4-15","14:6:12","25","75","3","9","10","40","30","120","41","19","[""Asian"",""White""]","No","Female","2015765","null","null","learn_feedback","","","learn_feedback","25","75","in","","","","","","","","","","","","","","","","","","","","","","",""
"","","","","","canvas-keyboard-response","141","246884","0.0-12.0-4.25","2d_cat_multi_stim_exp1","2022-4-15","14:6:12","25","75","3","9","10","40","30","120","41","19","[""Asian"",""White""]","No","Female","2015765","null","null","","","","clear_screen","","","","","","","","","","","","","","","","","","","","","","","","","",""
"","","","","","canvas-keyboard-response","142","247394","0.0-12.0-0.26","2d_cat_multi_stim_exp1","2022-4-15","14:6:12","25","75","3","9","10","40","30","120","41","19","[""Asian"",""White""]","No","Female","2015765","null","null","","","","fixation","","","","","","","","","","","","","","","","","","","","","","","","","",""
"","","","","","canvas-keyboard-response","143","247904","0.0-12.0-1.26","2d_cat_multi_stim_exp1","2022-4-15","14:6:12","25","75","3","9","10","40","30","120","41","19","[""Asian"",""White""]","No","Female","2015765","null","null","","","","clear_screen","","","","","","","","","","","","","","","","","","","","","","","","","",""
"","","","","","canvas-keyboard-response","144","248786","0.0-12.0-2.26","2d_cat_multi_stim_exp1","2022-4-15","14:6:12","25","75","3","9","10","40","30","120","41","19","[""Asian"",""White""]","No","Female","2015765","873","i","learn","","","learn_trial","16.6667","90","out","1","0","","","","","","","","","","","","","","","","","","","","",""
"","","","","","canvas-keyboard-response","145","249297","0.0-12.0-3.26","2d_cat_multi_stim_exp1","2022-4-15","14:6:12","25","75","3","9","10","40","30","120","41","19","[""Asian"",""White""]","No","Female","2015765","null","null","learn_feedback","","","learn_feedback","16.6667","90","out","","","","","","","","","","","","","","","","","","","","","","",""
"","","","","","canvas-keyboard-response","146","249356","0.0-12.0-4.26","2d_cat_multi_stim_exp1","2022-4-15","14:6:12","25","75","3","9","10","40","30","120","41","19","[""Asian"",""White""]","No","Female","2015765","null","null","","","","clear_screen","","","","","","","","","","","","","","","","","","","","","","","","","",""
"","","","","","canvas-keyboard-response","147","249866","0.0-12.0-0.27","2d_cat_multi_stim_exp1","2022-4-15","14:6:12","25","75","3","9","10","40","30","120","41","19","[""Asian"",""White""]","No","Female","2015765","null","null","","","","fixation","","","","","","","","","","","","","","","","","","","","","","","","","",""
"","","","","","canvas-keyboard-response","148","250376","0.0-12.0-1.27","2d_cat_multi_stim_exp1","2022-4-15","14:6:12","25","75","3","9","10","40","30","120","41","19","[""Asian"",""White""]","No","Female","2015765","null","null","","","","clear_screen","","","","","","","","","","","","","","","","","","","","","","","","","",""
"","","","","","canvas-keyboard-response","149","252042","0.0-12.0-2.27","2d_cat_multi_stim_exp1","2022-4-15","14:6:12","25","75","3","9","10","40","30","120","41","19","[""Asian"",""White""]","No","Female","2015765","1657","i","learn","","","learn_trial","13.3333","40","out","1","0","","","","","","","","","","","","","","","","","","","","",""
"","","","","","canvas-keyboard-response","150","252553","0.0-12.0-3.27","2d_cat_multi_stim_exp1","2022-4-15","14:6:12","25","75","3","9","10","40","30","120","41","19","[""Asian"",""White""]","No","Female","2015765","null","null","learn_feedback","","","learn_feedback","13.3333","40","out","","","","","","","","","","","","","","","","","","","","","","",""
"","","","","","canvas-keyboard-response","151","252612","0.0-12.0-4.27","2d_cat_multi_stim_exp1","2022-4-15","14:6:12","25","75","3","9","10","40","30","120","41","19","[""Asian"",""White""]","No","Female","2015765","null","null","","","","clear_screen","","","","","","","","","","","","","","","","","","","","","","","","","",""
"","","","","","canvas-keyboard-response","152","253121","0.0-12.0-0.28","2d_cat_multi_stim_exp1","2022-4-15","14:6:12","25","75","3","9","10","40","30","120","41","19","[""Asian"",""White""]","No","Female","2015765","null","null","","","","fixation","","","","","","","","","","","","","","","","","","","","","","","","","",""
"","","","","","canvas-keyboard-response","153","253631","0.0-12.0-1.28","2d_cat_multi_stim_exp1","2022-4-15","14:6:12","25","75","3","9","10","40","30","120","41","19","[""Asian"",""White""]","No","Female","2015765","null","null","","","","clear_screen","","","","","","","","","","","","","","","","","","","","","","","","","",""
"","","","","","canvas-keyboard-response","154","255130","0.0-12.0-2.28","2d_cat_multi_stim_exp1","2022-4-15","14:6:12","25","75","3","9","10","40","30","120","41","19","[""Asian"",""White""]","No","Female","2015765","1489","i","learn","","","learn_trial","24.3324","83.7744","in","0","0","","","","","","","","","","","","","","","","","","","","",""
"","","","","","canvas-keyboard-response","155","256141","0.0-12.0-3.28","2d_cat_multi_stim_exp1","2022-4-15","14:6:12","25","75","3","9","10","40","30","120","41","19","[""Asian"",""White""]","No","Female","2015765","null","null","learn_feedback","","","learn_feedback","24.3324","83.7744","in","","","","","","","","","","","","","","","","","","","","","","",""
"","","","","","canvas-keyboard-response","156","256199","0.0-12.0-4.28","2d_cat_multi_stim_exp1","2022-4-15","14:6:12","25","75","3","9","10","40","30","120","41","19","[""Asian"",""White""]","No","Female","2015765","null","null","","","","clear_screen","","","","","","","","","","","","","","","","","","","","","","","","","",""
"","","","","","canvas-keyboard-response","157","256713","0.0-12.0-0.29","2d_cat_multi_stim_exp1","2022-4-15","14:6:12","25","75","3","9","10","40","30","120","41","19","[""Asian"",""White""]","No","Female","2015765","null","null","","","","fixation","","","","","","","","","","","","","","","","","","","","","","","","","",""
"","","","","","canvas-keyboard-response","158","257223","0.0-12.0-1.29","2d_cat_multi_stim_exp1","2022-4-15","14:6:12","25","75","3","9","10","40","30","120","41","19","[""Asian"",""White""]","No","Female","2015765","null","null","","","","clear_screen","","","","","","","","","","","","","","","","","","","","","","","","","",""
"","","","","","canvas-keyboard-response","159","258098","0.0-12.0-2.29","2d_cat_multi_stim_exp1","2022-4-15","14:6:12","25","75","3","9","10","40","30","120","41","19","[""Asian"",""White""]","No","Female","2015765","866","u","learn","","","learn_trial","25","75","in","1","1","","","","","","","","","","","","","","","","","","","","",""
"","","","","","canvas-keyboard-response","160","258607","0.0-12.0-3.29","2d_cat_multi_stim_exp1","2022-4-15","14:6:12","25","75","3","9","10","40","30","120","41","19","[""Asian"",""White""]","No","Female","2015765","null","null","learn_feedback","","","learn_feedback","25","75","in","","","","","","","","","","","","","","","","","","","","","","",""
"","","","","","canvas-keyboard-response","161","258666","0.0-12.0-4.29","2d_cat_multi_stim_exp1","2022-4-15","14:6:12","25","75","3","9","10","40","30","120","41","19","[""Asian"",""White""]","No","Female","2015765","null","null","","","","clear_screen","","","","","","","","","","","","","","","","","","","","","","","","","",""
"","","","","","canvas-keyboard-response","162","259175","0.0-12.0-0.30","2d_cat_multi_stim_exp1","2022-4-15","14:6:12","25","75","3","9","10","40","30","120","41","19","[""Asian"",""White""]","No","Female","2015765","null","null","","","","fixation","","","","","","","","","","","","","","","","","","","","","","","","","",""
"","","","","","canvas-keyboard-response","163","259686","0.0-12.0-1.30","2d_cat_multi_stim_exp1","2022-4-15","14:6:12","25","75","3","9","10","40","30","120","41","19","[""Asian"",""White""]","No","Female","2015765","null","null","","","","clear_screen","","","","","","","","","","","","","","","","","","","","","","","","","",""
"","","","","","canvas-keyboard-response","164","260241","0.0-12.0-2.30","2d_cat_multi_stim_exp1","2022-4-15","14:6:12","25","75","3","9","10","40","30","120","41","19","[""Asian"",""White""]","No","Female","2015765","547","u","learn","","","learn_trial","25","75","in","1","1","","","","","","","","","","","","","","","","","","","","",""
"","","","","","canvas-keyboard-response","165","260752","0.0-12.0-3.30","2d_cat_multi_stim_exp1","2022-4-15","14:6:12","25","75","3","9","10","40","30","120","41","19","[""Asian"",""White""]","No","Female","2015765","null","null","learn_feedback","","","learn_feedback","25","75","in","","","","","","","","","","","","","","","","","","","","","","",""
"","","","","","canvas-keyboard-response","166","260811","0.0-12.0-4.30","2d_cat_multi_stim_exp1","2022-4-15","14:6:12","25","75","3","9","10","40","30","120","41","19","[""Asian"",""White""]","No","Female","2015765","null","null","","","","clear_screen","","","","","","","","","","","","","","","","","","","","","","","","","",""
"","","","","","canvas-keyboard-response","167","261321","0.0-12.0-0.31","2d_cat_multi_stim_exp1","2022-4-15","14:6:12","25","75","3","9","10","40","30","120","41","19","[""Asian"",""White""]","No","Female","2015765","null","null","","","","fixation","","","","","","","","","","","","","","","","","","","","","","","","","",""
"","","","","","canvas-keyboard-response","168","261830","0.0-12.0-1.31","2d_cat_multi_stim_exp1","2022-4-15","14:6:12","25","75","3","9","10","40","30","120","41","19","[""Asian"",""White""]","No","Female","2015765","null","null","","","","clear_screen","","","","","","","","","","","","","","","","","","","","","","","","","",""
"","","","","","canvas-keyboard-response","169","262226","0.0-12.0-2.31","2d_cat_multi_stim_exp1","2022-4-15","14:6:12","25","75","3","9","10","40","30","120","41","19","[""Asian"",""White""]","No","Female","2015765","386","u","learn","","","learn_trial","25.9271","83.5595","in","1","1","","","","","","","","","","","","","","","","","","","","",""
"","","","","","canvas-keyboard-response","170","262736","0.0-12.0-3.31","2d_cat_multi_stim_exp1","2022-4-15","14:6:12","25","75","3","9","10","40","30","120","41","19","[""Asian"",""White""]","No","Female","2015765","null","null","learn_feedback","","","learn_feedback","25.9271","83.5595","in","","","","","","","","","","","","","","","","","","","","","","",""
"","","","","","canvas-keyboard-response","171","262795","0.0-12.0-4.31","2d_cat_multi_stim_exp1","2022-4-15","14:6:12","25","75","3","9","10","40","30","120","41","19","[""Asian"",""White""]","No","Female","2015765","null","null","","","","clear_screen","","","","","","","","","","","","","","","","","","","","","","","","","",""
"","","","","","canvas-keyboard-response","172","263307","0.0-12.0-0.32","2d_cat_multi_stim_exp1","2022-4-15","14:6:12","25","75","3","9","10","40","30","120","41","19","[""Asian"",""White""]","No","Female","2015765","null","null","","","","fixation","","","","","","","","","","","","","","","","","","","","","","","","","",""
"","","","","","canvas-keyboard-response","173","263818","0.0-12.0-1.32","2d_cat_multi_stim_exp1","2022-4-15","14:6:12","25","75","3","9","10","40","30","120","41","19","[""Asian"",""White""]","No","Female","2015765","null","null","","","","clear_screen","","","","","","","","","","","","","","","","","","","","","","","","","",""
"","","","","","canvas-keyboard-response","174","264329","0.0-12.0-2.32","2d_cat_multi_stim_exp1","2022-4-15","14:6:12","25","75","3","9","10","40","30","120","41","19","[""Asian"",""White""]","No","Female","2015765","501","u","learn","","","learn_trial","29.2426","62.2721","in","1","1","","","","","","","","","","","","","","","","","","","","",""
"","","","","","canvas-keyboard-response","175","264839","0.0-12.0-3.32","2d_cat_multi_stim_exp1","2022-4-15","14:6:12","25","75","3","9","10","40","30","120","41","19","[""Asian"",""White""]","No","Female","2015765","null","null","learn_feedback","","","learn_feedback","29.2426","62.2721","in","","","","","","","","","","","","","","","","","","","","","","",""
"","","","","","canvas-keyboard-response","176","264898","0.0-12.0-4.32","2d_cat_multi_stim_exp1","2022-4-15","14:6:12","25","75","3","9","10","40","30","120","41","19","[""Asian"",""White""]","No","Female","2015765","null","null","","","","clear_screen","","","","","","","","","","","","","","","","","","","","","","","","","",""
"","","","","","canvas-keyboard-response","177","265407","0.0-12.0-0.33","2d_cat_multi_stim_exp1","2022-4-15","14:6:12","25","75","3","9","10","40","30","120","41","19","[""Asian"",""White""]","No","Female","2015765","null","null","","","","fixation","","","","","","","","","","","","","","","","","","","","","","","","","",""
"","","","","","canvas-keyboard-response","178","265916","0.0-12.0-1.33","2d_cat_multi_stim_exp1","2022-4-15","14:6:12","25","75","3","9","10","40","30","120","41","19","[""Asian"",""White""]","No","Female","2015765","null","null","","","","clear_screen","","","","","","","","","","","","","","","","","","","","","","","","","",""
"","","","","","canvas-keyboard-response","179","266570","0.0-12.0-2.33","2d_cat_multi_stim_exp1","2022-4-15","14:6:12","25","75","3","9","10","40","30","120","41","19","[""Asian"",""White""]","No","Female","2015765","645","u","learn","","","learn_trial","25","75","in","1","1","","","","","","","","","","","","","","","","","","","","",""
"","","","","","canvas-keyboard-response","180","267080","0.0-12.0-3.33","2d_cat_multi_stim_exp1","2022-4-15","14:6:12","25","75","3","9","10","40","30","120","41","19","[""Asian"",""White""]","No","Female","2015765","null","null","learn_feedback","","","learn_feedback","25","75","in","","","","","","","","","","","","","","","","","","","","","","",""
"","","","","","canvas-keyboard-response","181","267139","0.0-12.0-4.33","2d_cat_multi_stim_exp1","2022-4-15","14:6:12","25","75","3","9","10","40","30","120","41","19","[""Asian"",""White""]","No","Female","2015765","null","null","","","","clear_screen","","","","","","","","","","","","","","","","","","","","","","","","","",""
"","","","","","canvas-keyboard-response","182","267648","0.0-12.0-0.34","2d_cat_multi_stim_exp1","2022-4-15","14:6:12","25","75","3","9","10","40","30","120","41","19","[""Asian"",""White""]","No","Female","2015765","null","null","","","","fixation","","","","","","","","","","","","","","","","","","","","","","","","","",""
"","","","","","canvas-keyboard-response","183","268157","0.0-12.0-1.34","2d_cat_multi_stim_exp1","2022-4-15","14:6:12","25","75","3","9","10","40","30","120","41","19","[""Asian"",""White""]","No","Female","2015765","null","null","","","","clear_screen","","","","","","","","","","","","","","","","","","","","","","","","","",""
"","","","","","canvas-keyboard-response","184","268569","0.0-12.0-2.34","2d_cat_multi_stim_exp1","2022-4-15","14:6:12","25","75","3","9","10","40","30","120","41","19","[""Asian"",""White""]","No","Female","2015765","404","u","learn","","","learn_trial","25","75","in","1","1","","","","","","","","","","","","","","","","","","","","",""
"","","","","","canvas-keyboard-response","185","269079","0.0-12.0-3.34","2d_cat_multi_stim_exp1","2022-4-15","14:6:12","25","75","3","9","10","40","30","120","41","19","[""Asian"",""White""]","No","Female","2015765","null","null","learn_feedback","","","learn_feedback","25","75","in","","","","","","","","","","","","","","","","","","","","","","",""
"","","","","","canvas-keyboard-response","186","269138","0.0-12.0-4.34","2d_cat_multi_stim_exp1","2022-4-15","14:6:12","25","75","3","9","10","40","30","120","41","19","[""Asian"",""White""]","No","Female","2015765","null","null","","","","clear_screen","","","","","","","","","","","","","","","","","","","","","","","","","",""
"","","","","","canvas-keyboard-response","187","269650","0.0-12.0-0.35","2d_cat_multi_stim_exp1","2022-4-15","14:6:12","25","75","3","9","10","40","30","120","41","19","[""Asian"",""White""]","No","Female","2015765","null","null","","","","fixation","","","","","","","","","","","","","","","","","","","","","","","","","",""
"","","","","","canvas-keyboard-response","188","270161","0.0-12.0-1.35","2d_cat_multi_stim_exp1","2022-4-15","14:6:12","25","75","3","9","10","40","30","120","41","19","[""Asian"",""White""]","No","Female","2015765","null","null","","","","clear_screen","","","","","","","","","","","","","","","","","","","","","","","","","",""
"","","","","","canvas-keyboard-response","189","271634","0.0-12.0-2.35","2d_cat_multi_stim_exp1","2022-4-15","14:6:12","25","75","3","9","10","40","30","120","41","19","[""Asian"",""White""]","No","Female","2015765","1465","i","learn","","","learn_trial","36.6667","100","out","1","0","","","","","","","","","","","","","","","","","","","","",""
"","","","","","canvas-keyboard-response","190","272144","0.0-12.0-3.35","2d_cat_multi_stim_exp1","2022-4-15","14:6:12","25","75","3","9","10","40","30","120","41","19","[""Asian"",""White""]","No","Female","2015765","null","null","learn_feedback","","","learn_feedback","36.6667","100","out","","","","","","","","","","","","","","","","","","","","","","",""
"","","","","","canvas-keyboard-response","191","272204","0.0-12.0-4.35","2d_cat_multi_stim_exp1","2022-4-15","14:6:12","25","75","3","9","10","40","30","120","41","19","[""Asian"",""White""]","No","Female","2015765","null","null","","","","clear_screen","","","","","","","","","","","","","","","","","","","","","","","","","",""
"","","","","","canvas-keyboard-response","192","272712","0.0-12.0-0.36","2d_cat_multi_stim_exp1","2022-4-15","14:6:12","25","75","3","9","10","40","30","120","41","19","[""Asian"",""White""]","No","Female","2015765","null","null","","","","fixation","","","","","","","","","","","","","","","","","","","","","","","","","",""
"","","","","","canvas-keyboard-response","193","273221","0.0-12.0-1.36","2d_cat_multi_stim_exp1","2022-4-15","14:6:12","25","75","3","9","10","40","30","120","41","19","[""Asian"",""White""]","No","Female","2015765","null","null","","","","clear_screen","","","","","","","","","","","","","","","","","","","","","","","","","",""
"","","","","","canvas-keyboard-response","194","274778","0.0-12.0-2.36","2d_cat_multi_stim_exp1","2022-4-15","14:6:12","25","75","3","9","10","40","30","120","41","19","[""Asian"",""White""]","No","Female","2015765","1547","u","learn","","","learn_trial","16.6667","40","out","0","1","","","","","","","","","","","","","","","","","","","","",""
"","","","","","canvas-keyboard-response","195","275787","0.0-12.0-3.36","2d_cat_multi_stim_exp1","2022-4-15","14:6:12","25","75","3","9","10","40","30","120","41","19","[""Asian"",""White""]","No","Female","2015765","null","null","learn_feedback","","","learn_feedback","16.6667","40","out","","","","","","","","","","","","","","","","","","","","","","",""
"","","","","","canvas-keyboard-response","196","275846","0.0-12.0-4.36","2d_cat_multi_stim_exp1","2022-4-15","14:6:12","25","75","3","9","10","40","30","120","41","19","[""Asian"",""White""]","No","Female","2015765","null","null","","","","clear_screen","","","","","","","","","","","","","","","","","","","","","","","","","",""
"","","","","","canvas-keyboard-response","197","276355","0.0-12.0-0.37","2d_cat_multi_stim_exp1","2022-4-15","14:6:12","25","75","3","9","10","40","30","120","41","19","[""Asian"",""White""]","No","Female","2015765","null","null","","","","fixation","","","","","","","","","","","","","","","","","","","","","","","","","",""
"","","","","","canvas-keyboard-response","198","276865","0.0-12.0-1.37","2d_cat_multi_stim_exp1","2022-4-15","14:6:12","25","75","3","9","10","40","30","120","41","19","[""Asian"",""White""]","No","Female","2015765","null","null","","","","clear_screen","","","","","","","","","","","","","","","","","","","","","","","","","",""
"","","","","","canvas-keyboard-response","199","278202","0.0-12.0-2.37","2d_cat_multi_stim_exp1","2022-4-15","14:6:12","25","75","3","9","10","40","30","120","41","19","[""Asian"",""White""]","No","Female","2015765","1328","i","learn","","","learn_trial","10","100","out","1","0","","","","","","","","","","","","","","","","","","","","",""
"","","","","","canvas-keyboard-response","200","278712","0.0-12.0-3.37","2d_cat_multi_stim_exp1","2022-4-15","14:6:12","25","75","3","9","10","40","30","120","41","19","[""Asian"",""White""]","No","Female","2015765","null","null","learn_feedback","","","learn_feedback","10","100","out","","","","","","","","","","","","","","","","","","","","","","",""
"","","","","","canvas-keyboard-response","201","278771","0.0-12.0-4.37","2d_cat_multi_stim_exp1","2022-4-15","14:6:12","25","75","3","9","10","40","30","120","41","19","[""Asian"",""White""]","No","Female","2015765","null","null","","","","clear_screen","","","","","","","","","","","","","","","","","","","","","","","","","",""
"","","","","","canvas-keyboard-response","202","279280","0.0-12.0-0.38","2d_cat_multi_stim_exp1","2022-4-15","14:6:12","25","75","3","9","10","40","30","120","41","19","[""Asian"",""White""]","No","Female","2015765","null","null","","","","fixation","","","","","","","","","","","","","","","","","","","","","","","","","",""
"","","","","","canvas-keyboard-response","203","279792","0.0-12.0-1.38","2d_cat_multi_stim_exp1","2022-4-15","14:6:12","25","75","3","9","10","40","30","120","41","19","[""Asian"",""White""]","No","Female","2015765","null","null","","","","clear_screen","","","","","","","","","","","","","","","","","","","","","","","","","",""
"","","","","","canvas-keyboard-response","204","280474","0.0-12.0-2.38","2d_cat_multi_stim_exp1","2022-4-15","14:6:12","25","75","3","9","10","40","30","120","41","19","[""Asian"",""White""]","No","Female","2015765","674","u","learn","","","learn_trial","25","75","in","1","1","","","","","","","","","","","","","","","","","","","","",""
"","","","","","canvas-keyboard-response","205","280984","0.0-12.0-3.38","2d_cat_multi_stim_exp1","2022-4-15","14:6:12","25","75","3","9","10","40","30","120","41","19","[""Asian"",""White""]","No","Female","2015765","null","null","learn_feedback","","","learn_feedback","25","75","in","","","","","","","","","","","","","","","","","","","","","","",""
"","","","","","canvas-keyboard-response","206","281042","0.0-12.0-4.38","2d_cat_multi_stim_exp1","2022-4-15","14:6:12","25","75","3","9","10","40","30","120","41","19","[""Asian"",""White""]","No","Female","2015765","null","null","","","","clear_screen","","","","","","","","","","","","","","","","","","","","","","","","","",""
"","","","","","canvas-keyboard-response","207","281551","0.0-12.0-0.39","2d_cat_multi_stim_exp1","2022-4-15","14:6:12","25","75","3","9","10","40","30","120","41","19","[""Asian"",""White""]","No","Female","2015765","null","null","","","","fixation","","","","","","","","","","","","","","","","","","","","","","","","","",""
"","","","","","canvas-keyboard-response","208","282060","0.0-12.0-1.39","2d_cat_multi_stim_exp1","2022-4-15","14:6:12","25","75","3","9","10","40","30","120","41","19","[""Asian"",""White""]","No","Female","2015765","null","null","","","","clear_screen","","","","","","","","","","","","","","","","","","","","","","","","","",""
"","","","","","canvas-keyboard-response","209","283169","0.0-12.0-2.39","2d_cat_multi_stim_exp1","2022-4-15","14:6:12","25","75","3","9","10","40","30","120","41","19","[""Asian"",""White""]","No","Female","2015765","1099","u","learn","","","learn_trial","10","80","out","0","1","","","","","","","","","","","","","","","","","","","","",""
"","","","","","canvas-keyboard-response","210","284180","0.0-12.0-3.39","2d_cat_multi_stim_exp1","2022-4-15","14:6:12","25","75","3","9","10","40","30","120","41","19","[""Asian"",""White""]","No","Female","2015765","null","null","learn_feedback","","","learn_feedback","10","80","out","","","","","","","","","","","","","","","","","","","","","","",""
"","","","","","canvas-keyboard-response","211","284239","0.0-12.0-4.39","2d_cat_multi_stim_exp1","2022-4-15","14:6:12","25","75","3","9","10","40","30","120","41","19","[""Asian"",""White""]","No","Female","2015765","null","null","","","","clear_screen","","","","","","","","","","","","","","","","","","","","","","","","","",""
"","","","","","canvas-keyboard-response","212","284747","0.0-12.0-0.40","2d_cat_multi_stim_exp1","2022-4-15","14:6:12","25","75","3","9","10","40","30","120","41","19","[""Asian"",""White""]","No","Female","2015765","null","null","","","","fixation","","","","","","","","","","","","","","","","","","","","","","","","","",""
"","","","","","canvas-keyboard-response","213","285256","0.0-12.0-1.40","2d_cat_multi_stim_exp1","2022-4-15","14:6:12","25","75","3","9","10","40","30","120","41","19","[""Asian"",""White""]","No","Female","2015765","null","null","","","","clear_screen","","","","","","","","","","","","","","","","","","","","","","","","","",""
"","","","","","canvas-keyboard-response","214","286001","0.0-12.0-2.40","2d_cat_multi_stim_exp1","2022-4-15","14:6:12","25","75","3","9","10","40","30","120","41","19","[""Asian"",""White""]","No","Female","2015765","735","u","learn","","","learn_trial","26.6667","80","out","0","1","","","","","","","","","","","","","","","","","","","","",""
"","","","","","canvas-keyboard-response","215","287012","0.0-12.0-3.40","2d_cat_multi_stim_exp1","2022-4-15","14:6:12","25","75","3","9","10","40","30","120","41","19","[""Asian"",""White""]","No","Female","2015765","null","null","learn_feedback","","","learn_feedback","26.6667","80","out","","","","","","","","","","","","","","","","","","","","","","",""
"","","","","","canvas-keyboard-response","216","287070","0.0-12.0-4.40","2d_cat_multi_stim_exp1","2022-4-15","14:6:12","25","75","3","9","10","40","30","120","41","19","[""Asian"",""White""]","No","Female","2015765","null","null","","","","clear_screen","","","","","","","","","","","","","","","","","","","","","","","","","",""
"","","","","","canvas-keyboard-response","217","287580","0.0-12.0-0.41","2d_cat_multi_stim_exp1","2022-4-15","14:6:12","25","75","3","9","10","40","30","120","41","19","[""Asian"",""White""]","No","Female","2015765","null","null","","","","fixation","","","","","","","","","","","","","","","","","","","","","","","","","",""
"","","","","","canvas-keyboard-response","218","288089","0.0-12.0-1.41","2d_cat_multi_stim_exp1","2022-4-15","14:6:12","25","75","3","9","10","40","30","120","41","19","[""Asian"",""White""]","No","Female","2015765","null","null","","","","clear_screen","","","","","","","","","","","","","","","","","","","","","","","","","",""
"","","","","","canvas-keyboard-response","219","288786","0.0-12.0-2.41","2d_cat_multi_stim_exp1","2022-4-15","14:6:12","25","75","3","9","10","40","30","120","41","19","[""Asian"",""White""]","No","Female","2015765","685","u","learn","","","learn_trial","22.1081","77.3943","in","1","1","","","","","","","","","","","","","","","","","","","","",""
"","","","","","canvas-keyboard-response","220","289299","0.0-12.0-3.41","2d_cat_multi_stim_exp1","2022-4-15","14:6:12","25","75","3","9","10","40","30","120","41","19","[""Asian"",""White""]","No","Female","2015765","null","null","learn_feedback","","","learn_feedback","22.1081","77.3943","in","","","","","","","","","","","","","","","","","","","","","","",""
"","","","","","canvas-keyboard-response","221","289361","0.0-12.0-4.41","2d_cat_multi_stim_exp1","2022-4-15","14:6:12","25","75","3","9","10","40","30","120","41","19","[""Asian"",""White""]","No","Female","2015765","null","null","","","","clear_screen","","","","","","","","","","","","","","","","","","","","","","","","","",""
"","","","","","canvas-keyboard-response","222","289872","0.0-12.0-0.42","2d_cat_multi_stim_exp1","2022-4-15","14:6:12","25","75","3","9","10","40","30","120","41","19","[""Asian"",""White""]","No","Female","2015765","null","null","","","","fixation","","","","","","","","","","","","","","","","","","","","","","","","","",""
"","","","","","canvas-keyboard-response","223","290382","0.0-12.0-1.42","2d_cat_multi_stim_exp1","2022-4-15","14:6:12","25","75","3","9","10","40","30","120","41","19","[""Asian"",""White""]","No","Female","2015765","null","null","","","","clear_screen","","","","","","","","","","","","","","","","","","","","","","","","","",""
"","","","","","canvas-keyboard-response","224","291634","0.0-12.0-2.42","2d_cat_multi_stim_exp1","2022-4-15","14:6:12","25","75","3","9","10","40","30","120","41","19","[""Asian"",""White""]","No","Female","2015765","1243","u","learn","","","learn_trial","25","75","in","1","1","","","","","","","","","","","","","","","","","","","","",""
"","","","","","canvas-keyboard-response","225","292144","0.0-12.0-3.42","2d_cat_multi_stim_exp1","2022-4-15","14:6:12","25","75","3","9","10","40","30","120","41","19","[""Asian"",""White""]","No","Female","2015765","null","null","learn_feedback","","","learn_feedback","25","75","in","","","","","","","","","","","","","","","","","","","","","","",""
"","","","","","canvas-keyboard-response","226","292203","0.0-12.0-4.42","2d_cat_multi_stim_exp1","2022-4-15","14:6:12","25","75","3","9","10","40","30","120","41","19","[""Asian"",""White""]","No","Female","2015765","null","null","","","","clear_screen","","","","","","","","","","","","","","","","","","","","","","","","","",""
"","","","","","canvas-keyboard-response","227","292713","0.0-12.0-0.43","2d_cat_multi_stim_exp1","2022-4-15","14:6:12","25","75","3","9","10","40","30","120","41","19","[""Asian"",""White""]","No","Female","2015765","null","null","","","","fixation","","","","","","","","","","","","","","","","","","","","","","","","","",""
"","","","","","canvas-keyboard-response","228","293223","0.0-12.0-1.43","2d_cat_multi_stim_exp1","2022-4-15","14:6:12","25","75","3","9","10","40","30","120","41","19","[""Asian"",""White""]","No","Female","2015765","null","null","","","","clear_screen","","","","","","","","","","","","","","","","","","","","","","","","","",""
"","","","","","canvas-keyboard-response","229","294291","0.0-12.0-2.43","2d_cat_multi_stim_exp1","2022-4-15","14:6:12","25","75","3","9","10","40","30","120","41","19","[""Asian"",""White""]","No","Female","2015765","1056","i","learn","","","learn_trial","20","110","out","1","0","","","","","","","","","","","","","","","","","","","","",""
"","","","","","canvas-keyboard-response","230","294801","0.0-12.0-3.43","2d_cat_multi_stim_exp1","2022-4-15","14:6:12","25","75","3","9","10","40","30","120","41","19","[""Asian"",""White""]","No","Female","2015765","null","null","learn_feedback","","","learn_feedback","20","110","out","","","","","","","","","","","","","","","","","","","","","","",""
"","","","","","canvas-keyboard-response","231","294862","0.0-12.0-4.43","2d_cat_multi_stim_exp1","2022-4-15","14:6:12","25","75","3","9","10","40","30","120","41","19","[""Asian"",""White""]","No","Female","2015765","null","null","","","","clear_screen","","","","","","","","","","","","","","","","","","","","","","","","","",""
"","","","","","canvas-keyboard-response","232","295371","0.0-12.0-0.44","2d_cat_multi_stim_exp1","2022-4-15","14:6:12","25","75","3","9","10","40","30","120","41","19","[""Asian"",""White""]","No","Female","2015765","null","null","","","","fixation","","","","","","","","","","","","","","","","","","","","","","","","","",""
"","","","","","canvas-keyboard-response","233","295881","0.0-12.0-1.44","2d_cat_multi_stim_exp1","2022-4-15","14:6:12","25","75","3","9","10","40","30","120","41","19","[""Asian"",""White""]","No","Female","2015765","null","null","","","","clear_screen","","","","","","","","","","","","","","","","","","","","","","","","","",""
"","","","","","canvas-keyboard-response","234","296866","0.0-12.0-2.44","2d_cat_multi_stim_exp1","2022-4-15","14:6:12","25","75","3","9","10","40","30","120","41","19","[""Asian"",""White""]","No","Female","2015765","975","u","learn","","","learn_trial","13.3333","70","out","0","1","","","","","","","","","","","","","","","","","","","","",""
"","","","","","canvas-keyboard-response","235","297875","0.0-12.0-3.44","2d_cat_multi_stim_exp1","2022-4-15","14:6:12","25","75","3","9","10","40","30","120","41","19","[""Asian"",""White""]","No","Female","2015765","null","null","learn_feedback","","","learn_feedback","13.3333","70","out","","","","","","","","","","","","","","","","","","","","","","",""
"","","","","","canvas-keyboard-response","236","297934","0.0-12.0-4.44","2d_cat_multi_stim_exp1","2022-4-15","14:6:12","25","75","3","9","10","40","30","120","41","19","[""Asian"",""White""]","No","Female","2015765","null","null","","","","clear_screen","","","","","","","","","","","","","","","","","","","","","","","","","",""
"","","","","","canvas-keyboard-response","237","298448","0.0-12.0-0.45","2d_cat_multi_stim_exp1","2022-4-15","14:6:12","25","75","3","9","10","40","30","120","41","19","[""Asian"",""White""]","No","Female","2015765","null","null","","","","fixation","","","","","","","","","","","","","","","","","","","","","","","","","",""
"","","","","","canvas-keyboard-response","238","298957","0.0-12.0-1.45","2d_cat_multi_stim_exp1","2022-4-15","14:6:12","25","75","3","9","10","40","30","120","41","19","[""Asian"",""White""]","No","Female","2015765","null","null","","","","clear_screen","","","","","","","","","","","","","","","","","","","","","","","","","",""
"","","","","","canvas-keyboard-response","239","299746","0.0-12.0-2.45","2d_cat_multi_stim_exp1","2022-4-15","14:6:12","25","75","3","9","10","40","30","120","41","19","[""Asian"",""White""]","No","Female","2015765","778","u","learn","","","learn_trial","13.3333","80","out","0","1","","","","","","","","","","","","","","","","","","","","",""
"","","","","","canvas-keyboard-response","240","300756","0.0-12.0-3.45","2d_cat_multi_stim_exp1","2022-4-15","14:6:12","25","75","3","9","10","40","30","120","41","19","[""Asian"",""White""]","No","Female","2015765","null","null","learn_feedback","","","learn_feedback","13.3333","80","out","","","","","","","","","","","","","","","","","","","","","","",""
"","","","","","canvas-keyboard-response","241","300815","0.0-12.0-4.45","2d_cat_multi_stim_exp1","2022-4-15","14:6:12","25","75","3","9","10","40","30","120","41","19","[""Asian"",""White""]","No","Female","2015765","null","null","","","","clear_screen","","","","","","","","","","","","","","","","","","","","","","","","","",""
"","","","","","canvas-keyboard-response","242","301324","0.0-12.0-0.46","2d_cat_multi_stim_exp1","2022-4-15","14:6:12","25","75","3","9","10","40","30","120","41","19","[""Asian"",""White""]","No","Female","2015765","null","null","","","","fixation","","","","","","","","","","","","","","","","","","","","","","","","","",""
"","","","","","canvas-keyboard-response","243","301834","0.0-12.0-1.46","2d_cat_multi_stim_exp1","2022-4-15","14:6:12","25","75","3","9","10","40","30","120","41","19","[""Asian"",""White""]","No","Female","2015765","null","null","","","","clear_screen","","","","","","","","","","","","","","","","","","","","","","","","","",""
"","","","","","canvas-keyboard-response","244","302866","0.0-12.0-2.46","2d_cat_multi_stim_exp1","2022-4-15","14:6:12","25","75","3","9","10","40","30","120","41","19","[""Asian"",""White""]","No","Female","2015765","1023","i","learn","","","learn_trial","16.6667","30","out","1","0","","","","","","","","","","","","","","","","","","","","",""
"","","","","","canvas-keyboard-response","245","303375","0.0-12.0-3.46","2d_cat_multi_stim_exp1","2022-4-15","14:6:12","25","75","3","9","10","40","30","120","41","19","[""Asian"",""White""]","No","Female","2015765","null","null","learn_feedback","","","learn_feedback","16.6667","30","out","","","","","","","","","","","","","","","","","","","","","","",""
"","","","","","canvas-keyboard-response","246","303435","0.0-12.0-4.46","2d_cat_multi_stim_exp1","2022-4-15","14:6:12","25","75","3","9","10","40","30","120","41","19","[""Asian"",""White""]","No","Female","2015765","null","null","","","","clear_screen","","","","","","","","","","","","","","","","","","","","","","","","","",""
"","","","","","canvas-keyboard-response","247","303943","0.0-12.0-0.47","2d_cat_multi_stim_exp1","2022-4-15","14:6:12","25","75","3","9","10","40","30","120","41","19","[""Asian"",""White""]","No","Female","2015765","null","null","","","","fixation","","","","","","","","","","","","","","","","","","","","","","","","","",""
"","","","","","canvas-keyboard-response","248","304453","0.0-12.0-1.47","2d_cat_multi_stim_exp1","2022-4-15","14:6:12","25","75","3","9","10","40","30","120","41","19","[""Asian"",""White""]","No","Female","2015765","null","null","","","","clear_screen","","","","","","","","","","","","","","","","","","","","","","","","","",""
"","","","","","canvas-keyboard-response","249","305322","0.0-12.0-2.47","2d_cat_multi_stim_exp1","2022-4-15","14:6:12","25","75","3","9","10","40","30","120","41","19","[""Asian"",""White""]","No","Female","2015765","858","i","learn","","","learn_trial","26.6667","100","out","1","0","","","","","","","","","","","","","","","","","","","","",""
"","","","","","canvas-keyboard-response","250","305831","0.0-12.0-3.47","2d_cat_multi_stim_exp1","2022-4-15","14:6:12","25","75","3","9","10","40","30","120","41","19","[""Asian"",""White""]","No","Female","2015765","null","null","learn_feedback","","","learn_feedback","26.6667","100","out","","","","","","","","","","","","","","","","","","","","","","",""
"","","","","","canvas-keyboard-response","251","305890","0.0-12.0-4.47","2d_cat_multi_stim_exp1","2022-4-15","14:6:12","25","75","3","9","10","40","30","120","41","19","[""Asian"",""White""]","No","Female","2015765","null","null","","","","clear_screen","","","","","","","","","","","","","","","","","","","","","","","","","",""
"","","","","","canvas-keyboard-response","252","306403","0.0-12.0-0.48","2d_cat_multi_stim_exp1","2022-4-15","14:6:12","25","75","3","9","10","40","30","120","41","19","[""Asian"",""White""]","No","Female","2015765","null","null","","","","fixation","","","","","","","","","","","","","","","","","","","","","","","","","",""
"","","","","","canvas-keyboard-response","253","306912","0.0-12.0-1.48","2d_cat_multi_stim_exp1","2022-4-15","14:6:12","25","75","3","9","10","40","30","120","41","19","[""Asian"",""White""]","No","Female","2015765","null","null","","","","clear_screen","","","","","","","","","","","","","","","","","","","","","","","","","",""
"","","","","","canvas-keyboard-response","254","308698","0.0-12.0-2.48","2d_cat_multi_stim_exp1","2022-4-15","14:6:12","25","75","3","9","10","40","30","120","41","19","[""Asian"",""White""]","No","Female","2015765","1775","i","learn","","","learn_trial","26.8705","67.9635","in","0","0","","","","","","","","","","","","","","","","","","","","",""
"","","","","","canvas-keyboard-response","255","309706","0.0-12.0-3.48","2d_cat_multi_stim_exp1","2022-4-15","14:6:12","25","75","3","9","10","40","30","120","41","19","[""Asian"",""White""]","No","Female","2015765","null","null","learn_feedback","","","learn_feedback","26.8705","67.9635","in","","","","","","","","","","","","","","","","","","","","","","",""
"","","","","","canvas-keyboard-response","256","309766","0.0-12.0-4.48","2d_cat_multi_stim_exp1","2022-4-15","14:6:12","25","75","3","9","10","40","30","120","41","19","[""Asian"",""White""]","No","Female","2015765","null","null","","","","clear_screen","","","","","","","","","","","","","","","","","","","","","","","","","",""
"","","","","","canvas-keyboard-response","257","310275","0.0-12.0-0.49","2d_cat_multi_stim_exp1","2022-4-15","14:6:12","25","75","3","9","10","40","30","120","41","19","[""Asian"",""White""]","No","Female","2015765","null","null","","","","fixation","","","","","","","","","","","","","","","","","","","","","","","","","",""
"","","","","","canvas-keyboard-response","258","310785","0.0-12.0-1.49","2d_cat_multi_stim_exp1","2022-4-15","14:6:12","25","75","3","9","10","40","30","120","41","19","[""Asian"",""White""]","No","Female","2015765","null","null","","","","clear_screen","","","","","","","","","","","","","","","","","","","","","","","","","",""
"","","","","","canvas-keyboard-response","259","312578","0.0-12.0-2.49","2d_cat_multi_stim_exp1","2022-4-15","14:6:12","25","75","3","9","10","40","30","120","41","19","[""Asian"",""White""]","No","Female","2015765","1783","i","learn","","","learn_trial","25","75","in","0","0","","","","","","","","","","","","","","","","","","","","",""
"","","","","","canvas-keyboard-response","260","313587","0.0-12.0-3.49","2d_cat_multi_stim_exp1","2022-4-15","14:6:12","25","75","3","9","10","40","30","120","41","19","[""Asian"",""White""]","No","Female","2015765","null","null","learn_feedback","","","learn_feedback","25","75","in","","","","","","","","","","","","","","","","","","","","","","",""
"","","","","","canvas-keyboard-response","261","313646","0.0-12.0-4.49","2d_cat_multi_stim_exp1","2022-4-15","14:6:12","25","75","3","9","10","40","30","120","41","19","[""Asian"",""White""]","No","Female","2015765","null","null","","","","clear_screen","","","","","","","","","","","","","","","","","","","","","","","","","",""
"","","","","","canvas-keyboard-response","262","314155","0.0-12.0-0.50","2d_cat_multi_stim_exp1","2022-4-15","14:6:12","25","75","3","9","10","40","30","120","41","19","[""Asian"",""White""]","No","Female","2015765","null","null","","","","fixation","","","","","","","","","","","","","","","","","","","","","","","","","",""
"","","","","","canvas-keyboard-response","263","314665","0.0-12.0-1.50","2d_cat_multi_stim_exp1","2022-4-15","14:6:12","25","75","3","9","10","40","30","120","41","19","[""Asian"",""White""]","No","Female","2015765","null","null","","","","clear_screen","","","","","","","","","","","","","","","","","","","","","","","","","",""
"","","","","","canvas-keyboard-response","264","315626","0.0-12.0-2.50","2d_cat_multi_stim_exp1","2022-4-15","14:6:12","25","75","3","9","10","40","30","120","41","19","[""Asian"",""White""]","No","Female","2015765","951","i","learn","","","learn_trial","10","30","out","1","0","","","","","","","","","","","","","","","","","","","","",""
"","","","","","canvas-keyboard-response","265","316135","0.0-12.0-3.50","2d_cat_multi_stim_exp1","2022-4-15","14:6:12","25","75","3","9","10","40","30","120","41","19","[""Asian"",""White""]","No","Female","2015765","null","null","learn_feedback","","","learn_feedback","10","30","out","","","","","","","","","","","","","","","","","","","","","","",""
"","","","","","canvas-keyboard-response","266","316195","0.0-12.0-4.50","2d_cat_multi_stim_exp1","2022-4-15","14:6:12","25","75","3","9","10","40","30","120","41","19","[""Asian"",""White""]","No","Female","2015765","null","null","","","","clear_screen","","","","","","","","","","","","","","","","","","","","","","","","","",""
"","","","","","canvas-keyboard-response","267","316704","0.0-12.0-0.51","2d_cat_multi_stim_exp1","2022-4-15","14:6:12","25","75","3","9","10","40","30","120","41","19","[""Asian"",""White""]","No","Female","2015765","null","null","","","","fixation","","","","","","","","","","","","","","","","","","","","","","","","","",""
"","","","","","canvas-keyboard-response","268","317213","0.0-12.0-1.51","2d_cat_multi_stim_exp1","2022-4-15","14:6:12","25","75","3","9","10","40","30","120","41","19","[""Asian"",""White""]","No","Female","2015765","null","null","","","","clear_screen","","","","","","","","","","","","","","","","","","","","","","","","","",""
"","","","","","canvas-keyboard-response","269","318673","0.0-12.0-2.51","2d_cat_multi_stim_exp1","2022-4-15","14:6:12","25","75","3","9","10","40","30","120","41","19","[""Asian"",""White""]","No","Female","2015765","1451","i","learn","","","learn_trial","30","100","out","1","0","","","","","","","","","","","","","","","","","","","","",""
"","","","","","canvas-keyboard-response","270","319183","0.0-12.0-3.51","2d_cat_multi_stim_exp1","2022-4-15","14:6:12","25","75","3","9","10","40","30","120","41","19","[""Asian"",""White""]","No","Female","2015765","null","null","learn_feedback","","","learn_feedback","30","100","out","","","","","","","","","","","","","","","","","","","","","","",""
"","","","","","canvas-keyboard-response","271","319242","0.0-12.0-4.51","2d_cat_multi_stim_exp1","2022-4-15","14:6:12","25","75","3","9","10","40","30","120","41","19","[""Asian"",""White""]","No","Female","2015765","null","null","","","","clear_screen","","","","","","","","","","","","","","","","","","","","","","","","","",""
"","","","","","canvas-keyboard-response","272","319751","0.0-12.0-0.52","2d_cat_multi_stim_exp1","2022-4-15","14:6:12","25","75","3","9","10","40","30","120","41","19","[""Asian"",""White""]","No","Female","2015765","null","null","","","","fixation","","","","","","","","","","","","","","","","","","","","","","","","","",""
"","","","","","canvas-keyboard-response","273","320260","0.0-12.0-1.52","2d_cat_multi_stim_exp1","2022-4-15","14:6:12","25","75","3","9","10","40","30","120","41","19","[""Asian"",""White""]","No","Female","2015765","null","null","","","","clear_screen","","","","","","","","","","","","","","","","","","","","","","","","","",""
"","","","","","canvas-keyboard-response","274","321450","0.0-12.0-2.52","2d_cat_multi_stim_exp1","2022-4-15","14:6:12","25","75","3","9","10","40","30","120","41","19","[""Asian"",""White""]","No","Female","2015765","1179","i","learn","","","learn_trial","10","110","out","1","0","","","","","","","","","","","","","","","","","","","","",""
"","","","","","canvas-keyboard-response","275","321959","0.0-12.0-3.52","2d_cat_multi_stim_exp1","2022-4-15","14:6:12","25","75","3","9","10","40","30","120","41","19","[""Asian"",""White""]","No","Female","2015765","null","null","learn_feedback","","","learn_feedback","10","110","out","","","","","","","","","","","","","","","","","","","","","","",""
"","","","","","canvas-keyboard-response","276","322018","0.0-12.0-4.52","2d_cat_multi_stim_exp1","2022-4-15","14:6:12","25","75","3","9","10","40","30","120","41","19","[""Asian"",""White""]","No","Female","2015765","null","null","","","","clear_screen","","","","","","","","","","","","","","","","","","","","","","","","","",""
"","","","","","canvas-keyboard-response","277","322526","0.0-12.0-0.53","2d_cat_multi_stim_exp1","2022-4-15","14:6:12","25","75","3","9","10","40","30","120","41","19","[""Asian"",""White""]","No","Female","2015765","null","null","","","","fixation","","","","","","","","","","","","","","","","","","","","","","","","","",""
"","","","","","canvas-keyboard-response","278","323036","0.0-12.0-1.53","2d_cat_multi_stim_exp1","2022-4-15","14:6:12","25","75","3","9","10","40","30","120","41","19","[""Asian"",""White""]","No","Female","2015765","null","null","","","","clear_screen","","","","","","","","","","","","","","","","","","","","","","","","","",""
"","","","","","canvas-keyboard-response","279","324033","0.0-12.0-2.53","2d_cat_multi_stim_exp1","2022-4-15","14:6:12","25","75","3","9","10","40","30","120","41","19","[""Asian"",""White""]","No","Female","2015765","988","i","learn","","","learn_trial","36.6667","50","out","1","0","","","","","","","","","","","","","","","","","","","","",""
"","","","","","canvas-keyboard-response","280","324543","0.0-12.0-3.53","2d_cat_multi_stim_exp1","2022-4-15","14:6:12","25","75","3","9","10","40","30","120","41","19","[""Asian"",""White""]","No","Female","2015765","null","null","learn_feedback","","","learn_feedback","36.6667","50","out","","","","","","","","","","","","","","","","","","","","","","",""
"","","","","","canvas-keyboard-response","281","324602","0.0-12.0-4.53","2d_cat_multi_stim_exp1","2022-4-15","14:6:12","25","75","3","9","10","40","30","120","41","19","[""Asian"",""White""]","No","Female","2015765","null","null","","","","clear_screen","","","","","","","","","","","","","","","","","","","","","","","","","",""
"","","","","","canvas-keyboard-response","282","325111","0.0-12.0-0.54","2d_cat_multi_stim_exp1","2022-4-15","14:6:12","25","75","3","9","10","40","30","120","41","19","[""Asian"",""White""]","No","Female","2015765","null","null","","","","fixation","","","","","","","","","","","","","","","","","","","","","","","","","",""
"","","","","","canvas-keyboard-response","283","325621","0.0-12.0-1.54","2d_cat_multi_stim_exp1","2022-4-15","14:6:12","25","75","3","9","10","40","30","120","41","19","[""Asian"",""White""]","No","Female","2015765","null","null","","","","clear_screen","","","","","","","","","","","","","","","","","","","","","","","","","",""
"","","","","","canvas-keyboard-response","284","326834","0.0-12.0-2.54","2d_cat_multi_stim_exp1","2022-4-15","14:6:12","25","75","3","9","10","40","30","120","41","19","[""Asian"",""White""]","No","Female","2015765","1201","u","learn","","","learn_trial","25","75","in","1","1","","","","","","","","","","","","","","","","","","","","",""
"","","","","","canvas-keyboard-response","285","327347","0.0-12.0-3.54","2d_cat_multi_stim_exp1","2022-4-15","14:6:12","25","75","3","9","10","40","30","120","41","19","[""Asian"",""White""]","No","Female","2015765","null","null","learn_feedback","","","learn_feedback","25","75","in","","","","","","","","","","","","","","","","","","","","","","",""
"","","","","","canvas-keyboard-response","286","327408","0.0-12.0-4.54","2d_cat_multi_stim_exp1","2022-4-15","14:6:12","25","75","3","9","10","40","30","120","41","19","[""Asian"",""White""]","No","Female","2015765","null","null","","","","clear_screen","","","","","","","","","","","","","","","","","","","","","","","","","",""
"","","","","","canvas-keyboard-response","287","327917","0.0-12.0-0.55","2d_cat_multi_stim_exp1","2022-4-15","14:6:12","25","75","3","9","10","40","30","120","41","19","[""Asian"",""White""]","No","Female","2015765","null","null","","","","fixation","","","","","","","","","","","","","","","","","","","","","","","","","",""
"","","","","","canvas-keyboard-response","288","328427","0.0-12.0-1.55","2d_cat_multi_stim_exp1","2022-4-15","14:6:12","25","75","3","9","10","40","30","120","41","19","[""Asian"",""White""]","No","Female","2015765","null","null","","","","clear_screen","","","","","","","","","","","","","","","","","","","","","","","","","",""
