"success","timeout","failed_images","failed_audio","failed_video","trial_type","trial_index","time_elapsed","internal_node_id","exp_name","date","time","angle_mean_in","radius_mean_in","angle_sd_in","radius_sd_in","angle_min_out","angle_max_out","radius_min_out","radius_max_out","sub_n","age","race","ethnicity","gender","exp_duration","rt","response","exp_trial_type","stimulus","view_history","screen_id","angle","radius","distribution","choice","correct","order","angle_a","radius_a","angle_b","radius_b","jkl_correct","transfer_trial_type","choice_set","abc_correct","tc_correct","tc_angle","tdc_a","tdc_b","tdc_c","pair","category_a","category_b","category_c","angle_c","radius_c","question_order"
"true","false","[]","[]","[]","preload","0","19","0.0-0.0","2d_cat_multi_stim_exp1","2022-4-13","13:8:41","25","75","3","9","10","40","30","120","35","20","[""White""]","No","Male","1950485","","","","","","","","","","","","","","","","","","","","","","","","","","","","","","","",""
"","","","","","survey-html-form","1","7048","0.0-1.0","2d_cat_multi_stim_exp1","2022-4-13","13:8:41","25","75","3","9","10","40","30","120","35","20","[""White""]","No","Male","1950485","7017","{""response"":""35""}","enter-sub-number","","","","","","","","","","","","","","","","","","","","","","","","","","","","",""
"true","","","","","fullscreen","2","16035","0.0-2.0","2d_cat_multi_stim_exp1","2022-4-13","13:8:41","25","75","3","9","10","40","30","120","35","20","[""White""]","No","Male","1950485","","","","","","","","","","","","","","","","","","","","","","","","","","","","","","","",""
"","","","","","image-button-response","3","171442","0.0-3.0","2d_cat_multi_stim_exp1","2022-4-13","13:8:41","25","75","3","9","10","40","30","120","35","20","[""White""]","No","Male","1950485","155396","0","","consent.png","","","","","","","","","","","","","","","","","","","","","","","","","","","",""
"","","","","","html-button-response","4","173530","0.0-4.0","2d_cat_multi_stim_exp1","2022-4-13","13:8:41","25","75","3","9","10","40","30","120","35","20","[""White""]","No","Male","1950485","2083","0","","<div style= ""font-size:25px;"" <p> <strong> Welcome to the experiment! </strong><br> <p style=""color:#8B0000; font-size:25px;""><strong> Please do NOT exit full screen until you are done with the experiment. </strong> </p><p style=""font-size:25px;color:#8B0000;""> <strong> The experiment will be canceled and your data will be lost <br> if you try to go back or refresh the page at any point during the experiment.</strong> </p><br><p> <strong> Thanks in advance for your contribution to our research! </strong></p>","","","","","","","","","","","","","","","","","","","","","","","","","","","",""
"","","","","","instructions","5","209306","0.0-5.0","2d_cat_multi_stim_exp1","2022-4-13","13:8:41","25","75","3","9","10","40","30","120","35","20","[""White""]","No","Male","1950485","35769","","","","[{""page_index"":0,""viewing_time"":5042},{""page_index"":1,""viewing_time"":2592},{""page_index"":2,""viewing_time"":8512},{""page_index"":3,""viewing_time"":19623}]","instructions_1","","","","","","","","","","","","","","","","","","","","","","","","","",""
"","","","","","instructions","6","211539","0.0-6.0","2d_cat_multi_stim_exp1","2022-4-13","13:8:41","25","75","3","9","10","40","30","120","35","20","[""White""]","No","Male","1950485","2231","","","","[{""page_index"":0,""viewing_time"":2230}]","Click to see the kinds of turtles that will appear in the study.","","","","","","","","","","","","","","","","","","","","","","","","","",""
"","","","","","canvas-keyboard-response","7","226556","0.0-7.0","2d_cat_multi_stim_exp1","2022-4-13","13:8:41","25","75","3","9","10","40","30","120","35","20","[""White""]","No","Male","1950485","null","null","","","","demo_range","","","","","","","","","","","","","","","","","","","","","","","","","",""
"","","","","","instructions","8","229618","0.0-8.0","2d_cat_multi_stim_exp1","2022-4-13","13:8:41","25","75","3","9","10","40","30","120","35","20","[""White""]","No","Male","1950485","2561","","","","[{""page_index"":0,""viewing_time"":2561}]","Click to see some turtles in the subspecies.","","","","","","","","","","","","","","","","","","","","","","","","","",""
"","","","","","canvas-keyboard-response","9","244635","0.0-9.0","2d_cat_multi_stim_exp1","2022-4-13","13:8:41","25","75","3","9","10","40","30","120","35","20","[""White""]","No","Male","1950485","null","null","","","","demo_in","","","","","","","","","","","","","","","","","","","","","","","","","",""
"","","","","","instructions","10","274083","0.0-10.0","2d_cat_multi_stim_exp1","2022-4-13","13:8:41","25","75","3","9","10","40","30","120","35","20","[""White""]","No","Male","1950485","28946","","","","[{""page_index"":0,""viewing_time"":4184},{""page_index"":1,""viewing_time"":13104},{""page_index"":2,""viewing_time"":1894},{""page_index"":1,""viewing_time"":2946},{""page_index"":2,""viewing_time"":6817}]","instructions_2","","","","","","","","","","","","","","","","","","","","","","","","","",""
"","","","","","instructions","11","275642","0.0-11.0","2d_cat_multi_stim_exp1","2022-4-13","13:8:41","25","75","3","9","10","40","30","120","35","20","[""White""]","No","Male","1950485","1556","","","","[{""page_index"":0,""viewing_time"":1556}]","Click to begin the first phase of the experiment.","","","","","","","","","","","","","","","","","","","","","","","","","",""
"","","","","","canvas-keyboard-response","12","276151","0.0-12.0-0.0","2d_cat_multi_stim_exp1","2022-4-13","13:8:41","25","75","3","9","10","40","30","120","35","20","[""White""]","No","Male","1950485","null","null","","","","fixation","","","","","","","","","","","","","","","","","","","","","","","","","",""
"","","","","","canvas-keyboard-response","13","276662","0.0-12.0-1.0","2d_cat_multi_stim_exp1","2022-4-13","13:8:41","25","75","3","9","10","40","30","120","35","20","[""White""]","No","Male","1950485","null","null","","","","clear_screen","","","","","","","","","","","","","","","","","","","","","","","","","",""
"","","","","","canvas-keyboard-response","14","279275","0.0-12.0-2.0","2d_cat_multi_stim_exp1","2022-4-13","13:8:41","25","75","3","9","10","40","30","120","35","20","[""White""]","No","Male","1950485","2602","i","learn","","","learn_trial","13.3333","110","out","0","1","","","","","","","","","","","","","","","","","","","","",""
"","","","","","canvas-keyboard-response","15","279786","0.0-12.0-3.0","2d_cat_multi_stim_exp1","2022-4-13","13:8:41","25","75","3","9","10","40","30","120","35","20","[""White""]","No","Male","1950485","null","null","learn_feedback","","","learn_feedback","13.3333","110","out","","","","","","","","","","","","","","","","","","","","","","",""
"","","","","","canvas-keyboard-response","16","279847","0.0-12.0-4.0","2d_cat_multi_stim_exp1","2022-4-13","13:8:41","25","75","3","9","10","40","30","120","35","20","[""White""]","No","Male","1950485","null","null","","","","clear_screen","","","","","","","","","","","","","","","","","","","","","","","","","",""
"","","","","","canvas-keyboard-response","17","280357","0.0-12.0-0.1","2d_cat_multi_stim_exp1","2022-4-13","13:8:41","25","75","3","9","10","40","30","120","35","20","[""White""]","No","Male","1950485","null","null","","","","fixation","","","","","","","","","","","","","","","","","","","","","","","","","",""
"","","","","","canvas-keyboard-response","18","280872","0.0-12.0-1.1","2d_cat_multi_stim_exp1","2022-4-13","13:8:41","25","75","3","9","10","40","30","120","35","20","[""White""]","No","Male","1950485","null","null","","","","clear_screen","","","","","","","","","","","","","","","","","","","","","","","","","",""
"","","","","","canvas-keyboard-response","19","284330","0.0-12.0-2.1","2d_cat_multi_stim_exp1","2022-4-13","13:8:41","25","75","3","9","10","40","30","120","35","20","[""White""]","No","Male","1950485","3449","i","learn","","","learn_trial","25","75","in","0","0","","","","","","","","","","","","","","","","","","","","",""
"","","","","","canvas-keyboard-response","20","285339","0.0-12.0-3.1","2d_cat_multi_stim_exp1","2022-4-13","13:8:41","25","75","3","9","10","40","30","120","35","20","[""White""]","No","Male","1950485","null","null","learn_feedback","","","learn_feedback","25","75","in","","","","","","","","","","","","","","","","","","","","","","",""
"","","","","","canvas-keyboard-response","21","285402","0.0-12.0-4.1","2d_cat_multi_stim_exp1","2022-4-13","13:8:41","25","75","3","9","10","40","30","120","35","20","[""White""]","No","Male","1950485","null","null","","","","clear_screen","","","","","","","","","","","","","","","","","","","","","","","","","",""
"","","","","","canvas-keyboard-response","22","285910","0.0-12.0-0.2","2d_cat_multi_stim_exp1","2022-4-13","13:8:41","25","75","3","9","10","40","30","120","35","20","[""White""]","No","Male","1950485","null","null","","","","fixation","","","","","","","","","","","","","","","","","","","","","","","","","",""
"","","","","","canvas-keyboard-response","23","286421","0.0-12.0-1.2","2d_cat_multi_stim_exp1","2022-4-13","13:8:41","25","75","3","9","10","40","30","120","35","20","[""White""]","No","Male","1950485","null","null","","","","clear_screen","","","","","","","","","","","","","","","","","","","","","","","","","",""
"","","","","","canvas-keyboard-response","24","287618","0.0-12.0-2.2","2d_cat_multi_stim_exp1","2022-4-13","13:8:41","25","75","3","9","10","40","30","120","35","20","[""White""]","No","Male","1950485","1186","i","learn","","","learn_trial","13.3333","40","out","0","1","","","","","","","","","","","","","","","","","","","","",""
"","","","","","canvas-keyboard-response","25","288127","0.0-12.0-3.2","2d_cat_multi_stim_exp1","2022-4-13","13:8:41","25","75","3","9","10","40","30","120","35","20","[""White""]","No","Male","1950485","null","null","learn_feedback","","","learn_feedback","13.3333","40","out","","","","","","","","","","","","","","","","","","","","","","",""
"","","","","","canvas-keyboard-response","26","288189","0.0-12.0-4.2","2d_cat_multi_stim_exp1","2022-4-13","13:8:41","25","75","3","9","10","40","30","120","35","20","[""White""]","No","Male","1950485","null","null","","","","clear_screen","","","","","","","","","","","","","","","","","","","","","","","","","",""
"","","","","","canvas-keyboard-response","27","288701","0.0-12.0-0.3","2d_cat_multi_stim_exp1","2022-4-13","13:8:41","25","75","3","9","10","40","30","120","35","20","[""White""]","No","Male","1950485","null","null","","","","fixation","","","","","","","","","","","","","","","","","","","","","","","","","",""
"","","","","","canvas-keyboard-response","28","289211","0.0-12.0-1.3","2d_cat_multi_stim_exp1","2022-4-13","13:8:41","25","75","3","9","10","40","30","120","35","20","[""White""]","No","Male","1950485","null","null","","","","clear_screen","","","","","","","","","","","","","","","","","","","","","","","","","",""
"","","","","","canvas-keyboard-response","29","290098","0.0-12.0-2.3","2d_cat_multi_stim_exp1","2022-4-13","13:8:41","25","75","3","9","10","40","30","120","35","20","[""White""]","No","Male","1950485","874","u","learn","","","learn_trial","30","110","out","1","0","","","","","","","","","","","","","","","","","","","","",""
"","","","","","canvas-keyboard-response","30","291109","0.0-12.0-3.3","2d_cat_multi_stim_exp1","2022-4-13","13:8:41","25","75","3","9","10","40","30","120","35","20","[""White""]","No","Male","1950485","null","null","learn_feedback","","","learn_feedback","30","110","out","","","","","","","","","","","","","","","","","","","","","","",""
"","","","","","canvas-keyboard-response","31","291169","0.0-12.0-4.3","2d_cat_multi_stim_exp1","2022-4-13","13:8:41","25","75","3","9","10","40","30","120","35","20","[""White""]","No","Male","1950485","null","null","","","","clear_screen","","","","","","","","","","","","","","","","","","","","","","","","","",""
"","","","","","canvas-keyboard-response","32","291679","0.0-12.0-0.4","2d_cat_multi_stim_exp1","2022-4-13","13:8:41","25","75","3","9","10","40","30","120","35","20","[""White""]","No","Male","1950485","null","null","","","","fixation","","","","","","","","","","","","","","","","","","","","","","","","","",""
"","","","","","canvas-keyboard-response","33","292190","0.0-12.0-1.4","2d_cat_multi_stim_exp1","2022-4-13","13:8:41","25","75","3","9","10","40","30","120","35","20","[""White""]","No","Male","1950485","null","null","","","","clear_screen","","","","","","","","","","","","","","","","","","","","","","","","","",""
"","","","","","canvas-keyboard-response","34","293554","0.0-12.0-2.4","2d_cat_multi_stim_exp1","2022-4-13","13:8:41","25","75","3","9","10","40","30","120","35","20","[""White""]","No","Male","1950485","1354","u","learn","","","learn_trial","23.3333","70","out","1","0","","","","","","","","","","","","","","","","","","","","",""
"","","","","","canvas-keyboard-response","35","294565","0.0-12.0-3.4","2d_cat_multi_stim_exp1","2022-4-13","13:8:41","25","75","3","9","10","40","30","120","35","20","[""White""]","No","Male","1950485","null","null","learn_feedback","","","learn_feedback","23.3333","70","out","","","","","","","","","","","","","","","","","","","","","","",""
"","","","","","canvas-keyboard-response","36","294622","0.0-12.0-4.4","2d_cat_multi_stim_exp1","2022-4-13","13:8:41","25","75","3","9","10","40","30","120","35","20","[""White""]","No","Male","1950485","null","null","","","","clear_screen","","","","","","","","","","","","","","","","","","","","","","","","","",""
"","","","","","canvas-keyboard-response","37","295131","0.0-12.0-0.5","2d_cat_multi_stim_exp1","2022-4-13","13:8:41","25","75","3","9","10","40","30","120","35","20","[""White""]","No","Male","1950485","null","null","","","","fixation","","","","","","","","","","","","","","","","","","","","","","","","","",""
"","","","","","canvas-keyboard-response","38","295641","0.0-12.0-1.5","2d_cat_multi_stim_exp1","2022-4-13","13:8:41","25","75","3","9","10","40","30","120","35","20","[""White""]","No","Male","1950485","null","null","","","","clear_screen","","","","","","","","","","","","","","","","","","","","","","","","","",""
"","","","","","canvas-keyboard-response","39","296970","0.0-12.0-2.5","2d_cat_multi_stim_exp1","2022-4-13","13:8:41","25","75","3","9","10","40","30","120","35","20","[""White""]","No","Male","1950485","1321","u","learn","","","learn_trial","16.6667","90","out","1","0","","","","","","","","","","","","","","","","","","","","",""
"","","","","","canvas-keyboard-response","40","297981","0.0-12.0-3.5","2d_cat_multi_stim_exp1","2022-4-13","13:8:41","25","75","3","9","10","40","30","120","35","20","[""White""]","No","Male","1950485","null","null","learn_feedback","","","learn_feedback","16.6667","90","out","","","","","","","","","","","","","","","","","","","","","","",""
"","","","","","canvas-keyboard-response","41","298043","0.0-12.0-4.5","2d_cat_multi_stim_exp1","2022-4-13","13:8:41","25","75","3","9","10","40","30","120","35","20","[""White""]","No","Male","1950485","null","null","","","","clear_screen","","","","","","","","","","","","","","","","","","","","","","","","","",""
"","","","","","canvas-keyboard-response","42","298551","0.0-12.0-0.6","2d_cat_multi_stim_exp1","2022-4-13","13:8:41","25","75","3","9","10","40","30","120","35","20","[""White""]","No","Male","1950485","null","null","","","","fixation","","","","","","","","","","","","","","","","","","","","","","","","","",""
"","","","","","canvas-keyboard-response","43","299063","0.0-12.0-1.6","2d_cat_multi_stim_exp1","2022-4-13","13:8:41","25","75","3","9","10","40","30","120","35","20","[""White""]","No","Male","1950485","null","null","","","","clear_screen","","","","","","","","","","","","","","","","","","","","","","","","","",""
"","","","","","canvas-keyboard-response","44","300906","0.0-12.0-2.6","2d_cat_multi_stim_exp1","2022-4-13","13:8:41","25","75","3","9","10","40","30","120","35","20","[""White""]","No","Male","1950485","1833","i","learn","","","learn_trial","33.3333","60","out","0","1","","","","","","","","","","","","","","","","","","","","",""
"","","","","","canvas-keyboard-response","45","301420","0.0-12.0-3.6","2d_cat_multi_stim_exp1","2022-4-13","13:8:41","25","75","3","9","10","40","30","120","35","20","[""White""]","No","Male","1950485","null","null","learn_feedback","","","learn_feedback","33.3333","60","out","","","","","","","","","","","","","","","","","","","","","","",""
"","","","","","canvas-keyboard-response","46","301481","0.0-12.0-4.6","2d_cat_multi_stim_exp1","2022-4-13","13:8:41","25","75","3","9","10","40","30","120","35","20","[""White""]","No","Male","1950485","null","null","","","","clear_screen","","","","","","","","","","","","","","","","","","","","","","","","","",""
"","","","","","canvas-keyboard-response","47","301993","0.0-12.0-0.7","2d_cat_multi_stim_exp1","2022-4-13","13:8:41","25","75","3","9","10","40","30","120","35","20","[""White""]","No","Male","1950485","null","null","","","","fixation","","","","","","","","","","","","","","","","","","","","","","","","","",""
"","","","","","canvas-keyboard-response","48","302503","0.0-12.0-1.7","2d_cat_multi_stim_exp1","2022-4-13","13:8:41","25","75","3","9","10","40","30","120","35","20","[""White""]","No","Male","1950485","null","null","","","","clear_screen","","","","","","","","","","","","","","","","","","","","","","","","","",""
"","","","","","canvas-keyboard-response","49","303480","0.0-12.0-2.7","2d_cat_multi_stim_exp1","2022-4-13","13:8:41","25","75","3","9","10","40","30","120","35","20","[""White""]","No","Male","1950485","968","u","learn","","","learn_trial","30","90","out","1","0","","","","","","","","","","","","","","","","","","","","",""
"","","","","","canvas-keyboard-response","50","304489","0.0-12.0-3.7","2d_cat_multi_stim_exp1","2022-4-13","13:8:41","25","75","3","9","10","40","30","120","35","20","[""White""]","No","Male","1950485","null","null","learn_feedback","","","learn_feedback","30","90","out","","","","","","","","","","","","","","","","","","","","","","",""
"","","","","","canvas-keyboard-response","51","304553","0.0-12.0-4.7","2d_cat_multi_stim_exp1","2022-4-13","13:8:41","25","75","3","9","10","40","30","120","35","20","[""White""]","No","Male","1950485","null","null","","","","clear_screen","","","","","","","","","","","","","","","","","","","","","","","","","",""
"","","","","","canvas-keyboard-response","52","305063","0.0-12.0-0.8","2d_cat_multi_stim_exp1","2022-4-13","13:8:41","25","75","3","9","10","40","30","120","35","20","[""White""]","No","Male","1950485","null","null","","","","fixation","","","","","","","","","","","","","","","","","","","","","","","","","",""
"","","","","","canvas-keyboard-response","53","305574","0.0-12.0-1.8","2d_cat_multi_stim_exp1","2022-4-13","13:8:41","25","75","3","9","10","40","30","120","35","20","[""White""]","No","Male","1950485","null","null","","","","clear_screen","","","","","","","","","","","","","","","","","","","","","","","","","",""
"","","","","","canvas-keyboard-response","54","311777","0.0-12.0-2.8","2d_cat_multi_stim_exp1","2022-4-13","13:8:41","25","75","3","9","10","40","30","120","35","20","[""White""]","No","Male","1950485","6194","u","learn","","","learn_trial","26.6667","90","out","1","0","","","","","","","","","","","","","","","","","","","","",""
"","","","","","canvas-keyboard-response","55","312788","0.0-12.0-3.8","2d_cat_multi_stim_exp1","2022-4-13","13:8:41","25","75","3","9","10","40","30","120","35","20","[""White""]","No","Male","1950485","null","null","learn_feedback","","","learn_feedback","26.6667","90","out","","","","","","","","","","","","","","","","","","","","","","",""
"","","","","","canvas-keyboard-response","56","312849","0.0-12.0-4.8","2d_cat_multi_stim_exp1","2022-4-13","13:8:41","25","75","3","9","10","40","30","120","35","20","[""White""]","No","Male","1950485","null","null","","","","clear_screen","","","","","","","","","","","","","","","","","","","","","","","","","",""
"","","","","","canvas-keyboard-response","57","313359","0.0-12.0-0.9","2d_cat_multi_stim_exp1","2022-4-13","13:8:41","25","75","3","9","10","40","30","120","35","20","[""White""]","No","Male","1950485","null","null","","","","fixation","","","","","","","","","","","","","","","","","","","","","","","","","",""
"","","","","","canvas-keyboard-response","58","313868","0.0-12.0-1.9","2d_cat_multi_stim_exp1","2022-4-13","13:8:41","25","75","3","9","10","40","30","120","35","20","[""White""]","No","Male","1950485","null","null","","","","clear_screen","","","","","","","","","","","","","","","","","","","","","","","","","",""
"","","","","","canvas-keyboard-response","59","314978","0.0-12.0-2.9","2d_cat_multi_stim_exp1","2022-4-13","13:8:41","25","75","3","9","10","40","30","120","35","20","[""White""]","No","Male","1950485","1101","i","learn","","","learn_trial","25","75","in","0","0","","","","","","","","","","","","","","","","","","","","",""
"","","","","","canvas-keyboard-response","60","315991","0.0-12.0-3.9","2d_cat_multi_stim_exp1","2022-4-13","13:8:41","25","75","3","9","10","40","30","120","35","20","[""White""]","No","Male","1950485","null","null","learn_feedback","","","learn_feedback","25","75","in","","","","","","","","","","","","","","","","","","","","","","",""
"","","","","","canvas-keyboard-response","61","316051","0.0-12.0-4.9","2d_cat_multi_stim_exp1","2022-4-13","13:8:41","25","75","3","9","10","40","30","120","35","20","[""White""]","No","Male","1950485","null","null","","","","clear_screen","","","","","","","","","","","","","","","","","","","","","","","","","",""
"","","","","","canvas-keyboard-response","62","316563","0.0-12.0-0.10","2d_cat_multi_stim_exp1","2022-4-13","13:8:41","25","75","3","9","10","40","30","120","35","20","[""White""]","No","Male","1950485","null","null","","","","fixation","","","","","","","","","","","","","","","","","","","","","","","","","",""
"","","","","","canvas-keyboard-response","63","317078","0.0-12.0-1.10","2d_cat_multi_stim_exp1","2022-4-13","13:8:41","25","75","3","9","10","40","30","120","35","20","[""White""]","No","Male","1950485","null","null","","","","clear_screen","","","","","","","","","","","","","","","","","","","","","","","","","",""
"","","","","","canvas-keyboard-response","64","318690","0.0-12.0-2.10","2d_cat_multi_stim_exp1","2022-4-13","13:8:41","25","75","3","9","10","40","30","120","35","20","[""White""]","No","Male","1950485","1599","u","learn","","","learn_trial","27.2592","69.0786","in","1","1","","","","","","","","","","","","","","","","","","","","",""
"","","","","","canvas-keyboard-response","65","319200","0.0-12.0-3.10","2d_cat_multi_stim_exp1","2022-4-13","13:8:41","25","75","3","9","10","40","30","120","35","20","[""White""]","No","Male","1950485","null","null","learn_feedback","","","learn_feedback","27.2592","69.0786","in","","","","","","","","","","","","","","","","","","","","","","",""
"","","","","","canvas-keyboard-response","66","319265","0.0-12.0-4.10","2d_cat_multi_stim_exp1","2022-4-13","13:8:41","25","75","3","9","10","40","30","120","35","20","[""White""]","No","Male","1950485","null","null","","","","clear_screen","","","","","","","","","","","","","","","","","","","","","","","","","",""
"","","","","","canvas-keyboard-response","67","319775","0.0-12.0-0.11","2d_cat_multi_stim_exp1","2022-4-13","13:8:41","25","75","3","9","10","40","30","120","35","20","[""White""]","No","Male","1950485","null","null","","","","fixation","","","","","","","","","","","","","","","","","","","","","","","","","",""
"","","","","","canvas-keyboard-response","68","320285","0.0-12.0-1.11","2d_cat_multi_stim_exp1","2022-4-13","13:8:41","25","75","3","9","10","40","30","120","35","20","[""White""]","No","Male","1950485","null","null","","","","clear_screen","","","","","","","","","","","","","","","","","","","","","","","","","",""
"","","","","","canvas-keyboard-response","69","321305","0.0-12.0-2.11","2d_cat_multi_stim_exp1","2022-4-13","13:8:41","25","75","3","9","10","40","30","120","35","20","[""White""]","No","Male","1950485","1007","u","learn","","","learn_trial","33.3333","90","out","1","0","","","","","","","","","","","","","","","","","","","","",""
"","","","","","canvas-keyboard-response","70","322317","0.0-12.0-3.11","2d_cat_multi_stim_exp1","2022-4-13","13:8:41","25","75","3","9","10","40","30","120","35","20","[""White""]","No","Male","1950485","null","null","learn_feedback","","","learn_feedback","33.3333","90","out","","","","","","","","","","","","","","","","","","","","","","",""
"","","","","","canvas-keyboard-response","71","322381","0.0-12.0-4.11","2d_cat_multi_stim_exp1","2022-4-13","13:8:41","25","75","3","9","10","40","30","120","35","20","[""White""]","No","Male","1950485","null","null","","","","clear_screen","","","","","","","","","","","","","","","","","","","","","","","","","",""
"","","","","","canvas-keyboard-response","72","322891","0.0-12.0-0.12","2d_cat_multi_stim_exp1","2022-4-13","13:8:41","25","75","3","9","10","40","30","120","35","20","[""White""]","No","Male","1950485","null","null","","","","fixation","","","","","","","","","","","","","","","","","","","","","","","","","",""
"","","","","","canvas-keyboard-response","73","323403","0.0-12.0-1.12","2d_cat_multi_stim_exp1","2022-4-13","13:8:41","25","75","3","9","10","40","30","120","35","20","[""White""]","No","Male","1950485","null","null","","","","clear_screen","","","","","","","","","","","","","","","","","","","","","","","","","",""
"","","","","","canvas-keyboard-response","74","324330","0.0-12.0-2.12","2d_cat_multi_stim_exp1","2022-4-13","13:8:41","25","75","3","9","10","40","30","120","35","20","[""White""]","No","Male","1950485","917","u","learn","","","learn_trial","40","110","out","1","0","","","","","","","","","","","","","","","","","","","","",""
"","","","","","canvas-keyboard-response","75","325344","0.0-12.0-3.12","2d_cat_multi_stim_exp1","2022-4-13","13:8:41","25","75","3","9","10","40","30","120","35","20","[""White""]","No","Male","1950485","null","null","learn_feedback","","","learn_feedback","40","110","out","","","","","","","","","","","","","","","","","","","","","","",""
"","","","","","canvas-keyboard-response","76","325405","0.0-12.0-4.12","2d_cat_multi_stim_exp1","2022-4-13","13:8:41","25","75","3","9","10","40","30","120","35","20","[""White""]","No","Male","1950485","null","null","","","","clear_screen","","","","","","","","","","","","","","","","","","","","","","","","","",""
"","","","","","canvas-keyboard-response","77","325913","0.0-12.0-0.13","2d_cat_multi_stim_exp1","2022-4-13","13:8:41","25","75","3","9","10","40","30","120","35","20","[""White""]","No","Male","1950485","null","null","","","","fixation","","","","","","","","","","","","","","","","","","","","","","","","","",""
"","","","","","canvas-keyboard-response","78","326427","0.0-12.0-1.13","2d_cat_multi_stim_exp1","2022-4-13","13:8:41","25","75","3","9","10","40","30","120","35","20","[""White""]","No","Male","1950485","null","null","","","","clear_screen","","","","","","","","","","","","","","","","","","","","","","","","","",""
"","","","","","canvas-keyboard-response","79","328106","0.0-12.0-2.13","2d_cat_multi_stim_exp1","2022-4-13","13:8:41","25","75","3","9","10","40","30","120","35","20","[""White""]","No","Male","1950485","1669","u","learn","","","learn_trial","36.6667","100","out","1","0","","","","","","","","","","","","","","","","","","","","",""
"","","","","","canvas-keyboard-response","80","329114","0.0-12.0-3.13","2d_cat_multi_stim_exp1","2022-4-13","13:8:41","25","75","3","9","10","40","30","120","35","20","[""White""]","No","Male","1950485","null","null","learn_feedback","","","learn_feedback","36.6667","100","out","","","","","","","","","","","","","","","","","","","","","","",""
"","","","","","canvas-keyboard-response","81","329174","0.0-12.0-4.13","2d_cat_multi_stim_exp1","2022-4-13","13:8:41","25","75","3","9","10","40","30","120","35","20","[""White""]","No","Male","1950485","null","null","","","","clear_screen","","","","","","","","","","","","","","","","","","","","","","","","","",""
"","","","","","canvas-keyboard-response","82","329683","0.0-12.0-0.14","2d_cat_multi_stim_exp1","2022-4-13","13:8:41","25","75","3","9","10","40","30","120","35","20","[""White""]","No","Male","1950485","null","null","","","","fixation","","","","","","","","","","","","","","","","","","","","","","","","","",""
"","","","","","canvas-keyboard-response","83","330194","0.0-12.0-1.14","2d_cat_multi_stim_exp1","2022-4-13","13:8:41","25","75","3","9","10","40","30","120","35","20","[""White""]","No","Male","1950485","null","null","","","","clear_screen","","","","","","","","","","","","","","","","","","","","","","","","","",""
"","","","","","canvas-keyboard-response","84","330856","0.0-12.0-2.14","2d_cat_multi_stim_exp1","2022-4-13","13:8:41","25","75","3","9","10","40","30","120","35","20","[""White""]","No","Male","1950485","653","i","learn","","","learn_trial","25","75","in","0","0","","","","","","","","","","","","","","","","","","","","",""
"","","","","","canvas-keyboard-response","85","331864","0.0-12.0-3.14","2d_cat_multi_stim_exp1","2022-4-13","13:8:41","25","75","3","9","10","40","30","120","35","20","[""White""]","No","Male","1950485","null","null","learn_feedback","","","learn_feedback","25","75","in","","","","","","","","","","","","","","","","","","","","","","",""
"","","","","","canvas-keyboard-response","86","331926","0.0-12.0-4.14","2d_cat_multi_stim_exp1","2022-4-13","13:8:41","25","75","3","9","10","40","30","120","35","20","[""White""]","No","Male","1950485","null","null","","","","clear_screen","","","","","","","","","","","","","","","","","","","","","","","","","",""
"","","","","","canvas-keyboard-response","87","332435","0.0-12.0-0.15","2d_cat_multi_stim_exp1","2022-4-13","13:8:41","25","75","3","9","10","40","30","120","35","20","[""White""]","No","Male","1950485","null","null","","","","fixation","","","","","","","","","","","","","","","","","","","","","","","","","",""
"","","","","","canvas-keyboard-response","88","332944","0.0-12.0-1.15","2d_cat_multi_stim_exp1","2022-4-13","13:8:41","25","75","3","9","10","40","30","120","35","20","[""White""]","No","Male","1950485","null","null","","","","clear_screen","","","","","","","","","","","","","","","","","","","","","","","","","",""
"","","","","","canvas-keyboard-response","89","334497","0.0-12.0-2.15","2d_cat_multi_stim_exp1","2022-4-13","13:8:41","25","75","3","9","10","40","30","120","35","20","[""White""]","No","Male","1950485","1545","i","learn","","","learn_trial","24.3324","66.2256","in","0","0","","","","","","","","","","","","","","","","","","","","",""
"","","","","","canvas-keyboard-response","90","335509","0.0-12.0-3.15","2d_cat_multi_stim_exp1","2022-4-13","13:8:41","25","75","3","9","10","40","30","120","35","20","[""White""]","No","Male","1950485","null","null","learn_feedback","","","learn_feedback","24.3324","66.2256","in","","","","","","","","","","","","","","","","","","","","","","",""
"","","","","","canvas-keyboard-response","91","335569","0.0-12.0-4.15","2d_cat_multi_stim_exp1","2022-4-13","13:8:41","25","75","3","9","10","40","30","120","35","20","[""White""]","No","Male","1950485","null","null","","","","clear_screen","","","","","","","","","","","","","","","","","","","","","","","","","",""
"","","","","","canvas-keyboard-response","92","336080","0.0-12.0-0.16","2d_cat_multi_stim_exp1","2022-4-13","13:8:41","25","75","3","9","10","40","30","120","35","20","[""White""]","No","Male","1950485","null","null","","","","fixation","","","","","","","","","","","","","","","","","","","","","","","","","",""
"","","","","","canvas-keyboard-response","93","336595","0.0-12.0-1.16","2d_cat_multi_stim_exp1","2022-4-13","13:8:41","25","75","3","9","10","40","30","120","35","20","[""White""]","No","Male","1950485","null","null","","","","clear_screen","","","","","","","","","","","","","","","","","","","","","","","","","",""
"","","","","","canvas-keyboard-response","94","339931","0.0-12.0-2.16","2d_cat_multi_stim_exp1","2022-4-13","13:8:41","25","75","3","9","10","40","30","120","35","20","[""White""]","No","Male","1950485","3324","u","learn","","","learn_trial","25","75","in","1","1","","","","","","","","","","","","","","","","","","","","",""
"","","","","","canvas-keyboard-response","95","340442","0.0-12.0-3.16","2d_cat_multi_stim_exp1","2022-4-13","13:8:41","25","75","3","9","10","40","30","120","35","20","[""White""]","No","Male","1950485","null","null","learn_feedback","","","learn_feedback","25","75","in","","","","","","","","","","","","","","","","","","","","","","",""
"","","","","","canvas-keyboard-response","96","340506","0.0-12.0-4.16","2d_cat_multi_stim_exp1","2022-4-13","13:8:41","25","75","3","9","10","40","30","120","35","20","[""White""]","No","Male","1950485","null","null","","","","clear_screen","","","","","","","","","","","","","","","","","","","","","","","","","",""
"","","","","","canvas-keyboard-response","97","341017","0.0-12.0-0.17","2d_cat_multi_stim_exp1","2022-4-13","13:8:41","25","75","3","9","10","40","30","120","35","20","[""White""]","No","Male","1950485","null","null","","","","fixation","","","","","","","","","","","","","","","","","","","","","","","","","",""
"","","","","","canvas-keyboard-response","98","341527","0.0-12.0-1.17","2d_cat_multi_stim_exp1","2022-4-13","13:8:41","25","75","3","9","10","40","30","120","35","20","[""White""]","No","Male","1950485","null","null","","","","clear_screen","","","","","","","","","","","","","","","","","","","","","","","","","",""
"","","","","","canvas-keyboard-response","99","342690","0.0-12.0-2.17","2d_cat_multi_stim_exp1","2022-4-13","13:8:41","25","75","3","9","10","40","30","120","35","20","[""White""]","No","Male","1950485","1149","i","learn","","","learn_trial","25","57","in","0","0","","","","","","","","","","","","","","","","","","","","",""
"","","","","","canvas-keyboard-response","100","343699","0.0-12.0-3.17","2d_cat_multi_stim_exp1","2022-4-13","13:8:41","25","75","3","9","10","40","30","120","35","20","[""White""]","No","Male","1950485","null","null","learn_feedback","","","learn_feedback","25","57","in","","","","","","","","","","","","","","","","","","","","","","",""
"","","","","","canvas-keyboard-response","101","343759","0.0-12.0-4.17","2d_cat_multi_stim_exp1","2022-4-13","13:8:41","25","75","3","9","10","40","30","120","35","20","[""White""]","No","Male","1950485","null","null","","","","clear_screen","","","","","","","","","","","","","","","","","","","","","","","","","",""
"","","","","","canvas-keyboard-response","102","344270","0.0-12.0-0.18","2d_cat_multi_stim_exp1","2022-4-13","13:8:41","25","75","3","9","10","40","30","120","35","20","[""White""]","No","Male","1950485","null","null","","","","fixation","","","","","","","","","","","","","","","","","","","","","","","","","",""
"","","","","","canvas-keyboard-response","103","344782","0.0-12.0-1.18","2d_cat_multi_stim_exp1","2022-4-13","13:8:41","25","75","3","9","10","40","30","120","35","20","[""White""]","No","Male","1950485","null","null","","","","clear_screen","","","","","","","","","","","","","","","","","","","","","","","","","",""
"","","","","","canvas-keyboard-response","104","346483","0.0-12.0-2.18","2d_cat_multi_stim_exp1","2022-4-13","13:8:41","25","75","3","9","10","40","30","120","35","20","[""White""]","No","Male","1950485","1688","u","learn","","","learn_trial","22.2971","71.095","in","1","1","","","","","","","","","","","","","","","","","","","","",""
"","","","","","canvas-keyboard-response","105","346991","0.0-12.0-3.18","2d_cat_multi_stim_exp1","2022-4-13","13:8:41","25","75","3","9","10","40","30","120","35","20","[""White""]","No","Male","1950485","null","null","learn_feedback","","","learn_feedback","22.2971","71.095","in","","","","","","","","","","","","","","","","","","","","","","",""
"","","","","","canvas-keyboard-response","106","347052","0.0-12.0-4.18","2d_cat_multi_stim_exp1","2022-4-13","13:8:41","25","75","3","9","10","40","30","120","35","20","[""White""]","No","Male","1950485","null","null","","","","clear_screen","","","","","","","","","","","","","","","","","","","","","","","","","",""
"","","","","","canvas-keyboard-response","107","347561","0.0-12.0-0.19","2d_cat_multi_stim_exp1","2022-4-13","13:8:41","25","75","3","9","10","40","30","120","35","20","[""White""]","No","Male","1950485","null","null","","","","fixation","","","","","","","","","","","","","","","","","","","","","","","","","",""
"","","","","","canvas-keyboard-response","108","348071","0.0-12.0-1.19","2d_cat_multi_stim_exp1","2022-4-13","13:8:41","25","75","3","9","10","40","30","120","35","20","[""White""]","No","Male","1950485","null","null","","","","clear_screen","","","","","","","","","","","","","","","","","","","","","","","","","",""
"","","","","","canvas-keyboard-response","109","349098","0.0-12.0-2.19","2d_cat_multi_stim_exp1","2022-4-13","13:8:41","25","75","3","9","10","40","30","120","35","20","[""White""]","No","Male","1950485","1016","i","learn","","","learn_trial","13.3333","100","out","0","1","","","","","","","","","","","","","","","","","","","","",""
"","","","","","canvas-keyboard-response","110","349607","0.0-12.0-3.19","2d_cat_multi_stim_exp1","2022-4-13","13:8:41","25","75","3","9","10","40","30","120","35","20","[""White""]","No","Male","1950485","null","null","learn_feedback","","","learn_feedback","13.3333","100","out","","","","","","","","","","","","","","","","","","","","","","",""
"","","","","","canvas-keyboard-response","111","349669","0.0-12.0-4.19","2d_cat_multi_stim_exp1","2022-4-13","13:8:41","25","75","3","9","10","40","30","120","35","20","[""White""]","No","Male","1950485","null","null","","","","clear_screen","","","","","","","","","","","","","","","","","","","","","","","","","",""
"","","","","","canvas-keyboard-response","112","350179","0.0-12.0-0.20","2d_cat_multi_stim_exp1","2022-4-13","13:8:41","25","75","3","9","10","40","30","120","35","20","[""White""]","No","Male","1950485","null","null","","","","fixation","","","","","","","","","","","","","","","","","","","","","","","","","",""
"","","","","","canvas-keyboard-response","113","350693","0.0-12.0-1.20","2d_cat_multi_stim_exp1","2022-4-13","13:8:41","25","75","3","9","10","40","30","120","35","20","[""White""]","No","Male","1950485","null","null","","","","clear_screen","","","","","","","","","","","","","","","","","","","","","","","","","",""
"","","","","","canvas-keyboard-response","114","354530","0.0-12.0-2.20","2d_cat_multi_stim_exp1","2022-4-13","13:8:41","25","75","3","9","10","40","30","120","35","20","[""White""]","No","Male","1950485","3829","u","learn","","","learn_trial","25","75","in","1","1","","","","","","","","","","","","","","","","","","","","",""
"","","","","","canvas-keyboard-response","115","355043","0.0-12.0-3.20","2d_cat_multi_stim_exp1","2022-4-13","13:8:41","25","75","3","9","10","40","30","120","35","20","[""White""]","No","Male","1950485","null","null","learn_feedback","","","learn_feedback","25","75","in","","","","","","","","","","","","","","","","","","","","","","",""
"","","","","","canvas-keyboard-response","116","355099","0.0-12.0-4.20","2d_cat_multi_stim_exp1","2022-4-13","13:8:41","25","75","3","9","10","40","30","120","35","20","[""White""]","No","Male","1950485","null","null","","","","clear_screen","","","","","","","","","","","","","","","","","","","","","","","","","",""
"","","","","","canvas-keyboard-response","117","355611","0.0-12.0-0.21","2d_cat_multi_stim_exp1","2022-4-13","13:8:41","25","75","3","9","10","40","30","120","35","20","[""White""]","No","Male","1950485","null","null","","","","fixation","","","","","","","","","","","","","","","","","","","","","","","","","",""
"","","","","","canvas-keyboard-response","118","356122","0.0-12.0-1.21","2d_cat_multi_stim_exp1","2022-4-13","13:8:41","25","75","3","9","10","40","30","120","35","20","[""White""]","No","Male","1950485","null","null","","","","clear_screen","","","","","","","","","","","","","","","","","","","","","","","","","",""
"","","","","","canvas-keyboard-response","119","357897","0.0-12.0-2.21","2d_cat_multi_stim_exp1","2022-4-13","13:8:41","25","75","3","9","10","40","30","120","35","20","[""White""]","No","Male","1950485","1766","i","learn","","","learn_trial","40","70","out","0","1","","","","","","","","","","","","","","","","","","","","",""
"","","","","","canvas-keyboard-response","120","358406","0.0-12.0-3.21","2d_cat_multi_stim_exp1","2022-4-13","13:8:41","25","75","3","9","10","40","30","120","35","20","[""White""]","No","Male","1950485","null","null","learn_feedback","","","learn_feedback","40","70","out","","","","","","","","","","","","","","","","","","","","","","",""
"","","","","","canvas-keyboard-response","121","358465","0.0-12.0-4.21","2d_cat_multi_stim_exp1","2022-4-13","13:8:41","25","75","3","9","10","40","30","120","35","20","[""White""]","No","Male","1950485","null","null","","","","clear_screen","","","","","","","","","","","","","","","","","","","","","","","","","",""
"","","","","","canvas-keyboard-response","122","358971","0.0-12.0-0.22","2d_cat_multi_stim_exp1","2022-4-13","13:8:41","25","75","3","9","10","40","30","120","35","20","[""White""]","No","Male","1950485","null","null","","","","fixation","","","","","","","","","","","","","","","","","","","","","","","","","",""
"","","","","","canvas-keyboard-response","123","359485","0.0-12.0-1.22","2d_cat_multi_stim_exp1","2022-4-13","13:8:41","25","75","3","9","10","40","30","120","35","20","[""White""]","No","Male","1950485","null","null","","","","clear_screen","","","","","","","","","","","","","","","","","","","","","","","","","",""
"","","","","","canvas-keyboard-response","124","360666","0.0-12.0-2.22","2d_cat_multi_stim_exp1","2022-4-13","13:8:41","25","75","3","9","10","40","30","120","35","20","[""White""]","No","Male","1950485","1170","u","learn","","","learn_trial","25","75","in","1","1","","","","","","","","","","","","","","","","","","","","",""
"","","","","","canvas-keyboard-response","125","361175","0.0-12.0-3.22","2d_cat_multi_stim_exp1","2022-4-13","13:8:41","25","75","3","9","10","40","30","120","35","20","[""White""]","No","Male","1950485","null","null","learn_feedback","","","learn_feedback","25","75","in","","","","","","","","","","","","","","","","","","","","","","",""
"","","","","","canvas-keyboard-response","126","361234","0.0-12.0-4.22","2d_cat_multi_stim_exp1","2022-4-13","13:8:41","25","75","3","9","10","40","30","120","35","20","[""White""]","No","Male","1950485","null","null","","","","clear_screen","","","","","","","","","","","","","","","","","","","","","","","","","",""
"","","","","","canvas-keyboard-response","127","361743","0.0-12.0-0.23","2d_cat_multi_stim_exp1","2022-4-13","13:8:41","25","75","3","9","10","40","30","120","35","20","[""White""]","No","Male","1950485","null","null","","","","fixation","","","","","","","","","","","","","","","","","","","","","","","","","",""
"","","","","","canvas-keyboard-response","128","362255","0.0-12.0-1.23","2d_cat_multi_stim_exp1","2022-4-13","13:8:41","25","75","3","9","10","40","30","120","35","20","[""White""]","No","Male","1950485","null","null","","","","clear_screen","","","","","","","","","","","","","","","","","","","","","","","","","",""
"","","","","","canvas-keyboard-response","129","363082","0.0-12.0-2.23","2d_cat_multi_stim_exp1","2022-4-13","13:8:41","25","75","3","9","10","40","30","120","35","20","[""White""]","No","Male","1950485","817","i","learn","","","learn_trial","26.6667","30","out","0","1","","","","","","","","","","","","","","","","","","","","",""
"","","","","","canvas-keyboard-response","130","363587","0.0-12.0-3.23","2d_cat_multi_stim_exp1","2022-4-13","13:8:41","25","75","3","9","10","40","30","120","35","20","[""White""]","No","Male","1950485","null","null","learn_feedback","","","learn_feedback","26.6667","30","out","","","","","","","","","","","","","","","","","","","","","","",""
"","","","","","canvas-keyboard-response","131","363649","0.0-12.0-4.23","2d_cat_multi_stim_exp1","2022-4-13","13:8:41","25","75","3","9","10","40","30","120","35","20","[""White""]","No","Male","1950485","null","null","","","","clear_screen","","","","","","","","","","","","","","","","","","","","","","","","","",""
"","","","","","canvas-keyboard-response","132","364156","0.0-12.0-0.24","2d_cat_multi_stim_exp1","2022-4-13","13:8:41","25","75","3","9","10","40","30","120","35","20","[""White""]","No","Male","1950485","null","null","","","","fixation","","","","","","","","","","","","","","","","","","","","","","","","","",""
"","","","","","canvas-keyboard-response","133","364668","0.0-12.0-1.24","2d_cat_multi_stim_exp1","2022-4-13","13:8:41","25","75","3","9","10","40","30","120","35","20","[""White""]","No","Male","1950485","null","null","","","","clear_screen","","","","","","","","","","","","","","","","","","","","","","","","","",""
"","","","","","canvas-keyboard-response","134","365329","0.0-12.0-2.24","2d_cat_multi_stim_exp1","2022-4-13","13:8:41","25","75","3","9","10","40","30","120","35","20","[""White""]","No","Male","1950485","651","u","learn","","","learn_trial","23.8209","83.2757","in","1","1","","","","","","","","","","","","","","","","","","","","",""
"","","","","","canvas-keyboard-response","135","365842","0.0-12.0-3.24","2d_cat_multi_stim_exp1","2022-4-13","13:8:41","25","75","3","9","10","40","30","120","35","20","[""White""]","No","Male","1950485","null","null","learn_feedback","","","learn_feedback","23.8209","83.2757","in","","","","","","","","","","","","","","","","","","","","","","",""
"","","","","","canvas-keyboard-response","136","365901","0.0-12.0-4.24","2d_cat_multi_stim_exp1","2022-4-13","13:8:41","25","75","3","9","10","40","30","120","35","20","[""White""]","No","Male","1950485","null","null","","","","clear_screen","","","","","","","","","","","","","","","","","","","","","","","","","",""
"","","","","","canvas-keyboard-response","137","366411","0.0-12.0-0.25","2d_cat_multi_stim_exp1","2022-4-13","13:8:41","25","75","3","9","10","40","30","120","35","20","[""White""]","No","Male","1950485","null","null","","","","fixation","","","","","","","","","","","","","","","","","","","","","","","","","",""
"","","","","","canvas-keyboard-response","138","366925","0.0-12.0-1.25","2d_cat_multi_stim_exp1","2022-4-13","13:8:41","25","75","3","9","10","40","30","120","35","20","[""White""]","No","Male","1950485","null","null","","","","clear_screen","","","","","","","","","","","","","","","","","","","","","","","","","",""
"","","","","","canvas-keyboard-response","139","367890","0.0-12.0-2.25","2d_cat_multi_stim_exp1","2022-4-13","13:8:41","25","75","3","9","10","40","30","120","35","20","[""White""]","No","Male","1950485","954","u","learn","","","learn_trial","26.6667","110","out","1","0","","","","","","","","","","","","","","","","","","","","",""
"","","","","","canvas-keyboard-response","140","368900","0.0-12.0-3.25","2d_cat_multi_stim_exp1","2022-4-13","13:8:41","25","75","3","9","10","40","30","120","35","20","[""White""]","No","Male","1950485","null","null","learn_feedback","","","learn_feedback","26.6667","110","out","","","","","","","","","","","","","","","","","","","","","","",""
"","","","","","canvas-keyboard-response","141","368960","0.0-12.0-4.25","2d_cat_multi_stim_exp1","2022-4-13","13:8:41","25","75","3","9","10","40","30","120","35","20","[""White""]","No","Male","1950485","null","null","","","","clear_screen","","","","","","","","","","","","","","","","","","","","","","","","","",""
"","","","","","canvas-keyboard-response","142","369468","0.0-12.0-0.26","2d_cat_multi_stim_exp1","2022-4-13","13:8:41","25","75","3","9","10","40","30","120","35","20","[""White""]","No","Male","1950485","null","null","","","","fixation","","","","","","","","","","","","","","","","","","","","","","","","","",""
"","","","","","canvas-keyboard-response","143","369979","0.0-12.0-1.26","2d_cat_multi_stim_exp1","2022-4-13","13:8:41","25","75","3","9","10","40","30","120","35","20","[""White""]","No","Male","1950485","null","null","","","","clear_screen","","","","","","","","","","","","","","","","","","","","","","","","","",""
"","","","","","canvas-keyboard-response","144","371842","0.0-12.0-2.26","2d_cat_multi_stim_exp1","2022-4-13","13:8:41","25","75","3","9","10","40","30","120","35","20","[""White""]","No","Male","1950485","1852","u","learn","","","learn_trial","20","70","out","1","0","","","","","","","","","","","","","","","","","","","","",""
"","","","","","canvas-keyboard-response","145","372852","0.0-12.0-3.26","2d_cat_multi_stim_exp1","2022-4-13","13:8:41","25","75","3","9","10","40","30","120","35","20","[""White""]","No","Male","1950485","null","null","learn_feedback","","","learn_feedback","20","70","out","","","","","","","","","","","","","","","","","","","","","","",""
"","","","","","canvas-keyboard-response","146","372911","0.0-12.0-4.26","2d_cat_multi_stim_exp1","2022-4-13","13:8:41","25","75","3","9","10","40","30","120","35","20","[""White""]","No","Male","1950485","null","null","","","","clear_screen","","","","","","","","","","","","","","","","","","","","","","","","","",""
"","","","","","canvas-keyboard-response","147","373420","0.0-12.0-0.27","2d_cat_multi_stim_exp1","2022-4-13","13:8:41","25","75","3","9","10","40","30","120","35","20","[""White""]","No","Male","1950485","null","null","","","","fixation","","","","","","","","","","","","","","","","","","","","","","","","","",""
"","","","","","canvas-keyboard-response","148","373933","0.0-12.0-1.27","2d_cat_multi_stim_exp1","2022-4-13","13:8:41","25","75","3","9","10","40","30","120","35","20","[""White""]","No","Male","1950485","null","null","","","","clear_screen","","","","","","","","","","","","","","","","","","","","","","","","","",""
"","","","","","canvas-keyboard-response","149","374731","0.0-12.0-2.27","2d_cat_multi_stim_exp1","2022-4-13","13:8:41","25","75","3","9","10","40","30","120","35","20","[""White""]","No","Male","1950485","788","u","learn","","","learn_trial","25","75","in","1","1","","","","","","","","","","","","","","","","","","","","",""
"","","","","","canvas-keyboard-response","150","375242","0.0-12.0-3.27","2d_cat_multi_stim_exp1","2022-4-13","13:8:41","25","75","3","9","10","40","30","120","35","20","[""White""]","No","Male","1950485","null","null","learn_feedback","","","learn_feedback","25","75","in","","","","","","","","","","","","","","","","","","","","","","",""
"","","","","","canvas-keyboard-response","151","375303","0.0-12.0-4.27","2d_cat_multi_stim_exp1","2022-4-13","13:8:41","25","75","3","9","10","40","30","120","35","20","[""White""]","No","Male","1950485","null","null","","","","clear_screen","","","","","","","","","","","","","","","","","","","","","","","","","",""
"","","","","","canvas-keyboard-response","152","375816","0.0-12.0-0.28","2d_cat_multi_stim_exp1","2022-4-13","13:8:41","25","75","3","9","10","40","30","120","35","20","[""White""]","No","Male","1950485","null","null","","","","fixation","","","","","","","","","","","","","","","","","","","","","","","","","",""
"","","","","","canvas-keyboard-response","153","376328","0.0-12.0-1.28","2d_cat_multi_stim_exp1","2022-4-13","13:8:41","25","75","3","9","10","40","30","120","35","20","[""White""]","No","Male","1950485","null","null","","","","clear_screen","","","","","","","","","","","","","","","","","","","","","","","","","",""
"","","","","","canvas-keyboard-response","154","377121","0.0-12.0-2.28","2d_cat_multi_stim_exp1","2022-4-13","13:8:41","25","75","3","9","10","40","30","120","35","20","[""White""]","No","Male","1950485","783","i","learn","","","learn_trial","40","40","out","0","1","","","","","","","","","","","","","","","","","","","","",""
"","","","","","canvas-keyboard-response","155","377635","0.0-12.0-3.28","2d_cat_multi_stim_exp1","2022-4-13","13:8:41","25","75","3","9","10","40","30","120","35","20","[""White""]","No","Male","1950485","null","null","learn_feedback","","","learn_feedback","40","40","out","","","","","","","","","","","","","","","","","","","","","","",""
"","","","","","canvas-keyboard-response","156","377694","0.0-12.0-4.28","2d_cat_multi_stim_exp1","2022-4-13","13:8:41","25","75","3","9","10","40","30","120","35","20","[""White""]","No","Male","1950485","null","null","","","","clear_screen","","","","","","","","","","","","","","","","","","","","","","","","","",""
"","","","","","canvas-keyboard-response","157","378205","0.0-12.0-0.29","2d_cat_multi_stim_exp1","2022-4-13","13:8:41","25","75","3","9","10","40","30","120","35","20","[""White""]","No","Male","1950485","null","null","","","","fixation","","","","","","","","","","","","","","","","","","","","","","","","","",""
"","","","","","canvas-keyboard-response","158","378718","0.0-12.0-1.29","2d_cat_multi_stim_exp1","2022-4-13","13:8:41","25","75","3","9","10","40","30","120","35","20","[""White""]","No","Male","1950485","null","null","","","","clear_screen","","","","","","","","","","","","","","","","","","","","","","","","","",""
"","","","","","canvas-keyboard-response","159","382683","0.0-12.0-2.29","2d_cat_multi_stim_exp1","2022-4-13","13:8:41","25","75","3","9","10","40","30","120","35","20","[""White""]","No","Male","1950485","3953","i","learn","","","learn_trial","33.3333","80","out","0","1","","","","","","","","","","","","","","","","","","","","",""
"","","","","","canvas-keyboard-response","160","383191","0.0-12.0-3.29","2d_cat_multi_stim_exp1","2022-4-13","13:8:41","25","75","3","9","10","40","30","120","35","20","[""White""]","No","Male","1950485","null","null","learn_feedback","","","learn_feedback","33.3333","80","out","","","","","","","","","","","","","","","","","","","","","","",""
"","","","","","canvas-keyboard-response","161","383256","0.0-12.0-4.29","2d_cat_multi_stim_exp1","2022-4-13","13:8:41","25","75","3","9","10","40","30","120","35","20","[""White""]","No","Male","1950485","null","null","","","","clear_screen","","","","","","","","","","","","","","","","","","","","","","","","","",""
"","","","","","canvas-keyboard-response","162","383762","0.0-12.0-0.30","2d_cat_multi_stim_exp1","2022-4-13","13:8:41","25","75","3","9","10","40","30","120","35","20","[""White""]","No","Male","1950485","null","null","","","","fixation","","","","","","","","","","","","","","","","","","","","","","","","","",""
"","","","","","canvas-keyboard-response","163","384274","0.0-12.0-1.30","2d_cat_multi_stim_exp1","2022-4-13","13:8:41","25","75","3","9","10","40","30","120","35","20","[""White""]","No","Male","1950485","null","null","","","","clear_screen","","","","","","","","","","","","","","","","","","","","","","","","","",""
"","","","","","canvas-keyboard-response","164","385714","0.0-12.0-2.30","2d_cat_multi_stim_exp1","2022-4-13","13:8:41","25","75","3","9","10","40","30","120","35","20","[""White""]","No","Male","1950485","1429","i","learn","","","learn_trial","24.8654","66.0091","in","0","0","","","","","","","","","","","","","","","","","","","","",""
"","","","","","canvas-keyboard-response","165","386722","0.0-12.0-3.30","2d_cat_multi_stim_exp1","2022-4-13","13:8:41","25","75","3","9","10","40","30","120","35","20","[""White""]","No","Male","1950485","null","null","learn_feedback","","","learn_feedback","24.8654","66.0091","in","","","","","","","","","","","","","","","","","","","","","","",""
"","","","","","canvas-keyboard-response","166","386783","0.0-12.0-4.30","2d_cat_multi_stim_exp1","2022-4-13","13:8:41","25","75","3","9","10","40","30","120","35","20","[""White""]","No","Male","1950485","null","null","","","","clear_screen","","","","","","","","","","","","","","","","","","","","","","","","","",""
"","","","","","canvas-keyboard-response","167","387291","0.0-12.0-0.31","2d_cat_multi_stim_exp1","2022-4-13","13:8:41","25","75","3","9","10","40","30","120","35","20","[""White""]","No","Male","1950485","null","null","","","","fixation","","","","","","","","","","","","","","","","","","","","","","","","","",""
"","","","","","canvas-keyboard-response","168","387804","0.0-12.0-1.31","2d_cat_multi_stim_exp1","2022-4-13","13:8:41","25","75","3","9","10","40","30","120","35","20","[""White""]","No","Male","1950485","null","null","","","","clear_screen","","","","","","","","","","","","","","","","","","","","","","","","","",""
"","","","","","canvas-keyboard-response","169","389786","0.0-12.0-2.31","2d_cat_multi_stim_exp1","2022-4-13","13:8:41","25","75","3","9","10","40","30","120","35","20","[""White""]","No","Male","1950485","1971","u","learn","","","learn_trial","25","75","in","1","1","","","","","","","","","","","","","","","","","","","","",""
"","","","","","canvas-keyboard-response","170","390299","0.0-12.0-3.31","2d_cat_multi_stim_exp1","2022-4-13","13:8:41","25","75","3","9","10","40","30","120","35","20","[""White""]","No","Male","1950485","null","null","learn_feedback","","","learn_feedback","25","75","in","","","","","","","","","","","","","","","","","","","","","","",""
"","","","","","canvas-keyboard-response","171","390358","0.0-12.0-4.31","2d_cat_multi_stim_exp1","2022-4-13","13:8:41","25","75","3","9","10","40","30","120","35","20","[""White""]","No","Male","1950485","null","null","","","","clear_screen","","","","","","","","","","","","","","","","","","","","","","","","","",""
"","","","","","canvas-keyboard-response","172","390869","0.0-12.0-0.32","2d_cat_multi_stim_exp1","2022-4-13","13:8:41","25","75","3","9","10","40","30","120","35","20","[""White""]","No","Male","1950485","null","null","","","","fixation","","","","","","","","","","","","","","","","","","","","","","","","","",""
"","","","","","canvas-keyboard-response","173","391379","0.0-12.0-1.32","2d_cat_multi_stim_exp1","2022-4-13","13:8:41","25","75","3","9","10","40","30","120","35","20","[""White""]","No","Male","1950485","null","null","","","","clear_screen","","","","","","","","","","","","","","","","","","","","","","","","","",""
"","","","","","canvas-keyboard-response","174","392802","0.0-12.0-2.32","2d_cat_multi_stim_exp1","2022-4-13","13:8:41","25","75","3","9","10","40","30","120","35","20","[""White""]","No","Male","1950485","1413","i","learn","","","learn_trial","30","100","out","0","1","","","","","","","","","","","","","","","","","","","","",""
"","","","","","canvas-keyboard-response","175","393314","0.0-12.0-3.32","2d_cat_multi_stim_exp1","2022-4-13","13:8:41","25","75","3","9","10","40","30","120","35","20","[""White""]","No","Male","1950485","null","null","learn_feedback","","","learn_feedback","30","100","out","","","","","","","","","","","","","","","","","","","","","","",""
"","","","","","canvas-keyboard-response","176","393374","0.0-12.0-4.32","2d_cat_multi_stim_exp1","2022-4-13","13:8:41","25","75","3","9","10","40","30","120","35","20","[""White""]","No","Male","1950485","null","null","","","","clear_screen","","","","","","","","","","","","","","","","","","","","","","","","","",""
"","","","","","canvas-keyboard-response","177","393884","0.0-12.0-0.33","2d_cat_multi_stim_exp1","2022-4-13","13:8:41","25","75","3","9","10","40","30","120","35","20","[""White""]","No","Male","1950485","null","null","","","","fixation","","","","","","","","","","","","","","","","","","","","","","","","","",""
"","","","","","canvas-keyboard-response","178","394397","0.0-12.0-1.33","2d_cat_multi_stim_exp1","2022-4-13","13:8:41","25","75","3","9","10","40","30","120","35","20","[""White""]","No","Male","1950485","null","null","","","","clear_screen","","","","","","","","","","","","","","","","","","","","","","","","","",""
"","","","","","canvas-keyboard-response","179","395417","0.0-12.0-2.33","2d_cat_multi_stim_exp1","2022-4-13","13:8:41","25","75","3","9","10","40","30","120","35","20","[""White""]","No","Male","1950485","1011","i","learn","","","learn_trial","10","120","out","0","1","","","","","","","","","","","","","","","","","","","","",""
"","","","","","canvas-keyboard-response","180","395927","0.0-12.0-3.33","2d_cat_multi_stim_exp1","2022-4-13","13:8:41","25","75","3","9","10","40","30","120","35","20","[""White""]","No","Male","1950485","null","null","learn_feedback","","","learn_feedback","10","120","out","","","","","","","","","","","","","","","","","","","","","","",""
"","","","","","canvas-keyboard-response","181","395991","0.0-12.0-4.33","2d_cat_multi_stim_exp1","2022-4-13","13:8:41","25","75","3","9","10","40","30","120","35","20","[""White""]","No","Male","1950485","null","null","","","","clear_screen","","","","","","","","","","","","","","","","","","","","","","","","","",""
"","","","","","canvas-keyboard-response","182","396501","0.0-12.0-0.34","2d_cat_multi_stim_exp1","2022-4-13","13:8:41","25","75","3","9","10","40","30","120","35","20","[""White""]","No","Male","1950485","null","null","","","","fixation","","","","","","","","","","","","","","","","","","","","","","","","","",""
"","","","","","canvas-keyboard-response","183","397013","0.0-12.0-1.34","2d_cat_multi_stim_exp1","2022-4-13","13:8:41","25","75","3","9","10","40","30","120","35","20","[""White""]","No","Male","1950485","null","null","","","","clear_screen","","","","","","","","","","","","","","","","","","","","","","","","","",""
"","","","","","canvas-keyboard-response","184","399866","0.0-12.0-2.34","2d_cat_multi_stim_exp1","2022-4-13","13:8:41","25","75","3","9","10","40","30","120","35","20","[""White""]","No","Male","1950485","2842","i","learn","","","learn_trial","27.8087","71.8376","in","0","0","","","","","","","","","","","","","","","","","","","","",""
"","","","","","canvas-keyboard-response","185","400875","0.0-12.0-3.34","2d_cat_multi_stim_exp1","2022-4-13","13:8:41","25","75","3","9","10","40","30","120","35","20","[""White""]","No","Male","1950485","null","null","learn_feedback","","","learn_feedback","27.8087","71.8376","in","","","","","","","","","","","","","","","","","","","","","","",""
"","","","","","canvas-keyboard-response","186","400935","0.0-12.0-4.34","2d_cat_multi_stim_exp1","2022-4-13","13:8:41","25","75","3","9","10","40","30","120","35","20","[""White""]","No","Male","1950485","null","null","","","","clear_screen","","","","","","","","","","","","","","","","","","","","","","","","","",""
"","","","","","canvas-keyboard-response","187","401443","0.0-12.0-0.35","2d_cat_multi_stim_exp1","2022-4-13","13:8:41","25","75","3","9","10","40","30","120","35","20","[""White""]","No","Male","1950485","null","null","","","","fixation","","","","","","","","","","","","","","","","","","","","","","","","","",""
"","","","","","canvas-keyboard-response","188","401956","0.0-12.0-1.35","2d_cat_multi_stim_exp1","2022-4-13","13:8:41","25","75","3","9","10","40","30","120","35","20","[""White""]","No","Male","1950485","null","null","","","","clear_screen","","","","","","","","","","","","","","","","","","","","","","","","","",""
"","","","","","canvas-keyboard-response","189","403594","0.0-12.0-2.35","2d_cat_multi_stim_exp1","2022-4-13","13:8:41","25","75","3","9","10","40","30","120","35","20","[""White""]","No","Male","1950485","1627","i","learn","","","learn_trial","16.6667","50","out","0","1","","","","","","","","","","","","","","","","","","","","",""
"","","","","","canvas-keyboard-response","190","404104","0.0-12.0-3.35","2d_cat_multi_stim_exp1","2022-4-13","13:8:41","25","75","3","9","10","40","30","120","35","20","[""White""]","No","Male","1950485","null","null","learn_feedback","","","learn_feedback","16.6667","50","out","","","","","","","","","","","","","","","","","","","","","","",""
"","","","","","canvas-keyboard-response","191","404168","0.0-12.0-4.35","2d_cat_multi_stim_exp1","2022-4-13","13:8:41","25","75","3","9","10","40","30","120","35","20","[""White""]","No","Male","1950485","null","null","","","","clear_screen","","","","","","","","","","","","","","","","","","","","","","","","","",""
"","","","","","canvas-keyboard-response","192","404676","0.0-12.0-0.36","2d_cat_multi_stim_exp1","2022-4-13","13:8:41","25","75","3","9","10","40","30","120","35","20","[""White""]","No","Male","1950485","null","null","","","","fixation","","","","","","","","","","","","","","","","","","","","","","","","","",""
"","","","","","canvas-keyboard-response","193","405188","0.0-12.0-1.36","2d_cat_multi_stim_exp1","2022-4-13","13:8:41","25","75","3","9","10","40","30","120","35","20","[""White""]","No","Male","1950485","null","null","","","","clear_screen","","","","","","","","","","","","","","","","","","","","","","","","","",""
"","","","","","canvas-keyboard-response","194","406218","0.0-12.0-2.36","2d_cat_multi_stim_exp1","2022-4-13","13:8:41","25","75","3","9","10","40","30","120","35","20","[""White""]","No","Male","1950485","1018","u","learn","","","learn_trial","25","75","in","1","1","","","","","","","","","","","","","","","","","","","","",""
"","","","","","canvas-keyboard-response","195","406731","0.0-12.0-3.36","2d_cat_multi_stim_exp1","2022-4-13","13:8:41","25","75","3","9","10","40","30","120","35","20","[""White""]","No","Male","1950485","null","null","learn_feedback","","","learn_feedback","25","75","in","","","","","","","","","","","","","","","","","","","","","","",""
"","","","","","canvas-keyboard-response","196","406791","0.0-12.0-4.36","2d_cat_multi_stim_exp1","2022-4-13","13:8:41","25","75","3","9","10","40","30","120","35","20","[""White""]","No","Male","1950485","null","null","","","","clear_screen","","","","","","","","","","","","","","","","","","","","","","","","","",""
"","","","","","canvas-keyboard-response","197","407301","0.0-12.0-0.37","2d_cat_multi_stim_exp1","2022-4-13","13:8:41","25","75","3","9","10","40","30","120","35","20","[""White""]","No","Male","1950485","null","null","","","","fixation","","","","","","","","","","","","","","","","","","","","","","","","","",""
"","","","","","canvas-keyboard-response","198","407821","0.0-12.0-1.37","2d_cat_multi_stim_exp1","2022-4-13","13:8:41","25","75","3","9","10","40","30","120","35","20","[""White""]","No","Male","1950485","null","null","","","","clear_screen","","","","","","","","","","","","","","","","","","","","","","","","","",""
"","","","","","canvas-keyboard-response","199","408979","0.0-12.0-2.37","2d_cat_multi_stim_exp1","2022-4-13","13:8:41","25","75","3","9","10","40","30","120","35","20","[""White""]","No","Male","1950485","1146","u","learn","","","learn_trial","25","93","in","1","1","","","","","","","","","","","","","","","","","","","","",""
"","","","","","canvas-keyboard-response","200","409491","0.0-12.0-3.37","2d_cat_multi_stim_exp1","2022-4-13","13:8:41","25","75","3","9","10","40","30","120","35","20","[""White""]","No","Male","1950485","null","null","learn_feedback","","","learn_feedback","25","93","in","","","","","","","","","","","","","","","","","","","","","","",""
"","","","","","canvas-keyboard-response","201","409551","0.0-12.0-4.37","2d_cat_multi_stim_exp1","2022-4-13","13:8:41","25","75","3","9","10","40","30","120","35","20","[""White""]","No","Male","1950485","null","null","","","","clear_screen","","","","","","","","","","","","","","","","","","","","","","","","","",""
"","","","","","canvas-keyboard-response","202","410061","0.0-12.0-0.38","2d_cat_multi_stim_exp1","2022-4-13","13:8:41","25","75","3","9","10","40","30","120","35","20","[""White""]","No","Male","1950485","null","null","","","","fixation","","","","","","","","","","","","","","","","","","","","","","","","","",""
"","","","","","canvas-keyboard-response","203","410572","0.0-12.0-1.38","2d_cat_multi_stim_exp1","2022-4-13","13:8:41","25","75","3","9","10","40","30","120","35","20","[""White""]","No","Male","1950485","null","null","","","","clear_screen","","","","","","","","","","","","","","","","","","","","","","","","","",""
"","","","","","canvas-keyboard-response","204","411705","0.0-12.0-2.38","2d_cat_multi_stim_exp1","2022-4-13","13:8:41","25","75","3","9","10","40","30","120","35","20","[""White""]","No","Male","1950485","1125","i","learn","","","learn_trial","40","100","out","0","1","","","","","","","","","","","","","","","","","","","","",""
"","","","","","canvas-keyboard-response","205","412217","0.0-12.0-3.38","2d_cat_multi_stim_exp1","2022-4-13","13:8:41","25","75","3","9","10","40","30","120","35","20","[""White""]","No","Male","1950485","null","null","learn_feedback","","","learn_feedback","40","100","out","","","","","","","","","","","","","","","","","","","","","","",""
"","","","","","canvas-keyboard-response","206","412276","0.0-12.0-4.38","2d_cat_multi_stim_exp1","2022-4-13","13:8:41","25","75","3","9","10","40","30","120","35","20","[""White""]","No","Male","1950485","null","null","","","","clear_screen","","","","","","","","","","","","","","","","","","","","","","","","","",""
"","","","","","canvas-keyboard-response","207","412787","0.0-12.0-0.39","2d_cat_multi_stim_exp1","2022-4-13","13:8:41","25","75","3","9","10","40","30","120","35","20","[""White""]","No","Male","1950485","null","null","","","","fixation","","","","","","","","","","","","","","","","","","","","","","","","","",""
"","","","","","canvas-keyboard-response","208","413298","0.0-12.0-1.39","2d_cat_multi_stim_exp1","2022-4-13","13:8:41","25","75","3","9","10","40","30","120","35","20","[""White""]","No","Male","1950485","null","null","","","","clear_screen","","","","","","","","","","","","","","","","","","","","","","","","","",""
"","","","","","canvas-keyboard-response","209","414186","0.0-12.0-2.39","2d_cat_multi_stim_exp1","2022-4-13","13:8:41","25","75","3","9","10","40","30","120","35","20","[""White""]","No","Male","1950485","878","u","learn","","","learn_trial","22.1081","77.3943","in","1","1","","","","","","","","","","","","","","","","","","","","",""
"","","","","","canvas-keyboard-response","210","414697","0.0-12.0-3.39","2d_cat_multi_stim_exp1","2022-4-13","13:8:41","25","75","3","9","10","40","30","120","35","20","[""White""]","No","Male","1950485","null","null","learn_feedback","","","learn_feedback","22.1081","77.3943","in","","","","","","","","","","","","","","","","","","","","","","",""
"","","","","","canvas-keyboard-response","211","414757","0.0-12.0-4.39","2d_cat_multi_stim_exp1","2022-4-13","13:8:41","25","75","3","9","10","40","30","120","35","20","[""White""]","No","Male","1950485","null","null","","","","clear_screen","","","","","","","","","","","","","","","","","","","","","","","","","",""
"","","","","","canvas-keyboard-response","212","415265","0.0-12.0-0.40","2d_cat_multi_stim_exp1","2022-4-13","13:8:41","25","75","3","9","10","40","30","120","35","20","[""White""]","No","Male","1950485","null","null","","","","fixation","","","","","","","","","","","","","","","","","","","","","","","","","",""
"","","","","","canvas-keyboard-response","213","415777","0.0-12.0-1.40","2d_cat_multi_stim_exp1","2022-4-13","13:8:41","25","75","3","9","10","40","30","120","35","20","[""White""]","No","Male","1950485","null","null","","","","clear_screen","","","","","","","","","","","","","","","","","","","","","","","","","",""
"","","","","","canvas-keyboard-response","214","416530","0.0-12.0-2.40","2d_cat_multi_stim_exp1","2022-4-13","13:8:41","25","75","3","9","10","40","30","120","35","20","[""White""]","No","Male","1950485","745","i","learn","","","learn_trial","26.6667","50","out","0","1","","","","","","","","","","","","","","","","","","","","",""
"","","","","","canvas-keyboard-response","215","417040","0.0-12.0-3.40","2d_cat_multi_stim_exp1","2022-4-13","13:8:41","25","75","3","9","10","40","30","120","35","20","[""White""]","No","Male","1950485","null","null","learn_feedback","","","learn_feedback","26.6667","50","out","","","","","","","","","","","","","","","","","","","","","","",""
"","","","","","canvas-keyboard-response","216","417100","0.0-12.0-4.40","2d_cat_multi_stim_exp1","2022-4-13","13:8:41","25","75","3","9","10","40","30","120","35","20","[""White""]","No","Male","1950485","null","null","","","","clear_screen","","","","","","","","","","","","","","","","","","","","","","","","","",""
"","","","","","canvas-keyboard-response","217","417608","0.0-12.0-0.41","2d_cat_multi_stim_exp1","2022-4-13","13:8:41","25","75","3","9","10","40","30","120","35","20","[""White""]","No","Male","1950485","null","null","","","","fixation","","","","","","","","","","","","","","","","","","","","","","","","","",""
"","","","","","canvas-keyboard-response","218","418118","0.0-12.0-1.41","2d_cat_multi_stim_exp1","2022-4-13","13:8:41","25","75","3","9","10","40","30","120","35","20","[""White""]","No","Male","1950485","null","null","","","","clear_screen","","","","","","","","","","","","","","","","","","","","","","","","","",""
"","","","","","canvas-keyboard-response","219","418850","0.0-12.0-2.41","2d_cat_multi_stim_exp1","2022-4-13","13:8:41","25","75","3","9","10","40","30","120","35","20","[""White""]","No","Male","1950485","723","u","learn","","","learn_trial","22.9268","81.5052","in","1","1","","","","","","","","","","","","","","","","","","","","",""
"","","","","","canvas-keyboard-response","220","419361","0.0-12.0-3.41","2d_cat_multi_stim_exp1","2022-4-13","13:8:41","25","75","3","9","10","40","30","120","35","20","[""White""]","No","Male","1950485","null","null","learn_feedback","","","learn_feedback","22.9268","81.5052","in","","","","","","","","","","","","","","","","","","","","","","",""
"","","","","","canvas-keyboard-response","221","419419","0.0-12.0-4.41","2d_cat_multi_stim_exp1","2022-4-13","13:8:41","25","75","3","9","10","40","30","120","35","20","[""White""]","No","Male","1950485","null","null","","","","clear_screen","","","","","","","","","","","","","","","","","","","","","","","","","",""
"","","","","","canvas-keyboard-response","222","419928","0.0-12.0-0.42","2d_cat_multi_stim_exp1","2022-4-13","13:8:41","25","75","3","9","10","40","30","120","35","20","[""White""]","No","Male","1950485","null","null","","","","fixation","","","","","","","","","","","","","","","","","","","","","","","","","",""
"","","","","","canvas-keyboard-response","223","420438","0.0-12.0-1.42","2d_cat_multi_stim_exp1","2022-4-13","13:8:41","25","75","3","9","10","40","30","120","35","20","[""White""]","No","Male","1950485","null","null","","","","clear_screen","","","","","","","","","","","","","","","","","","","","","","","","","",""
"","","","","","canvas-keyboard-response","224","421177","0.0-12.0-2.42","2d_cat_multi_stim_exp1","2022-4-13","13:8:41","25","75","3","9","10","40","30","120","35","20","[""White""]","No","Male","1950485","729","i","learn","","","learn_trial","10","70","out","0","1","","","","","","","","","","","","","","","","","","","","",""
"","","","","","canvas-keyboard-response","225","421691","0.0-12.0-3.42","2d_cat_multi_stim_exp1","2022-4-13","13:8:41","25","75","3","9","10","40","30","120","35","20","[""White""]","No","Male","1950485","null","null","learn_feedback","","","learn_feedback","10","70","out","","","","","","","","","","","","","","","","","","","","","","",""
"","","","","","canvas-keyboard-response","226","421749","0.0-12.0-4.42","2d_cat_multi_stim_exp1","2022-4-13","13:8:41","25","75","3","9","10","40","30","120","35","20","[""White""]","No","Male","1950485","null","null","","","","clear_screen","","","","","","","","","","","","","","","","","","","","","","","","","",""
"","","","","","canvas-keyboard-response","227","422258","0.0-12.0-0.43","2d_cat_multi_stim_exp1","2022-4-13","13:8:41","25","75","3","9","10","40","30","120","35","20","[""White""]","No","Male","1950485","null","null","","","","fixation","","","","","","","","","","","","","","","","","","","","","","","","","",""
"","","","","","canvas-keyboard-response","228","422772","0.0-12.0-1.43","2d_cat_multi_stim_exp1","2022-4-13","13:8:41","25","75","3","9","10","40","30","120","35","20","[""White""]","No","Male","1950485","null","null","","","","clear_screen","","","","","","","","","","","","","","","","","","","","","","","","","",""
"","","","","","canvas-keyboard-response","229","423657","0.0-12.0-2.43","2d_cat_multi_stim_exp1","2022-4-13","13:8:41","25","75","3","9","10","40","30","120","35","20","[""White""]","No","Male","1950485","877","u","learn","","","learn_trial","24.8654","83.9909","in","1","1","","","","","","","","","","","","","","","","","","","","",""
"","","","","","canvas-keyboard-response","230","424171","0.0-12.0-3.43","2d_cat_multi_stim_exp1","2022-4-13","13:8:41","25","75","3","9","10","40","30","120","35","20","[""White""]","No","Male","1950485","null","null","learn_feedback","","","learn_feedback","24.8654","83.9909","in","","","","","","","","","","","","","","","","","","","","","","",""
"","","","","","canvas-keyboard-response","231","424229","0.0-12.0-4.43","2d_cat_multi_stim_exp1","2022-4-13","13:8:41","25","75","3","9","10","40","30","120","35","20","[""White""]","No","Male","1950485","null","null","","","","clear_screen","","","","","","","","","","","","","","","","","","","","","","","","","",""
"","","","","","canvas-keyboard-response","232","424740","0.0-12.0-0.44","2d_cat_multi_stim_exp1","2022-4-13","13:8:41","25","75","3","9","10","40","30","120","35","20","[""White""]","No","Male","1950485","null","null","","","","fixation","","","","","","","","","","","","","","","","","","","","","","","","","",""
"","","","","","canvas-keyboard-response","233","425251","0.0-12.0-1.44","2d_cat_multi_stim_exp1","2022-4-13","13:8:41","25","75","3","9","10","40","30","120","35","20","[""White""]","No","Male","1950485","null","null","","","","clear_screen","","","","","","","","","","","","","","","","","","","","","","","","","",""
"","","","","","canvas-keyboard-response","234","426130","0.0-12.0-2.44","2d_cat_multi_stim_exp1","2022-4-13","13:8:41","25","75","3","9","10","40","30","120","35","20","[""White""]","No","Male","1950485","870","u","learn","","","learn_trial","25","75","in","1","1","","","","","","","","","","","","","","","","","","","","",""
"","","","","","canvas-keyboard-response","235","426639","0.0-12.0-3.44","2d_cat_multi_stim_exp1","2022-4-13","13:8:41","25","75","3","9","10","40","30","120","35","20","[""White""]","No","Male","1950485","null","null","learn_feedback","","","learn_feedback","25","75","in","","","","","","","","","","","","","","","","","","","","","","",""
"","","","","","canvas-keyboard-response","236","426700","0.0-12.0-4.44","2d_cat_multi_stim_exp1","2022-4-13","13:8:41","25","75","3","9","10","40","30","120","35","20","[""White""]","No","Male","1950485","null","null","","","","clear_screen","","","","","","","","","","","","","","","","","","","","","","","","","",""
"","","","","","canvas-keyboard-response","237","427208","0.0-12.0-0.45","2d_cat_multi_stim_exp1","2022-4-13","13:8:41","25","75","3","9","10","40","30","120","35","20","[""White""]","No","Male","1950485","null","null","","","","fixation","","","","","","","","","","","","","","","","","","","","","","","","","",""
"","","","","","canvas-keyboard-response","238","427720","0.0-12.0-1.45","2d_cat_multi_stim_exp1","2022-4-13","13:8:41","25","75","3","9","10","40","30","120","35","20","[""White""]","No","Male","1950485","null","null","","","","clear_screen","","","","","","","","","","","","","","","","","","","","","","","","","",""
"","","","","","canvas-keyboard-response","239","428330","0.0-12.0-2.45","2d_cat_multi_stim_exp1","2022-4-13","13:8:41","25","75","3","9","10","40","30","120","35","20","[""White""]","No","Male","1950485","599","u","learn","","","learn_trial","25","75","in","1","1","","","","","","","","","","","","","","","","","","","","",""
"","","","","","canvas-keyboard-response","240","428843","0.0-12.0-3.45","2d_cat_multi_stim_exp1","2022-4-13","13:8:41","25","75","3","9","10","40","30","120","35","20","[""White""]","No","Male","1950485","null","null","learn_feedback","","","learn_feedback","25","75","in","","","","","","","","","","","","","","","","","","","","","","",""
"","","","","","canvas-keyboard-response","241","428901","0.0-12.0-4.45","2d_cat_multi_stim_exp1","2022-4-13","13:8:41","25","75","3","9","10","40","30","120","35","20","[""White""]","No","Male","1950485","null","null","","","","clear_screen","","","","","","","","","","","","","","","","","","","","","","","","","",""
"","","","","","canvas-keyboard-response","242","429411","0.0-12.0-0.46","2d_cat_multi_stim_exp1","2022-4-13","13:8:41","25","75","3","9","10","40","30","120","35","20","[""White""]","No","Male","1950485","null","null","","","","fixation","","","","","","","","","","","","","","","","","","","","","","","","","",""
"","","","","","canvas-keyboard-response","243","429922","0.0-12.0-1.46","2d_cat_multi_stim_exp1","2022-4-13","13:8:41","25","75","3","9","10","40","30","120","35","20","[""White""]","No","Male","1950485","null","null","","","","clear_screen","","","","","","","","","","","","","","","","","","","","","","","","","",""
"","","","","","canvas-keyboard-response","244","430714","0.0-12.0-2.46","2d_cat_multi_stim_exp1","2022-4-13","13:8:41","25","75","3","9","10","40","30","120","35","20","[""White""]","No","Male","1950485","784","u","learn","","","learn_trial","25","75","in","1","1","","","","","","","","","","","","","","","","","","","","",""
"","","","","","canvas-keyboard-response","245","431225","0.0-12.0-3.46","2d_cat_multi_stim_exp1","2022-4-13","13:8:41","25","75","3","9","10","40","30","120","35","20","[""White""]","No","Male","1950485","null","null","learn_feedback","","","learn_feedback","25","75","in","","","","","","","","","","","","","","","","","","","","","","",""
"","","","","","canvas-keyboard-response","246","431283","0.0-12.0-4.46","2d_cat_multi_stim_exp1","2022-4-13","13:8:41","25","75","3","9","10","40","30","120","35","20","[""White""]","No","Male","1950485","null","null","","","","clear_screen","","","","","","","","","","","","","","","","","","","","","","","","","",""
"","","","","","canvas-keyboard-response","247","431792","0.0-12.0-0.47","2d_cat_multi_stim_exp1","2022-4-13","13:8:41","25","75","3","9","10","40","30","120","35","20","[""White""]","No","Male","1950485","null","null","","","","fixation","","","","","","","","","","","","","","","","","","","","","","","","","",""
"","","","","","canvas-keyboard-response","248","432305","0.0-12.0-1.47","2d_cat_multi_stim_exp1","2022-4-13","13:8:41","25","75","3","9","10","40","30","120","35","20","[""White""]","No","Male","1950485","null","null","","","","clear_screen","","","","","","","","","","","","","","","","","","","","","","","","","",""
"","","","","","canvas-keyboard-response","249","433010","0.0-12.0-2.47","2d_cat_multi_stim_exp1","2022-4-13","13:8:41","25","75","3","9","10","40","30","120","35","20","[""White""]","No","Male","1950485","695","u","learn","","","learn_trial","25","75","in","1","1","","","","","","","","","","","","","","","","","","","","",""
"","","","","","canvas-keyboard-response","250","433518","0.0-12.0-3.47","2d_cat_multi_stim_exp1","2022-4-13","13:8:41","25","75","3","9","10","40","30","120","35","20","[""White""]","No","Male","1950485","null","null","learn_feedback","","","learn_feedback","25","75","in","","","","","","","","","","","","","","","","","","","","","","",""
"","","","","","canvas-keyboard-response","251","433578","0.0-12.0-4.47","2d_cat_multi_stim_exp1","2022-4-13","13:8:41","25","75","3","9","10","40","30","120","35","20","[""White""]","No","Male","1950485","null","null","","","","clear_screen","","","","","","","","","","","","","","","","","","","","","","","","","",""
"","","","","","canvas-keyboard-response","252","434087","0.0-12.0-0.48","2d_cat_multi_stim_exp1","2022-4-13","13:8:41","25","75","3","9","10","40","30","120","35","20","[""White""]","No","Male","1950485","null","null","","","","fixation","","","","","","","","","","","","","","","","","","","","","","","","","",""
"","","","","","canvas-keyboard-response","253","434600","0.0-12.0-1.48","2d_cat_multi_stim_exp1","2022-4-13","13:8:41","25","75","3","9","10","40","30","120","35","20","[""White""]","No","Male","1950485","null","null","","","","clear_screen","","","","","","","","","","","","","","","","","","","","","","","","","",""
"","","","","","canvas-keyboard-response","254","435418","0.0-12.0-2.48","2d_cat_multi_stim_exp1","2022-4-13","13:8:41","25","75","3","9","10","40","30","120","35","20","[""White""]","No","Male","1950485","808","i","learn","","","learn_trial","23.3333","100","out","0","1","","","","","","","","","","","","","","","","","","","","",""
"","","","","","canvas-keyboard-response","255","435929","0.0-12.0-3.48","2d_cat_multi_stim_exp1","2022-4-13","13:8:41","25","75","3","9","10","40","30","120","35","20","[""White""]","No","Male","1950485","null","null","learn_feedback","","","learn_feedback","23.3333","100","out","","","","","","","","","","","","","","","","","","","","","","",""
"","","","","","canvas-keyboard-response","256","435992","0.0-12.0-4.48","2d_cat_multi_stim_exp1","2022-4-13","13:8:41","25","75","3","9","10","40","30","120","35","20","[""White""]","No","Male","1950485","null","null","","","","clear_screen","","","","","","","","","","","","","","","","","","","","","","","","","",""
"","","","","","canvas-keyboard-response","257","436503","0.0-12.0-0.49","2d_cat_multi_stim_exp1","2022-4-13","13:8:41","25","75","3","9","10","40","30","120","35","20","[""White""]","No","Male","1950485","null","null","","","","fixation","","","","","","","","","","","","","","","","","","","","","","","","","",""
"","","","","","canvas-keyboard-response","258","437014","0.0-12.0-1.49","2d_cat_multi_stim_exp1","2022-4-13","13:8:41","25","75","3","9","10","40","30","120","35","20","[""White""]","No","Male","1950485","null","null","","","","clear_screen","","","","","","","","","","","","","","","","","","","","","","","","","",""
"","","","","","canvas-keyboard-response","259","437530","0.0-12.0-2.49","2d_cat_multi_stim_exp1","2022-4-13","13:8:41","25","75","3","9","10","40","30","120","35","20","[""White""]","No","Male","1950485","507","u","learn","","","learn_trial","28","75","in","1","1","","","","","","","","","","","","","","","","","","","","",""
"","","","","","canvas-keyboard-response","260","438039","0.0-12.0-3.49","2d_cat_multi_stim_exp1","2022-4-13","13:8:41","25","75","3","9","10","40","30","120","35","20","[""White""]","No","Male","1950485","null","null","learn_feedback","","","learn_feedback","28","75","in","","","","","","","","","","","","","","","","","","","","","","",""
"","","","","","canvas-keyboard-response","261","438103","0.0-12.0-4.49","2d_cat_multi_stim_exp1","2022-4-13","13:8:41","25","75","3","9","10","40","30","120","35","20","[""White""]","No","Male","1950485","null","null","","","","clear_screen","","","","","","","","","","","","","","","","","","","","","","","","","",""
"","","","","","canvas-keyboard-response","262","438613","0.0-12.0-0.50","2d_cat_multi_stim_exp1","2022-4-13","13:8:41","25","75","3","9","10","40","30","120","35","20","[""White""]","No","Male","1950485","null","null","","","","fixation","","","","","","","","","","","","","","","","","","","","","","","","","",""
"","","","","","canvas-keyboard-response","263","439127","0.0-12.0-1.50","2d_cat_multi_stim_exp1","2022-4-13","13:8:41","25","75","3","9","10","40","30","120","35","20","[""White""]","No","Male","1950485","null","null","","","","clear_screen","","","","","","","","","","","","","","","","","","","","","","","","","",""
"","","","","","canvas-keyboard-response","264","440418","0.0-12.0-2.50","2d_cat_multi_stim_exp1","2022-4-13","13:8:41","25","75","3","9","10","40","30","120","35","20","[""White""]","No","Male","1950485","1276","i","learn","","","learn_trial","29.2426","62.2721","in","0","0","","","","","","","","","","","","","","","","","","","","",""
"","","","","","canvas-keyboard-response","265","441427","0.0-12.0-3.50","2d_cat_multi_stim_exp1","2022-4-13","13:8:41","25","75","3","9","10","40","30","120","35","20","[""White""]","No","Male","1950485","null","null","learn_feedback","","","learn_feedback","29.2426","62.2721","in","","","","","","","","","","","","","","","","","","","","","","",""
"","","","","","canvas-keyboard-response","266","441486","0.0-12.0-4.50","2d_cat_multi_stim_exp1","2022-4-13","13:8:41","25","75","3","9","10","40","30","120","35","20","[""White""]","No","Male","1950485","null","null","","","","clear_screen","","","","","","","","","","","","","","","","","","","","","","","","","",""
"","","","","","canvas-keyboard-response","267","441993","0.0-12.0-0.51","2d_cat_multi_stim_exp1","2022-4-13","13:8:41","25","75","3","9","10","40","30","120","35","20","[""White""]","No","Male","1950485","null","null","","","","fixation","","","","","","","","","","","","","","","","","","","","","","","","","",""
"","","","","","canvas-keyboard-response","268","442506","0.0-12.0-1.51","2d_cat_multi_stim_exp1","2022-4-13","13:8:41","25","75","3","9","10","40","30","120","35","20","[""White""]","No","Male","1950485","null","null","","","","clear_screen","","","","","","","","","","","","","","","","","","","","","","","","","",""
"","","","","","canvas-keyboard-response","269","443457","0.0-12.0-2.51","2d_cat_multi_stim_exp1","2022-4-13","13:8:41","25","75","3","9","10","40","30","120","35","20","[""White""]","No","Male","1950485","943","i","learn","","","learn_trial","16.6667","30","out","0","1","","","","","","","","","","","","","","","","","","","","",""
"","","","","","canvas-keyboard-response","270","443969","0.0-12.0-3.51","2d_cat_multi_stim_exp1","2022-4-13","13:8:41","25","75","3","9","10","40","30","120","35","20","[""White""]","No","Male","1950485","null","null","learn_feedback","","","learn_feedback","16.6667","30","out","","","","","","","","","","","","","","","","","","","","","","",""
"","","","","","canvas-keyboard-response","271","444034","0.0-12.0-4.51","2d_cat_multi_stim_exp1","2022-4-13","13:8:41","25","75","3","9","10","40","30","120","35","20","[""White""]","No","Male","1950485","null","null","","","","clear_screen","","","","","","","","","","","","","","","","","","","","","","","","","",""
"","","","","","canvas-keyboard-response","272","444543","0.0-12.0-0.52","2d_cat_multi_stim_exp1","2022-4-13","13:8:41","25","75","3","9","10","40","30","120","35","20","[""White""]","No","Male","1950485","null","null","","","","fixation","","","","","","","","","","","","","","","","","","","","","","","","","",""
"","","","","","canvas-keyboard-response","273","445055","0.0-12.0-1.52","2d_cat_multi_stim_exp1","2022-4-13","13:8:41","25","75","3","9","10","40","30","120","35","20","[""White""]","No","Male","1950485","null","null","","","","clear_screen","","","","","","","","","","","","","","","","","","","","","","","","","",""
"","","","","","canvas-keyboard-response","274","446026","0.0-12.0-2.52","2d_cat_multi_stim_exp1","2022-4-13","13:8:41","25","75","3","9","10","40","30","120","35","20","[""White""]","No","Male","1950485","961","i","learn","","","learn_trial","25","75","in","0","0","","","","","","","","","","","","","","","","","","","","",""
"","","","","","canvas-keyboard-response","275","447036","0.0-12.0-3.52","2d_cat_multi_stim_exp1","2022-4-13","13:8:41","25","75","3","9","10","40","30","120","35","20","[""White""]","No","Male","1950485","null","null","learn_feedback","","","learn_feedback","25","75","in","","","","","","","","","","","","","","","","","","","","","","",""
"","","","","","canvas-keyboard-response","276","447097","0.0-12.0-4.52","2d_cat_multi_stim_exp1","2022-4-13","13:8:41","25","75","3","9","10","40","30","120","35","20","[""White""]","No","Male","1950485","null","null","","","","clear_screen","","","","","","","","","","","","","","","","","","","","","","","","","",""
"","","","","","canvas-keyboard-response","277","447606","0.0-12.0-0.53","2d_cat_multi_stim_exp1","2022-4-13","13:8:41","25","75","3","9","10","40","30","120","35","20","[""White""]","No","Male","1950485","null","null","","","","fixation","","","","","","","","","","","","","","","","","","","","","","","","","",""
"","","","","","canvas-keyboard-response","278","448117","0.0-12.0-1.53","2d_cat_multi_stim_exp1","2022-4-13","13:8:41","25","75","3","9","10","40","30","120","35","20","[""White""]","No","Male","1950485","null","null","","","","clear_screen","","","","","","","","","","","","","","","","","","","","","","","","","",""
"","","","","","canvas-keyboard-response","279","449866","0.0-12.0-2.53","2d_cat_multi_stim_exp1","2022-4-13","13:8:41","25","75","3","9","10","40","30","120","35","20","[""White""]","No","Male","1950485","1740","i","learn","","","learn_trial","16.6667","80","out","0","1","","","","","","","","","","","","","","","","","","","","",""
"","","","","","canvas-keyboard-response","280","450377","0.0-12.0-3.53","2d_cat_multi_stim_exp1","2022-4-13","13:8:41","25","75","3","9","10","40","30","120","35","20","[""White""]","No","Male","1950485","null","null","learn_feedback","","","learn_feedback","16.6667","80","out","","","","","","","","","","","","","","","","","","","","","","",""
"","","","","","canvas-keyboard-response","281","450441","0.0-12.0-4.53","2d_cat_multi_stim_exp1","2022-4-13","13:8:41","25","75","3","9","10","40","30","120","35","20","[""White""]","No","Male","1950485","null","null","","","","clear_screen","","","","","","","","","","","","","","","","","","","","","","","","","",""
"","","","","","canvas-keyboard-response","282","450949","0.0-12.0-0.54","2d_cat_multi_stim_exp1","2022-4-13","13:8:41","25","75","3","9","10","40","30","120","35","20","[""White""]","No","Male","1950485","null","null","","","","fixation","","","","","","","","","","","","","","","","","","","","","","","","","",""
"","","","","","canvas-keyboard-response","283","451462","0.0-12.0-1.54","2d_cat_multi_stim_exp1","2022-4-13","13:8:41","25","75","3","9","10","40","30","120","35","20","[""White""]","No","Male","1950485","null","null","","","","clear_screen","","","","","","","","","","","","","","","","","","","","","","","","","",""
"","","","","","canvas-keyboard-response","284","453009","0.0-12.0-2.54","2d_cat_multi_stim_exp1","2022-4-13","13:8:41","25","75","3","9","10","40","30","120","35","20","[""White""]","No","Male","1950485","1538","i","learn","","","learn_trial","10","30","out","0","1","","","","","","","","","","","","","","","","","","","","",""
"","","","","","canvas-keyboard-response","285","453519","0.0-12.0-3.54","2d_cat_multi_stim_exp1","2022-4-13","13:8:41","25","75","3","9","10","40","30","120","35","20","[""White""]","No","Male","1950485","null","null","learn_feedback","","","learn_feedback","10","30","out","","","","","","","","","","","","","","","","","","","","","","",""
"","","","","","canvas-keyboard-response","286","453580","0.0-12.0-4.54","2d_cat_multi_stim_exp1","2022-4-13","13:8:41","25","75","3","9","10","40","30","120","35","20","[""White""]","No","Male","1950485","null","null","","","","clear_screen","","","","","","","","","","","","","","","","","","","","","","","","","",""
"","","","","","canvas-keyboard-response","287","454091","0.0-12.0-0.55","2d_cat_multi_stim_exp1","2022-4-13","13:8:41","25","75","3","9","10","40","30","120","35","20","[""White""]","No","Male","1950485","null","null","","","","fixation","","","","","","","","","","","","","","","","","","","","","","","","","",""
"","","","","","canvas-keyboard-response","288","454605","0.0-12.0-1.55","2d_cat_multi_stim_exp1","2022-4-13","13:8:41","25","75","3","9","10","40","30","120","35","20","[""White""]","No","Male","1950485","null","null","","","","clear_screen","","","","","","","","","","","","","","","","","","","","","","","","","",""
"","","","","","canvas-keyboard-response","289","456200","0.0-12.0-2.55","2d_cat_multi_stim_exp1","2022-4-13","13:8:41","25","75","3","9","10","40","30","120","35","20","[""White""]","No","Male","1950485","1586","u","learn","","","learn_trial","26.4216","67.0746","in","1","1","","","","","","","","","","","","","","","","","","","","",""
"","","","","","canvas-keyboard-response","290","456711","0.0-12.0-3.55","2d_cat_multi_stim_exp1","2022-4-13","13:8:41","25","75","3","9","10","40","30","120","35","20","[""White""]","No","Male","1950485","null","null","learn_feedback","","","learn_feedback","26.4216","67.0746","in","","","","","","","","","","","","","","","","","","","","","","",""
"","","","","","canvas-keyboard-response","291","456771","0.0-12.0-4.55","2d_cat_multi_stim_exp1","2022-4-13","13:8:41","25","75","3","9","10","40","30","120","35","20","[""White""]","No","Male","1950485","null","null","","","","clear_screen","","","","","","","","","","","","","","","","","","","","","","","","","",""
"","","","","","canvas-keyboard-response","292","457280","0.0-12.0-0.56","2d_cat_multi_stim_exp1","2022-4-13","13:8:41","25","75","3","9","10","40","30","120","35","20","[""White""]","No","Male","1950485","null","null","","","","fixation","","","","","","","","","","","","","","","","","","","","","","","","","",""
"","","","","","canvas-keyboard-response","293","457791","0.0-12.0-1.56","2d_cat_multi_stim_exp1","2022-4-13","13:8:41","25","75","3","9","10","40","30","120","35","20","[""White""]","No","Male","1950485","null","null","","","","clear_screen","","","","","","","","","","","","","","","","","","","","","","","","","",""
"","","","","","canvas-keyboard-response","294","458586","0.0-12.0-2.56","2d_cat_multi_stim_exp1","2022-4-13","13:8:41","25","75","3","9","10","40","30","120","35","20","[""White""]","No","Male","1950485","785","u","learn","","","learn_trial","25","75","in","1","1","","","","","","","","","","","","","","","","","","","","",""
"","","","","","canvas-keyboard-response","295","459096","0.0-12.0-3.56","2d_cat_multi_stim_exp1","2022-4-13","13:8:41","25","75","3","9","10","40","30","120","35","20","[""White""]","No","Male","1950485","null","null","learn_feedback","","","learn_feedback","25","75","in","","","","","","","","","","","","","","","","","","","","","","",""
"","","","","","canvas-keyboard-response","296","459160","0.0-12.0-4.56","2d_cat_multi_stim_exp1","2022-4-13","13:8:41","25","75","3","9","10","40","30","120","35","20","[""White""]","No","Male","1950485","null","null","","","","clear_screen","","","","","","","","","","","","","","","","","","","","","","","","","",""
"","","","","","canvas-keyboard-response","297","459670","0.0-12.0-0.57","2d_cat_multi_stim_exp1","2022-4-13","13:8:41","25","75","3","9","10","40","30","120","35","20","[""White""]","No","Male","1950485","null","null","","","","fixation","","","","","","","","","","","","","","","","","","","","","","","","","",""
"","","","","","canvas-keyboard-response","298","460184","0.0-12.0-1.57","2d_cat_multi_stim_exp1","2022-4-13","13:8:41","25","75","3","9","10","40","30","120","35","20","[""White""]","No","Male","1950485","null","null","","","","clear_screen","","","","","","","","","","","","","","","","","","","","","","","","","",""
