"success","timeout","failed_images","failed_audio","failed_video","trial_type","trial_index","time_elapsed","internal_node_id","exp_name","date","time","angle_mean_in","radius_mean_in","angle_sd_in","radius_sd_in","angle_min_out","angle_max_out","radius_min_out","radius_max_out","sub_n","age","race","ethnicity","gender","exp_duration","rt","response","exp_trial_type","stimulus","view_history","screen_id","angle","radius","distribution","choice","correct","order","angle_a","radius_a","angle_b","radius_b","jkl_correct","transfer_trial_type","choice_set","abc_correct","tc_correct","tc_angle","tdc_a","tdc_b","tdc_c","pair","category_a","category_b","category_c","angle_c","radius_c","question_order"
"true","false","[]","[]","[]","preload","0","18","0.0-0.0","2d_cat_multi_stim_exp1","2022-5-2","12:32:3","25","75","3","9","10","40","30","120","76","19","[""Asian""]","No","Female","2706376","","","","","","","","","","","","","","","","","","","","","","","","","","","","","","","",""
"","","","","","survey-html-form","1","595678","0.0-1.0","2d_cat_multi_stim_exp1","2022-5-2","12:32:3","25","75","3","9","10","40","30","120","76","19","[""Asian""]","No","Female","2706376","595649","{""response"":""76""}","enter-sub-number","","","","","","","","","","","","","","","","","","","","","","","","","","","","",""
"true","","","","","fullscreen","2","601518","0.0-2.0","2d_cat_multi_stim_exp1","2022-5-2","12:32:3","25","75","3","9","10","40","30","120","76","19","[""Asian""]","No","Female","2706376","","","","","","","","","","","","","","","","","","","","","","","","","","","","","","","",""
"","","","","","image-button-response","3","695606","0.0-3.0","2d_cat_multi_stim_exp1","2022-5-2","12:32:3","25","75","3","9","10","40","30","120","76","19","[""Asian""]","No","Female","2706376","94078","0","","consent.png","","","","","","","","","","","","","","","","","","","","","","","","","","","",""
"","","","","","html-button-response","4","711423","0.0-4.0","2d_cat_multi_stim_exp1","2022-5-2","12:32:3","25","75","3","9","10","40","30","120","76","19","[""Asian""]","No","Female","2706376","15812","0","","<div style= ""font-size:25px;"" <p> <strong> Welcome to the experiment! </strong><br> <p style=""color:#8B0000; font-size:25px;""><strong> Please do NOT exit full screen until you are done with the experiment. </strong> </p><p style=""font-size:25px;color:#8B0000;""> <strong> The experiment will be canceled and your data will be lost <br> if you try to go back or refresh the page at any point during the experiment.</strong> </p><br><p> <strong> Thanks in advance for your contribution to our research! </strong></p>","","","","","","","","","","","","","","","","","","","","","","","","","","","",""
"","","","","","instructions","5","775397","0.0-5.0","2d_cat_multi_stim_exp1","2022-5-2","12:32:3","25","75","3","9","10","40","30","120","76","19","[""Asian""]","No","Female","2706376","63973","","","","[{""page_index"":0,""viewing_time"":6540},{""page_index"":1,""viewing_time"":4928},{""page_index"":2,""viewing_time"":18409},{""page_index"":3,""viewing_time"":34095}]","instructions_1","","","","","","","","","","","","","","","","","","","","","","","","","",""
"","","","","","instructions","6","780198","0.0-6.0","2d_cat_multi_stim_exp1","2022-5-2","12:32:3","25","75","3","9","10","40","30","120","76","19","[""Asian""]","No","Female","2706376","4797","","","","[{""page_index"":0,""viewing_time"":4796}]","Click to see the kinds of turtles that will appear in the study.","","","","","","","","","","","","","","","","","","","","","","","","","",""
"","","","","","canvas-keyboard-response","7","795214","0.0-7.0","2d_cat_multi_stim_exp1","2022-5-2","12:32:3","25","75","3","9","10","40","30","120","76","19","[""Asian""]","No","Female","2706376","null","null","","","","demo_range","","","","","","","","","","","","","","","","","","","","","","","","","",""
"","","","","","instructions","8","799270","0.0-8.0","2d_cat_multi_stim_exp1","2022-5-2","12:32:3","25","75","3","9","10","40","30","120","76","19","[""Asian""]","No","Female","2706376","3553","","","","[{""page_index"":0,""viewing_time"":3553}]","Click to see some turtles in the subspecies.","","","","","","","","","","","","","","","","","","","","","","","","","",""
"","","","","","canvas-keyboard-response","9","814286","0.0-9.0","2d_cat_multi_stim_exp1","2022-5-2","12:32:3","25","75","3","9","10","40","30","120","76","19","[""Asian""]","No","Female","2706376","null","null","","","","demo_in","","","","","","","","","","","","","","","","","","","","","","","","","",""
"","","","","","instructions","10","873958","0.0-10.0","2d_cat_multi_stim_exp1","2022-5-2","12:32:3","25","75","3","9","10","40","30","120","76","19","[""Asian""]","No","Female","2706376","59169","","","","[{""page_index"":0,""viewing_time"":8417},{""page_index"":1,""viewing_time"":41664},{""page_index"":2,""viewing_time"":9088}]","instructions_2","","","","","","","","","","","","","","","","","","","","","","","","","",""
"","","","","","instructions","11","876982","0.0-11.0","2d_cat_multi_stim_exp1","2022-5-2","12:32:3","25","75","3","9","10","40","30","120","76","19","[""Asian""]","No","Female","2706376","3022","","","","[{""page_index"":0,""viewing_time"":3022}]","Click to begin the first phase of the experiment.","","","","","","","","","","","","","","","","","","","","","","","","","",""
"","","","","","canvas-keyboard-response","12","877493","0.0-12.0-0.0","2d_cat_multi_stim_exp1","2022-5-2","12:32:3","25","75","3","9","10","40","30","120","76","19","[""Asian""]","No","Female","2706376","null","null","","","","fixation","","","","","","","","","","","","","","","","","","","","","","","","","",""
"","","","","","canvas-keyboard-response","13","878009","0.0-12.0-1.0","2d_cat_multi_stim_exp1","2022-5-2","12:32:3","25","75","3","9","10","40","30","120","76","19","[""Asian""]","No","Female","2706376","null","null","","","","clear_screen","","","","","","","","","","","","","","","","","","","","","","","","","",""
"","","","","","canvas-keyboard-response","14","883261","0.0-12.0-2.0","2d_cat_multi_stim_exp1","2022-5-2","12:32:3","25","75","3","9","10","40","30","120","76","19","[""Asian""]","No","Female","2706376","5241","i","learn","","","learn_trial","36.6667","100","out","0","1","","","","","","","","","","","","","","","","","","","","",""
"","","","","","canvas-keyboard-response","15","883772","0.0-12.0-3.0","2d_cat_multi_stim_exp1","2022-5-2","12:32:3","25","75","3","9","10","40","30","120","76","19","[""Asian""]","No","Female","2706376","null","null","learn_feedback","","","learn_feedback","36.6667","100","out","","","","","","","","","","","","","","","","","","","","","","",""
"","","","","","canvas-keyboard-response","16","883835","0.0-12.0-4.0","2d_cat_multi_stim_exp1","2022-5-2","12:32:3","25","75","3","9","10","40","30","120","76","19","[""Asian""]","No","Female","2706376","null","null","","","","clear_screen","","","","","","","","","","","","","","","","","","","","","","","","","",""
"","","","","","canvas-keyboard-response","17","884347","0.0-12.0-0.1","2d_cat_multi_stim_exp1","2022-5-2","12:32:3","25","75","3","9","10","40","30","120","76","19","[""Asian""]","No","Female","2706376","null","null","","","","fixation","","","","","","","","","","","","","","","","","","","","","","","","","",""
"","","","","","canvas-keyboard-response","18","884863","0.0-12.0-1.1","2d_cat_multi_stim_exp1","2022-5-2","12:32:3","25","75","3","9","10","40","30","120","76","19","[""Asian""]","No","Female","2706376","null","null","","","","clear_screen","","","","","","","","","","","","","","","","","","","","","","","","","",""
"","","","","","canvas-keyboard-response","19","886430","0.0-12.0-2.1","2d_cat_multi_stim_exp1","2022-5-2","12:32:3","25","75","3","9","10","40","30","120","76","19","[""Asian""]","No","Female","2706376","1555","u","learn","","","learn_trial","20","80","out","1","0","","","","","","","","","","","","","","","","","","","","",""
"","","","","","canvas-keyboard-response","20","887440","0.0-12.0-3.1","2d_cat_multi_stim_exp1","2022-5-2","12:32:3","25","75","3","9","10","40","30","120","76","19","[""Asian""]","No","Female","2706376","null","null","learn_feedback","","","learn_feedback","20","80","out","","","","","","","","","","","","","","","","","","","","","","",""
"","","","","","canvas-keyboard-response","21","887501","0.0-12.0-4.1","2d_cat_multi_stim_exp1","2022-5-2","12:32:3","25","75","3","9","10","40","30","120","76","19","[""Asian""]","No","Female","2706376","null","null","","","","clear_screen","","","","","","","","","","","","","","","","","","","","","","","","","",""
"","","","","","canvas-keyboard-response","22","888012","0.0-12.0-0.2","2d_cat_multi_stim_exp1","2022-5-2","12:32:3","25","75","3","9","10","40","30","120","76","19","[""Asian""]","No","Female","2706376","null","null","","","","fixation","","","","","","","","","","","","","","","","","","","","","","","","","",""
"","","","","","canvas-keyboard-response","23","888520","0.0-12.0-1.2","2d_cat_multi_stim_exp1","2022-5-2","12:32:3","25","75","3","9","10","40","30","120","76","19","[""Asian""]","No","Female","2706376","null","null","","","","clear_screen","","","","","","","","","","","","","","","","","","","","","","","","","",""
"","","","","","canvas-keyboard-response","24","891029","0.0-12.0-2.2","2d_cat_multi_stim_exp1","2022-5-2","12:32:3","25","75","3","9","10","40","30","120","76","19","[""Asian""]","No","Female","2706376","2497","u","learn","","","learn_trial","20.7574","62.2721","in","1","1","","","","","","","","","","","","","","","","","","","","",""
"","","","","","canvas-keyboard-response","25","891541","0.0-12.0-3.2","2d_cat_multi_stim_exp1","2022-5-2","12:32:3","25","75","3","9","10","40","30","120","76","19","[""Asian""]","No","Female","2706376","null","null","learn_feedback","","","learn_feedback","20.7574","62.2721","in","","","","","","","","","","","","","","","","","","","","","","",""
"","","","","","canvas-keyboard-response","26","891599","0.0-12.0-4.2","2d_cat_multi_stim_exp1","2022-5-2","12:32:3","25","75","3","9","10","40","30","120","76","19","[""Asian""]","No","Female","2706376","null","null","","","","clear_screen","","","","","","","","","","","","","","","","","","","","","","","","","",""
"","","","","","canvas-keyboard-response","27","892111","0.0-12.0-0.3","2d_cat_multi_stim_exp1","2022-5-2","12:32:3","25","75","3","9","10","40","30","120","76","19","[""Asian""]","No","Female","2706376","null","null","","","","fixation","","","","","","","","","","","","","","","","","","","","","","","","","",""
"","","","","","canvas-keyboard-response","28","892624","0.0-12.0-1.3","2d_cat_multi_stim_exp1","2022-5-2","12:32:3","25","75","3","9","10","40","30","120","76","19","[""Asian""]","No","Female","2706376","null","null","","","","clear_screen","","","","","","","","","","","","","","","","","","","","","","","","","",""
"","","","","","canvas-keyboard-response","29","893725","0.0-12.0-2.3","2d_cat_multi_stim_exp1","2022-5-2","12:32:3","25","75","3","9","10","40","30","120","76","19","[""Asian""]","No","Female","2706376","1093","i","learn","","","learn_trial","26.6667","40","out","0","1","","","","","","","","","","","","","","","","","","","","",""
"","","","","","canvas-keyboard-response","30","894235","0.0-12.0-3.3","2d_cat_multi_stim_exp1","2022-5-2","12:32:3","25","75","3","9","10","40","30","120","76","19","[""Asian""]","No","Female","2706376","null","null","learn_feedback","","","learn_feedback","26.6667","40","out","","","","","","","","","","","","","","","","","","","","","","",""
"","","","","","canvas-keyboard-response","31","894297","0.0-12.0-4.3","2d_cat_multi_stim_exp1","2022-5-2","12:32:3","25","75","3","9","10","40","30","120","76","19","[""Asian""]","No","Female","2706376","null","null","","","","clear_screen","","","","","","","","","","","","","","","","","","","","","","","","","",""
"","","","","","canvas-keyboard-response","32","894806","0.0-12.0-0.4","2d_cat_multi_stim_exp1","2022-5-2","12:32:3","25","75","3","9","10","40","30","120","76","19","[""Asian""]","No","Female","2706376","null","null","","","","fixation","","","","","","","","","","","","","","","","","","","","","","","","","",""
"","","","","","canvas-keyboard-response","33","895320","0.0-12.0-1.4","2d_cat_multi_stim_exp1","2022-5-2","12:32:3","25","75","3","9","10","40","30","120","76","19","[""Asian""]","No","Female","2706376","null","null","","","","clear_screen","","","","","","","","","","","","","","","","","","","","","","","","","",""
"","","","","","canvas-keyboard-response","34","897318","0.0-12.0-2.4","2d_cat_multi_stim_exp1","2022-5-2","12:32:3","25","75","3","9","10","40","30","120","76","19","[""Asian""]","No","Female","2706376","1986","u","learn","","","learn_trial","25","75","in","1","1","","","","","","","","","","","","","","","","","","","","",""
"","","","","","canvas-keyboard-response","35","897828","0.0-12.0-3.4","2d_cat_multi_stim_exp1","2022-5-2","12:32:3","25","75","3","9","10","40","30","120","76","19","[""Asian""]","No","Female","2706376","null","null","learn_feedback","","","learn_feedback","25","75","in","","","","","","","","","","","","","","","","","","","","","","",""
"","","","","","canvas-keyboard-response","36","897891","0.0-12.0-4.4","2d_cat_multi_stim_exp1","2022-5-2","12:32:3","25","75","3","9","10","40","30","120","76","19","[""Asian""]","No","Female","2706376","null","null","","","","clear_screen","","","","","","","","","","","","","","","","","","","","","","","","","",""
"","","","","","canvas-keyboard-response","37","898401","0.0-12.0-0.5","2d_cat_multi_stim_exp1","2022-5-2","12:32:3","25","75","3","9","10","40","30","120","76","19","[""Asian""]","No","Female","2706376","null","null","","","","fixation","","","","","","","","","","","","","","","","","","","","","","","","","",""
"","","","","","canvas-keyboard-response","38","898913","0.0-12.0-1.5","2d_cat_multi_stim_exp1","2022-5-2","12:32:3","25","75","3","9","10","40","30","120","76","19","[""Asian""]","No","Female","2706376","null","null","","","","clear_screen","","","","","","","","","","","","","","","","","","","","","","","","","",""
"","","","","","canvas-keyboard-response","39","900124","0.0-12.0-2.5","2d_cat_multi_stim_exp1","2022-5-2","12:32:3","25","75","3","9","10","40","30","120","76","19","[""Asian""]","No","Female","2706376","1204","u","learn","","","learn_trial","25","75","in","1","1","","","","","","","","","","","","","","","","","","","","",""
"","","","","","canvas-keyboard-response","40","900635","0.0-12.0-3.5","2d_cat_multi_stim_exp1","2022-5-2","12:32:3","25","75","3","9","10","40","30","120","76","19","[""Asian""]","No","Female","2706376","null","null","learn_feedback","","","learn_feedback","25","75","in","","","","","","","","","","","","","","","","","","","","","","",""
"","","","","","canvas-keyboard-response","41","900699","0.0-12.0-4.5","2d_cat_multi_stim_exp1","2022-5-2","12:32:3","25","75","3","9","10","40","30","120","76","19","[""Asian""]","No","Female","2706376","null","null","","","","clear_screen","","","","","","","","","","","","","","","","","","","","","","","","","",""
"","","","","","canvas-keyboard-response","42","901211","0.0-12.0-0.6","2d_cat_multi_stim_exp1","2022-5-2","12:32:3","25","75","3","9","10","40","30","120","76","19","[""Asian""]","No","Female","2706376","null","null","","","","fixation","","","","","","","","","","","","","","","","","","","","","","","","","",""
"","","","","","canvas-keyboard-response","43","901725","0.0-12.0-1.6","2d_cat_multi_stim_exp1","2022-5-2","12:32:3","25","75","3","9","10","40","30","120","76","19","[""Asian""]","No","Female","2706376","null","null","","","","clear_screen","","","","","","","","","","","","","","","","","","","","","","","","","",""
"","","","","","canvas-keyboard-response","44","906189","0.0-12.0-2.6","2d_cat_multi_stim_exp1","2022-5-2","12:32:3","25","75","3","9","10","40","30","120","76","19","[""Asian""]","No","Female","2706376","4452","u","learn","","","learn_trial","30","90","out","1","0","","","","","","","","","","","","","","","","","","","","",""
"","","","","","canvas-keyboard-response","45","907201","0.0-12.0-3.6","2d_cat_multi_stim_exp1","2022-5-2","12:32:3","25","75","3","9","10","40","30","120","76","19","[""Asian""]","No","Female","2706376","null","null","learn_feedback","","","learn_feedback","30","90","out","","","","","","","","","","","","","","","","","","","","","","",""
"","","","","","canvas-keyboard-response","46","907262","0.0-12.0-4.6","2d_cat_multi_stim_exp1","2022-5-2","12:32:3","25","75","3","9","10","40","30","120","76","19","[""Asian""]","No","Female","2706376","null","null","","","","clear_screen","","","","","","","","","","","","","","","","","","","","","","","","","",""
"","","","","","canvas-keyboard-response","47","907771","0.0-12.0-0.7","2d_cat_multi_stim_exp1","2022-5-2","12:32:3","25","75","3","9","10","40","30","120","76","19","[""Asian""]","No","Female","2706376","null","null","","","","fixation","","","","","","","","","","","","","","","","","","","","","","","","","",""
"","","","","","canvas-keyboard-response","48","908285","0.0-12.0-1.7","2d_cat_multi_stim_exp1","2022-5-2","12:32:3","25","75","3","9","10","40","30","120","76","19","[""Asian""]","No","Female","2706376","null","null","","","","clear_screen","","","","","","","","","","","","","","","","","","","","","","","","","",""
"","","","","","canvas-keyboard-response","49","909389","0.0-12.0-2.7","2d_cat_multi_stim_exp1","2022-5-2","12:32:3","25","75","3","9","10","40","30","120","76","19","[""Asian""]","No","Female","2706376","1094","i","learn","","","learn_trial","10","120","out","0","1","","","","","","","","","","","","","","","","","","","","",""
"","","","","","canvas-keyboard-response","50","909900","0.0-12.0-3.7","2d_cat_multi_stim_exp1","2022-5-2","12:32:3","25","75","3","9","10","40","30","120","76","19","[""Asian""]","No","Female","2706376","null","null","learn_feedback","","","learn_feedback","10","120","out","","","","","","","","","","","","","","","","","","","","","","",""
"","","","","","canvas-keyboard-response","51","909964","0.0-12.0-4.7","2d_cat_multi_stim_exp1","2022-5-2","12:32:3","25","75","3","9","10","40","30","120","76","19","[""Asian""]","No","Female","2706376","null","null","","","","clear_screen","","","","","","","","","","","","","","","","","","","","","","","","","",""
"","","","","","canvas-keyboard-response","52","910473","0.0-12.0-0.8","2d_cat_multi_stim_exp1","2022-5-2","12:32:3","25","75","3","9","10","40","30","120","76","19","[""Asian""]","No","Female","2706376","null","null","","","","fixation","","","","","","","","","","","","","","","","","","","","","","","","","",""
"","","","","","canvas-keyboard-response","53","910985","0.0-12.0-1.8","2d_cat_multi_stim_exp1","2022-5-2","12:32:3","25","75","3","9","10","40","30","120","76","19","[""Asian""]","No","Female","2706376","null","null","","","","clear_screen","","","","","","","","","","","","","","","","","","","","","","","","","",""
"","","","","","canvas-keyboard-response","54","912526","0.0-12.0-2.8","2d_cat_multi_stim_exp1","2022-5-2","12:32:3","25","75","3","9","10","40","30","120","76","19","[""Asian""]","No","Female","2706376","1532","i","learn","","","learn_trial","13.3333","90","out","0","1","","","","","","","","","","","","","","","","","","","","",""
"","","","","","canvas-keyboard-response","55","913033","0.0-12.0-3.8","2d_cat_multi_stim_exp1","2022-5-2","12:32:3","25","75","3","9","10","40","30","120","76","19","[""Asian""]","No","Female","2706376","null","null","learn_feedback","","","learn_feedback","13.3333","90","out","","","","","","","","","","","","","","","","","","","","","","",""
"","","","","","canvas-keyboard-response","56","913096","0.0-12.0-4.8","2d_cat_multi_stim_exp1","2022-5-2","12:32:3","25","75","3","9","10","40","30","120","76","19","[""Asian""]","No","Female","2706376","null","null","","","","clear_screen","","","","","","","","","","","","","","","","","","","","","","","","","",""
"","","","","","canvas-keyboard-response","57","913605","0.0-12.0-0.9","2d_cat_multi_stim_exp1","2022-5-2","12:32:3","25","75","3","9","10","40","30","120","76","19","[""Asian""]","No","Female","2706376","null","null","","","","fixation","","","","","","","","","","","","","","","","","","","","","","","","","",""
"","","","","","canvas-keyboard-response","58","914117","0.0-12.0-1.9","2d_cat_multi_stim_exp1","2022-5-2","12:32:3","25","75","3","9","10","40","30","120","76","19","[""Asian""]","No","Female","2706376","null","null","","","","clear_screen","","","","","","","","","","","","","","","","","","","","","","","","","",""
"","","","","","canvas-keyboard-response","59","915351","0.0-12.0-2.9","2d_cat_multi_stim_exp1","2022-5-2","12:32:3","25","75","3","9","10","40","30","120","76","19","[""Asian""]","No","Female","2706376","1223","i","learn","","","learn_trial","27.5753","70.3839","in","0","0","","","","","","","","","","","","","","","","","","","","",""
"","","","","","canvas-keyboard-response","60","916361","0.0-12.0-3.9","2d_cat_multi_stim_exp1","2022-5-2","12:32:3","25","75","3","9","10","40","30","120","76","19","[""Asian""]","No","Female","2706376","null","null","learn_feedback","","","learn_feedback","27.5753","70.3839","in","","","","","","","","","","","","","","","","","","","","","","",""
"","","","","","canvas-keyboard-response","61","916425","0.0-12.0-4.9","2d_cat_multi_stim_exp1","2022-5-2","12:32:3","25","75","3","9","10","40","30","120","76","19","[""Asian""]","No","Female","2706376","null","null","","","","clear_screen","","","","","","","","","","","","","","","","","","","","","","","","","",""
"","","","","","canvas-keyboard-response","62","916937","0.0-12.0-0.10","2d_cat_multi_stim_exp1","2022-5-2","12:32:3","25","75","3","9","10","40","30","120","76","19","[""Asian""]","No","Female","2706376","null","null","","","","fixation","","","","","","","","","","","","","","","","","","","","","","","","","",""
"","","","","","canvas-keyboard-response","63","917450","0.0-12.0-1.10","2d_cat_multi_stim_exp1","2022-5-2","12:32:3","25","75","3","9","10","40","30","120","76","19","[""Asian""]","No","Female","2706376","null","null","","","","clear_screen","","","","","","","","","","","","","","","","","","","","","","","","","",""
"","","","","","canvas-keyboard-response","64","918325","0.0-12.0-2.10","2d_cat_multi_stim_exp1","2022-5-2","12:32:3","25","75","3","9","10","40","30","120","76","19","[""Asian""]","No","Female","2706376","864","i","learn","","","learn_trial","33.3333","50","out","0","1","","","","","","","","","","","","","","","","","","","","",""
"","","","","","canvas-keyboard-response","65","918837","0.0-12.0-3.10","2d_cat_multi_stim_exp1","2022-5-2","12:32:3","25","75","3","9","10","40","30","120","76","19","[""Asian""]","No","Female","2706376","null","null","learn_feedback","","","learn_feedback","33.3333","50","out","","","","","","","","","","","","","","","","","","","","","","",""
"","","","","","canvas-keyboard-response","66","918901","0.0-12.0-4.10","2d_cat_multi_stim_exp1","2022-5-2","12:32:3","25","75","3","9","10","40","30","120","76","19","[""Asian""]","No","Female","2706376","null","null","","","","clear_screen","","","","","","","","","","","","","","","","","","","","","","","","","",""
"","","","","","canvas-keyboard-response","67","919405","0.0-12.0-0.11","2d_cat_multi_stim_exp1","2022-5-2","12:32:3","25","75","3","9","10","40","30","120","76","19","[""Asian""]","No","Female","2706376","null","null","","","","fixation","","","","","","","","","","","","","","","","","","","","","","","","","",""
"","","","","","canvas-keyboard-response","68","919913","0.0-12.0-1.11","2d_cat_multi_stim_exp1","2022-5-2","12:32:3","25","75","3","9","10","40","30","120","76","19","[""Asian""]","No","Female","2706376","null","null","","","","clear_screen","","","","","","","","","","","","","","","","","","","","","","","","","",""
"","","","","","canvas-keyboard-response","69","920982","0.0-12.0-2.11","2d_cat_multi_stim_exp1","2022-5-2","12:32:3","25","75","3","9","10","40","30","120","76","19","[""Asian""]","No","Female","2706376","1058","i","learn","","","learn_trial","16.6667","110","out","0","1","","","","","","","","","","","","","","","","","","","","",""
"","","","","","canvas-keyboard-response","70","921493","0.0-12.0-3.11","2d_cat_multi_stim_exp1","2022-5-2","12:32:3","25","75","3","9","10","40","30","120","76","19","[""Asian""]","No","Female","2706376","null","null","learn_feedback","","","learn_feedback","16.6667","110","out","","","","","","","","","","","","","","","","","","","","","","",""
"","","","","","canvas-keyboard-response","71","921553","0.0-12.0-4.11","2d_cat_multi_stim_exp1","2022-5-2","12:32:3","25","75","3","9","10","40","30","120","76","19","[""Asian""]","No","Female","2706376","null","null","","","","clear_screen","","","","","","","","","","","","","","","","","","","","","","","","","",""
"","","","","","canvas-keyboard-response","72","922066","0.0-12.0-0.12","2d_cat_multi_stim_exp1","2022-5-2","12:32:3","25","75","3","9","10","40","30","120","76","19","[""Asian""]","No","Female","2706376","null","null","","","","fixation","","","","","","","","","","","","","","","","","","","","","","","","","",""
"","","","","","canvas-keyboard-response","73","922578","0.0-12.0-1.12","2d_cat_multi_stim_exp1","2022-5-2","12:32:3","25","75","3","9","10","40","30","120","76","19","[""Asian""]","No","Female","2706376","null","null","","","","clear_screen","","","","","","","","","","","","","","","","","","","","","","","","","",""
"","","","","","canvas-keyboard-response","74","924142","0.0-12.0-2.12","2d_cat_multi_stim_exp1","2022-5-2","12:32:3","25","75","3","9","10","40","30","120","76","19","[""Asian""]","No","Female","2706376","1553","u","learn","","","learn_trial","20","60","out","1","0","","","","","","","","","","","","","","","","","","","","",""
"","","","","","canvas-keyboard-response","75","925150","0.0-12.0-3.12","2d_cat_multi_stim_exp1","2022-5-2","12:32:3","25","75","3","9","10","40","30","120","76","19","[""Asian""]","No","Female","2706376","null","null","learn_feedback","","","learn_feedback","20","60","out","","","","","","","","","","","","","","","","","","","","","","",""
"","","","","","canvas-keyboard-response","76","925210","0.0-12.0-4.12","2d_cat_multi_stim_exp1","2022-5-2","12:32:3","25","75","3","9","10","40","30","120","76","19","[""Asian""]","No","Female","2706376","null","null","","","","clear_screen","","","","","","","","","","","","","","","","","","","","","","","","","",""
"","","","","","canvas-keyboard-response","77","925719","0.0-12.0-0.13","2d_cat_multi_stim_exp1","2022-5-2","12:32:3","25","75","3","9","10","40","30","120","76","19","[""Asian""]","No","Female","2706376","null","null","","","","fixation","","","","","","","","","","","","","","","","","","","","","","","","","",""
"","","","","","canvas-keyboard-response","78","926229","0.0-12.0-1.13","2d_cat_multi_stim_exp1","2022-5-2","12:32:3","25","75","3","9","10","40","30","120","76","19","[""Asian""]","No","Female","2706376","null","null","","","","clear_screen","","","","","","","","","","","","","","","","","","","","","","","","","",""
"","","","","","canvas-keyboard-response","79","927198","0.0-12.0-2.13","2d_cat_multi_stim_exp1","2022-5-2","12:32:3","25","75","3","9","10","40","30","120","76","19","[""Asian""]","No","Female","2706376","957","u","learn","","","learn_trial","16.6667","90","out","1","0","","","","","","","","","","","","","","","","","","","","",""
"","","","","","canvas-keyboard-response","80","928208","0.0-12.0-3.13","2d_cat_multi_stim_exp1","2022-5-2","12:32:3","25","75","3","9","10","40","30","120","76","19","[""Asian""]","No","Female","2706376","null","null","learn_feedback","","","learn_feedback","16.6667","90","out","","","","","","","","","","","","","","","","","","","","","","",""
"","","","","","canvas-keyboard-response","81","928272","0.0-12.0-4.13","2d_cat_multi_stim_exp1","2022-5-2","12:32:3","25","75","3","9","10","40","30","120","76","19","[""Asian""]","No","Female","2706376","null","null","","","","clear_screen","","","","","","","","","","","","","","","","","","","","","","","","","",""
"","","","","","canvas-keyboard-response","82","928782","0.0-12.0-0.14","2d_cat_multi_stim_exp1","2022-5-2","12:32:3","25","75","3","9","10","40","30","120","76","19","[""Asian""]","No","Female","2706376","null","null","","","","fixation","","","","","","","","","","","","","","","","","","","","","","","","","",""
"","","","","","canvas-keyboard-response","83","929293","0.0-12.0-1.14","2d_cat_multi_stim_exp1","2022-5-2","12:32:3","25","75","3","9","10","40","30","120","76","19","[""Asian""]","No","Female","2706376","null","null","","","","clear_screen","","","","","","","","","","","","","","","","","","","","","","","","","",""
"","","","","","canvas-keyboard-response","84","930253","0.0-12.0-2.14","2d_cat_multi_stim_exp1","2022-5-2","12:32:3","25","75","3","9","10","40","30","120","76","19","[""Asian""]","No","Female","2706376","950","i","learn","","","learn_trial","36.6667","30","out","0","1","","","","","","","","","","","","","","","","","","","","",""
"","","","","","canvas-keyboard-response","85","930763","0.0-12.0-3.14","2d_cat_multi_stim_exp1","2022-5-2","12:32:3","25","75","3","9","10","40","30","120","76","19","[""Asian""]","No","Female","2706376","null","null","learn_feedback","","","learn_feedback","36.6667","30","out","","","","","","","","","","","","","","","","","","","","","","",""
"","","","","","canvas-keyboard-response","86","930823","0.0-12.0-4.14","2d_cat_multi_stim_exp1","2022-5-2","12:32:3","25","75","3","9","10","40","30","120","76","19","[""Asian""]","No","Female","2706376","null","null","","","","clear_screen","","","","","","","","","","","","","","","","","","","","","","","","","",""
"","","","","","canvas-keyboard-response","87","931331","0.0-12.0-0.15","2d_cat_multi_stim_exp1","2022-5-2","12:32:3","25","75","3","9","10","40","30","120","76","19","[""Asian""]","No","Female","2706376","null","null","","","","fixation","","","","","","","","","","","","","","","","","","","","","","","","","",""
"","","","","","canvas-keyboard-response","88","931845","0.0-12.0-1.15","2d_cat_multi_stim_exp1","2022-5-2","12:32:3","25","75","3","9","10","40","30","120","76","19","[""Asian""]","No","Female","2706376","null","null","","","","clear_screen","","","","","","","","","","","","","","","","","","","","","","","","","",""
"","","","","","canvas-keyboard-response","89","932837","0.0-12.0-2.15","2d_cat_multi_stim_exp1","2022-5-2","12:32:3","25","75","3","9","10","40","30","120","76","19","[""Asian""]","No","Female","2706376","983","u","learn","","","learn_trial","24.8654","66.0091","in","1","1","","","","","","","","","","","","","","","","","","","","",""
"","","","","","canvas-keyboard-response","90","933346","0.0-12.0-3.15","2d_cat_multi_stim_exp1","2022-5-2","12:32:3","25","75","3","9","10","40","30","120","76","19","[""Asian""]","No","Female","2706376","null","null","learn_feedback","","","learn_feedback","24.8654","66.0091","in","","","","","","","","","","","","","","","","","","","","","","",""
"","","","","","canvas-keyboard-response","91","933406","0.0-12.0-4.15","2d_cat_multi_stim_exp1","2022-5-2","12:32:3","25","75","3","9","10","40","30","120","76","19","[""Asian""]","No","Female","2706376","null","null","","","","clear_screen","","","","","","","","","","","","","","","","","","","","","","","","","",""
"","","","","","canvas-keyboard-response","92","933914","0.0-12.0-0.16","2d_cat_multi_stim_exp1","2022-5-2","12:32:3","25","75","3","9","10","40","30","120","76","19","[""Asian""]","No","Female","2706376","null","null","","","","fixation","","","","","","","","","","","","","","","","","","","","","","","","","",""
"","","","","","canvas-keyboard-response","93","934427","0.0-12.0-1.16","2d_cat_multi_stim_exp1","2022-5-2","12:32:3","25","75","3","9","10","40","30","120","76","19","[""Asian""]","No","Female","2706376","null","null","","","","clear_screen","","","","","","","","","","","","","","","","","","","","","","","","","",""
"","","","","","canvas-keyboard-response","94","935739","0.0-12.0-2.16","2d_cat_multi_stim_exp1","2022-5-2","12:32:3","25","75","3","9","10","40","30","120","76","19","[""Asian""]","No","Female","2706376","1304","i","learn","","","learn_trial","27.9518","76.607","in","0","0","","","","","","","","","","","","","","","","","","","","",""
"","","","","","canvas-keyboard-response","95","936746","0.0-12.0-3.16","2d_cat_multi_stim_exp1","2022-5-2","12:32:3","25","75","3","9","10","40","30","120","76","19","[""Asian""]","No","Female","2706376","null","null","learn_feedback","","","learn_feedback","27.9518","76.607","in","","","","","","","","","","","","","","","","","","","","","","",""
"","","","","","canvas-keyboard-response","96","936806","0.0-12.0-4.16","2d_cat_multi_stim_exp1","2022-5-2","12:32:3","25","75","3","9","10","40","30","120","76","19","[""Asian""]","No","Female","2706376","null","null","","","","clear_screen","","","","","","","","","","","","","","","","","","","","","","","","","",""
"","","","","","canvas-keyboard-response","97","937315","0.0-12.0-0.17","2d_cat_multi_stim_exp1","2022-5-2","12:32:3","25","75","3","9","10","40","30","120","76","19","[""Asian""]","No","Female","2706376","null","null","","","","fixation","","","","","","","","","","","","","","","","","","","","","","","","","",""
"","","","","","canvas-keyboard-response","98","937828","0.0-12.0-1.17","2d_cat_multi_stim_exp1","2022-5-2","12:32:3","25","75","3","9","10","40","30","120","76","19","[""Asian""]","No","Female","2706376","null","null","","","","clear_screen","","","","","","","","","","","","","","","","","","","","","","","","","",""
"","","","","","canvas-keyboard-response","99","939181","0.0-12.0-2.17","2d_cat_multi_stim_exp1","2022-5-2","12:32:3","25","75","3","9","10","40","30","120","76","19","[""Asian""]","No","Female","2706376","1345","i","learn","","","learn_trial","25.9271","83.5595","in","0","0","","","","","","","","","","","","","","","","","","","","",""
"","","","","","canvas-keyboard-response","100","940192","0.0-12.0-3.17","2d_cat_multi_stim_exp1","2022-5-2","12:32:3","25","75","3","9","10","40","30","120","76","19","[""Asian""]","No","Female","2706376","null","null","learn_feedback","","","learn_feedback","25.9271","83.5595","in","","","","","","","","","","","","","","","","","","","","","","",""
"","","","","","canvas-keyboard-response","101","940253","0.0-12.0-4.17","2d_cat_multi_stim_exp1","2022-5-2","12:32:3","25","75","3","9","10","40","30","120","76","19","[""Asian""]","No","Female","2706376","null","null","","","","clear_screen","","","","","","","","","","","","","","","","","","","","","","","","","",""
"","","","","","canvas-keyboard-response","102","940761","0.0-12.0-0.18","2d_cat_multi_stim_exp1","2022-5-2","12:32:3","25","75","3","9","10","40","30","120","76","19","[""Asian""]","No","Female","2706376","null","null","","","","fixation","","","","","","","","","","","","","","","","","","","","","","","","","",""
"","","","","","canvas-keyboard-response","103","941273","0.0-12.0-1.18","2d_cat_multi_stim_exp1","2022-5-2","12:32:3","25","75","3","9","10","40","30","120","76","19","[""Asian""]","No","Female","2706376","null","null","","","","clear_screen","","","","","","","","","","","","","","","","","","","","","","","","","",""
"","","","","","canvas-keyboard-response","104","943717","0.0-12.0-2.18","2d_cat_multi_stim_exp1","2022-5-2","12:32:3","25","75","3","9","10","40","30","120","76","19","[""Asian""]","No","Female","2706376","2433","i","learn","","","learn_trial","23.3333","90","out","0","1","","","","","","","","","","","","","","","","","","","","",""
"","","","","","canvas-keyboard-response","105","944230","0.0-12.0-3.18","2d_cat_multi_stim_exp1","2022-5-2","12:32:3","25","75","3","9","10","40","30","120","76","19","[""Asian""]","No","Female","2706376","null","null","learn_feedback","","","learn_feedback","23.3333","90","out","","","","","","","","","","","","","","","","","","","","","","",""
"","","","","","canvas-keyboard-response","106","944294","0.0-12.0-4.18","2d_cat_multi_stim_exp1","2022-5-2","12:32:3","25","75","3","9","10","40","30","120","76","19","[""Asian""]","No","Female","2706376","null","null","","","","clear_screen","","","","","","","","","","","","","","","","","","","","","","","","","",""
"","","","","","canvas-keyboard-response","107","944805","0.0-12.0-0.19","2d_cat_multi_stim_exp1","2022-5-2","12:32:3","25","75","3","9","10","40","30","120","76","19","[""Asian""]","No","Female","2706376","null","null","","","","fixation","","","","","","","","","","","","","","","","","","","","","","","","","",""
"","","","","","canvas-keyboard-response","108","945317","0.0-12.0-1.19","2d_cat_multi_stim_exp1","2022-5-2","12:32:3","25","75","3","9","10","40","30","120","76","19","[""Asian""]","No","Female","2706376","null","null","","","","clear_screen","","","","","","","","","","","","","","","","","","","","","","","","","",""
"","","","","","canvas-keyboard-response","109","946173","0.0-12.0-2.19","2d_cat_multi_stim_exp1","2022-5-2","12:32:3","25","75","3","9","10","40","30","120","76","19","[""Asian""]","No","Female","2706376","844","i","learn","","","learn_trial","40","30","out","0","1","","","","","","","","","","","","","","","","","","","","",""
"","","","","","canvas-keyboard-response","110","946684","0.0-12.0-3.19","2d_cat_multi_stim_exp1","2022-5-2","12:32:3","25","75","3","9","10","40","30","120","76","19","[""Asian""]","No","Female","2706376","null","null","learn_feedback","","","learn_feedback","40","30","out","","","","","","","","","","","","","","","","","","","","","","",""
"","","","","","canvas-keyboard-response","111","946747","0.0-12.0-4.19","2d_cat_multi_stim_exp1","2022-5-2","12:32:3","25","75","3","9","10","40","30","120","76","19","[""Asian""]","No","Female","2706376","null","null","","","","clear_screen","","","","","","","","","","","","","","","","","","","","","","","","","",""
"","","","","","canvas-keyboard-response","112","947255","0.0-12.0-0.20","2d_cat_multi_stim_exp1","2022-5-2","12:32:3","25","75","3","9","10","40","30","120","76","19","[""Asian""]","No","Female","2706376","null","null","","","","fixation","","","","","","","","","","","","","","","","","","","","","","","","","",""
"","","","","","canvas-keyboard-response","113","947764","0.0-12.0-1.20","2d_cat_multi_stim_exp1","2022-5-2","12:32:3","25","75","3","9","10","40","30","120","76","19","[""Asian""]","No","Female","2706376","null","null","","","","clear_screen","","","","","","","","","","","","","","","","","","","","","","","","","",""
"","","","","","canvas-keyboard-response","114","948622","0.0-12.0-2.20","2d_cat_multi_stim_exp1","2022-5-2","12:32:3","25","75","3","9","10","40","30","120","76","19","[""Asian""]","No","Female","2706376","843","u","learn","","","learn_trial","25","75","in","1","1","","","","","","","","","","","","","","","","","","","","",""
"","","","","","canvas-keyboard-response","115","949134","0.0-12.0-3.20","2d_cat_multi_stim_exp1","2022-5-2","12:32:3","25","75","3","9","10","40","30","120","76","19","[""Asian""]","No","Female","2706376","null","null","learn_feedback","","","learn_feedback","25","75","in","","","","","","","","","","","","","","","","","","","","","","",""
"","","","","","canvas-keyboard-response","116","949194","0.0-12.0-4.20","2d_cat_multi_stim_exp1","2022-5-2","12:32:3","25","75","3","9","10","40","30","120","76","19","[""Asian""]","No","Female","2706376","null","null","","","","clear_screen","","","","","","","","","","","","","","","","","","","","","","","","","",""
"","","","","","canvas-keyboard-response","117","949703","0.0-12.0-0.21","2d_cat_multi_stim_exp1","2022-5-2","12:32:3","25","75","3","9","10","40","30","120","76","19","[""Asian""]","No","Female","2706376","null","null","","","","fixation","","","","","","","","","","","","","","","","","","","","","","","","","",""
"","","","","","canvas-keyboard-response","118","950217","0.0-12.0-1.21","2d_cat_multi_stim_exp1","2022-5-2","12:32:3","25","75","3","9","10","40","30","120","76","19","[""Asian""]","No","Female","2706376","null","null","","","","clear_screen","","","","","","","","","","","","","","","","","","","","","","","","","",""
"","","","","","canvas-keyboard-response","119","950701","0.0-12.0-2.21","2d_cat_multi_stim_exp1","2022-5-2","12:32:3","25","75","3","9","10","40","30","120","76","19","[""Asian""]","No","Female","2706376","475","u","learn","","","learn_trial","24.3324","66.2256","in","1","1","","","","","","","","","","","","","","","","","","","","",""
"","","","","","canvas-keyboard-response","120","951211","0.0-12.0-3.21","2d_cat_multi_stim_exp1","2022-5-2","12:32:3","25","75","3","9","10","40","30","120","76","19","[""Asian""]","No","Female","2706376","null","null","learn_feedback","","","learn_feedback","24.3324","66.2256","in","","","","","","","","","","","","","","","","","","","","","","",""
"","","","","","canvas-keyboard-response","121","951273","0.0-12.0-4.21","2d_cat_multi_stim_exp1","2022-5-2","12:32:3","25","75","3","9","10","40","30","120","76","19","[""Asian""]","No","Female","2706376","null","null","","","","clear_screen","","","","","","","","","","","","","","","","","","","","","","","","","",""
"","","","","","canvas-keyboard-response","122","951780","0.0-12.0-0.22","2d_cat_multi_stim_exp1","2022-5-2","12:32:3","25","75","3","9","10","40","30","120","76","19","[""Asian""]","No","Female","2706376","null","null","","","","fixation","","","","","","","","","","","","","","","","","","","","","","","","","",""
"","","","","","canvas-keyboard-response","123","952291","0.0-12.0-1.22","2d_cat_multi_stim_exp1","2022-5-2","12:32:3","25","75","3","9","10","40","30","120","76","19","[""Asian""]","No","Female","2706376","null","null","","","","clear_screen","","","","","","","","","","","","","","","","","","","","","","","","","",""
"","","","","","canvas-keyboard-response","124","953036","0.0-12.0-2.22","2d_cat_multi_stim_exp1","2022-5-2","12:32:3","25","75","3","9","10","40","30","120","76","19","[""Asian""]","No","Female","2706376","737","u","learn","","","learn_trial","26.6667","80","out","1","0","","","","","","","","","","","","","","","","","","","","",""
"","","","","","canvas-keyboard-response","125","954045","0.0-12.0-3.22","2d_cat_multi_stim_exp1","2022-5-2","12:32:3","25","75","3","9","10","40","30","120","76","19","[""Asian""]","No","Female","2706376","null","null","learn_feedback","","","learn_feedback","26.6667","80","out","","","","","","","","","","","","","","","","","","","","","","",""
"","","","","","canvas-keyboard-response","126","954108","0.0-12.0-4.22","2d_cat_multi_stim_exp1","2022-5-2","12:32:3","25","75","3","9","10","40","30","120","76","19","[""Asian""]","No","Female","2706376","null","null","","","","clear_screen","","","","","","","","","","","","","","","","","","","","","","","","","",""
"","","","","","canvas-keyboard-response","127","954618","0.0-12.0-0.23","2d_cat_multi_stim_exp1","2022-5-2","12:32:3","25","75","3","9","10","40","30","120","76","19","[""Asian""]","No","Female","2706376","null","null","","","","fixation","","","","","","","","","","","","","","","","","","","","","","","","","",""
"","","","","","canvas-keyboard-response","128","955130","0.0-12.0-1.23","2d_cat_multi_stim_exp1","2022-5-2","12:32:3","25","75","3","9","10","40","30","120","76","19","[""Asian""]","No","Female","2706376","null","null","","","","clear_screen","","","","","","","","","","","","","","","","","","","","","","","","","",""
"","","","","","canvas-keyboard-response","129","955981","0.0-12.0-2.23","2d_cat_multi_stim_exp1","2022-5-2","12:32:3","25","75","3","9","10","40","30","120","76","19","[""Asian""]","No","Female","2706376","845","i","learn","","","learn_trial","26.6667","50","out","0","1","","","","","","","","","","","","","","","","","","","","",""
"","","","","","canvas-keyboard-response","130","956492","0.0-12.0-3.23","2d_cat_multi_stim_exp1","2022-5-2","12:32:3","25","75","3","9","10","40","30","120","76","19","[""Asian""]","No","Female","2706376","null","null","learn_feedback","","","learn_feedback","26.6667","50","out","","","","","","","","","","","","","","","","","","","","","","",""
"","","","","","canvas-keyboard-response","131","956556","0.0-12.0-4.23","2d_cat_multi_stim_exp1","2022-5-2","12:32:3","25","75","3","9","10","40","30","120","76","19","[""Asian""]","No","Female","2706376","null","null","","","","clear_screen","","","","","","","","","","","","","","","","","","","","","","","","","",""
"","","","","","canvas-keyboard-response","132","957064","0.0-12.0-0.24","2d_cat_multi_stim_exp1","2022-5-2","12:32:3","25","75","3","9","10","40","30","120","76","19","[""Asian""]","No","Female","2706376","null","null","","","","fixation","","","","","","","","","","","","","","","","","","","","","","","","","",""
"","","","","","canvas-keyboard-response","133","957574","0.0-12.0-1.24","2d_cat_multi_stim_exp1","2022-5-2","12:32:3","25","75","3","9","10","40","30","120","76","19","[""Asian""]","No","Female","2706376","null","null","","","","clear_screen","","","","","","","","","","","","","","","","","","","","","","","","","",""
"","","","","","canvas-keyboard-response","134","958421","0.0-12.0-2.24","2d_cat_multi_stim_exp1","2022-5-2","12:32:3","25","75","3","9","10","40","30","120","76","19","[""Asian""]","No","Female","2706376","837","i","learn","","","learn_trial","23.3333","120","out","0","1","","","","","","","","","","","","","","","","","","","","",""
"","","","","","canvas-keyboard-response","135","958934","0.0-12.0-3.24","2d_cat_multi_stim_exp1","2022-5-2","12:32:3","25","75","3","9","10","40","30","120","76","19","[""Asian""]","No","Female","2706376","null","null","learn_feedback","","","learn_feedback","23.3333","120","out","","","","","","","","","","","","","","","","","","","","","","",""
"","","","","","canvas-keyboard-response","136","958994","0.0-12.0-4.24","2d_cat_multi_stim_exp1","2022-5-2","12:32:3","25","75","3","9","10","40","30","120","76","19","[""Asian""]","No","Female","2706376","null","null","","","","clear_screen","","","","","","","","","","","","","","","","","","","","","","","","","",""
"","","","","","canvas-keyboard-response","137","959502","0.0-12.0-0.25","2d_cat_multi_stim_exp1","2022-5-2","12:32:3","25","75","3","9","10","40","30","120","76","19","[""Asian""]","No","Female","2706376","null","null","","","","fixation","","","","","","","","","","","","","","","","","","","","","","","","","",""
"","","","","","canvas-keyboard-response","138","960016","0.0-12.0-1.25","2d_cat_multi_stim_exp1","2022-5-2","12:32:3","25","75","3","9","10","40","30","120","76","19","[""Asian""]","No","Female","2706376","null","null","","","","clear_screen","","","","","","","","","","","","","","","","","","","","","","","","","",""
"","","","","","canvas-keyboard-response","139","961077","0.0-12.0-2.25","2d_cat_multi_stim_exp1","2022-5-2","12:32:3","25","75","3","9","10","40","30","120","76","19","[""Asian""]","No","Female","2706376","1048","u","learn","","","learn_trial","25","75","in","1","1","","","","","","","","","","","","","","","","","","","","",""
"","","","","","canvas-keyboard-response","140","961587","0.0-12.0-3.25","2d_cat_multi_stim_exp1","2022-5-2","12:32:3","25","75","3","9","10","40","30","120","76","19","[""Asian""]","No","Female","2706376","null","null","learn_feedback","","","learn_feedback","25","75","in","","","","","","","","","","","","","","","","","","","","","","",""
"","","","","","canvas-keyboard-response","141","961647","0.0-12.0-4.25","2d_cat_multi_stim_exp1","2022-5-2","12:32:3","25","75","3","9","10","40","30","120","76","19","[""Asian""]","No","Female","2706376","null","null","","","","clear_screen","","","","","","","","","","","","","","","","","","","","","","","","","",""
"","","","","","canvas-keyboard-response","142","962155","0.0-12.0-0.26","2d_cat_multi_stim_exp1","2022-5-2","12:32:3","25","75","3","9","10","40","30","120","76","19","[""Asian""]","No","Female","2706376","null","null","","","","fixation","","","","","","","","","","","","","","","","","","","","","","","","","",""
"","","","","","canvas-keyboard-response","143","962668","0.0-12.0-1.26","2d_cat_multi_stim_exp1","2022-5-2","12:32:3","25","75","3","9","10","40","30","120","76","19","[""Asian""]","No","Female","2706376","null","null","","","","clear_screen","","","","","","","","","","","","","","","","","","","","","","","","","",""
"","","","","","canvas-keyboard-response","144","963253","0.0-12.0-2.26","2d_cat_multi_stim_exp1","2022-5-2","12:32:3","25","75","3","9","10","40","30","120","76","19","[""Asian""]","No","Female","2706376","573","u","learn","","","learn_trial","25","75","in","1","1","","","","","","","","","","","","","","","","","","","","",""
"","","","","","canvas-keyboard-response","145","963763","0.0-12.0-3.26","2d_cat_multi_stim_exp1","2022-5-2","12:32:3","25","75","3","9","10","40","30","120","76","19","[""Asian""]","No","Female","2706376","null","null","learn_feedback","","","learn_feedback","25","75","in","","","","","","","","","","","","","","","","","","","","","","",""
"","","","","","canvas-keyboard-response","146","963821","0.0-12.0-4.26","2d_cat_multi_stim_exp1","2022-5-2","12:32:3","25","75","3","9","10","40","30","120","76","19","[""Asian""]","No","Female","2706376","null","null","","","","clear_screen","","","","","","","","","","","","","","","","","","","","","","","","","",""
"","","","","","canvas-keyboard-response","147","964331","0.0-12.0-0.27","2d_cat_multi_stim_exp1","2022-5-2","12:32:3","25","75","3","9","10","40","30","120","76","19","[""Asian""]","No","Female","2706376","null","null","","","","fixation","","","","","","","","","","","","","","","","","","","","","","","","","",""
"","","","","","canvas-keyboard-response","148","964840","0.0-12.0-1.27","2d_cat_multi_stim_exp1","2022-5-2","12:32:3","25","75","3","9","10","40","30","120","76","19","[""Asian""]","No","Female","2706376","null","null","","","","clear_screen","","","","","","","","","","","","","","","","","","","","","","","","","",""
"","","","","","canvas-keyboard-response","149","967283","0.0-12.0-2.27","2d_cat_multi_stim_exp1","2022-5-2","12:32:3","25","75","3","9","10","40","30","120","76","19","[""Asian""]","No","Female","2706376","2433","u","learn","","","learn_trial","25","75","in","1","1","","","","","","","","","","","","","","","","","","","","",""
"","","","","","canvas-keyboard-response","150","967787","0.0-12.0-3.27","2d_cat_multi_stim_exp1","2022-5-2","12:32:3","25","75","3","9","10","40","30","120","76","19","[""Asian""]","No","Female","2706376","null","null","learn_feedback","","","learn_feedback","25","75","in","","","","","","","","","","","","","","","","","","","","","","",""
"","","","","","canvas-keyboard-response","151","967847","0.0-12.0-4.27","2d_cat_multi_stim_exp1","2022-5-2","12:32:3","25","75","3","9","10","40","30","120","76","19","[""Asian""]","No","Female","2706376","null","null","","","","clear_screen","","","","","","","","","","","","","","","","","","","","","","","","","",""
"","","","","","canvas-keyboard-response","152","968356","0.0-12.0-0.28","2d_cat_multi_stim_exp1","2022-5-2","12:32:3","25","75","3","9","10","40","30","120","76","19","[""Asian""]","No","Female","2706376","null","null","","","","fixation","","","","","","","","","","","","","","","","","","","","","","","","","",""
"","","","","","canvas-keyboard-response","153","968866","0.0-12.0-1.28","2d_cat_multi_stim_exp1","2022-5-2","12:32:3","25","75","3","9","10","40","30","120","76","19","[""Asian""]","No","Female","2706376","null","null","","","","clear_screen","","","","","","","","","","","","","","","","","","","","","","","","","",""
"","","","","","canvas-keyboard-response","154","969677","0.0-12.0-2.28","2d_cat_multi_stim_exp1","2022-5-2","12:32:3","25","75","3","9","10","40","30","120","76","19","[""Asian""]","No","Female","2706376","801","i","learn","","","learn_trial","13.3333","30","out","0","1","","","","","","","","","","","","","","","","","","","","",""
"","","","","","canvas-keyboard-response","155","970191","0.0-12.0-3.28","2d_cat_multi_stim_exp1","2022-5-2","12:32:3","25","75","3","9","10","40","30","120","76","19","[""Asian""]","No","Female","2706376","null","null","learn_feedback","","","learn_feedback","13.3333","30","out","","","","","","","","","","","","","","","","","","","","","","",""
"","","","","","canvas-keyboard-response","156","970251","0.0-12.0-4.28","2d_cat_multi_stim_exp1","2022-5-2","12:32:3","25","75","3","9","10","40","30","120","76","19","[""Asian""]","No","Female","2706376","null","null","","","","clear_screen","","","","","","","","","","","","","","","","","","","","","","","","","",""
"","","","","","canvas-keyboard-response","157","970760","0.0-12.0-0.29","2d_cat_multi_stim_exp1","2022-5-2","12:32:3","25","75","3","9","10","40","30","120","76","19","[""Asian""]","No","Female","2706376","null","null","","","","fixation","","","","","","","","","","","","","","","","","","","","","","","","","",""
"","","","","","canvas-keyboard-response","158","971273","0.0-12.0-1.29","2d_cat_multi_stim_exp1","2022-5-2","12:32:3","25","75","3","9","10","40","30","120","76","19","[""Asian""]","No","Female","2706376","null","null","","","","clear_screen","","","","","","","","","","","","","","","","","","","","","","","","","",""
"","","","","","canvas-keyboard-response","159","972653","0.0-12.0-2.29","2d_cat_multi_stim_exp1","2022-5-2","12:32:3","25","75","3","9","10","40","30","120","76","19","[""Asian""]","No","Female","2706376","1371","u","learn","","","learn_trial","25","75","in","1","1","","","","","","","","","","","","","","","","","","","","",""
"","","","","","canvas-keyboard-response","160","973163","0.0-12.0-3.29","2d_cat_multi_stim_exp1","2022-5-2","12:32:3","25","75","3","9","10","40","30","120","76","19","[""Asian""]","No","Female","2706376","null","null","learn_feedback","","","learn_feedback","25","75","in","","","","","","","","","","","","","","","","","","","","","","",""
"","","","","","canvas-keyboard-response","161","973222","0.0-12.0-4.29","2d_cat_multi_stim_exp1","2022-5-2","12:32:3","25","75","3","9","10","40","30","120","76","19","[""Asian""]","No","Female","2706376","null","null","","","","clear_screen","","","","","","","","","","","","","","","","","","","","","","","","","",""
"","","","","","canvas-keyboard-response","162","973730","0.0-12.0-0.30","2d_cat_multi_stim_exp1","2022-5-2","12:32:3","25","75","3","9","10","40","30","120","76","19","[""Asian""]","No","Female","2706376","null","null","","","","fixation","","","","","","","","","","","","","","","","","","","","","","","","","",""
"","","","","","canvas-keyboard-response","163","974241","0.0-12.0-1.30","2d_cat_multi_stim_exp1","2022-5-2","12:32:3","25","75","3","9","10","40","30","120","76","19","[""Asian""]","No","Female","2706376","null","null","","","","clear_screen","","","","","","","","","","","","","","","","","","","","","","","","","",""
"","","","","","canvas-keyboard-response","164","975349","0.0-12.0-2.30","2d_cat_multi_stim_exp1","2022-5-2","12:32:3","25","75","3","9","10","40","30","120","76","19","[""Asian""]","No","Female","2706376","1099","i","learn","","","learn_trial","27.2592","69.0786","in","0","0","","","","","","","","","","","","","","","","","","","","",""
"","","","","","canvas-keyboard-response","165","976358","0.0-12.0-3.30","2d_cat_multi_stim_exp1","2022-5-2","12:32:3","25","75","3","9","10","40","30","120","76","19","[""Asian""]","No","Female","2706376","null","null","learn_feedback","","","learn_feedback","27.2592","69.0786","in","","","","","","","","","","","","","","","","","","","","","","",""
"","","","","","canvas-keyboard-response","166","976418","0.0-12.0-4.30","2d_cat_multi_stim_exp1","2022-5-2","12:32:3","25","75","3","9","10","40","30","120","76","19","[""Asian""]","No","Female","2706376","null","null","","","","clear_screen","","","","","","","","","","","","","","","","","","","","","","","","","",""
"","","","","","canvas-keyboard-response","167","976929","0.0-12.0-0.31","2d_cat_multi_stim_exp1","2022-5-2","12:32:3","25","75","3","9","10","40","30","120","76","19","[""Asian""]","No","Female","2706376","null","null","","","","fixation","","","","","","","","","","","","","","","","","","","","","","","","","",""
"","","","","","canvas-keyboard-response","168","977435","0.0-12.0-1.31","2d_cat_multi_stim_exp1","2022-5-2","12:32:3","25","75","3","9","10","40","30","120","76","19","[""Asian""]","No","Female","2706376","null","null","","","","clear_screen","","","","","","","","","","","","","","","","","","","","","","","","","",""
"","","","","","canvas-keyboard-response","169","978709","0.0-12.0-2.31","2d_cat_multi_stim_exp1","2022-5-2","12:32:3","25","75","3","9","10","40","30","120","76","19","[""Asian""]","No","Female","2706376","1263","i","learn","","","learn_trial","36.6667","110","out","0","1","","","","","","","","","","","","","","","","","","","","",""
"","","","","","canvas-keyboard-response","170","979220","0.0-12.0-3.31","2d_cat_multi_stim_exp1","2022-5-2","12:32:3","25","75","3","9","10","40","30","120","76","19","[""Asian""]","No","Female","2706376","null","null","learn_feedback","","","learn_feedback","36.6667","110","out","","","","","","","","","","","","","","","","","","","","","","",""
"","","","","","canvas-keyboard-response","171","979281","0.0-12.0-4.31","2d_cat_multi_stim_exp1","2022-5-2","12:32:3","25","75","3","9","10","40","30","120","76","19","[""Asian""]","No","Female","2706376","null","null","","","","clear_screen","","","","","","","","","","","","","","","","","","","","","","","","","",""
"","","","","","canvas-keyboard-response","172","979790","0.0-12.0-0.32","2d_cat_multi_stim_exp1","2022-5-2","12:32:3","25","75","3","9","10","40","30","120","76","19","[""Asian""]","No","Female","2706376","null","null","","","","fixation","","","","","","","","","","","","","","","","","","","","","","","","","",""
"","","","","","canvas-keyboard-response","173","980300","0.0-12.0-1.32","2d_cat_multi_stim_exp1","2022-5-2","12:32:3","25","75","3","9","10","40","30","120","76","19","[""Asian""]","No","Female","2706376","null","null","","","","clear_screen","","","","","","","","","","","","","","","","","","","","","","","","","",""
"","","","","","canvas-keyboard-response","174","981038","0.0-12.0-2.32","2d_cat_multi_stim_exp1","2022-5-2","12:32:3","25","75","3","9","10","40","30","120","76","19","[""Asian""]","No","Female","2706376","726","i","learn","","","learn_trial","40","70","out","0","1","","","","","","","","","","","","","","","","","","","","",""
"","","","","","canvas-keyboard-response","175","981552","0.0-12.0-3.32","2d_cat_multi_stim_exp1","2022-5-2","12:32:3","25","75","3","9","10","40","30","120","76","19","[""Asian""]","No","Female","2706376","null","null","learn_feedback","","","learn_feedback","40","70","out","","","","","","","","","","","","","","","","","","","","","","",""
"","","","","","canvas-keyboard-response","176","981614","0.0-12.0-4.32","2d_cat_multi_stim_exp1","2022-5-2","12:32:3","25","75","3","9","10","40","30","120","76","19","[""Asian""]","No","Female","2706376","null","null","","","","clear_screen","","","","","","","","","","","","","","","","","","","","","","","","","",""
"","","","","","canvas-keyboard-response","177","982124","0.0-12.0-0.33","2d_cat_multi_stim_exp1","2022-5-2","12:32:3","25","75","3","9","10","40","30","120","76","19","[""Asian""]","No","Female","2706376","null","null","","","","fixation","","","","","","","","","","","","","","","","","","","","","","","","","",""
"","","","","","canvas-keyboard-response","178","982635","0.0-12.0-1.33","2d_cat_multi_stim_exp1","2022-5-2","12:32:3","25","75","3","9","10","40","30","120","76","19","[""Asian""]","No","Female","2706376","null","null","","","","clear_screen","","","","","","","","","","","","","","","","","","","","","","","","","",""
"","","","","","canvas-keyboard-response","179","983789","0.0-12.0-2.33","2d_cat_multi_stim_exp1","2022-5-2","12:32:3","25","75","3","9","10","40","30","120","76","19","[""Asian""]","No","Female","2706376","1145","u","learn","","","learn_trial","25","75","in","1","1","","","","","","","","","","","","","","","","","","","","",""
"","","","","","canvas-keyboard-response","180","984300","0.0-12.0-3.33","2d_cat_multi_stim_exp1","2022-5-2","12:32:3","25","75","3","9","10","40","30","120","76","19","[""Asian""]","No","Female","2706376","null","null","learn_feedback","","","learn_feedback","25","75","in","","","","","","","","","","","","","","","","","","","","","","",""
"","","","","","canvas-keyboard-response","181","984361","0.0-12.0-4.33","2d_cat_multi_stim_exp1","2022-5-2","12:32:3","25","75","3","9","10","40","30","120","76","19","[""Asian""]","No","Female","2706376","null","null","","","","clear_screen","","","","","","","","","","","","","","","","","","","","","","","","","",""
"","","","","","canvas-keyboard-response","182","984872","0.0-12.0-0.34","2d_cat_multi_stim_exp1","2022-5-2","12:32:3","25","75","3","9","10","40","30","120","76","19","[""Asian""]","No","Female","2706376","null","null","","","","fixation","","","","","","","","","","","","","","","","","","","","","","","","","",""
"","","","","","canvas-keyboard-response","183","985386","0.0-12.0-1.34","2d_cat_multi_stim_exp1","2022-5-2","12:32:3","25","75","3","9","10","40","30","120","76","19","[""Asian""]","No","Female","2706376","null","null","","","","clear_screen","","","","","","","","","","","","","","","","","","","","","","","","","",""
"","","","","","canvas-keyboard-response","184","986157","0.0-12.0-2.34","2d_cat_multi_stim_exp1","2022-5-2","12:32:3","25","75","3","9","10","40","30","120","76","19","[""Asian""]","No","Female","2706376","760","i","learn","","","learn_trial","36.6667","90","out","0","1","","","","","","","","","","","","","","","","","","","","",""
"","","","","","canvas-keyboard-response","185","986667","0.0-12.0-3.34","2d_cat_multi_stim_exp1","2022-5-2","12:32:3","25","75","3","9","10","40","30","120","76","19","[""Asian""]","No","Female","2706376","null","null","learn_feedback","","","learn_feedback","36.6667","90","out","","","","","","","","","","","","","","","","","","","","","","",""
"","","","","","canvas-keyboard-response","186","986730","0.0-12.0-4.34","2d_cat_multi_stim_exp1","2022-5-2","12:32:3","25","75","3","9","10","40","30","120","76","19","[""Asian""]","No","Female","2706376","null","null","","","","clear_screen","","","","","","","","","","","","","","","","","","","","","","","","","",""
"","","","","","canvas-keyboard-response","187","987239","0.0-12.0-0.35","2d_cat_multi_stim_exp1","2022-5-2","12:32:3","25","75","3","9","10","40","30","120","76","19","[""Asian""]","No","Female","2706376","null","null","","","","fixation","","","","","","","","","","","","","","","","","","","","","","","","","",""
"","","","","","canvas-keyboard-response","188","987753","0.0-12.0-1.35","2d_cat_multi_stim_exp1","2022-5-2","12:32:3","25","75","3","9","10","40","30","120","76","19","[""Asian""]","No","Female","2706376","null","null","","","","clear_screen","","","","","","","","","","","","","","","","","","","","","","","","","",""
"","","","","","canvas-keyboard-response","189","988446","0.0-12.0-2.35","2d_cat_multi_stim_exp1","2022-5-2","12:32:3","25","75","3","9","10","40","30","120","76","19","[""Asian""]","No","Female","2706376","681","u","learn","","","learn_trial","22.0121","74.1932","in","1","1","","","","","","","","","","","","","","","","","","","","",""
"","","","","","canvas-keyboard-response","190","988955","0.0-12.0-3.35","2d_cat_multi_stim_exp1","2022-5-2","12:32:3","25","75","3","9","10","40","30","120","76","19","[""Asian""]","No","Female","2706376","null","null","learn_feedback","","","learn_feedback","22.0121","74.1932","in","","","","","","","","","","","","","","","","","","","","","","",""
"","","","","","canvas-keyboard-response","191","989020","0.0-12.0-4.35","2d_cat_multi_stim_exp1","2022-5-2","12:32:3","25","75","3","9","10","40","30","120","76","19","[""Asian""]","No","Female","2706376","null","null","","","","clear_screen","","","","","","","","","","","","","","","","","","","","","","","","","",""
"","","","","","canvas-keyboard-response","192","989530","0.0-12.0-0.36","2d_cat_multi_stim_exp1","2022-5-2","12:32:3","25","75","3","9","10","40","30","120","76","19","[""Asian""]","No","Female","2706376","null","null","","","","fixation","","","","","","","","","","","","","","","","","","","","","","","","","",""
"","","","","","canvas-keyboard-response","193","990044","0.0-12.0-1.36","2d_cat_multi_stim_exp1","2022-5-2","12:32:3","25","75","3","9","10","40","30","120","76","19","[""Asian""]","No","Female","2706376","null","null","","","","clear_screen","","","","","","","","","","","","","","","","","","","","","","","","","",""
"","","","","","canvas-keyboard-response","194","990573","0.0-12.0-2.36","2d_cat_multi_stim_exp1","2022-5-2","12:32:3","25","75","3","9","10","40","30","120","76","19","[""Asian""]","No","Female","2706376","518","u","learn","","","learn_trial","25","75","in","1","1","","","","","","","","","","","","","","","","","","","","",""
"","","","","","canvas-keyboard-response","195","991084","0.0-12.0-3.36","2d_cat_multi_stim_exp1","2022-5-2","12:32:3","25","75","3","9","10","40","30","120","76","19","[""Asian""]","No","Female","2706376","null","null","learn_feedback","","","learn_feedback","25","75","in","","","","","","","","","","","","","","","","","","","","","","",""
"","","","","","canvas-keyboard-response","196","991145","0.0-12.0-4.36","2d_cat_multi_stim_exp1","2022-5-2","12:32:3","25","75","3","9","10","40","30","120","76","19","[""Asian""]","No","Female","2706376","null","null","","","","clear_screen","","","","","","","","","","","","","","","","","","","","","","","","","",""
"","","","","","canvas-keyboard-response","197","991657","0.0-12.0-0.37","2d_cat_multi_stim_exp1","2022-5-2","12:32:3","25","75","3","9","10","40","30","120","76","19","[""Asian""]","No","Female","2706376","null","null","","","","fixation","","","","","","","","","","","","","","","","","","","","","","","","","",""
"","","","","","canvas-keyboard-response","198","992166","0.0-12.0-1.37","2d_cat_multi_stim_exp1","2022-5-2","12:32:3","25","75","3","9","10","40","30","120","76","19","[""Asian""]","No","Female","2706376","null","null","","","","clear_screen","","","","","","","","","","","","","","","","","","","","","","","","","",""
"","","","","","canvas-keyboard-response","199","992693","0.0-12.0-2.37","2d_cat_multi_stim_exp1","2022-5-2","12:32:3","25","75","3","9","10","40","30","120","76","19","[""Asian""]","No","Female","2706376","518","u","learn","","","learn_trial","26.6667","70","out","1","0","","","","","","","","","","","","","","","","","","","","",""
"","","","","","canvas-keyboard-response","200","993704","0.0-12.0-3.37","2d_cat_multi_stim_exp1","2022-5-2","12:32:3","25","75","3","9","10","40","30","120","76","19","[""Asian""]","No","Female","2706376","null","null","learn_feedback","","","learn_feedback","26.6667","70","out","","","","","","","","","","","","","","","","","","","","","","",""
"","","","","","canvas-keyboard-response","201","993766","0.0-12.0-4.37","2d_cat_multi_stim_exp1","2022-5-2","12:32:3","25","75","3","9","10","40","30","120","76","19","[""Asian""]","No","Female","2706376","null","null","","","","clear_screen","","","","","","","","","","","","","","","","","","","","","","","","","",""
"","","","","","canvas-keyboard-response","202","994276","0.0-12.0-0.38","2d_cat_multi_stim_exp1","2022-5-2","12:32:3","25","75","3","9","10","40","30","120","76","19","[""Asian""]","No","Female","2706376","null","null","","","","fixation","","","","","","","","","","","","","","","","","","","","","","","","","",""
"","","","","","canvas-keyboard-response","203","994789","0.0-12.0-1.38","2d_cat_multi_stim_exp1","2022-5-2","12:32:3","25","75","3","9","10","40","30","120","76","19","[""Asian""]","No","Female","2706376","null","null","","","","clear_screen","","","","","","","","","","","","","","","","","","","","","","","","","",""
"","","","","","canvas-keyboard-response","204","995669","0.0-12.0-2.38","2d_cat_multi_stim_exp1","2022-5-2","12:32:3","25","75","3","9","10","40","30","120","76","19","[""Asian""]","No","Female","2706376","871","i","learn","","","learn_trial","10","80","out","0","1","","","","","","","","","","","","","","","","","","","","",""
"","","","","","canvas-keyboard-response","205","996180","0.0-12.0-3.38","2d_cat_multi_stim_exp1","2022-5-2","12:32:3","25","75","3","9","10","40","30","120","76","19","[""Asian""]","No","Female","2706376","null","null","learn_feedback","","","learn_feedback","10","80","out","","","","","","","","","","","","","","","","","","","","","","",""
"","","","","","canvas-keyboard-response","206","996239","0.0-12.0-4.38","2d_cat_multi_stim_exp1","2022-5-2","12:32:3","25","75","3","9","10","40","30","120","76","19","[""Asian""]","No","Female","2706376","null","null","","","","clear_screen","","","","","","","","","","","","","","","","","","","","","","","","","",""
"","","","","","canvas-keyboard-response","207","996746","0.0-12.0-0.39","2d_cat_multi_stim_exp1","2022-5-2","12:32:3","25","75","3","9","10","40","30","120","76","19","[""Asian""]","No","Female","2706376","null","null","","","","fixation","","","","","","","","","","","","","","","","","","","","","","","","","",""
"","","","","","canvas-keyboard-response","208","997252","0.0-12.0-1.39","2d_cat_multi_stim_exp1","2022-5-2","12:32:3","25","75","3","9","10","40","30","120","76","19","[""Asian""]","No","Female","2706376","null","null","","","","clear_screen","","","","","","","","","","","","","","","","","","","","","","","","","",""
"","","","","","canvas-keyboard-response","209","998046","0.0-12.0-2.39","2d_cat_multi_stim_exp1","2022-5-2","12:32:3","25","75","3","9","10","40","30","120","76","19","[""Asian""]","No","Female","2706376","780","i","learn","","","learn_trial","36.6667","50","out","0","1","","","","","","","","","","","","","","","","","","","","",""
"","","","","","canvas-keyboard-response","210","998555","0.0-12.0-3.39","2d_cat_multi_stim_exp1","2022-5-2","12:32:3","25","75","3","9","10","40","30","120","76","19","[""Asian""]","No","Female","2706376","null","null","learn_feedback","","","learn_feedback","36.6667","50","out","","","","","","","","","","","","","","","","","","","","","","",""
"","","","","","canvas-keyboard-response","211","998619","0.0-12.0-4.39","2d_cat_multi_stim_exp1","2022-5-2","12:32:3","25","75","3","9","10","40","30","120","76","19","[""Asian""]","No","Female","2706376","null","null","","","","clear_screen","","","","","","","","","","","","","","","","","","","","","","","","","",""
"","","","","","canvas-keyboard-response","212","999128","0.0-12.0-0.40","2d_cat_multi_stim_exp1","2022-5-2","12:32:3","25","75","3","9","10","40","30","120","76","19","[""Asian""]","No","Female","2706376","null","null","","","","fixation","","","","","","","","","","","","","","","","","","","","","","","","","",""
"","","","","","canvas-keyboard-response","213","999637","0.0-12.0-1.40","2d_cat_multi_stim_exp1","2022-5-2","12:32:3","25","75","3","9","10","40","30","120","76","19","[""Asian""]","No","Female","2706376","null","null","","","","clear_screen","","","","","","","","","","","","","","","","","","","","","","","","","",""
"","","","","","canvas-keyboard-response","214","1002773","0.0-12.0-2.40","2d_cat_multi_stim_exp1","2022-5-2","12:32:3","25","75","3","9","10","40","30","120","76","19","[""Asian""]","No","Female","2706376","3126","i","learn","","","learn_trial","27.9518","73.393","in","0","0","","","","","","","","","","","","","","","","","","","","",""
"","","","","","canvas-keyboard-response","215","1003785","0.0-12.0-3.40","2d_cat_multi_stim_exp1","2022-5-2","12:32:3","25","75","3","9","10","40","30","120","76","19","[""Asian""]","No","Female","2706376","null","null","learn_feedback","","","learn_feedback","27.9518","73.393","in","","","","","","","","","","","","","","","","","","","","","","",""
"","","","","","canvas-keyboard-response","216","1003843","0.0-12.0-4.40","2d_cat_multi_stim_exp1","2022-5-2","12:32:3","25","75","3","9","10","40","30","120","76","19","[""Asian""]","No","Female","2706376","null","null","","","","clear_screen","","","","","","","","","","","","","","","","","","","","","","","","","",""
"","","","","","canvas-keyboard-response","217","1004355","0.0-12.0-0.41","2d_cat_multi_stim_exp1","2022-5-2","12:32:3","25","75","3","9","10","40","30","120","76","19","[""Asian""]","No","Female","2706376","null","null","","","","fixation","","","","","","","","","","","","","","","","","","","","","","","","","",""
"","","","","","canvas-keyboard-response","218","1004869","0.0-12.0-1.41","2d_cat_multi_stim_exp1","2022-5-2","12:32:3","25","75","3","9","10","40","30","120","76","19","[""Asian""]","No","Female","2706376","null","null","","","","clear_screen","","","","","","","","","","","","","","","","","","","","","","","","","",""
"","","","","","canvas-keyboard-response","219","1005611","0.0-12.0-2.41","2d_cat_multi_stim_exp1","2022-5-2","12:32:3","25","75","3","9","10","40","30","120","76","19","[""Asian""]","No","Female","2706376","732","i","learn","","","learn_trial","30","40","out","0","1","","","","","","","","","","","","","","","","","","","","",""
"","","","","","canvas-keyboard-response","220","1006119","0.0-12.0-3.41","2d_cat_multi_stim_exp1","2022-5-2","12:32:3","25","75","3","9","10","40","30","120","76","19","[""Asian""]","No","Female","2706376","null","null","learn_feedback","","","learn_feedback","30","40","out","","","","","","","","","","","","","","","","","","","","","","",""
"","","","","","canvas-keyboard-response","221","1006179","0.0-12.0-4.41","2d_cat_multi_stim_exp1","2022-5-2","12:32:3","25","75","3","9","10","40","30","120","76","19","[""Asian""]","No","Female","2706376","null","null","","","","clear_screen","","","","","","","","","","","","","","","","","","","","","","","","","",""
"","","","","","canvas-keyboard-response","222","1006687","0.0-12.0-0.42","2d_cat_multi_stim_exp1","2022-5-2","12:32:3","25","75","3","9","10","40","30","120","76","19","[""Asian""]","No","Female","2706376","null","null","","","","fixation","","","","","","","","","","","","","","","","","","","","","","","","","",""
"","","","","","canvas-keyboard-response","223","1007197","0.0-12.0-1.42","2d_cat_multi_stim_exp1","2022-5-2","12:32:3","25","75","3","9","10","40","30","120","76","19","[""Asian""]","No","Female","2706376","null","null","","","","clear_screen","","","","","","","","","","","","","","","","","","","","","","","","","",""
"","","","","","canvas-keyboard-response","224","1008052","0.0-12.0-2.42","2d_cat_multi_stim_exp1","2022-5-2","12:32:3","25","75","3","9","10","40","30","120","76","19","[""Asian""]","No","Female","2706376","844","u","learn","","","learn_trial","25","75","in","1","1","","","","","","","","","","","","","","","","","","","","",""
"","","","","","canvas-keyboard-response","225","1008560","0.0-12.0-3.42","2d_cat_multi_stim_exp1","2022-5-2","12:32:3","25","75","3","9","10","40","30","120","76","19","[""Asian""]","No","Female","2706376","null","null","learn_feedback","","","learn_feedback","25","75","in","","","","","","","","","","","","","","","","","","","","","","",""
"","","","","","canvas-keyboard-response","226","1008623","0.0-12.0-4.42","2d_cat_multi_stim_exp1","2022-5-2","12:32:3","25","75","3","9","10","40","30","120","76","19","[""Asian""]","No","Female","2706376","null","null","","","","clear_screen","","","","","","","","","","","","","","","","","","","","","","","","","",""
"","","","","","canvas-keyboard-response","227","1009132","0.0-12.0-0.43","2d_cat_multi_stim_exp1","2022-5-2","12:32:3","25","75","3","9","10","40","30","120","76","19","[""Asian""]","No","Female","2706376","null","null","","","","fixation","","","","","","","","","","","","","","","","","","","","","","","","","",""
"","","","","","canvas-keyboard-response","228","1009647","0.0-12.0-1.43","2d_cat_multi_stim_exp1","2022-5-2","12:32:3","25","75","3","9","10","40","30","120","76","19","[""Asian""]","No","Female","2706376","null","null","","","","clear_screen","","","","","","","","","","","","","","","","","","","","","","","","","",""
"","","","","","canvas-keyboard-response","229","1010292","0.0-12.0-2.43","2d_cat_multi_stim_exp1","2022-5-2","12:32:3","25","75","3","9","10","40","30","120","76","19","[""Asian""]","No","Female","2706376","638","i","learn","","","learn_trial","23.3333","30","out","0","1","","","","","","","","","","","","","","","","","","","","",""
"","","","","","canvas-keyboard-response","230","1010803","0.0-12.0-3.43","2d_cat_multi_stim_exp1","2022-5-2","12:32:3","25","75","3","9","10","40","30","120","76","19","[""Asian""]","No","Female","2706376","null","null","learn_feedback","","","learn_feedback","23.3333","30","out","","","","","","","","","","","","","","","","","","","","","","",""
"","","","","","canvas-keyboard-response","231","1010863","0.0-12.0-4.43","2d_cat_multi_stim_exp1","2022-5-2","12:32:3","25","75","3","9","10","40","30","120","76","19","[""Asian""]","No","Female","2706376","null","null","","","","clear_screen","","","","","","","","","","","","","","","","","","","","","","","","","",""
"","","","","","canvas-keyboard-response","232","1011372","0.0-12.0-0.44","2d_cat_multi_stim_exp1","2022-5-2","12:32:3","25","75","3","9","10","40","30","120","76","19","[""Asian""]","No","Female","2706376","null","null","","","","fixation","","","","","","","","","","","","","","","","","","","","","","","","","",""
"","","","","","canvas-keyboard-response","233","1011884","0.0-12.0-1.44","2d_cat_multi_stim_exp1","2022-5-2","12:32:3","25","75","3","9","10","40","30","120","76","19","[""Asian""]","No","Female","2706376","null","null","","","","clear_screen","","","","","","","","","","","","","","","","","","","","","","","","","",""
"","","","","","canvas-keyboard-response","234","1012749","0.0-12.0-2.44","2d_cat_multi_stim_exp1","2022-5-2","12:32:3","25","75","3","9","10","40","30","120","76","19","[""Asian""]","No","Female","2706376","856","u","learn","","","learn_trial","25","75","in","1","1","","","","","","","","","","","","","","","","","","","","",""
"","","","","","canvas-keyboard-response","235","1013259","0.0-12.0-3.44","2d_cat_multi_stim_exp1","2022-5-2","12:32:3","25","75","3","9","10","40","30","120","76","19","[""Asian""]","No","Female","2706376","null","null","learn_feedback","","","learn_feedback","25","75","in","","","","","","","","","","","","","","","","","","","","","","",""
"","","","","","canvas-keyboard-response","236","1013318","0.0-12.0-4.44","2d_cat_multi_stim_exp1","2022-5-2","12:32:3","25","75","3","9","10","40","30","120","76","19","[""Asian""]","No","Female","2706376","null","null","","","","clear_screen","","","","","","","","","","","","","","","","","","","","","","","","","",""
"","","","","","canvas-keyboard-response","237","1013827","0.0-12.0-0.45","2d_cat_multi_stim_exp1","2022-5-2","12:32:3","25","75","3","9","10","40","30","120","76","19","[""Asian""]","No","Female","2706376","null","null","","","","fixation","","","","","","","","","","","","","","","","","","","","","","","","","",""
"","","","","","canvas-keyboard-response","238","1014341","0.0-12.0-1.45","2d_cat_multi_stim_exp1","2022-5-2","12:32:3","25","75","3","9","10","40","30","120","76","19","[""Asian""]","No","Female","2706376","null","null","","","","clear_screen","","","","","","","","","","","","","","","","","","","","","","","","","",""
"","","","","","canvas-keyboard-response","239","1015100","0.0-12.0-2.45","2d_cat_multi_stim_exp1","2022-5-2","12:32:3","25","75","3","9","10","40","30","120","76","19","[""Asian""]","No","Female","2706376","750","u","learn","","","learn_trial","26.4216","82.9254","in","1","1","","","","","","","","","","","","","","","","","","","","",""
"","","","","","canvas-keyboard-response","240","1015612","0.0-12.0-3.45","2d_cat_multi_stim_exp1","2022-5-2","12:32:3","25","75","3","9","10","40","30","120","76","19","[""Asian""]","No","Female","2706376","null","null","learn_feedback","","","learn_feedback","26.4216","82.9254","in","","","","","","","","","","","","","","","","","","","","","","",""
"","","","","","canvas-keyboard-response","241","1015670","0.0-12.0-4.45","2d_cat_multi_stim_exp1","2022-5-2","12:32:3","25","75","3","9","10","40","30","120","76","19","[""Asian""]","No","Female","2706376","null","null","","","","clear_screen","","","","","","","","","","","","","","","","","","","","","","","","","",""
"","","","","","canvas-keyboard-response","242","1016180","0.0-12.0-0.46","2d_cat_multi_stim_exp1","2022-5-2","12:32:3","25","75","3","9","10","40","30","120","76","19","[""Asian""]","No","Female","2706376","null","null","","","","fixation","","","","","","","","","","","","","","","","","","","","","","","","","",""
"","","","","","canvas-keyboard-response","243","1016690","0.0-12.0-1.46","2d_cat_multi_stim_exp1","2022-5-2","12:32:3","25","75","3","9","10","40","30","120","76","19","[""Asian""]","No","Female","2706376","null","null","","","","clear_screen","","","","","","","","","","","","","","","","","","","","","","","","","",""
"","","","","","canvas-keyboard-response","244","1017517","0.0-12.0-2.46","2d_cat_multi_stim_exp1","2022-5-2","12:32:3","25","75","3","9","10","40","30","120","76","19","[""Asian""]","No","Female","2706376","817","i","learn","","","learn_trial","25","57","in","0","0","","","","","","","","","","","","","","","","","","","","",""
"","","","","","canvas-keyboard-response","245","1018527","0.0-12.0-3.46","2d_cat_multi_stim_exp1","2022-5-2","12:32:3","25","75","3","9","10","40","30","120","76","19","[""Asian""]","No","Female","2706376","null","null","learn_feedback","","","learn_feedback","25","57","in","","","","","","","","","","","","","","","","","","","","","","",""
"","","","","","canvas-keyboard-response","246","1018587","0.0-12.0-4.46","2d_cat_multi_stim_exp1","2022-5-2","12:32:3","25","75","3","9","10","40","30","120","76","19","[""Asian""]","No","Female","2706376","null","null","","","","clear_screen","","","","","","","","","","","","","","","","","","","","","","","","","",""
"","","","","","canvas-keyboard-response","247","1019102","0.0-12.0-0.47","2d_cat_multi_stim_exp1","2022-5-2","12:32:3","25","75","3","9","10","40","30","120","76","19","[""Asian""]","No","Female","2706376","null","null","","","","fixation","","","","","","","","","","","","","","","","","","","","","","","","","",""
"","","","","","canvas-keyboard-response","248","1019616","0.0-12.0-1.47","2d_cat_multi_stim_exp1","2022-5-2","12:32:3","25","75","3","9","10","40","30","120","76","19","[""Asian""]","No","Female","2706376","null","null","","","","clear_screen","","","","","","","","","","","","","","","","","","","","","","","","","",""
"","","","","","canvas-keyboard-response","249","1020653","0.0-12.0-2.47","2d_cat_multi_stim_exp1","2022-5-2","12:32:3","25","75","3","9","10","40","30","120","76","19","[""Asian""]","No","Female","2706376","1029","i","learn","","","learn_trial","20","90","out","0","1","","","","","","","","","","","","","","","","","","","","",""
"","","","","","canvas-keyboard-response","250","1021163","0.0-12.0-3.47","2d_cat_multi_stim_exp1","2022-5-2","12:32:3","25","75","3","9","10","40","30","120","76","19","[""Asian""]","No","Female","2706376","null","null","learn_feedback","","","learn_feedback","20","90","out","","","","","","","","","","","","","","","","","","","","","","",""
"","","","","","canvas-keyboard-response","251","1021222","0.0-12.0-4.47","2d_cat_multi_stim_exp1","2022-5-2","12:32:3","25","75","3","9","10","40","30","120","76","19","[""Asian""]","No","Female","2706376","null","null","","","","clear_screen","","","","","","","","","","","","","","","","","","","","","","","","","",""
"","","","","","canvas-keyboard-response","252","1021733","0.0-12.0-0.48","2d_cat_multi_stim_exp1","2022-5-2","12:32:3","25","75","3","9","10","40","30","120","76","19","[""Asian""]","No","Female","2706376","null","null","","","","fixation","","","","","","","","","","","","","","","","","","","","","","","","","",""
"","","","","","canvas-keyboard-response","253","1022243","0.0-12.0-1.48","2d_cat_multi_stim_exp1","2022-5-2","12:32:3","25","75","3","9","10","40","30","120","76","19","[""Asian""]","No","Female","2706376","null","null","","","","clear_screen","","","","","","","","","","","","","","","","","","","","","","","","","",""
"","","","","","canvas-keyboard-response","254","1022926","0.0-12.0-2.48","2d_cat_multi_stim_exp1","2022-5-2","12:32:3","25","75","3","9","10","40","30","120","76","19","[""Asian""]","No","Female","2706376","672","u","learn","","","learn_trial","22.2971","71.095","in","1","1","","","","","","","","","","","","","","","","","","","","",""
"","","","","","canvas-keyboard-response","255","1023435","0.0-12.0-3.48","2d_cat_multi_stim_exp1","2022-5-2","12:32:3","25","75","3","9","10","40","30","120","76","19","[""Asian""]","No","Female","2706376","null","null","learn_feedback","","","learn_feedback","22.2971","71.095","in","","","","","","","","","","","","","","","","","","","","","","",""
"","","","","","canvas-keyboard-response","256","1023498","0.0-12.0-4.48","2d_cat_multi_stim_exp1","2022-5-2","12:32:3","25","75","3","9","10","40","30","120","76","19","[""Asian""]","No","Female","2706376","null","null","","","","clear_screen","","","","","","","","","","","","","","","","","","","","","","","","","",""
"","","","","","canvas-keyboard-response","257","1024008","0.0-12.0-0.49","2d_cat_multi_stim_exp1","2022-5-2","12:32:3","25","75","3","9","10","40","30","120","76","19","[""Asian""]","No","Female","2706376","null","null","","","","fixation","","","","","","","","","","","","","","","","","","","","","","","","","",""
"","","","","","canvas-keyboard-response","258","1024523","0.0-12.0-1.49","2d_cat_multi_stim_exp1","2022-5-2","12:32:3","25","75","3","9","10","40","30","120","76","19","[""Asian""]","No","Female","2706376","null","null","","","","clear_screen","","","","","","","","","","","","","","","","","","","","","","","","","",""
"","","","","","canvas-keyboard-response","259","1025677","0.0-12.0-2.49","2d_cat_multi_stim_exp1","2022-5-2","12:32:3","25","75","3","9","10","40","30","120","76","19","[""Asian""]","No","Female","2706376","1145","i","learn","","","learn_trial","36.6667","60","out","0","1","","","","","","","","","","","","","","","","","","","","",""
"","","","","","canvas-keyboard-response","260","1026191","0.0-12.0-3.49","2d_cat_multi_stim_exp1","2022-5-2","12:32:3","25","75","3","9","10","40","30","120","76","19","[""Asian""]","No","Female","2706376","null","null","learn_feedback","","","learn_feedback","36.6667","60","out","","","","","","","","","","","","","","","","","","","","","","",""
"","","","","","canvas-keyboard-response","261","1026251","0.0-12.0-4.49","2d_cat_multi_stim_exp1","2022-5-2","12:32:3","25","75","3","9","10","40","30","120","76","19","[""Asian""]","No","Female","2706376","null","null","","","","clear_screen","","","","","","","","","","","","","","","","","","","","","","","","","",""
"","","","","","canvas-keyboard-response","262","1026764","0.0-12.0-0.50","2d_cat_multi_stim_exp1","2022-5-2","12:32:3","25","75","3","9","10","40","30","120","76","19","[""Asian""]","No","Female","2706376","null","null","","","","fixation","","","","","","","","","","","","","","","","","","","","","","","","","",""
"","","","","","canvas-keyboard-response","263","1027278","0.0-12.0-1.50","2d_cat_multi_stim_exp1","2022-5-2","12:32:3","25","75","3","9","10","40","30","120","76","19","[""Asian""]","No","Female","2706376","null","null","","","","clear_screen","","","","","","","","","","","","","","","","","","","","","","","","","",""
"","","","","","canvas-keyboard-response","264","1027781","0.0-12.0-2.50","2d_cat_multi_stim_exp1","2022-5-2","12:32:3","25","75","3","9","10","40","30","120","76","19","[""Asian""]","No","Female","2706376","494","u","learn","","","learn_trial","25","75","in","1","1","","","","","","","","","","","","","","","","","","","","",""
"","","","","","canvas-keyboard-response","265","1028293","0.0-12.0-3.50","2d_cat_multi_stim_exp1","2022-5-2","12:32:3","25","75","3","9","10","40","30","120","76","19","[""Asian""]","No","Female","2706376","null","null","learn_feedback","","","learn_feedback","25","75","in","","","","","","","","","","","","","","","","","","","","","","",""
"","","","","","canvas-keyboard-response","266","1028357","0.0-12.0-4.50","2d_cat_multi_stim_exp1","2022-5-2","12:32:3","25","75","3","9","10","40","30","120","76","19","[""Asian""]","No","Female","2706376","null","null","","","","clear_screen","","","","","","","","","","","","","","","","","","","","","","","","","",""
"","","","","","canvas-keyboard-response","267","1028867","0.0-12.0-0.51","2d_cat_multi_stim_exp1","2022-5-2","12:32:3","25","75","3","9","10","40","30","120","76","19","[""Asian""]","No","Female","2706376","null","null","","","","fixation","","","","","","","","","","","","","","","","","","","","","","","","","",""
"","","","","","canvas-keyboard-response","268","1029374","0.0-12.0-1.51","2d_cat_multi_stim_exp1","2022-5-2","12:32:3","25","75","3","9","10","40","30","120","76","19","[""Asian""]","No","Female","2706376","null","null","","","","clear_screen","","","","","","","","","","","","","","","","","","","","","","","","","",""
"","","","","","canvas-keyboard-response","269","1030037","0.0-12.0-2.51","2d_cat_multi_stim_exp1","2022-5-2","12:32:3","25","75","3","9","10","40","30","120","76","19","[""Asian""]","No","Female","2706376","651","u","learn","","","learn_trial","25","75","in","1","1","","","","","","","","","","","","","","","","","","","","",""
"","","","","","canvas-keyboard-response","270","1030547","0.0-12.0-3.51","2d_cat_multi_stim_exp1","2022-5-2","12:32:3","25","75","3","9","10","40","30","120","76","19","[""Asian""]","No","Female","2706376","null","null","learn_feedback","","","learn_feedback","25","75","in","","","","","","","","","","","","","","","","","","","","","","",""
"","","","","","canvas-keyboard-response","271","1030607","0.0-12.0-4.51","2d_cat_multi_stim_exp1","2022-5-2","12:32:3","25","75","3","9","10","40","30","120","76","19","[""Asian""]","No","Female","2706376","null","null","","","","clear_screen","","","","","","","","","","","","","","","","","","","","","","","","","",""
"","","","","","canvas-keyboard-response","272","1031118","0.0-12.0-0.52","2d_cat_multi_stim_exp1","2022-5-2","12:32:3","25","75","3","9","10","40","30","120","76","19","[""Asian""]","No","Female","2706376","null","null","","","","fixation","","","","","","","","","","","","","","","","","","","","","","","","","",""
"","","","","","canvas-keyboard-response","273","1031628","0.0-12.0-1.52","2d_cat_multi_stim_exp1","2022-5-2","12:32:3","25","75","3","9","10","40","30","120","76","19","[""Asian""]","No","Female","2706376","null","null","","","","clear_screen","","","","","","","","","","","","","","","","","","","","","","","","","",""
"","","","","","canvas-keyboard-response","274","1032252","0.0-12.0-2.52","2d_cat_multi_stim_exp1","2022-5-2","12:32:3","25","75","3","9","10","40","30","120","76","19","[""Asian""]","No","Female","2706376","614","u","learn","","","learn_trial","25","75","in","1","1","","","","","","","","","","","","","","","","","","","","",""
"","","","","","canvas-keyboard-response","275","1032764","0.0-12.0-3.52","2d_cat_multi_stim_exp1","2022-5-2","12:32:3","25","75","3","9","10","40","30","120","76","19","[""Asian""]","No","Female","2706376","null","null","learn_feedback","","","learn_feedback","25","75","in","","","","","","","","","","","","","","","","","","","","","","",""
"","","","","","canvas-keyboard-response","276","1032824","0.0-12.0-4.52","2d_cat_multi_stim_exp1","2022-5-2","12:32:3","25","75","3","9","10","40","30","120","76","19","[""Asian""]","No","Female","2706376","null","null","","","","clear_screen","","","","","","","","","","","","","","","","","","","","","","","","","",""
"","","","","","canvas-keyboard-response","277","1033333","0.0-12.0-0.53","2d_cat_multi_stim_exp1","2022-5-2","12:32:3","25","75","3","9","10","40","30","120","76","19","[""Asian""]","No","Female","2706376","null","null","","","","fixation","","","","","","","","","","","","","","","","","","","","","","","","","",""
"","","","","","canvas-keyboard-response","278","1033843","0.0-12.0-1.53","2d_cat_multi_stim_exp1","2022-5-2","12:32:3","25","75","3","9","10","40","30","120","76","19","[""Asian""]","No","Female","2706376","null","null","","","","clear_screen","","","","","","","","","","","","","","","","","","","","","","","","","",""
"","","","","","canvas-keyboard-response","279","1034549","0.0-12.0-2.53","2d_cat_multi_stim_exp1","2022-5-2","12:32:3","25","75","3","9","10","40","30","120","76","19","[""Asian""]","No","Female","2706376","697","i","learn","","","learn_trial","16.6667","100","out","0","1","","","","","","","","","","","","","","","","","","","","",""
"","","","","","canvas-keyboard-response","280","1035060","0.0-12.0-3.53","2d_cat_multi_stim_exp1","2022-5-2","12:32:3","25","75","3","9","10","40","30","120","76","19","[""Asian""]","No","Female","2706376","null","null","learn_feedback","","","learn_feedback","16.6667","100","out","","","","","","","","","","","","","","","","","","","","","","",""
"","","","","","canvas-keyboard-response","281","1035121","0.0-12.0-4.53","2d_cat_multi_stim_exp1","2022-5-2","12:32:3","25","75","3","9","10","40","30","120","76","19","[""Asian""]","No","Female","2706376","null","null","","","","clear_screen","","","","","","","","","","","","","","","","","","","","","","","","","",""
"","","","","","canvas-keyboard-response","282","1035631","0.0-12.0-0.54","2d_cat_multi_stim_exp1","2022-5-2","12:32:3","25","75","3","9","10","40","30","120","76","19","[""Asian""]","No","Female","2706376","null","null","","","","fixation","","","","","","","","","","","","","","","","","","","","","","","","","",""
"","","","","","canvas-keyboard-response","283","1036145","0.0-12.0-1.54","2d_cat_multi_stim_exp1","2022-5-2","12:32:3","25","75","3","9","10","40","30","120","76","19","[""Asian""]","No","Female","2706376","null","null","","","","clear_screen","","","","","","","","","","","","","","","","","","","","","","","","","",""
"","","","","","canvas-keyboard-response","284","1036909","0.0-12.0-2.54","2d_cat_multi_stim_exp1","2022-5-2","12:32:3","25","75","3","9","10","40","30","120","76","19","[""Asian""]","No","Female","2706376","753","i","learn","","","learn_trial","26.6667","120","out","0","1","","","","","","","","","","","","","","","","","","","","",""
"","","","","","canvas-keyboard-response","285","1037419","0.0-12.0-3.54","2d_cat_multi_stim_exp1","2022-5-2","12:32:3","25","75","3","9","10","40","30","120","76","19","[""Asian""]","No","Female","2706376","null","null","learn_feedback","","","learn_feedback","26.6667","120","out","","","","","","","","","","","","","","","","","","","","","","",""
"","","","","","canvas-keyboard-response","286","1037478","0.0-12.0-4.54","2d_cat_multi_stim_exp1","2022-5-2","12:32:3","25","75","3","9","10","40","30","120","76","19","[""Asian""]","No","Female","2706376","null","null","","","","clear_screen","","","","","","","","","","","","","","","","","","","","","","","","","",""
"","","","","","canvas-keyboard-response","287","1037986","0.0-12.0-0.55","2d_cat_multi_stim_exp1","2022-5-2","12:32:3","25","75","3","9","10","40","30","120","76","19","[""Asian""]","No","Female","2706376","null","null","","","","fixation","","","","","","","","","","","","","","","","","","","","","","","","","",""
"","","","","","canvas-keyboard-response","288","1038496","0.0-12.0-1.55","2d_cat_multi_stim_exp1","2022-5-2","12:32:3","25","75","3","9","10","40","30","120","76","19","[""Asian""]","No","Female","2706376","null","null","","","","clear_screen","","","","","","","","","","","","","","","","","","","","","","","","","",""
"","","","","","canvas-keyboard-response","289","1039622","0.0-12.0-2.55","2d_cat_multi_stim_exp1","2022-5-2","12:32:3","25","75","3","9","10","40","30","120","76","19","[""Asian""]","No","Female","2706376","1116","u","learn","","","learn_trial","25","75","in","1","1","","","","","","","","","","","","","","","","","","","","",""
"","","","","","canvas-keyboard-response","290","1040130","0.0-12.0-3.55","2d_cat_multi_stim_exp1","2022-5-2","12:32:3","25","75","3","9","10","40","30","120","76","19","[""Asian""]","No","Female","2706376","null","null","learn_feedback","","","learn_feedback","25","75","in","","","","","","","","","","","","","","","","","","","","","","",""
"","","","","","canvas-keyboard-response","291","1040190","0.0-12.0-4.55","2d_cat_multi_stim_exp1","2022-5-2","12:32:3","25","75","3","9","10","40","30","120","76","19","[""Asian""]","No","Female","2706376","null","null","","","","clear_screen","","","","","","","","","","","","","","","","","","","","","","","","","",""
"","","","","","canvas-keyboard-response","292","1040698","0.0-12.0-0.56","2d_cat_multi_stim_exp1","2022-5-2","12:32:3","25","75","3","9","10","40","30","120","76","19","[""Asian""]","No","Female","2706376","null","null","","","","fixation","","","","","","","","","","","","","","","","","","","","","","","","","",""
"","","","","","canvas-keyboard-response","293","1041210","0.0-12.0-1.56","2d_cat_multi_stim_exp1","2022-5-2","12:32:3","25","75","3","9","10","40","30","120","76","19","[""Asian""]","No","Female","2706376","null","null","","","","clear_screen","","","","","","","","","","","","","","","","","","","","","","","","","",""
"","","","","","canvas-keyboard-response","294","1042037","0.0-12.0-2.56","2d_cat_multi_stim_exp1","2022-5-2","12:32:3","25","75","3","9","10","40","30","120","76","19","[""Asian""]","No","Female","2706376","817","i","learn","","","learn_trial","40","120","out","0","1","","","","","","","","","","","","","","","","","","","","",""
"","","","","","canvas-keyboard-response","295","1042549","0.0-12.0-3.56","2d_cat_multi_stim_exp1","2022-5-2","12:32:3","25","75","3","9","10","40","30","120","76","19","[""Asian""]","No","Female","2706376","null","null","learn_feedback","","","learn_feedback","40","120","out","","","","","","","","","","","","","","","","","","","","","","",""
"","","","","","canvas-keyboard-response","296","1042609","0.0-12.0-4.56","2d_cat_multi_stim_exp1","2022-5-2","12:32:3","25","75","3","9","10","40","30","120","76","19","[""Asian""]","No","Female","2706376","null","null","","","","clear_screen","","","","","","","","","","","","","","","","","","","","","","","","","",""
"","","","","","canvas-keyboard-response","297","1043119","0.0-12.0-0.57","2d_cat_multi_stim_exp1","2022-5-2","12:32:3","25","75","3","9","10","40","30","120","76","19","[""Asian""]","No","Female","2706376","null","null","","","","fixation","","","","","","","","","","","","","","","","","","","","","","","","","",""
