"success","timeout","failed_images","failed_audio","failed_video","trial_type","trial_index","time_elapsed","internal_node_id","exp_name","date","time","angle_mean_in","radius_mean_in","angle_sd_in","radius_sd_in","angle_min_out","angle_max_out","radius_min_out","radius_max_out","sub_n","age","race","ethnicity","gender","exp_duration","rt","stimulus","response","exp_trial_type","view_history","screen_id","angle","radius","distribution","choice","correct","order","angle_a","radius_a","angle_b","radius_b","jkl_correct","transfer_trial_type","choice_set","abc_correct","tc_correct","tc_angle","tdc_a","tdc_b","tdc_c","pair","category_a","category_b","category_c","angle_c","radius_c","question_order"
"true","false","[]","[]","[]","preload","0","47","0.0-0.0","2d_cat_multi_stim_exp1","2022-4-1","14:1:6","25","75","3","9","10","40","30","120","7","21","[""White""]","No","Female","1759131","","","","","","","","","","","","","","","","","","","","","","","","","","","","","","","",""
"","","","","","html-button-response","1","932","0.0-1.0","2d_cat_multi_stim_exp1","2022-4-1","14:1:6","25","75","3","9","10","40","30","120","7","21","[""White""]","No","Female","1759131","884","<p><b>WAIT!</b></p></p><p>Did you mean to start this experiment? Only Walker, Esther, and Sean are running participants on this experiment.</p>","0","","","","","","","","","","","","","","","","","","","","","","","","","","","","",""
"","","","","","survey-html-form","2","2728","0.0-2.0","2d_cat_multi_stim_exp1","2022-4-1","14:1:6","25","75","3","9","10","40","30","120","7","21","[""White""]","No","Female","1759131","1782","","{""response"":""7""}","enter-sub-number","","","","","","","","","","","","","","","","","","","","","","","","","","","",""
"true","","","","","fullscreen","3","4757","0.0-3.0","2d_cat_multi_stim_exp1","2022-4-1","14:1:6","25","75","3","9","10","40","30","120","7","21","[""White""]","No","Female","1759131","","","","","","","","","","","","","","","","","","","","","","","","","","","","","","","",""
"","","","","","image-button-response","4","40932","0.0-4.0","2d_cat_multi_stim_exp1","2022-4-1","14:1:6","25","75","3","9","10","40","30","120","7","21","[""White""]","No","Female","1759131","36167","consent.png","0","","","","","","","","","","","","","","","","","","","","","","","","","","","","",""
"","","","","","html-button-response","5","50292","0.0-5.0","2d_cat_multi_stim_exp1","2022-4-1","14:1:6","25","75","3","9","10","40","30","120","7","21","[""White""]","No","Female","1759131","9356","<div style= ""font-size:25px;"" <p> <strong> Welcome to the experiment! </strong><br> <p style=""color:#8B0000; font-size:25px;""><strong> Please do NOT exit full screen until you are done with the experiment. </strong> </p><p style=""font-size:25px;color:#8B0000;""> <strong> The experiment will be canceled and your data will be lost <br> if you try to go back or refresh the page at any point during the experiment.</strong> </p><br><p> <strong> Thanks in advance for your contribution to our research! </strong></p>","0","","","","","","","","","","","","","","","","","","","","","","","","","","","","",""
"","","","","","instructions","6","89188","0.0-6.0","2d_cat_multi_stim_exp1","2022-4-1","14:1:6","25","75","3","9","10","40","30","120","7","21","[""White""]","No","Female","1759131","38890","","","","[{""page_index"":0,""viewing_time"":3779},{""page_index"":1,""viewing_time"":1968},{""page_index"":2,""viewing_time"":11567},{""page_index"":3,""viewing_time"":21576}]","instructions_1","","","","","","","","","","","","","","","","","","","","","","","","","",""
"","","","","","instructions","7","91595","0.0-7.0","2d_cat_multi_stim_exp1","2022-4-1","14:1:6","25","75","3","9","10","40","30","120","7","21","[""White""]","No","Female","1759131","2403","","","","[{""page_index"":0,""viewing_time"":2403}]","Click to see the kinds of turtles that will appear in the study.","","","","","","","","","","","","","","","","","","","","","","","","","",""
"","","","","","canvas-keyboard-response","8","106621","0.0-8.0","2d_cat_multi_stim_exp1","2022-4-1","14:1:6","25","75","3","9","10","40","30","120","7","21","[""White""]","No","Female","1759131","null","","null","","","demo_range","","","","","","","","","","","","","","","","","","","","","","","","","",""
"","","","","","instructions","9","110044","0.0-9.0","2d_cat_multi_stim_exp1","2022-4-1","14:1:6","25","75","3","9","10","40","30","120","7","21","[""White""]","No","Female","1759131","2921","","","","[{""page_index"":0,""viewing_time"":2921}]","Click to see some turtles in the subspecies.","","","","","","","","","","","","","","","","","","","","","","","","","",""
"","","","","","canvas-keyboard-response","10","125063","0.0-10.0","2d_cat_multi_stim_exp1","2022-4-1","14:1:6","25","75","3","9","10","40","30","120","7","21","[""White""]","No","Female","1759131","null","","null","","","demo_in","","","","","","","","","","","","","","","","","","","","","","","","","",""
"","","","","","instructions","11","166627","0.0-11.0","2d_cat_multi_stim_exp1","2022-4-1","14:1:6","25","75","3","9","10","40","30","120","7","21","[""White""]","No","Female","1759131","41063","","","","[{""page_index"":0,""viewing_time"":7047},{""page_index"":1,""viewing_time"":28536},{""page_index"":2,""viewing_time"":5480}]","instructions_2","","","","","","","","","","","","","","","","","","","","","","","","","",""
"","","","","","instructions","12","168498","0.0-12.0","2d_cat_multi_stim_exp1","2022-4-1","14:1:6","25","75","3","9","10","40","30","120","7","21","[""White""]","No","Female","1759131","1869","","","","[{""page_index"":0,""viewing_time"":1869}]","Click to begin the first phase of the experiment.","","","","","","","","","","","","","","","","","","","","","","","","","",""
"","","","","","canvas-keyboard-response","13","169009","0.0-13.0-0.0","2d_cat_multi_stim_exp1","2022-4-1","14:1:6","25","75","3","9","10","40","30","120","7","21","[""White""]","No","Female","1759131","null","","null","","","fixation","","","","","","","","","","","","","","","","","","","","","","","","","",""
"","","","","","canvas-keyboard-response","14","169519","0.0-13.0-1.0","2d_cat_multi_stim_exp1","2022-4-1","14:1:6","25","75","3","9","10","40","30","120","7","21","[""White""]","No","Female","1759131","null","","null","","","clear_screen","","","","","","","","","","","","","","","","","","","","","","","","","",""
"","","","","","canvas-keyboard-response","15","176969","0.0-13.0-2.0","2d_cat_multi_stim_exp1","2022-4-1","14:1:6","25","75","3","9","10","40","30","120","7","21","[""White""]","No","Female","1759131","7438","","u","learn","","learn_trial","23.3333","90","out","1","0","","","","","","","","","","","","","","","","","","","","",""
"","","","","","canvas-keyboard-response","16","177982","0.0-13.0-3.0","2d_cat_multi_stim_exp1","2022-4-1","14:1:6","25","75","3","9","10","40","30","120","7","21","[""White""]","No","Female","1759131","null","","null","learn_feedback","","learn_feedback","23.3333","90","out","","","","","","","","","","","","","","","","","","","","","","",""
"","","","","","canvas-keyboard-response","17","178043","0.0-13.0-4.0","2d_cat_multi_stim_exp1","2022-4-1","14:1:6","25","75","3","9","10","40","30","120","7","21","[""White""]","No","Female","1759131","null","","null","","","clear_screen","","","","","","","","","","","","","","","","","","","","","","","","","",""
"","","","","","canvas-keyboard-response","18","178554","0.0-13.0-0.1","2d_cat_multi_stim_exp1","2022-4-1","14:1:6","25","75","3","9","10","40","30","120","7","21","[""White""]","No","Female","1759131","null","","null","","","fixation","","","","","","","","","","","","","","","","","","","","","","","","","",""
"","","","","","canvas-keyboard-response","19","179065","0.0-13.0-1.1","2d_cat_multi_stim_exp1","2022-4-1","14:1:6","25","75","3","9","10","40","30","120","7","21","[""White""]","No","Female","1759131","null","","null","","","clear_screen","","","","","","","","","","","","","","","","","","","","","","","","","",""
"","","","","","canvas-keyboard-response","20","181193","0.0-13.0-2.1","2d_cat_multi_stim_exp1","2022-4-1","14:1:6","25","75","3","9","10","40","30","120","7","21","[""White""]","No","Female","1759131","2117","","i","learn","","learn_trial","33.3333","50","out","0","1","","","","","","","","","","","","","","","","","","","","",""
"","","","","","canvas-keyboard-response","21","181702","0.0-13.0-3.1","2d_cat_multi_stim_exp1","2022-4-1","14:1:6","25","75","3","9","10","40","30","120","7","21","[""White""]","No","Female","1759131","null","","null","learn_feedback","","learn_feedback","33.3333","50","out","","","","","","","","","","","","","","","","","","","","","","",""
"","","","","","canvas-keyboard-response","22","181763","0.0-13.0-4.1","2d_cat_multi_stim_exp1","2022-4-1","14:1:6","25","75","3","9","10","40","30","120","7","21","[""White""]","No","Female","1759131","null","","null","","","clear_screen","","","","","","","","","","","","","","","","","","","","","","","","","",""
"","","","","","canvas-keyboard-response","23","182271","0.0-13.0-0.2","2d_cat_multi_stim_exp1","2022-4-1","14:1:6","25","75","3","9","10","40","30","120","7","21","[""White""]","No","Female","1759131","null","","null","","","fixation","","","","","","","","","","","","","","","","","","","","","","","","","",""
"","","","","","canvas-keyboard-response","24","182785","0.0-13.0-1.2","2d_cat_multi_stim_exp1","2022-4-1","14:1:6","25","75","3","9","10","40","30","120","7","21","[""White""]","No","Female","1759131","null","","null","","","clear_screen","","","","","","","","","","","","","","","","","","","","","","","","","",""
"","","","","","canvas-keyboard-response","25","184065","0.0-13.0-2.2","2d_cat_multi_stim_exp1","2022-4-1","14:1:6","25","75","3","9","10","40","30","120","7","21","[""White""]","No","Female","1759131","1269","","i","learn","","learn_trial","36.6667","50","out","0","1","","","","","","","","","","","","","","","","","","","","",""
"","","","","","canvas-keyboard-response","26","184575","0.0-13.0-3.2","2d_cat_multi_stim_exp1","2022-4-1","14:1:6","25","75","3","9","10","40","30","120","7","21","[""White""]","No","Female","1759131","null","","null","learn_feedback","","learn_feedback","36.6667","50","out","","","","","","","","","","","","","","","","","","","","","","",""
"","","","","","canvas-keyboard-response","27","184635","0.0-13.0-4.2","2d_cat_multi_stim_exp1","2022-4-1","14:1:6","25","75","3","9","10","40","30","120","7","21","[""White""]","No","Female","1759131","null","","null","","","clear_screen","","","","","","","","","","","","","","","","","","","","","","","","","",""
"","","","","","canvas-keyboard-response","28","185145","0.0-13.0-0.3","2d_cat_multi_stim_exp1","2022-4-1","14:1:6","25","75","3","9","10","40","30","120","7","21","[""White""]","No","Female","1759131","null","","null","","","fixation","","","","","","","","","","","","","","","","","","","","","","","","","",""
"","","","","","canvas-keyboard-response","29","185655","0.0-13.0-1.3","2d_cat_multi_stim_exp1","2022-4-1","14:1:6","25","75","3","9","10","40","30","120","7","21","[""White""]","No","Female","1759131","null","","null","","","clear_screen","","","","","","","","","","","","","","","","","","","","","","","","","",""
"","","","","","canvas-keyboard-response","30","187448","0.0-13.0-2.3","2d_cat_multi_stim_exp1","2022-4-1","14:1:6","25","75","3","9","10","40","30","120","7","21","[""White""]","No","Female","1759131","1785","","u","learn","","learn_trial","25","75","in","1","1","","","","","","","","","","","","","","","","","","","","",""
"","","","","","canvas-keyboard-response","31","187960","0.0-13.0-3.3","2d_cat_multi_stim_exp1","2022-4-1","14:1:6","25","75","3","9","10","40","30","120","7","21","[""White""]","No","Female","1759131","null","","null","learn_feedback","","learn_feedback","25","75","in","","","","","","","","","","","","","","","","","","","","","","",""
"","","","","","canvas-keyboard-response","32","188019","0.0-13.0-4.3","2d_cat_multi_stim_exp1","2022-4-1","14:1:6","25","75","3","9","10","40","30","120","7","21","[""White""]","No","Female","1759131","null","","null","","","clear_screen","","","","","","","","","","","","","","","","","","","","","","","","","",""
"","","","","","canvas-keyboard-response","33","188528","0.0-13.0-0.4","2d_cat_multi_stim_exp1","2022-4-1","14:1:6","25","75","3","9","10","40","30","120","7","21","[""White""]","No","Female","1759131","null","","null","","","fixation","","","","","","","","","","","","","","","","","","","","","","","","","",""
"","","","","","canvas-keyboard-response","34","189037","0.0-13.0-1.4","2d_cat_multi_stim_exp1","2022-4-1","14:1:6","25","75","3","9","10","40","30","120","7","21","[""White""]","No","Female","1759131","null","","null","","","clear_screen","","","","","","","","","","","","","","","","","","","","","","","","","",""
"","","","","","canvas-keyboard-response","35","190449","0.0-13.0-2.4","2d_cat_multi_stim_exp1","2022-4-1","14:1:6","25","75","3","9","10","40","30","120","7","21","[""White""]","No","Female","1759131","1403","","i","learn","","learn_trial","13.3333","80","out","0","1","","","","","","","","","","","","","","","","","","","","",""
"","","","","","canvas-keyboard-response","36","190960","0.0-13.0-3.4","2d_cat_multi_stim_exp1","2022-4-1","14:1:6","25","75","3","9","10","40","30","120","7","21","[""White""]","No","Female","1759131","null","","null","learn_feedback","","learn_feedback","13.3333","80","out","","","","","","","","","","","","","","","","","","","","","","",""
"","","","","","canvas-keyboard-response","37","191018","0.0-13.0-4.4","2d_cat_multi_stim_exp1","2022-4-1","14:1:6","25","75","3","9","10","40","30","120","7","21","[""White""]","No","Female","1759131","null","","null","","","clear_screen","","","","","","","","","","","","","","","","","","","","","","","","","",""
"","","","","","canvas-keyboard-response","38","191527","0.0-13.0-0.5","2d_cat_multi_stim_exp1","2022-4-1","14:1:6","25","75","3","9","10","40","30","120","7","21","[""White""]","No","Female","1759131","null","","null","","","fixation","","","","","","","","","","","","","","","","","","","","","","","","","",""
"","","","","","canvas-keyboard-response","39","192036","0.0-13.0-1.5","2d_cat_multi_stim_exp1","2022-4-1","14:1:6","25","75","3","9","10","40","30","120","7","21","[""White""]","No","Female","1759131","null","","null","","","clear_screen","","","","","","","","","","","","","","","","","","","","","","","","","",""
"","","","","","canvas-keyboard-response","40","193904","0.0-13.0-2.5","2d_cat_multi_stim_exp1","2022-4-1","14:1:6","25","75","3","9","10","40","30","120","7","21","[""White""]","No","Female","1759131","1859","","u","learn","","learn_trial","26.6667","100","out","1","0","","","","","","","","","","","","","","","","","","","","",""
"","","","","","canvas-keyboard-response","41","194913","0.0-13.0-3.5","2d_cat_multi_stim_exp1","2022-4-1","14:1:6","25","75","3","9","10","40","30","120","7","21","[""White""]","No","Female","1759131","null","","null","learn_feedback","","learn_feedback","26.6667","100","out","","","","","","","","","","","","","","","","","","","","","","",""
"","","","","","canvas-keyboard-response","42","194972","0.0-13.0-4.5","2d_cat_multi_stim_exp1","2022-4-1","14:1:6","25","75","3","9","10","40","30","120","7","21","[""White""]","No","Female","1759131","null","","null","","","clear_screen","","","","","","","","","","","","","","","","","","","","","","","","","",""
"","","","","","canvas-keyboard-response","43","195481","0.0-13.0-0.6","2d_cat_multi_stim_exp1","2022-4-1","14:1:6","25","75","3","9","10","40","30","120","7","21","[""White""]","No","Female","1759131","null","","null","","","fixation","","","","","","","","","","","","","","","","","","","","","","","","","",""
"","","","","","canvas-keyboard-response","44","195990","0.0-13.0-1.6","2d_cat_multi_stim_exp1","2022-4-1","14:1:6","25","75","3","9","10","40","30","120","7","21","[""White""]","No","Female","1759131","null","","null","","","clear_screen","","","","","","","","","","","","","","","","","","","","","","","","","",""
"","","","","","canvas-keyboard-response","45","198184","0.0-13.0-2.6","2d_cat_multi_stim_exp1","2022-4-1","14:1:6","25","75","3","9","10","40","30","120","7","21","[""White""]","No","Female","1759131","2183","","i","learn","","learn_trial","20","60","out","0","1","","","","","","","","","","","","","","","","","","","","",""
"","","","","","canvas-keyboard-response","46","198693","0.0-13.0-3.6","2d_cat_multi_stim_exp1","2022-4-1","14:1:6","25","75","3","9","10","40","30","120","7","21","[""White""]","No","Female","1759131","null","","null","learn_feedback","","learn_feedback","20","60","out","","","","","","","","","","","","","","","","","","","","","","",""
"","","","","","canvas-keyboard-response","47","198752","0.0-13.0-4.6","2d_cat_multi_stim_exp1","2022-4-1","14:1:6","25","75","3","9","10","40","30","120","7","21","[""White""]","No","Female","1759131","null","","null","","","clear_screen","","","","","","","","","","","","","","","","","","","","","","","","","",""
"","","","","","canvas-keyboard-response","48","199262","0.0-13.0-0.7","2d_cat_multi_stim_exp1","2022-4-1","14:1:6","25","75","3","9","10","40","30","120","7","21","[""White""]","No","Female","1759131","null","","null","","","fixation","","","","","","","","","","","","","","","","","","","","","","","","","",""
"","","","","","canvas-keyboard-response","49","199771","0.0-13.0-1.7","2d_cat_multi_stim_exp1","2022-4-1","14:1:6","25","75","3","9","10","40","30","120","7","21","[""White""]","No","Female","1759131","null","","null","","","clear_screen","","","","","","","","","","","","","","","","","","","","","","","","","",""
"","","","","","canvas-keyboard-response","50","200969","0.0-13.0-2.7","2d_cat_multi_stim_exp1","2022-4-1","14:1:6","25","75","3","9","10","40","30","120","7","21","[""White""]","No","Female","1759131","1187","","u","learn","","learn_trial","25","75","in","1","1","","","","","","","","","","","","","","","","","","","","",""
"","","","","","canvas-keyboard-response","51","201478","0.0-13.0-3.7","2d_cat_multi_stim_exp1","2022-4-1","14:1:6","25","75","3","9","10","40","30","120","7","21","[""White""]","No","Female","1759131","null","","null","learn_feedback","","learn_feedback","25","75","in","","","","","","","","","","","","","","","","","","","","","","",""
"","","","","","canvas-keyboard-response","52","201537","0.0-13.0-4.7","2d_cat_multi_stim_exp1","2022-4-1","14:1:6","25","75","3","9","10","40","30","120","7","21","[""White""]","No","Female","1759131","null","","null","","","clear_screen","","","","","","","","","","","","","","","","","","","","","","","","","",""
"","","","","","canvas-keyboard-response","53","202046","0.0-13.0-0.8","2d_cat_multi_stim_exp1","2022-4-1","14:1:6","25","75","3","9","10","40","30","120","7","21","[""White""]","No","Female","1759131","null","","null","","","fixation","","","","","","","","","","","","","","","","","","","","","","","","","",""
"","","","","","canvas-keyboard-response","54","202556","0.0-13.0-1.8","2d_cat_multi_stim_exp1","2022-4-1","14:1:6","25","75","3","9","10","40","30","120","7","21","[""White""]","No","Female","1759131","null","","null","","","clear_screen","","","","","","","","","","","","","","","","","","","","","","","","","",""
"","","","","","canvas-keyboard-response","55","203401","0.0-13.0-2.8","2d_cat_multi_stim_exp1","2022-4-1","14:1:6","25","75","3","9","10","40","30","120","7","21","[""White""]","No","Female","1759131","835","","i","learn","","learn_trial","26.6667","60","out","0","1","","","","","","","","","","","","","","","","","","","","",""
"","","","","","canvas-keyboard-response","56","203911","0.0-13.0-3.8","2d_cat_multi_stim_exp1","2022-4-1","14:1:6","25","75","3","9","10","40","30","120","7","21","[""White""]","No","Female","1759131","null","","null","learn_feedback","","learn_feedback","26.6667","60","out","","","","","","","","","","","","","","","","","","","","","","",""
"","","","","","canvas-keyboard-response","57","203969","0.0-13.0-4.8","2d_cat_multi_stim_exp1","2022-4-1","14:1:6","25","75","3","9","10","40","30","120","7","21","[""White""]","No","Female","1759131","null","","null","","","clear_screen","","","","","","","","","","","","","","","","","","","","","","","","","",""
"","","","","","canvas-keyboard-response","58","204478","0.0-13.0-0.9","2d_cat_multi_stim_exp1","2022-4-1","14:1:6","25","75","3","9","10","40","30","120","7","21","[""White""]","No","Female","1759131","null","","null","","","fixation","","","","","","","","","","","","","","","","","","","","","","","","","",""
"","","","","","canvas-keyboard-response","59","204988","0.0-13.0-1.9","2d_cat_multi_stim_exp1","2022-4-1","14:1:6","25","75","3","9","10","40","30","120","7","21","[""White""]","No","Female","1759131","null","","null","","","clear_screen","","","","","","","","","","","","","","","","","","","","","","","","","",""
"","","","","","canvas-keyboard-response","60","205992","0.0-13.0-2.9","2d_cat_multi_stim_exp1","2022-4-1","14:1:6","25","75","3","9","10","40","30","120","7","21","[""White""]","No","Female","1759131","995","","u","learn","","learn_trial","25","75","in","1","1","","","","","","","","","","","","","","","","","","","","",""
"","","","","","canvas-keyboard-response","61","206502","0.0-13.0-3.9","2d_cat_multi_stim_exp1","2022-4-1","14:1:6","25","75","3","9","10","40","30","120","7","21","[""White""]","No","Female","1759131","null","","null","learn_feedback","","learn_feedback","25","75","in","","","","","","","","","","","","","","","","","","","","","","",""
"","","","","","canvas-keyboard-response","62","206560","0.0-13.0-4.9","2d_cat_multi_stim_exp1","2022-4-1","14:1:6","25","75","3","9","10","40","30","120","7","21","[""White""]","No","Female","1759131","null","","null","","","clear_screen","","","","","","","","","","","","","","","","","","","","","","","","","",""
"","","","","","canvas-keyboard-response","63","207070","0.0-13.0-0.10","2d_cat_multi_stim_exp1","2022-4-1","14:1:6","25","75","3","9","10","40","30","120","7","21","[""White""]","No","Female","1759131","null","","null","","","fixation","","","","","","","","","","","","","","","","","","","","","","","","","",""
"","","","","","canvas-keyboard-response","64","207581","0.0-13.0-1.10","2d_cat_multi_stim_exp1","2022-4-1","14:1:6","25","75","3","9","10","40","30","120","7","21","[""White""]","No","Female","1759131","null","","null","","","clear_screen","","","","","","","","","","","","","","","","","","","","","","","","","",""
"","","","","","canvas-keyboard-response","65","208225","0.0-13.0-2.10","2d_cat_multi_stim_exp1","2022-4-1","14:1:6","25","75","3","9","10","40","30","120","7","21","[""White""]","No","Female","1759131","631","","u","learn","","learn_trial","25","75","in","1","1","","","","","","","","","","","","","","","","","","","","",""
"","","","","","canvas-keyboard-response","66","208737","0.0-13.0-3.10","2d_cat_multi_stim_exp1","2022-4-1","14:1:6","25","75","3","9","10","40","30","120","7","21","[""White""]","No","Female","1759131","null","","null","learn_feedback","","learn_feedback","25","75","in","","","","","","","","","","","","","","","","","","","","","","",""
"","","","","","canvas-keyboard-response","67","208797","0.0-13.0-4.10","2d_cat_multi_stim_exp1","2022-4-1","14:1:6","25","75","3","9","10","40","30","120","7","21","[""White""]","No","Female","1759131","null","","null","","","clear_screen","","","","","","","","","","","","","","","","","","","","","","","","","",""
"","","","","","canvas-keyboard-response","68","209307","0.0-13.0-0.11","2d_cat_multi_stim_exp1","2022-4-1","14:1:6","25","75","3","9","10","40","30","120","7","21","[""White""]","No","Female","1759131","null","","null","","","fixation","","","","","","","","","","","","","","","","","","","","","","","","","",""
"","","","","","canvas-keyboard-response","69","209818","0.0-13.0-1.11","2d_cat_multi_stim_exp1","2022-4-1","14:1:6","25","75","3","9","10","40","30","120","7","21","[""White""]","No","Female","1759131","null","","null","","","clear_screen","","","","","","","","","","","","","","","","","","","","","","","","","",""
"","","","","","canvas-keyboard-response","70","210801","0.0-13.0-2.11","2d_cat_multi_stim_exp1","2022-4-1","14:1:6","25","75","3","9","10","40","30","120","7","21","[""White""]","No","Female","1759131","973","","u","learn","","learn_trial","20.7574","87.7279","in","1","1","","","","","","","","","","","","","","","","","","","","",""
"","","","","","canvas-keyboard-response","71","211309","0.0-13.0-3.11","2d_cat_multi_stim_exp1","2022-4-1","14:1:6","25","75","3","9","10","40","30","120","7","21","[""White""]","No","Female","1759131","null","","null","learn_feedback","","learn_feedback","20.7574","87.7279","in","","","","","","","","","","","","","","","","","","","","","","",""
"","","","","","canvas-keyboard-response","72","211369","0.0-13.0-4.11","2d_cat_multi_stim_exp1","2022-4-1","14:1:6","25","75","3","9","10","40","30","120","7","21","[""White""]","No","Female","1759131","null","","null","","","clear_screen","","","","","","","","","","","","","","","","","","","","","","","","","",""
"","","","","","canvas-keyboard-response","73","211879","0.0-13.0-0.12","2d_cat_multi_stim_exp1","2022-4-1","14:1:6","25","75","3","9","10","40","30","120","7","21","[""White""]","No","Female","1759131","null","","null","","","fixation","","","","","","","","","","","","","","","","","","","","","","","","","",""
"","","","","","canvas-keyboard-response","74","212389","0.0-13.0-1.12","2d_cat_multi_stim_exp1","2022-4-1","14:1:6","25","75","3","9","10","40","30","120","7","21","[""White""]","No","Female","1759131","null","","null","","","clear_screen","","","","","","","","","","","","","","","","","","","","","","","","","",""
"","","","","","canvas-keyboard-response","75","212896","0.0-13.0-2.12","2d_cat_multi_stim_exp1","2022-4-1","14:1:6","25","75","3","9","10","40","30","120","7","21","[""White""]","No","Female","1759131","497","","i","learn","","learn_trial","33.3333","30","out","0","1","","","","","","","","","","","","","","","","","","","","",""
"","","","","","canvas-keyboard-response","76","213407","0.0-13.0-3.12","2d_cat_multi_stim_exp1","2022-4-1","14:1:6","25","75","3","9","10","40","30","120","7","21","[""White""]","No","Female","1759131","null","","null","learn_feedback","","learn_feedback","33.3333","30","out","","","","","","","","","","","","","","","","","","","","","","",""
"","","","","","canvas-keyboard-response","77","213467","0.0-13.0-4.12","2d_cat_multi_stim_exp1","2022-4-1","14:1:6","25","75","3","9","10","40","30","120","7","21","[""White""]","No","Female","1759131","null","","null","","","clear_screen","","","","","","","","","","","","","","","","","","","","","","","","","",""
"","","","","","canvas-keyboard-response","78","213976","0.0-13.0-0.13","2d_cat_multi_stim_exp1","2022-4-1","14:1:6","25","75","3","9","10","40","30","120","7","21","[""White""]","No","Female","1759131","null","","null","","","fixation","","","","","","","","","","","","","","","","","","","","","","","","","",""
"","","","","","canvas-keyboard-response","79","214485","0.0-13.0-1.13","2d_cat_multi_stim_exp1","2022-4-1","14:1:6","25","75","3","9","10","40","30","120","7","21","[""White""]","No","Female","1759131","null","","null","","","clear_screen","","","","","","","","","","","","","","","","","","","","","","","","","",""
"","","","","","canvas-keyboard-response","80","215184","0.0-13.0-2.13","2d_cat_multi_stim_exp1","2022-4-1","14:1:6","25","75","3","9","10","40","30","120","7","21","[""White""]","No","Female","1759131","690","","u","learn","","learn_trial","25","75","in","1","1","","","","","","","","","","","","","","","","","","","","",""
"","","","","","canvas-keyboard-response","81","215694","0.0-13.0-3.13","2d_cat_multi_stim_exp1","2022-4-1","14:1:6","25","75","3","9","10","40","30","120","7","21","[""White""]","No","Female","1759131","null","","null","learn_feedback","","learn_feedback","25","75","in","","","","","","","","","","","","","","","","","","","","","","",""
"","","","","","canvas-keyboard-response","82","215753","0.0-13.0-4.13","2d_cat_multi_stim_exp1","2022-4-1","14:1:6","25","75","3","9","10","40","30","120","7","21","[""White""]","No","Female","1759131","null","","null","","","clear_screen","","","","","","","","","","","","","","","","","","","","","","","","","",""
"","","","","","canvas-keyboard-response","83","216262","0.0-13.0-0.14","2d_cat_multi_stim_exp1","2022-4-1","14:1:6","25","75","3","9","10","40","30","120","7","21","[""White""]","No","Female","1759131","null","","null","","","fixation","","","","","","","","","","","","","","","","","","","","","","","","","",""
"","","","","","canvas-keyboard-response","84","216772","0.0-13.0-1.14","2d_cat_multi_stim_exp1","2022-4-1","14:1:6","25","75","3","9","10","40","30","120","7","21","[""White""]","No","Female","1759131","null","","null","","","clear_screen","","","","","","","","","","","","","","","","","","","","","","","","","",""
"","","","","","canvas-keyboard-response","85","217649","0.0-13.0-2.14","2d_cat_multi_stim_exp1","2022-4-1","14:1:6","25","75","3","9","10","40","30","120","7","21","[""White""]","No","Female","1759131","866","","u","learn","","learn_trial","22.2971","71.095","in","1","1","","","","","","","","","","","","","","","","","","","","",""
"","","","","","canvas-keyboard-response","86","218157","0.0-13.0-3.14","2d_cat_multi_stim_exp1","2022-4-1","14:1:6","25","75","3","9","10","40","30","120","7","21","[""White""]","No","Female","1759131","null","","null","learn_feedback","","learn_feedback","22.2971","71.095","in","","","","","","","","","","","","","","","","","","","","","","",""
"","","","","","canvas-keyboard-response","87","218217","0.0-13.0-4.14","2d_cat_multi_stim_exp1","2022-4-1","14:1:6","25","75","3","9","10","40","30","120","7","21","[""White""]","No","Female","1759131","null","","null","","","clear_screen","","","","","","","","","","","","","","","","","","","","","","","","","",""
"","","","","","canvas-keyboard-response","88","218726","0.0-13.0-0.15","2d_cat_multi_stim_exp1","2022-4-1","14:1:6","25","75","3","9","10","40","30","120","7","21","[""White""]","No","Female","1759131","null","","null","","","fixation","","","","","","","","","","","","","","","","","","","","","","","","","",""
"","","","","","canvas-keyboard-response","89","219234","0.0-13.0-1.15","2d_cat_multi_stim_exp1","2022-4-1","14:1:6","25","75","3","9","10","40","30","120","7","21","[""White""]","No","Female","1759131","null","","null","","","clear_screen","","","","","","","","","","","","","","","","","","","","","","","","","",""
"","","","","","canvas-keyboard-response","90","219976","0.0-13.0-2.15","2d_cat_multi_stim_exp1","2022-4-1","14:1:6","25","75","3","9","10","40","30","120","7","21","[""White""]","No","Female","1759131","732","","u","learn","","learn_trial","25","75","in","1","1","","","","","","","","","","","","","","","","","","","","",""
"","","","","","canvas-keyboard-response","91","220486","0.0-13.0-3.15","2d_cat_multi_stim_exp1","2022-4-1","14:1:6","25","75","3","9","10","40","30","120","7","21","[""White""]","No","Female","1759131","null","","null","learn_feedback","","learn_feedback","25","75","in","","","","","","","","","","","","","","","","","","","","","","",""
"","","","","","canvas-keyboard-response","92","220545","0.0-13.0-4.15","2d_cat_multi_stim_exp1","2022-4-1","14:1:6","25","75","3","9","10","40","30","120","7","21","[""White""]","No","Female","1759131","null","","null","","","clear_screen","","","","","","","","","","","","","","","","","","","","","","","","","",""
"","","","","","canvas-keyboard-response","93","221054","0.0-13.0-0.16","2d_cat_multi_stim_exp1","2022-4-1","14:1:6","25","75","3","9","10","40","30","120","7","21","[""White""]","No","Female","1759131","null","","null","","","fixation","","","","","","","","","","","","","","","","","","","","","","","","","",""
"","","","","","canvas-keyboard-response","94","221563","0.0-13.0-1.16","2d_cat_multi_stim_exp1","2022-4-1","14:1:6","25","75","3","9","10","40","30","120","7","21","[""White""]","No","Female","1759131","null","","null","","","clear_screen","","","","","","","","","","","","","","","","","","","","","","","","","",""
"","","","","","canvas-keyboard-response","95","222448","0.0-13.0-2.16","2d_cat_multi_stim_exp1","2022-4-1","14:1:6","25","75","3","9","10","40","30","120","7","21","[""White""]","No","Female","1759131","875","","u","learn","","learn_trial","25","75","in","1","1","","","","","","","","","","","","","","","","","","","","",""
"","","","","","canvas-keyboard-response","96","222961","0.0-13.0-3.16","2d_cat_multi_stim_exp1","2022-4-1","14:1:6","25","75","3","9","10","40","30","120","7","21","[""White""]","No","Female","1759131","null","","null","learn_feedback","","learn_feedback","25","75","in","","","","","","","","","","","","","","","","","","","","","","",""
"","","","","","canvas-keyboard-response","97","223020","0.0-13.0-4.16","2d_cat_multi_stim_exp1","2022-4-1","14:1:6","25","75","3","9","10","40","30","120","7","21","[""White""]","No","Female","1759131","null","","null","","","clear_screen","","","","","","","","","","","","","","","","","","","","","","","","","",""
"","","","","","canvas-keyboard-response","98","223529","0.0-13.0-0.17","2d_cat_multi_stim_exp1","2022-4-1","14:1:6","25","75","3","9","10","40","30","120","7","21","[""White""]","No","Female","1759131","null","","null","","","fixation","","","","","","","","","","","","","","","","","","","","","","","","","",""
"","","","","","canvas-keyboard-response","99","224039","0.0-13.0-1.17","2d_cat_multi_stim_exp1","2022-4-1","14:1:6","25","75","3","9","10","40","30","120","7","21","[""White""]","No","Female","1759131","null","","null","","","clear_screen","","","","","","","","","","","","","","","","","","","","","","","","","",""
"","","","","","canvas-keyboard-response","100","224745","0.0-13.0-2.17","2d_cat_multi_stim_exp1","2022-4-1","14:1:6","25","75","3","9","10","40","30","120","7","21","[""White""]","No","Female","1759131","695","","u","learn","","learn_trial","25","75","in","1","1","","","","","","","","","","","","","","","","","","","","",""
"","","","","","canvas-keyboard-response","101","225254","0.0-13.0-3.17","2d_cat_multi_stim_exp1","2022-4-1","14:1:6","25","75","3","9","10","40","30","120","7","21","[""White""]","No","Female","1759131","null","","null","learn_feedback","","learn_feedback","25","75","in","","","","","","","","","","","","","","","","","","","","","","",""
"","","","","","canvas-keyboard-response","102","225313","0.0-13.0-4.17","2d_cat_multi_stim_exp1","2022-4-1","14:1:6","25","75","3","9","10","40","30","120","7","21","[""White""]","No","Female","1759131","null","","null","","","clear_screen","","","","","","","","","","","","","","","","","","","","","","","","","",""
"","","","","","canvas-keyboard-response","103","225822","0.0-13.0-0.18","2d_cat_multi_stim_exp1","2022-4-1","14:1:6","25","75","3","9","10","40","30","120","7","21","[""White""]","No","Female","1759131","null","","null","","","fixation","","","","","","","","","","","","","","","","","","","","","","","","","",""
"","","","","","canvas-keyboard-response","104","226331","0.0-13.0-1.18","2d_cat_multi_stim_exp1","2022-4-1","14:1:6","25","75","3","9","10","40","30","120","7","21","[""White""]","No","Female","1759131","null","","null","","","clear_screen","","","","","","","","","","","","","","","","","","","","","","","","","",""
"","","","","","canvas-keyboard-response","105","227008","0.0-13.0-2.18","2d_cat_multi_stim_exp1","2022-4-1","14:1:6","25","75","3","9","10","40","30","120","7","21","[""White""]","No","Female","1759131","667","","u","learn","","learn_trial","22.1081","77.3943","in","1","1","","","","","","","","","","","","","","","","","","","","",""
"","","","","","canvas-keyboard-response","106","227517","0.0-13.0-3.18","2d_cat_multi_stim_exp1","2022-4-1","14:1:6","25","75","3","9","10","40","30","120","7","21","[""White""]","No","Female","1759131","null","","null","learn_feedback","","learn_feedback","22.1081","77.3943","in","","","","","","","","","","","","","","","","","","","","","","",""
"","","","","","canvas-keyboard-response","107","227576","0.0-13.0-4.18","2d_cat_multi_stim_exp1","2022-4-1","14:1:6","25","75","3","9","10","40","30","120","7","21","[""White""]","No","Female","1759131","null","","null","","","clear_screen","","","","","","","","","","","","","","","","","","","","","","","","","",""
"","","","","","canvas-keyboard-response","108","228085","0.0-13.0-0.19","2d_cat_multi_stim_exp1","2022-4-1","14:1:6","25","75","3","9","10","40","30","120","7","21","[""White""]","No","Female","1759131","null","","null","","","fixation","","","","","","","","","","","","","","","","","","","","","","","","","",""
"","","","","","canvas-keyboard-response","109","228594","0.0-13.0-1.19","2d_cat_multi_stim_exp1","2022-4-1","14:1:6","25","75","3","9","10","40","30","120","7","21","[""White""]","No","Female","1759131","null","","null","","","clear_screen","","","","","","","","","","","","","","","","","","","","","","","","","",""
"","","","","","canvas-keyboard-response","110","229121","0.0-13.0-2.19","2d_cat_multi_stim_exp1","2022-4-1","14:1:6","25","75","3","9","10","40","30","120","7","21","[""White""]","No","Female","1759131","517","","i","learn","","learn_trial","30","50","out","0","1","","","","","","","","","","","","","","","","","","","","",""
"","","","","","canvas-keyboard-response","111","229631","0.0-13.0-3.19","2d_cat_multi_stim_exp1","2022-4-1","14:1:6","25","75","3","9","10","40","30","120","7","21","[""White""]","No","Female","1759131","null","","null","learn_feedback","","learn_feedback","30","50","out","","","","","","","","","","","","","","","","","","","","","","",""
"","","","","","canvas-keyboard-response","112","229690","0.0-13.0-4.19","2d_cat_multi_stim_exp1","2022-4-1","14:1:6","25","75","3","9","10","40","30","120","7","21","[""White""]","No","Female","1759131","null","","null","","","clear_screen","","","","","","","","","","","","","","","","","","","","","","","","","",""
"","","","","","canvas-keyboard-response","113","230198","0.0-13.0-0.20","2d_cat_multi_stim_exp1","2022-4-1","14:1:6","25","75","3","9","10","40","30","120","7","21","[""White""]","No","Female","1759131","null","","null","","","fixation","","","","","","","","","","","","","","","","","","","","","","","","","",""
"","","","","","canvas-keyboard-response","114","230708","0.0-13.0-1.20","2d_cat_multi_stim_exp1","2022-4-1","14:1:6","25","75","3","9","10","40","30","120","7","21","[""White""]","No","Female","1759131","null","","null","","","clear_screen","","","","","","","","","","","","","","","","","","","","","","","","","",""
"","","","","","canvas-keyboard-response","115","231112","0.0-13.0-2.20","2d_cat_multi_stim_exp1","2022-4-1","14:1:6","25","75","3","9","10","40","30","120","7","21","[""White""]","No","Female","1759131","394","","i","learn","","learn_trial","36.6667","30","out","0","1","","","","","","","","","","","","","","","","","","","","",""
"","","","","","canvas-keyboard-response","116","231622","0.0-13.0-3.20","2d_cat_multi_stim_exp1","2022-4-1","14:1:6","25","75","3","9","10","40","30","120","7","21","[""White""]","No","Female","1759131","null","","null","learn_feedback","","learn_feedback","36.6667","30","out","","","","","","","","","","","","","","","","","","","","","","",""
"","","","","","canvas-keyboard-response","117","231680","0.0-13.0-4.20","2d_cat_multi_stim_exp1","2022-4-1","14:1:6","25","75","3","9","10","40","30","120","7","21","[""White""]","No","Female","1759131","null","","null","","","clear_screen","","","","","","","","","","","","","","","","","","","","","","","","","",""
"","","","","","canvas-keyboard-response","118","232189","0.0-13.0-0.21","2d_cat_multi_stim_exp1","2022-4-1","14:1:6","25","75","3","9","10","40","30","120","7","21","[""White""]","No","Female","1759131","null","","null","","","fixation","","","","","","","","","","","","","","","","","","","","","","","","","",""
"","","","","","canvas-keyboard-response","119","232699","0.0-13.0-1.21","2d_cat_multi_stim_exp1","2022-4-1","14:1:6","25","75","3","9","10","40","30","120","7","21","[""White""]","No","Female","1759131","null","","null","","","clear_screen","","","","","","","","","","","","","","","","","","","","","","","","","",""
"","","","","","canvas-keyboard-response","120","233424","0.0-13.0-2.21","2d_cat_multi_stim_exp1","2022-4-1","14:1:6","25","75","3","9","10","40","30","120","7","21","[""White""]","No","Female","1759131","716","","u","learn","","learn_trial","25","75","in","1","1","","","","","","","","","","","","","","","","","","","","",""
"","","","","","canvas-keyboard-response","121","233934","0.0-13.0-3.21","2d_cat_multi_stim_exp1","2022-4-1","14:1:6","25","75","3","9","10","40","30","120","7","21","[""White""]","No","Female","1759131","null","","null","learn_feedback","","learn_feedback","25","75","in","","","","","","","","","","","","","","","","","","","","","","",""
"","","","","","canvas-keyboard-response","122","233992","0.0-13.0-4.21","2d_cat_multi_stim_exp1","2022-4-1","14:1:6","25","75","3","9","10","40","30","120","7","21","[""White""]","No","Female","1759131","null","","null","","","clear_screen","","","","","","","","","","","","","","","","","","","","","","","","","",""
"","","","","","canvas-keyboard-response","123","234500","0.0-13.0-0.22","2d_cat_multi_stim_exp1","2022-4-1","14:1:6","25","75","3","9","10","40","30","120","7","21","[""White""]","No","Female","1759131","null","","null","","","fixation","","","","","","","","","","","","","","","","","","","","","","","","","",""
"","","","","","canvas-keyboard-response","124","235010","0.0-13.0-1.22","2d_cat_multi_stim_exp1","2022-4-1","14:1:6","25","75","3","9","10","40","30","120","7","21","[""White""]","No","Female","1759131","null","","null","","","clear_screen","","","","","","","","","","","","","","","","","","","","","","","","","",""
"","","","","","canvas-keyboard-response","125","235624","0.0-13.0-2.22","2d_cat_multi_stim_exp1","2022-4-1","14:1:6","25","75","3","9","10","40","30","120","7","21","[""White""]","No","Female","1759131","605","","u","learn","","learn_trial","25","75","in","1","1","","","","","","","","","","","","","","","","","","","","",""
"","","","","","canvas-keyboard-response","126","236134","0.0-13.0-3.22","2d_cat_multi_stim_exp1","2022-4-1","14:1:6","25","75","3","9","10","40","30","120","7","21","[""White""]","No","Female","1759131","null","","null","learn_feedback","","learn_feedback","25","75","in","","","","","","","","","","","","","","","","","","","","","","",""
"","","","","","canvas-keyboard-response","127","236193","0.0-13.0-4.22","2d_cat_multi_stim_exp1","2022-4-1","14:1:6","25","75","3","9","10","40","30","120","7","21","[""White""]","No","Female","1759131","null","","null","","","clear_screen","","","","","","","","","","","","","","","","","","","","","","","","","",""
"","","","","","canvas-keyboard-response","128","236702","0.0-13.0-0.23","2d_cat_multi_stim_exp1","2022-4-1","14:1:6","25","75","3","9","10","40","30","120","7","21","[""White""]","No","Female","1759131","null","","null","","","fixation","","","","","","","","","","","","","","","","","","","","","","","","","",""
"","","","","","canvas-keyboard-response","129","237211","0.0-13.0-1.23","2d_cat_multi_stim_exp1","2022-4-1","14:1:6","25","75","3","9","10","40","30","120","7","21","[""White""]","No","Female","1759131","null","","null","","","clear_screen","","","","","","","","","","","","","","","","","","","","","","","","","",""
"","","","","","canvas-keyboard-response","130","237840","0.0-13.0-2.23","2d_cat_multi_stim_exp1","2022-4-1","14:1:6","25","75","3","9","10","40","30","120","7","21","[""White""]","No","Female","1759131","619","","u","learn","","learn_trial","30","70","out","1","0","","","","","","","","","","","","","","","","","","","","",""
"","","","","","canvas-keyboard-response","131","238850","0.0-13.0-3.23","2d_cat_multi_stim_exp1","2022-4-1","14:1:6","25","75","3","9","10","40","30","120","7","21","[""White""]","No","Female","1759131","null","","null","learn_feedback","","learn_feedback","30","70","out","","","","","","","","","","","","","","","","","","","","","","",""
"","","","","","canvas-keyboard-response","132","238909","0.0-13.0-4.23","2d_cat_multi_stim_exp1","2022-4-1","14:1:6","25","75","3","9","10","40","30","120","7","21","[""White""]","No","Female","1759131","null","","null","","","clear_screen","","","","","","","","","","","","","","","","","","","","","","","","","",""
"","","","","","canvas-keyboard-response","133","239417","0.0-13.0-0.24","2d_cat_multi_stim_exp1","2022-4-1","14:1:6","25","75","3","9","10","40","30","120","7","21","[""White""]","No","Female","1759131","null","","null","","","fixation","","","","","","","","","","","","","","","","","","","","","","","","","",""
"","","","","","canvas-keyboard-response","134","239927","0.0-13.0-1.24","2d_cat_multi_stim_exp1","2022-4-1","14:1:6","25","75","3","9","10","40","30","120","7","21","[""White""]","No","Female","1759131","null","","null","","","clear_screen","","","","","","","","","","","","","","","","","","","","","","","","","",""
"","","","","","canvas-keyboard-response","135","240696","0.0-13.0-2.24","2d_cat_multi_stim_exp1","2022-4-1","14:1:6","25","75","3","9","10","40","30","120","7","21","[""White""]","No","Female","1759131","760","","u","learn","","learn_trial","25.9271","83.5595","in","1","1","","","","","","","","","","","","","","","","","","","","",""
"","","","","","canvas-keyboard-response","136","241206","0.0-13.0-3.24","2d_cat_multi_stim_exp1","2022-4-1","14:1:6","25","75","3","9","10","40","30","120","7","21","[""White""]","No","Female","1759131","null","","null","learn_feedback","","learn_feedback","25.9271","83.5595","in","","","","","","","","","","","","","","","","","","","","","","",""
"","","","","","canvas-keyboard-response","137","241264","0.0-13.0-4.24","2d_cat_multi_stim_exp1","2022-4-1","14:1:6","25","75","3","9","10","40","30","120","7","21","[""White""]","No","Female","1759131","null","","null","","","clear_screen","","","","","","","","","","","","","","","","","","","","","","","","","",""
"","","","","","canvas-keyboard-response","138","241778","0.0-13.0-0.25","2d_cat_multi_stim_exp1","2022-4-1","14:1:6","25","75","3","9","10","40","30","120","7","21","[""White""]","No","Female","1759131","null","","null","","","fixation","","","","","","","","","","","","","","","","","","","","","","","","","",""
"","","","","","canvas-keyboard-response","139","242288","0.0-13.0-1.25","2d_cat_multi_stim_exp1","2022-4-1","14:1:6","25","75","3","9","10","40","30","120","7","21","[""White""]","No","Female","1759131","null","","null","","","clear_screen","","","","","","","","","","","","","","","","","","","","","","","","","",""
"","","","","","canvas-keyboard-response","140","243488","0.0-13.0-2.25","2d_cat_multi_stim_exp1","2022-4-1","14:1:6","25","75","3","9","10","40","30","120","7","21","[""White""]","No","Female","1759131","1191","","i","learn","","learn_trial","30","100","out","0","1","","","","","","","","","","","","","","","","","","","","",""
"","","","","","canvas-keyboard-response","141","243998","0.0-13.0-3.25","2d_cat_multi_stim_exp1","2022-4-1","14:1:6","25","75","3","9","10","40","30","120","7","21","[""White""]","No","Female","1759131","null","","null","learn_feedback","","learn_feedback","30","100","out","","","","","","","","","","","","","","","","","","","","","","",""
"","","","","","canvas-keyboard-response","142","244058","0.0-13.0-4.25","2d_cat_multi_stim_exp1","2022-4-1","14:1:6","25","75","3","9","10","40","30","120","7","21","[""White""]","No","Female","1759131","null","","null","","","clear_screen","","","","","","","","","","","","","","","","","","","","","","","","","",""
"","","","","","canvas-keyboard-response","143","244566","0.0-13.0-0.26","2d_cat_multi_stim_exp1","2022-4-1","14:1:6","25","75","3","9","10","40","30","120","7","21","[""White""]","No","Female","1759131","null","","null","","","fixation","","","","","","","","","","","","","","","","","","","","","","","","","",""
"","","","","","canvas-keyboard-response","144","245075","0.0-13.0-1.26","2d_cat_multi_stim_exp1","2022-4-1","14:1:6","25","75","3","9","10","40","30","120","7","21","[""White""]","No","Female","1759131","null","","null","","","clear_screen","","","","","","","","","","","","","","","","","","","","","","","","","",""
"","","","","","canvas-keyboard-response","145","246296","0.0-13.0-2.26","2d_cat_multi_stim_exp1","2022-4-1","14:1:6","25","75","3","9","10","40","30","120","7","21","[""White""]","No","Female","1759131","1212","","i","learn","","learn_trial","16.6667","70","out","0","1","","","","","","","","","","","","","","","","","","","","",""
"","","","","","canvas-keyboard-response","146","246808","0.0-13.0-3.26","2d_cat_multi_stim_exp1","2022-4-1","14:1:6","25","75","3","9","10","40","30","120","7","21","[""White""]","No","Female","1759131","null","","null","learn_feedback","","learn_feedback","16.6667","70","out","","","","","","","","","","","","","","","","","","","","","","",""
"","","","","","canvas-keyboard-response","147","246867","0.0-13.0-4.26","2d_cat_multi_stim_exp1","2022-4-1","14:1:6","25","75","3","9","10","40","30","120","7","21","[""White""]","No","Female","1759131","null","","null","","","clear_screen","","","","","","","","","","","","","","","","","","","","","","","","","",""
"","","","","","canvas-keyboard-response","148","247376","0.0-13.0-0.27","2d_cat_multi_stim_exp1","2022-4-1","14:1:6","25","75","3","9","10","40","30","120","7","21","[""White""]","No","Female","1759131","null","","null","","","fixation","","","","","","","","","","","","","","","","","","","","","","","","","",""
"","","","","","canvas-keyboard-response","149","247885","0.0-13.0-1.27","2d_cat_multi_stim_exp1","2022-4-1","14:1:6","25","75","3","9","10","40","30","120","7","21","[""White""]","No","Female","1759131","null","","null","","","clear_screen","","","","","","","","","","","","","","","","","","","","","","","","","",""
"","","","","","canvas-keyboard-response","150","248599","0.0-13.0-2.27","2d_cat_multi_stim_exp1","2022-4-1","14:1:6","25","75","3","9","10","40","30","120","7","21","[""White""]","No","Female","1759131","704","","u","learn","","learn_trial","25","75","in","1","1","","","","","","","","","","","","","","","","","","","","",""
"","","","","","canvas-keyboard-response","151","249110","0.0-13.0-3.27","2d_cat_multi_stim_exp1","2022-4-1","14:1:6","25","75","3","9","10","40","30","120","7","21","[""White""]","No","Female","1759131","null","","null","learn_feedback","","learn_feedback","25","75","in","","","","","","","","","","","","","","","","","","","","","","",""
"","","","","","canvas-keyboard-response","152","249169","0.0-13.0-4.27","2d_cat_multi_stim_exp1","2022-4-1","14:1:6","25","75","3","9","10","40","30","120","7","21","[""White""]","No","Female","1759131","null","","null","","","clear_screen","","","","","","","","","","","","","","","","","","","","","","","","","",""
"","","","","","canvas-keyboard-response","153","249677","0.0-13.0-0.28","2d_cat_multi_stim_exp1","2022-4-1","14:1:6","25","75","3","9","10","40","30","120","7","21","[""White""]","No","Female","1759131","null","","null","","","fixation","","","","","","","","","","","","","","","","","","","","","","","","","",""
"","","","","","canvas-keyboard-response","154","250189","0.0-13.0-1.28","2d_cat_multi_stim_exp1","2022-4-1","14:1:6","25","75","3","9","10","40","30","120","7","21","[""White""]","No","Female","1759131","null","","null","","","clear_screen","","","","","","","","","","","","","","","","","","","","","","","","","",""
"","","","","","canvas-keyboard-response","155","250825","0.0-13.0-2.28","2d_cat_multi_stim_exp1","2022-4-1","14:1:6","25","75","3","9","10","40","30","120","7","21","[""White""]","No","Female","1759131","624","","u","learn","","learn_trial","25","75","in","1","1","","","","","","","","","","","","","","","","","","","","",""
"","","","","","canvas-keyboard-response","156","251337","0.0-13.0-3.28","2d_cat_multi_stim_exp1","2022-4-1","14:1:6","25","75","3","9","10","40","30","120","7","21","[""White""]","No","Female","1759131","null","","null","learn_feedback","","learn_feedback","25","75","in","","","","","","","","","","","","","","","","","","","","","","",""
"","","","","","canvas-keyboard-response","157","251397","0.0-13.0-4.28","2d_cat_multi_stim_exp1","2022-4-1","14:1:6","25","75","3","9","10","40","30","120","7","21","[""White""]","No","Female","1759131","null","","null","","","clear_screen","","","","","","","","","","","","","","","","","","","","","","","","","",""
"","","","","","canvas-keyboard-response","158","251908","0.0-13.0-0.29","2d_cat_multi_stim_exp1","2022-4-1","14:1:6","25","75","3","9","10","40","30","120","7","21","[""White""]","No","Female","1759131","null","","null","","","fixation","","","","","","","","","","","","","","","","","","","","","","","","","",""
"","","","","","canvas-keyboard-response","159","252419","0.0-13.0-1.29","2d_cat_multi_stim_exp1","2022-4-1","14:1:6","25","75","3","9","10","40","30","120","7","21","[""White""]","No","Female","1759131","null","","null","","","clear_screen","","","","","","","","","","","","","","","","","","","","","","","","","",""
"","","","","","canvas-keyboard-response","160","253393","0.0-13.0-2.29","2d_cat_multi_stim_exp1","2022-4-1","14:1:6","25","75","3","9","10","40","30","120","7","21","[""White""]","No","Female","1759131","964","","u","learn","","learn_trial","25","75","in","1","1","","","","","","","","","","","","","","","","","","","","",""
"","","","","","canvas-keyboard-response","161","253903","0.0-13.0-3.29","2d_cat_multi_stim_exp1","2022-4-1","14:1:6","25","75","3","9","10","40","30","120","7","21","[""White""]","No","Female","1759131","null","","null","learn_feedback","","learn_feedback","25","75","in","","","","","","","","","","","","","","","","","","","","","","",""
"","","","","","canvas-keyboard-response","162","253962","0.0-13.0-4.29","2d_cat_multi_stim_exp1","2022-4-1","14:1:6","25","75","3","9","10","40","30","120","7","21","[""White""]","No","Female","1759131","null","","null","","","clear_screen","","","","","","","","","","","","","","","","","","","","","","","","","",""
"","","","","","canvas-keyboard-response","163","254471","0.0-13.0-0.30","2d_cat_multi_stim_exp1","2022-4-1","14:1:6","25","75","3","9","10","40","30","120","7","21","[""White""]","No","Female","1759131","null","","null","","","fixation","","","","","","","","","","","","","","","","","","","","","","","","","",""
"","","","","","canvas-keyboard-response","164","254981","0.0-13.0-1.30","2d_cat_multi_stim_exp1","2022-4-1","14:1:6","25","75","3","9","10","40","30","120","7","21","[""White""]","No","Female","1759131","null","","null","","","clear_screen","","","","","","","","","","","","","","","","","","","","","","","","","",""
"","","","","","canvas-keyboard-response","165","255632","0.0-13.0-2.30","2d_cat_multi_stim_exp1","2022-4-1","14:1:6","25","75","3","9","10","40","30","120","7","21","[""White""]","No","Female","1759131","641","","i","learn","","learn_trial","10","80","out","0","1","","","","","","","","","","","","","","","","","","","","",""
"","","","","","canvas-keyboard-response","166","256143","0.0-13.0-3.30","2d_cat_multi_stim_exp1","2022-4-1","14:1:6","25","75","3","9","10","40","30","120","7","21","[""White""]","No","Female","1759131","null","","null","learn_feedback","","learn_feedback","10","80","out","","","","","","","","","","","","","","","","","","","","","","",""
"","","","","","canvas-keyboard-response","167","256203","0.0-13.0-4.30","2d_cat_multi_stim_exp1","2022-4-1","14:1:6","25","75","3","9","10","40","30","120","7","21","[""White""]","No","Female","1759131","null","","null","","","clear_screen","","","","","","","","","","","","","","","","","","","","","","","","","",""
"","","","","","canvas-keyboard-response","168","256713","0.0-13.0-0.31","2d_cat_multi_stim_exp1","2022-4-1","14:1:6","25","75","3","9","10","40","30","120","7","21","[""White""]","No","Female","1759131","null","","null","","","fixation","","","","","","","","","","","","","","","","","","","","","","","","","",""
"","","","","","canvas-keyboard-response","169","257222","0.0-13.0-1.31","2d_cat_multi_stim_exp1","2022-4-1","14:1:6","25","75","3","9","10","40","30","120","7","21","[""White""]","No","Female","1759131","null","","null","","","clear_screen","","","","","","","","","","","","","","","","","","","","","","","","","",""
"","","","","","canvas-keyboard-response","170","257968","0.0-13.0-2.31","2d_cat_multi_stim_exp1","2022-4-1","14:1:6","25","75","3","9","10","40","30","120","7","21","[""White""]","No","Female","1759131","736","","u","learn","","learn_trial","24.3324","83.7744","in","1","1","","","","","","","","","","","","","","","","","","","","",""
"","","","","","canvas-keyboard-response","171","258478","0.0-13.0-3.31","2d_cat_multi_stim_exp1","2022-4-1","14:1:6","25","75","3","9","10","40","30","120","7","21","[""White""]","No","Female","1759131","null","","null","learn_feedback","","learn_feedback","24.3324","83.7744","in","","","","","","","","","","","","","","","","","","","","","","",""
"","","","","","canvas-keyboard-response","172","258537","0.0-13.0-4.31","2d_cat_multi_stim_exp1","2022-4-1","14:1:6","25","75","3","9","10","40","30","120","7","21","[""White""]","No","Female","1759131","null","","null","","","clear_screen","","","","","","","","","","","","","","","","","","","","","","","","","",""
"","","","","","canvas-keyboard-response","173","259046","0.0-13.0-0.32","2d_cat_multi_stim_exp1","2022-4-1","14:1:6","25","75","3","9","10","40","30","120","7","21","[""White""]","No","Female","1759131","null","","null","","","fixation","","","","","","","","","","","","","","","","","","","","","","","","","",""
"","","","","","canvas-keyboard-response","174","259557","0.0-13.0-1.32","2d_cat_multi_stim_exp1","2022-4-1","14:1:6","25","75","3","9","10","40","30","120","7","21","[""White""]","No","Female","1759131","null","","null","","","clear_screen","","","","","","","","","","","","","","","","","","","","","","","","","",""
"","","","","","canvas-keyboard-response","175","260296","0.0-13.0-2.32","2d_cat_multi_stim_exp1","2022-4-1","14:1:6","25","75","3","9","10","40","30","120","7","21","[""White""]","No","Female","1759131","729","","i","learn","","learn_trial","33.3333","110","out","0","1","","","","","","","","","","","","","","","","","","","","",""
"","","","","","canvas-keyboard-response","176","260806","0.0-13.0-3.32","2d_cat_multi_stim_exp1","2022-4-1","14:1:6","25","75","3","9","10","40","30","120","7","21","[""White""]","No","Female","1759131","null","","null","learn_feedback","","learn_feedback","33.3333","110","out","","","","","","","","","","","","","","","","","","","","","","",""
"","","","","","canvas-keyboard-response","177","260865","0.0-13.0-4.32","2d_cat_multi_stim_exp1","2022-4-1","14:1:6","25","75","3","9","10","40","30","120","7","21","[""White""]","No","Female","1759131","null","","null","","","clear_screen","","","","","","","","","","","","","","","","","","","","","","","","","",""
"","","","","","canvas-keyboard-response","178","261373","0.0-13.0-0.33","2d_cat_multi_stim_exp1","2022-4-1","14:1:6","25","75","3","9","10","40","30","120","7","21","[""White""]","No","Female","1759131","null","","null","","","fixation","","","","","","","","","","","","","","","","","","","","","","","","","",""
"","","","","","canvas-keyboard-response","179","261883","0.0-13.0-1.33","2d_cat_multi_stim_exp1","2022-4-1","14:1:6","25","75","3","9","10","40","30","120","7","21","[""White""]","No","Female","1759131","null","","null","","","clear_screen","","","","","","","","","","","","","","","","","","","","","","","","","",""
"","","","","","canvas-keyboard-response","180","262648","0.0-13.0-2.33","2d_cat_multi_stim_exp1","2022-4-1","14:1:6","25","75","3","9","10","40","30","120","7","21","[""White""]","No","Female","1759131","756","","i","learn","","learn_trial","33.3333","100","out","0","1","","","","","","","","","","","","","","","","","","","","",""
"","","","","","canvas-keyboard-response","181","263158","0.0-13.0-3.33","2d_cat_multi_stim_exp1","2022-4-1","14:1:6","25","75","3","9","10","40","30","120","7","21","[""White""]","No","Female","1759131","null","","null","learn_feedback","","learn_feedback","33.3333","100","out","","","","","","","","","","","","","","","","","","","","","","",""
"","","","","","canvas-keyboard-response","182","263217","0.0-13.0-4.33","2d_cat_multi_stim_exp1","2022-4-1","14:1:6","25","75","3","9","10","40","30","120","7","21","[""White""]","No","Female","1759131","null","","null","","","clear_screen","","","","","","","","","","","","","","","","","","","","","","","","","",""
"","","","","","canvas-keyboard-response","183","263726","0.0-13.0-0.34","2d_cat_multi_stim_exp1","2022-4-1","14:1:6","25","75","3","9","10","40","30","120","7","21","[""White""]","No","Female","1759131","null","","null","","","fixation","","","","","","","","","","","","","","","","","","","","","","","","","",""
"","","","","","canvas-keyboard-response","184","264235","0.0-13.0-1.34","2d_cat_multi_stim_exp1","2022-4-1","14:1:6","25","75","3","9","10","40","30","120","7","21","[""White""]","No","Female","1759131","null","","null","","","clear_screen","","","","","","","","","","","","","","","","","","","","","","","","","",""
"","","","","","canvas-keyboard-response","185","264895","0.0-13.0-2.34","2d_cat_multi_stim_exp1","2022-4-1","14:1:6","25","75","3","9","10","40","30","120","7","21","[""White""]","No","Female","1759131","650","","i","learn","","learn_trial","36.6667","40","out","0","1","","","","","","","","","","","","","","","","","","","","",""
"","","","","","canvas-keyboard-response","186","265408","0.0-13.0-3.34","2d_cat_multi_stim_exp1","2022-4-1","14:1:6","25","75","3","9","10","40","30","120","7","21","[""White""]","No","Female","1759131","null","","null","learn_feedback","","learn_feedback","36.6667","40","out","","","","","","","","","","","","","","","","","","","","","","",""
"","","","","","canvas-keyboard-response","187","265468","0.0-13.0-4.34","2d_cat_multi_stim_exp1","2022-4-1","14:1:6","25","75","3","9","10","40","30","120","7","21","[""White""]","No","Female","1759131","null","","null","","","clear_screen","","","","","","","","","","","","","","","","","","","","","","","","","",""
"","","","","","canvas-keyboard-response","188","265978","0.0-13.0-0.35","2d_cat_multi_stim_exp1","2022-4-1","14:1:6","25","75","3","9","10","40","30","120","7","21","[""White""]","No","Female","1759131","null","","null","","","fixation","","","","","","","","","","","","","","","","","","","","","","","","","",""
"","","","","","canvas-keyboard-response","189","266486","0.0-13.0-1.35","2d_cat_multi_stim_exp1","2022-4-1","14:1:6","25","75","3","9","10","40","30","120","7","21","[""White""]","No","Female","1759131","null","","null","","","clear_screen","","","","","","","","","","","","","","","","","","","","","","","","","",""
"","","","","","canvas-keyboard-response","190","267288","0.0-13.0-2.35","2d_cat_multi_stim_exp1","2022-4-1","14:1:6","25","75","3","9","10","40","30","120","7","21","[""White""]","No","Female","1759131","791","","i","learn","","learn_trial","16.6667","80","out","0","1","","","","","","","","","","","","","","","","","","","","",""
"","","","","","canvas-keyboard-response","191","267798","0.0-13.0-3.35","2d_cat_multi_stim_exp1","2022-4-1","14:1:6","25","75","3","9","10","40","30","120","7","21","[""White""]","No","Female","1759131","null","","null","learn_feedback","","learn_feedback","16.6667","80","out","","","","","","","","","","","","","","","","","","","","","","",""
"","","","","","canvas-keyboard-response","192","267856","0.0-13.0-4.35","2d_cat_multi_stim_exp1","2022-4-1","14:1:6","25","75","3","9","10","40","30","120","7","21","[""White""]","No","Female","1759131","null","","null","","","clear_screen","","","","","","","","","","","","","","","","","","","","","","","","","",""
"","","","","","canvas-keyboard-response","193","268365","0.0-13.0-0.36","2d_cat_multi_stim_exp1","2022-4-1","14:1:6","25","75","3","9","10","40","30","120","7","21","[""White""]","No","Female","1759131","null","","null","","","fixation","","","","","","","","","","","","","","","","","","","","","","","","","",""
"","","","","","canvas-keyboard-response","194","268874","0.0-13.0-1.36","2d_cat_multi_stim_exp1","2022-4-1","14:1:6","25","75","3","9","10","40","30","120","7","21","[""White""]","No","Female","1759131","null","","null","","","clear_screen","","","","","","","","","","","","","","","","","","","","","","","","","",""
"","","","","","canvas-keyboard-response","195","269688","0.0-13.0-2.36","2d_cat_multi_stim_exp1","2022-4-1","14:1:6","25","75","3","9","10","40","30","120","7","21","[""White""]","No","Female","1759131","805","","u","learn","","learn_trial","25","75","in","1","1","","","","","","","","","","","","","","","","","","","","",""
"","","","","","canvas-keyboard-response","196","270198","0.0-13.0-3.36","2d_cat_multi_stim_exp1","2022-4-1","14:1:6","25","75","3","9","10","40","30","120","7","21","[""White""]","No","Female","1759131","null","","null","learn_feedback","","learn_feedback","25","75","in","","","","","","","","","","","","","","","","","","","","","","",""
"","","","","","canvas-keyboard-response","197","270257","0.0-13.0-4.36","2d_cat_multi_stim_exp1","2022-4-1","14:1:6","25","75","3","9","10","40","30","120","7","21","[""White""]","No","Female","1759131","null","","null","","","clear_screen","","","","","","","","","","","","","","","","","","","","","","","","","",""
"","","","","","canvas-keyboard-response","198","270766","0.0-13.0-0.37","2d_cat_multi_stim_exp1","2022-4-1","14:1:6","25","75","3","9","10","40","30","120","7","21","[""White""]","No","Female","1759131","null","","null","","","fixation","","","","","","","","","","","","","","","","","","","","","","","","","",""
"","","","","","canvas-keyboard-response","199","271276","0.0-13.0-1.37","2d_cat_multi_stim_exp1","2022-4-1","14:1:6","25","75","3","9","10","40","30","120","7","21","[""White""]","No","Female","1759131","null","","null","","","clear_screen","","","","","","","","","","","","","","","","","","","","","","","","","",""
"","","","","","canvas-keyboard-response","200","272081","0.0-13.0-2.37","2d_cat_multi_stim_exp1","2022-4-1","14:1:6","25","75","3","9","10","40","30","120","7","21","[""White""]","No","Female","1759131","793","","i","learn","","learn_trial","10","40","out","0","1","","","","","","","","","","","","","","","","","","","","",""
"","","","","","canvas-keyboard-response","201","272592","0.0-13.0-3.37","2d_cat_multi_stim_exp1","2022-4-1","14:1:6","25","75","3","9","10","40","30","120","7","21","[""White""]","No","Female","1759131","null","","null","learn_feedback","","learn_feedback","10","40","out","","","","","","","","","","","","","","","","","","","","","","",""
"","","","","","canvas-keyboard-response","202","272652","0.0-13.0-4.37","2d_cat_multi_stim_exp1","2022-4-1","14:1:6","25","75","3","9","10","40","30","120","7","21","[""White""]","No","Female","1759131","null","","null","","","clear_screen","","","","","","","","","","","","","","","","","","","","","","","","","",""
"","","","","","canvas-keyboard-response","203","273160","0.0-13.0-0.38","2d_cat_multi_stim_exp1","2022-4-1","14:1:6","25","75","3","9","10","40","30","120","7","21","[""White""]","No","Female","1759131","null","","null","","","fixation","","","","","","","","","","","","","","","","","","","","","","","","","",""
"","","","","","canvas-keyboard-response","204","273670","0.0-13.0-1.38","2d_cat_multi_stim_exp1","2022-4-1","14:1:6","25","75","3","9","10","40","30","120","7","21","[""White""]","No","Female","1759131","null","","null","","","clear_screen","","","","","","","","","","","","","","","","","","","","","","","","","",""
"","","","","","canvas-keyboard-response","205","274488","0.0-13.0-2.38","2d_cat_multi_stim_exp1","2022-4-1","14:1:6","25","75","3","9","10","40","30","120","7","21","[""White""]","No","Female","1759131","809","","i","learn","","learn_trial","23.3333","50","out","0","1","","","","","","","","","","","","","","","","","","","","",""
"","","","","","canvas-keyboard-response","206","274997","0.0-13.0-3.38","2d_cat_multi_stim_exp1","2022-4-1","14:1:6","25","75","3","9","10","40","30","120","7","21","[""White""]","No","Female","1759131","null","","null","learn_feedback","","learn_feedback","23.3333","50","out","","","","","","","","","","","","","","","","","","","","","","",""
"","","","","","canvas-keyboard-response","207","275055","0.0-13.0-4.38","2d_cat_multi_stim_exp1","2022-4-1","14:1:6","25","75","3","9","10","40","30","120","7","21","[""White""]","No","Female","1759131","null","","null","","","clear_screen","","","","","","","","","","","","","","","","","","","","","","","","","",""
"","","","","","canvas-keyboard-response","208","275565","0.0-13.0-0.39","2d_cat_multi_stim_exp1","2022-4-1","14:1:6","25","75","3","9","10","40","30","120","7","21","[""White""]","No","Female","1759131","null","","null","","","fixation","","","","","","","","","","","","","","","","","","","","","","","","","",""
"","","","","","canvas-keyboard-response","209","276074","0.0-13.0-1.39","2d_cat_multi_stim_exp1","2022-4-1","14:1:6","25","75","3","9","10","40","30","120","7","21","[""White""]","No","Female","1759131","null","","null","","","clear_screen","","","","","","","","","","","","","","","","","","","","","","","","","",""
"","","","","","canvas-keyboard-response","210","276776","0.0-13.0-2.39","2d_cat_multi_stim_exp1","2022-4-1","14:1:6","25","75","3","9","10","40","30","120","7","21","[""White""]","No","Female","1759131","692","","u","learn","","learn_trial","25","75","in","1","1","","","","","","","","","","","","","","","","","","","","",""
"","","","","","canvas-keyboard-response","211","277286","0.0-13.0-3.39","2d_cat_multi_stim_exp1","2022-4-1","14:1:6","25","75","3","9","10","40","30","120","7","21","[""White""]","No","Female","1759131","null","","null","learn_feedback","","learn_feedback","25","75","in","","","","","","","","","","","","","","","","","","","","","","",""
"","","","","","canvas-keyboard-response","212","277344","0.0-13.0-4.39","2d_cat_multi_stim_exp1","2022-4-1","14:1:6","25","75","3","9","10","40","30","120","7","21","[""White""]","No","Female","1759131","null","","null","","","clear_screen","","","","","","","","","","","","","","","","","","","","","","","","","",""
"","","","","","canvas-keyboard-response","213","277853","0.0-13.0-0.40","2d_cat_multi_stim_exp1","2022-4-1","14:1:6","25","75","3","9","10","40","30","120","7","21","[""White""]","No","Female","1759131","null","","null","","","fixation","","","","","","","","","","","","","","","","","","","","","","","","","",""
"","","","","","canvas-keyboard-response","214","278363","0.0-13.0-1.40","2d_cat_multi_stim_exp1","2022-4-1","14:1:6","25","75","3","9","10","40","30","120","7","21","[""White""]","No","Female","1759131","null","","null","","","clear_screen","","","","","","","","","","","","","","","","","","","","","","","","","",""
"","","","","","canvas-keyboard-response","215","278984","0.0-13.0-2.40","2d_cat_multi_stim_exp1","2022-4-1","14:1:6","25","75","3","9","10","40","30","120","7","21","[""White""]","No","Female","1759131","612","","i","learn","","learn_trial","16.6667","50","out","0","1","","","","","","","","","","","","","","","","","","","","",""
"","","","","","canvas-keyboard-response","216","279497","0.0-13.0-3.40","2d_cat_multi_stim_exp1","2022-4-1","14:1:6","25","75","3","9","10","40","30","120","7","21","[""White""]","No","Female","1759131","null","","null","learn_feedback","","learn_feedback","16.6667","50","out","","","","","","","","","","","","","","","","","","","","","","",""
"","","","","","canvas-keyboard-response","217","279556","0.0-13.0-4.40","2d_cat_multi_stim_exp1","2022-4-1","14:1:6","25","75","3","9","10","40","30","120","7","21","[""White""]","No","Female","1759131","null","","null","","","clear_screen","","","","","","","","","","","","","","","","","","","","","","","","","",""
"","","","","","canvas-keyboard-response","218","280065","0.0-13.0-0.41","2d_cat_multi_stim_exp1","2022-4-1","14:1:6","25","75","3","9","10","40","30","120","7","21","[""White""]","No","Female","1759131","null","","null","","","fixation","","","","","","","","","","","","","","","","","","","","","","","","","",""
"","","","","","canvas-keyboard-response","219","280574","0.0-13.0-1.41","2d_cat_multi_stim_exp1","2022-4-1","14:1:6","25","75","3","9","10","40","30","120","7","21","[""White""]","No","Female","1759131","null","","null","","","clear_screen","","","","","","","","","","","","","","","","","","","","","","","","","",""
"","","","","","canvas-keyboard-response","220","281512","0.0-13.0-2.41","2d_cat_multi_stim_exp1","2022-4-1","14:1:6","25","75","3","9","10","40","30","120","7","21","[""White""]","No","Female","1759131","927","","u","learn","","learn_trial","23.3473","82.5112","in","1","1","","","","","","","","","","","","","","","","","","","","",""
"","","","","","canvas-keyboard-response","221","282020","0.0-13.0-3.41","2d_cat_multi_stim_exp1","2022-4-1","14:1:6","25","75","3","9","10","40","30","120","7","21","[""White""]","No","Female","1759131","null","","null","learn_feedback","","learn_feedback","23.3473","82.5112","in","","","","","","","","","","","","","","","","","","","","","","",""
"","","","","","canvas-keyboard-response","222","282079","0.0-13.0-4.41","2d_cat_multi_stim_exp1","2022-4-1","14:1:6","25","75","3","9","10","40","30","120","7","21","[""White""]","No","Female","1759131","null","","null","","","clear_screen","","","","","","","","","","","","","","","","","","","","","","","","","",""
"","","","","","canvas-keyboard-response","223","282588","0.0-13.0-0.42","2d_cat_multi_stim_exp1","2022-4-1","14:1:6","25","75","3","9","10","40","30","120","7","21","[""White""]","No","Female","1759131","null","","null","","","fixation","","","","","","","","","","","","","","","","","","","","","","","","","",""
"","","","","","canvas-keyboard-response","224","283098","0.0-13.0-1.42","2d_cat_multi_stim_exp1","2022-4-1","14:1:6","25","75","3","9","10","40","30","120","7","21","[""White""]","No","Female","1759131","null","","null","","","clear_screen","","","","","","","","","","","","","","","","","","","","","","","","","",""
"","","","","","canvas-keyboard-response","225","283807","0.0-13.0-2.42","2d_cat_multi_stim_exp1","2022-4-1","14:1:6","25","75","3","9","10","40","30","120","7","21","[""White""]","No","Female","1759131","699","","u","learn","","learn_trial","25.4027","83.9185","in","1","1","","","","","","","","","","","","","","","","","","","","",""
"","","","","","canvas-keyboard-response","226","284317","0.0-13.0-3.42","2d_cat_multi_stim_exp1","2022-4-1","14:1:6","25","75","3","9","10","40","30","120","7","21","[""White""]","No","Female","1759131","null","","null","learn_feedback","","learn_feedback","25.4027","83.9185","in","","","","","","","","","","","","","","","","","","","","","","",""
"","","","","","canvas-keyboard-response","227","284377","0.0-13.0-4.42","2d_cat_multi_stim_exp1","2022-4-1","14:1:6","25","75","3","9","10","40","30","120","7","21","[""White""]","No","Female","1759131","null","","null","","","clear_screen","","","","","","","","","","","","","","","","","","","","","","","","","",""
"","","","","","canvas-keyboard-response","228","284885","0.0-13.0-0.43","2d_cat_multi_stim_exp1","2022-4-1","14:1:6","25","75","3","9","10","40","30","120","7","21","[""White""]","No","Female","1759131","null","","null","","","fixation","","","","","","","","","","","","","","","","","","","","","","","","","",""
"","","","","","canvas-keyboard-response","229","285395","0.0-13.0-1.43","2d_cat_multi_stim_exp1","2022-4-1","14:1:6","25","75","3","9","10","40","30","120","7","21","[""White""]","No","Female","1759131","null","","null","","","clear_screen","","","","","","","","","","","","","","","","","","","","","","","","","",""
"","","","","","canvas-keyboard-response","230","286008","0.0-13.0-2.43","2d_cat_multi_stim_exp1","2022-4-1","14:1:6","25","75","3","9","10","40","30","120","7","21","[""White""]","No","Female","1759131","602","","u","learn","","learn_trial","25","75","in","1","1","","","","","","","","","","","","","","","","","","","","",""
"","","","","","canvas-keyboard-response","231","286518","0.0-13.0-3.43","2d_cat_multi_stim_exp1","2022-4-1","14:1:6","25","75","3","9","10","40","30","120","7","21","[""White""]","No","Female","1759131","null","","null","learn_feedback","","learn_feedback","25","75","in","","","","","","","","","","","","","","","","","","","","","","",""
"","","","","","canvas-keyboard-response","232","286580","0.0-13.0-4.43","2d_cat_multi_stim_exp1","2022-4-1","14:1:6","25","75","3","9","10","40","30","120","7","21","[""White""]","No","Female","1759131","null","","null","","","clear_screen","","","","","","","","","","","","","","","","","","","","","","","","","",""
"","","","","","canvas-keyboard-response","233","287092","0.0-13.0-0.44","2d_cat_multi_stim_exp1","2022-4-1","14:1:6","25","75","3","9","10","40","30","120","7","21","[""White""]","No","Female","1759131","null","","null","","","fixation","","","","","","","","","","","","","","","","","","","","","","","","","",""
"","","","","","canvas-keyboard-response","234","287604","0.0-13.0-1.44","2d_cat_multi_stim_exp1","2022-4-1","14:1:6","25","75","3","9","10","40","30","120","7","21","[""White""]","No","Female","1759131","null","","null","","","clear_screen","","","","","","","","","","","","","","","","","","","","","","","","","",""
"","","","","","canvas-keyboard-response","235","288200","0.0-13.0-2.44","2d_cat_multi_stim_exp1","2022-4-1","14:1:6","25","75","3","9","10","40","30","120","7","21","[""White""]","No","Female","1759131","585","","u","learn","","learn_trial","26.6667","90","out","1","0","","","","","","","","","","","","","","","","","","","","",""
"","","","","","canvas-keyboard-response","236","289209","0.0-13.0-3.44","2d_cat_multi_stim_exp1","2022-4-1","14:1:6","25","75","3","9","10","40","30","120","7","21","[""White""]","No","Female","1759131","null","","null","learn_feedback","","learn_feedback","26.6667","90","out","","","","","","","","","","","","","","","","","","","","","","",""
"","","","","","canvas-keyboard-response","237","289268","0.0-13.0-4.44","2d_cat_multi_stim_exp1","2022-4-1","14:1:6","25","75","3","9","10","40","30","120","7","21","[""White""]","No","Female","1759131","null","","null","","","clear_screen","","","","","","","","","","","","","","","","","","","","","","","","","",""
"","","","","","canvas-keyboard-response","238","289778","0.0-13.0-0.45","2d_cat_multi_stim_exp1","2022-4-1","14:1:6","25","75","3","9","10","40","30","120","7","21","[""White""]","No","Female","1759131","null","","null","","","fixation","","","","","","","","","","","","","","","","","","","","","","","","","",""
"","","","","","canvas-keyboard-response","239","290287","0.0-13.0-1.45","2d_cat_multi_stim_exp1","2022-4-1","14:1:6","25","75","3","9","10","40","30","120","7","21","[""White""]","No","Female","1759131","null","","null","","","clear_screen","","","","","","","","","","","","","","","","","","","","","","","","","",""
"","","","","","canvas-keyboard-response","240","290968","0.0-13.0-2.45","2d_cat_multi_stim_exp1","2022-4-1","14:1:6","25","75","3","9","10","40","30","120","7","21","[""White""]","No","Female","1759131","670","","i","learn","","learn_trial","33.3333","60","out","0","1","","","","","","","","","","","","","","","","","","","","",""
"","","","","","canvas-keyboard-response","241","291478","0.0-13.0-3.45","2d_cat_multi_stim_exp1","2022-4-1","14:1:6","25","75","3","9","10","40","30","120","7","21","[""White""]","No","Female","1759131","null","","null","learn_feedback","","learn_feedback","33.3333","60","out","","","","","","","","","","","","","","","","","","","","","","",""
"","","","","","canvas-keyboard-response","242","291537","0.0-13.0-4.45","2d_cat_multi_stim_exp1","2022-4-1","14:1:6","25","75","3","9","10","40","30","120","7","21","[""White""]","No","Female","1759131","null","","null","","","clear_screen","","","","","","","","","","","","","","","","","","","","","","","","","",""
"","","","","","canvas-keyboard-response","243","292047","0.0-13.0-0.46","2d_cat_multi_stim_exp1","2022-4-1","14:1:6","25","75","3","9","10","40","30","120","7","21","[""White""]","No","Female","1759131","null","","null","","","fixation","","","","","","","","","","","","","","","","","","","","","","","","","",""
"","","","","","canvas-keyboard-response","244","292558","0.0-13.0-1.46","2d_cat_multi_stim_exp1","2022-4-1","14:1:6","25","75","3","9","10","40","30","120","7","21","[""White""]","No","Female","1759131","null","","null","","","clear_screen","","","","","","","","","","","","","","","","","","","","","","","","","",""
"","","","","","canvas-keyboard-response","245","293655","0.0-13.0-2.46","2d_cat_multi_stim_exp1","2022-4-1","14:1:6","25","75","3","9","10","40","30","120","7","21","[""White""]","No","Female","1759131","1087","","i","learn","","learn_trial","25","75","in","0","0","","","","","","","","","","","","","","","","","","","","",""
"","","","","","canvas-keyboard-response","246","294666","0.0-13.0-3.46","2d_cat_multi_stim_exp1","2022-4-1","14:1:6","25","75","3","9","10","40","30","120","7","21","[""White""]","No","Female","1759131","null","","null","learn_feedback","","learn_feedback","25","75","in","","","","","","","","","","","","","","","","","","","","","","",""
"","","","","","canvas-keyboard-response","247","294725","0.0-13.0-4.46","2d_cat_multi_stim_exp1","2022-4-1","14:1:6","25","75","3","9","10","40","30","120","7","21","[""White""]","No","Female","1759131","null","","null","","","clear_screen","","","","","","","","","","","","","","","","","","","","","","","","","",""
"","","","","","canvas-keyboard-response","248","295235","0.0-13.0-0.47","2d_cat_multi_stim_exp1","2022-4-1","14:1:6","25","75","3","9","10","40","30","120","7","21","[""White""]","No","Female","1759131","null","","null","","","fixation","","","","","","","","","","","","","","","","","","","","","","","","","",""
"","","","","","canvas-keyboard-response","249","295743","0.0-13.0-1.47","2d_cat_multi_stim_exp1","2022-4-1","14:1:6","25","75","3","9","10","40","30","120","7","21","[""White""]","No","Female","1759131","null","","null","","","clear_screen","","","","","","","","","","","","","","","","","","","","","","","","","",""
"","","","","","canvas-keyboard-response","250","296648","0.0-13.0-2.47","2d_cat_multi_stim_exp1","2022-4-1","14:1:6","25","75","3","9","10","40","30","120","7","21","[""White""]","No","Female","1759131","895","","u","learn","","learn_trial","25","75","in","1","1","","","","","","","","","","","","","","","","","","","","",""
"","","","","","canvas-keyboard-response","251","297159","0.0-13.0-3.47","2d_cat_multi_stim_exp1","2022-4-1","14:1:6","25","75","3","9","10","40","30","120","7","21","[""White""]","No","Female","1759131","null","","null","learn_feedback","","learn_feedback","25","75","in","","","","","","","","","","","","","","","","","","","","","","",""
"","","","","","canvas-keyboard-response","252","297218","0.0-13.0-4.47","2d_cat_multi_stim_exp1","2022-4-1","14:1:6","25","75","3","9","10","40","30","120","7","21","[""White""]","No","Female","1759131","null","","null","","","clear_screen","","","","","","","","","","","","","","","","","","","","","","","","","",""
"","","","","","canvas-keyboard-response","253","297727","0.0-13.0-0.48","2d_cat_multi_stim_exp1","2022-4-1","14:1:6","25","75","3","9","10","40","30","120","7","21","[""White""]","No","Female","1759131","null","","null","","","fixation","","","","","","","","","","","","","","","","","","","","","","","","","",""
"","","","","","canvas-keyboard-response","254","298236","0.0-13.0-1.48","2d_cat_multi_stim_exp1","2022-4-1","14:1:6","25","75","3","9","10","40","30","120","7","21","[""White""]","No","Female","1759131","null","","null","","","clear_screen","","","","","","","","","","","","","","","","","","","","","","","","","",""
"","","","","","canvas-keyboard-response","255","298895","0.0-13.0-2.48","2d_cat_multi_stim_exp1","2022-4-1","14:1:6","25","75","3","9","10","40","30","120","7","21","[""White""]","No","Female","1759131","650","","i","learn","","learn_trial","26.6667","30","out","0","1","","","","","","","","","","","","","","","","","","","","",""
"","","","","","canvas-keyboard-response","256","299405","0.0-13.0-3.48","2d_cat_multi_stim_exp1","2022-4-1","14:1:6","25","75","3","9","10","40","30","120","7","21","[""White""]","No","Female","1759131","null","","null","learn_feedback","","learn_feedback","26.6667","30","out","","","","","","","","","","","","","","","","","","","","","","",""
"","","","","","canvas-keyboard-response","257","299464","0.0-13.0-4.48","2d_cat_multi_stim_exp1","2022-4-1","14:1:6","25","75","3","9","10","40","30","120","7","21","[""White""]","No","Female","1759131","null","","null","","","clear_screen","","","","","","","","","","","","","","","","","","","","","","","","","",""
"","","","","","canvas-keyboard-response","258","299974","0.0-13.0-0.49","2d_cat_multi_stim_exp1","2022-4-1","14:1:6","25","75","3","9","10","40","30","120","7","21","[""White""]","No","Female","1759131","null","","null","","","fixation","","","","","","","","","","","","","","","","","","","","","","","","","",""
"","","","","","canvas-keyboard-response","259","300483","0.0-13.0-1.49","2d_cat_multi_stim_exp1","2022-4-1","14:1:6","25","75","3","9","10","40","30","120","7","21","[""White""]","No","Female","1759131","null","","null","","","clear_screen","","","","","","","","","","","","","","","","","","","","","","","","","",""
"","","","","","canvas-keyboard-response","260","301240","0.0-13.0-2.49","2d_cat_multi_stim_exp1","2022-4-1","14:1:6","25","75","3","9","10","40","30","120","7","21","[""White""]","No","Female","1759131","746","","u","learn","","learn_trial","33.3333","120","out","1","0","","","","","","","","","","","","","","","","","","","","",""
"","","","","","canvas-keyboard-response","261","302249","0.0-13.0-3.49","2d_cat_multi_stim_exp1","2022-4-1","14:1:6","25","75","3","9","10","40","30","120","7","21","[""White""]","No","Female","1759131","null","","null","learn_feedback","","learn_feedback","33.3333","120","out","","","","","","","","","","","","","","","","","","","","","","",""
"","","","","","canvas-keyboard-response","262","302309","0.0-13.0-4.49","2d_cat_multi_stim_exp1","2022-4-1","14:1:6","25","75","3","9","10","40","30","120","7","21","[""White""]","No","Female","1759131","null","","null","","","clear_screen","","","","","","","","","","","","","","","","","","","","","","","","","",""
"","","","","","canvas-keyboard-response","263","302818","0.0-13.0-0.50","2d_cat_multi_stim_exp1","2022-4-1","14:1:6","25","75","3","9","10","40","30","120","7","21","[""White""]","No","Female","1759131","null","","null","","","fixation","","","","","","","","","","","","","","","","","","","","","","","","","",""
"","","","","","canvas-keyboard-response","264","303328","0.0-13.0-1.50","2d_cat_multi_stim_exp1","2022-4-1","14:1:6","25","75","3","9","10","40","30","120","7","21","[""White""]","No","Female","1759131","null","","null","","","clear_screen","","","","","","","","","","","","","","","","","","","","","","","","","",""
"","","","","","canvas-keyboard-response","265","304463","0.0-13.0-2.50","2d_cat_multi_stim_exp1","2022-4-1","14:1:6","25","75","3","9","10","40","30","120","7","21","[""White""]","No","Female","1759131","1125","","i","learn","","learn_trial","25.4027","66.0815","in","0","0","","","","","","","","","","","","","","","","","","","","",""
"","","","","","canvas-keyboard-response","266","305473","0.0-13.0-3.50","2d_cat_multi_stim_exp1","2022-4-1","14:1:6","25","75","3","9","10","40","30","120","7","21","[""White""]","No","Female","1759131","null","","null","learn_feedback","","learn_feedback","25.4027","66.0815","in","","","","","","","","","","","","","","","","","","","","","","",""
"","","","","","canvas-keyboard-response","267","305532","0.0-13.0-4.50","2d_cat_multi_stim_exp1","2022-4-1","14:1:6","25","75","3","9","10","40","30","120","7","21","[""White""]","No","Female","1759131","null","","null","","","clear_screen","","","","","","","","","","","","","","","","","","","","","","","","","",""
"","","","","","canvas-keyboard-response","268","306045","0.0-13.0-0.51","2d_cat_multi_stim_exp1","2022-4-1","14:1:6","25","75","3","9","10","40","30","120","7","21","[""White""]","No","Female","1759131","null","","null","","","fixation","","","","","","","","","","","","","","","","","","","","","","","","","",""
"","","","","","canvas-keyboard-response","269","306555","0.0-13.0-1.51","2d_cat_multi_stim_exp1","2022-4-1","14:1:6","25","75","3","9","10","40","30","120","7","21","[""White""]","No","Female","1759131","null","","null","","","clear_screen","","","","","","","","","","","","","","","","","","","","","","","","","",""
"","","","","","canvas-keyboard-response","270","307479","0.0-13.0-2.51","2d_cat_multi_stim_exp1","2022-4-1","14:1:6","25","75","3","9","10","40","30","120","7","21","[""White""]","No","Female","1759131","915","","u","learn","","learn_trial","25","75","in","1","1","","","","","","","","","","","","","","","","","","","","",""
"","","","","","canvas-keyboard-response","271","307990","0.0-13.0-3.51","2d_cat_multi_stim_exp1","2022-4-1","14:1:6","25","75","3","9","10","40","30","120","7","21","[""White""]","No","Female","1759131","null","","null","learn_feedback","","learn_feedback","25","75","in","","","","","","","","","","","","","","","","","","","","","","",""
"","","","","","canvas-keyboard-response","272","308048","0.0-13.0-4.51","2d_cat_multi_stim_exp1","2022-4-1","14:1:6","25","75","3","9","10","40","30","120","7","21","[""White""]","No","Female","1759131","null","","null","","","clear_screen","","","","","","","","","","","","","","","","","","","","","","","","","",""
"","","","","","canvas-keyboard-response","273","308557","0.0-13.0-0.52","2d_cat_multi_stim_exp1","2022-4-1","14:1:6","25","75","3","9","10","40","30","120","7","21","[""White""]","No","Female","1759131","null","","null","","","fixation","","","","","","","","","","","","","","","","","","","","","","","","","",""
"","","","","","canvas-keyboard-response","274","309067","0.0-13.0-1.52","2d_cat_multi_stim_exp1","2022-4-1","14:1:6","25","75","3","9","10","40","30","120","7","21","[""White""]","No","Female","1759131","null","","null","","","clear_screen","","","","","","","","","","","","","","","","","","","","","","","","","",""
"","","","","","canvas-keyboard-response","275","309688","0.0-13.0-2.52","2d_cat_multi_stim_exp1","2022-4-1","14:1:6","25","75","3","9","10","40","30","120","7","21","[""White""]","No","Female","1759131","610","","i","learn","","learn_trial","26.6667","120","out","0","1","","","","","","","","","","","","","","","","","","","","",""
"","","","","","canvas-keyboard-response","276","310198","0.0-13.0-3.52","2d_cat_multi_stim_exp1","2022-4-1","14:1:6","25","75","3","9","10","40","30","120","7","21","[""White""]","No","Female","1759131","null","","null","learn_feedback","","learn_feedback","26.6667","120","out","","","","","","","","","","","","","","","","","","","","","","",""
"","","","","","canvas-keyboard-response","277","310257","0.0-13.0-4.52","2d_cat_multi_stim_exp1","2022-4-1","14:1:6","25","75","3","9","10","40","30","120","7","21","[""White""]","No","Female","1759131","null","","null","","","clear_screen","","","","","","","","","","","","","","","","","","","","","","","","","",""
"","","","","","canvas-keyboard-response","278","310766","0.0-13.0-0.53","2d_cat_multi_stim_exp1","2022-4-1","14:1:6","25","75","3","9","10","40","30","120","7","21","[""White""]","No","Female","1759131","null","","null","","","fixation","","","","","","","","","","","","","","","","","","","","","","","","","",""
"","","","","","canvas-keyboard-response","279","311276","0.0-13.0-1.53","2d_cat_multi_stim_exp1","2022-4-1","14:1:6","25","75","3","9","10","40","30","120","7","21","[""White""]","No","Female","1759131","null","","null","","","clear_screen","","","","","","","","","","","","","","","","","","","","","","","","","",""
"","","","","","canvas-keyboard-response","280","312528","0.0-13.0-2.53","2d_cat_multi_stim_exp1","2022-4-1","14:1:6","25","75","3","9","10","40","30","120","7","21","[""White""]","No","Female","1759131","1242","","u","learn","","learn_trial","25","75","in","1","1","","","","","","","","","","","","","","","","","","","","",""
"","","","","","canvas-keyboard-response","281","313038","0.0-13.0-3.53","2d_cat_multi_stim_exp1","2022-4-1","14:1:6","25","75","3","9","10","40","30","120","7","21","[""White""]","No","Female","1759131","null","","null","learn_feedback","","learn_feedback","25","75","in","","","","","","","","","","","","","","","","","","","","","","",""
"","","","","","canvas-keyboard-response","282","313097","0.0-13.0-4.53","2d_cat_multi_stim_exp1","2022-4-1","14:1:6","25","75","3","9","10","40","30","120","7","21","[""White""]","No","Female","1759131","null","","null","","","clear_screen","","","","","","","","","","","","","","","","","","","","","","","","","",""
"","","","","","canvas-keyboard-response","283","313608","0.0-13.0-0.54","2d_cat_multi_stim_exp1","2022-4-1","14:1:6","25","75","3","9","10","40","30","120","7","21","[""White""]","No","Female","1759131","null","","null","","","fixation","","","","","","","","","","","","","","","","","","","","","","","","","",""
"","","","","","canvas-keyboard-response","284","314117","0.0-13.0-1.54","2d_cat_multi_stim_exp1","2022-4-1","14:1:6","25","75","3","9","10","40","30","120","7","21","[""White""]","No","Female","1759131","null","","null","","","clear_screen","","","","","","","","","","","","","","","","","","","","","","","","","",""
"","","","","","canvas-keyboard-response","285","314744","0.0-13.0-2.54","2d_cat_multi_stim_exp1","2022-4-1","14:1:6","25","75","3","9","10","40","30","120","7","21","[""White""]","No","Female","1759131","615","","i","learn","","learn_trial","13.3333","120","out","0","1","","","","","","","","","","","","","","","","","","","","",""
"","","","","","canvas-keyboard-response","286","315255","0.0-13.0-3.54","2d_cat_multi_stim_exp1","2022-4-1","14:1:6","25","75","3","9","10","40","30","120","7","21","[""White""]","No","Female","1759131","null","","null","learn_feedback","","learn_feedback","13.3333","120","out","","","","","","","","","","","","","","","","","","","","","","",""
"","","","","","canvas-keyboard-response","287","315314","0.0-13.0-4.54","2d_cat_multi_stim_exp1","2022-4-1","14:1:6","25","75","3","9","10","40","30","120","7","21","[""White""]","No","Female","1759131","null","","null","","","clear_screen","","","","","","","","","","","","","","","","","","","","","","","","","",""
"","","","","","canvas-keyboard-response","288","315822","0.0-13.0-0.55","2d_cat_multi_stim_exp1","2022-4-1","14:1:6","25","75","3","9","10","40","30","120","7","21","[""White""]","No","Female","1759131","null","","null","","","fixation","","","","","","","","","","","","","","","","","","","","","","","","","",""
"","","","","","canvas-keyboard-response","289","316333","0.0-13.0-1.55","2d_cat_multi_stim_exp1","2022-4-1","14:1:6","25","75","3","9","10","40","30","120","7","21","[""White""]","No","Female","1759131","null","","null","","","clear_screen","","","","","","","","","","","","","","","","","","","","","","","","","",""
"","","","","","canvas-keyboard-response","290","317223","0.0-13.0-2.55","2d_cat_multi_stim_exp1","2022-4-1","14:1:6","25","75","3","9","10","40","30","120","7","21","[""White""]","No","Female","1759131","881","","i","learn","","learn_trial","25","75","in","0","0","","","","","","","","","","","","","","","","","","","","",""
"","","","","","canvas-keyboard-response","291","318234","0.0-13.0-3.55","2d_cat_multi_stim_exp1","2022-4-1","14:1:6","25","75","3","9","10","40","30","120","7","21","[""White""]","No","Female","1759131","null","","null","learn_feedback","","learn_feedback","25","75","in","","","","","","","","","","","","","","","","","","","","","","",""
"","","","","","canvas-keyboard-response","292","318293","0.0-13.0-4.55","2d_cat_multi_stim_exp1","2022-4-1","14:1:6","25","75","3","9","10","40","30","120","7","21","[""White""]","No","Female","1759131","null","","null","","","clear_screen","","","","","","","","","","","","","","","","","","","","","","","","","",""
"","","","","","canvas-keyboard-response","293","318803","0.0-13.0-0.56","2d_cat_multi_stim_exp1","2022-4-1","14:1:6","25","75","3","9","10","40","30","120","7","21","[""White""]","No","Female","1759131","null","","null","","","fixation","","","","","","","","","","","","","","","","","","","","","","","","","",""
"","","","","","canvas-keyboard-response","294","319312","0.0-13.0-1.56","2d_cat_multi_stim_exp1","2022-4-1","14:1:6","25","75","3","9","10","40","30","120","7","21","[""White""]","No","Female","1759131","null","","null","","","clear_screen","","","","","","","","","","","","","","","","","","","","","","","","","",""
"","","","","","canvas-keyboard-response","295","320216","0.0-13.0-2.56","2d_cat_multi_stim_exp1","2022-4-1","14:1:6","25","75","3","9","10","40","30","120","7","21","[""White""]","No","Female","1759131","893","","u","learn","","learn_trial","25","75","in","1","1","","","","","","","","","","","","","","","","","","","","",""
"","","","","","canvas-keyboard-response","296","320725","0.0-13.0-3.56","2d_cat_multi_stim_exp1","2022-4-1","14:1:6","25","75","3","9","10","40","30","120","7","21","[""White""]","No","Female","1759131","null","","null","learn_feedback","","learn_feedback","25","75","in","","","","","","","","","","","","","","","","","","","","","","",""
"","","","","","canvas-keyboard-response","297","320784","0.0-13.0-4.56","2d_cat_multi_stim_exp1","2022-4-1","14:1:6","25","75","3","9","10","40","30","120","7","21","[""White""]","No","Female","1759131","null","","null","","","clear_screen","","","","","","","","","","","","","","","","","","","","","","","","","",""
"","","","","","canvas-keyboard-response","298","321293","0.0-13.0-0.57","2d_cat_multi_stim_exp1","2022-4-1","14:1:6","25","75","3","9","10","40","30","120","7","21","[""White""]","No","Female","1759131","null","","null","","","fixation","","","","","","","","","","","","","","","","","","","","","","","","","",""
"","","","","","canvas-keyboard-response","299","321804","0.0-13.0-1.57","2d_cat_multi_stim_exp1","2022-4-1","14:1:6","25","75","3","9","10","40","30","120","7","21","[""White""]","No","Female","1759131","null","","null","","","clear_screen","","","","","","","","","","","","","","","","","","","","","","","","","",""
