"success","timeout","failed_images","failed_audio","failed_video","trial_type","trial_index","time_elapsed","internal_node_id","exp_name","date","time","angle_mean_in","radius_mean_in","angle_sd_in","radius_sd_in","angle_min_out","angle_max_out","radius_min_out","radius_max_out","sub_n","age","race","ethnicity","gender","exp_duration","rt","response","exp_trial_type","stimulus","view_history","screen_id","angle","radius","distribution","choice","correct","order","angle_a","radius_a","angle_b","radius_b","angle_c","radius_c","jkl_correct","transfer_trial_type","choice_set","abc_correct","tc_correct","tc_angle","tdc_a","tdc_b","tdc_c","pair","category_a","category_b","category_c","question_order"
"true","false","[]","[]","[]","preload","0","26","0.0-0.0","2d_cat_multi_stim_exp1","2022-4-26","16:12:35","25","75","3","9","10","40","30","120","62","20","[""White""]","No","Male","2845872","","","","","","","","","","","","","","","","","","","","","","","","","","","","","","","",""
"","","","","","survey-html-form","1","1338","0.0-1.0","2d_cat_multi_stim_exp1","2022-4-26","16:12:35","25","75","3","9","10","40","30","120","62","20","[""White""]","No","Male","2845872","1290","{""response"":""62""}","enter-sub-number","","","","","","","","","","","","","","","","","","","","","","","","","","","","",""
"true","","","","","fullscreen","2","3096","0.0-2.0","2d_cat_multi_stim_exp1","2022-4-26","16:12:35","25","75","3","9","10","40","30","120","62","20","[""White""]","No","Male","2845872","","","","","","","","","","","","","","","","","","","","","","","","","","","","","","","",""
"","","","","","image-button-response","3","1120657","0.0-3.0","2d_cat_multi_stim_exp1","2022-4-26","16:12:35","25","75","3","9","10","40","30","120","62","20","[""White""]","No","Male","2845872","1117551","0","","consent.png","","","","","","","","","","","","","","","","","","","","","","","","","","","",""
"","","","","","html-button-response","4","1128945","0.0-4.0","2d_cat_multi_stim_exp1","2022-4-26","16:12:35","25","75","3","9","10","40","30","120","62","20","[""White""]","No","Male","2845872","8284","0","","<div style= ""font-size:25px;"" <p> <strong> Welcome to the experiment! </strong><br> <p style=""color:#8B0000; font-size:25px;""><strong> Please do NOT exit full screen until you are done with the experiment. </strong> </p><p style=""font-size:25px;color:#8B0000;""> <strong> The experiment will be canceled and your data will be lost <br> if you try to go back or refresh the page at any point during the experiment.</strong> </p><br><p> <strong> Thanks in advance for your contribution to our research! </strong></p>","","","","","","","","","","","","","","","","","","","","","","","","","","","",""
"","","","","","instructions","5","1160185","0.0-5.0","2d_cat_multi_stim_exp1","2022-4-26","16:12:35","25","75","3","9","10","40","30","120","62","20","[""White""]","No","Male","2845872","31235","","","","[{""page_index"":0,""viewing_time"":4593},{""page_index"":1,""viewing_time"":2881},{""page_index"":2,""viewing_time"":6752},{""page_index"":3,""viewing_time"":17008}]","instructions_1","","","","","","","","","","","","","","","","","","","","","","","","","",""
"","","","","","instructions","6","1162439","0.0-6.0","2d_cat_multi_stim_exp1","2022-4-26","16:12:35","25","75","3","9","10","40","30","120","62","20","[""White""]","No","Male","2845872","2251","","","","[{""page_index"":0,""viewing_time"":2251}]","Click to see the kinds of turtles that will appear in the study.","","","","","","","","","","","","","","","","","","","","","","","","","",""
"","","","","","canvas-keyboard-response","7","1177458","0.0-7.0","2d_cat_multi_stim_exp1","2022-4-26","16:12:35","25","75","3","9","10","40","30","120","62","20","[""White""]","No","Male","2845872","null","null","","","","demo_range","","","","","","","","","","","","","","","","","","","","","","","","","",""
"","","","","","instructions","8","1180281","0.0-8.0","2d_cat_multi_stim_exp1","2022-4-26","16:12:35","25","75","3","9","10","40","30","120","62","20","[""White""]","No","Male","2845872","2320","","","","[{""page_index"":0,""viewing_time"":2320}]","Click to see some turtles in the subspecies.","","","","","","","","","","","","","","","","","","","","","","","","","",""
"","","","","","canvas-keyboard-response","9","1195297","0.0-9.0","2d_cat_multi_stim_exp1","2022-4-26","16:12:35","25","75","3","9","10","40","30","120","62","20","[""White""]","No","Male","2845872","null","null","","","","demo_in","","","","","","","","","","","","","","","","","","","","","","","","","",""
"","","","","","instructions","10","1234913","0.0-10.0","2d_cat_multi_stim_exp1","2022-4-26","16:12:35","25","75","3","9","10","40","30","120","62","20","[""White""]","No","Male","2845872","39114","","","","[{""page_index"":0,""viewing_time"":7994},{""page_index"":1,""viewing_time"":23448},{""page_index"":2,""viewing_time"":7672}]","instructions_2","","","","","","","","","","","","","","","","","","","","","","","","","",""
"","","","","","instructions","11","1236064","0.0-11.0","2d_cat_multi_stim_exp1","2022-4-26","16:12:35","25","75","3","9","10","40","30","120","62","20","[""White""]","No","Male","2845872","1147","","","","[{""page_index"":0,""viewing_time"":1147}]","Click to begin the first phase of the experiment.","","","","","","","","","","","","","","","","","","","","","","","","","",""
"","","","","","canvas-keyboard-response","12","1236572","0.0-12.0-0.0","2d_cat_multi_stim_exp1","2022-4-26","16:12:35","25","75","3","9","10","40","30","120","62","20","[""White""]","No","Male","2845872","null","null","","","","fixation","","","","","","","","","","","","","","","","","","","","","","","","","",""
"","","","","","canvas-keyboard-response","13","1237083","0.0-12.0-1.0","2d_cat_multi_stim_exp1","2022-4-26","16:12:35","25","75","3","9","10","40","30","120","62","20","[""White""]","No","Male","2845872","null","null","","","","clear_screen","","","","","","","","","","","","","","","","","","","","","","","","","",""
"","","","","","canvas-keyboard-response","14","1241841","0.0-12.0-2.0","2d_cat_multi_stim_exp1","2022-4-26","16:12:35","25","75","3","9","10","40","30","120","62","20","[""White""]","No","Male","2845872","4749","i","learn","","","learn_trial","13.3333","40","out","0","1","","","","","","","","","","","","","","","","","","","","",""
"","","","","","canvas-keyboard-response","15","1242352","0.0-12.0-3.0","2d_cat_multi_stim_exp1","2022-4-26","16:12:35","25","75","3","9","10","40","30","120","62","20","[""White""]","No","Male","2845872","null","null","learn_feedback","","","learn_feedback","13.3333","40","out","","","","","","","","","","","","","","","","","","","","","","",""
"","","","","","canvas-keyboard-response","16","1242414","0.0-12.0-4.0","2d_cat_multi_stim_exp1","2022-4-26","16:12:35","25","75","3","9","10","40","30","120","62","20","[""White""]","No","Male","2845872","null","null","","","","clear_screen","","","","","","","","","","","","","","","","","","","","","","","","","",""
"","","","","","canvas-keyboard-response","17","1242924","0.0-12.0-0.1","2d_cat_multi_stim_exp1","2022-4-26","16:12:35","25","75","3","9","10","40","30","120","62","20","[""White""]","No","Male","2845872","null","null","","","","fixation","","","","","","","","","","","","","","","","","","","","","","","","","",""
"","","","","","canvas-keyboard-response","18","1243436","0.0-12.0-1.1","2d_cat_multi_stim_exp1","2022-4-26","16:12:35","25","75","3","9","10","40","30","120","62","20","[""White""]","No","Male","2845872","null","null","","","","clear_screen","","","","","","","","","","","","","","","","","","","","","","","","","",""
"","","","","","canvas-keyboard-response","19","1245448","0.0-12.0-2.1","2d_cat_multi_stim_exp1","2022-4-26","16:12:35","25","75","3","9","10","40","30","120","62","20","[""White""]","No","Male","2845872","2000","u","learn","","","learn_trial","24.8654","83.9909","in","1","1","","","","","","","","","","","","","","","","","","","","",""
"","","","","","canvas-keyboard-response","20","1245957","0.0-12.0-3.1","2d_cat_multi_stim_exp1","2022-4-26","16:12:35","25","75","3","9","10","40","30","120","62","20","[""White""]","No","Male","2845872","null","null","learn_feedback","","","learn_feedback","24.8654","83.9909","in","","","","","","","","","","","","","","","","","","","","","","",""
"","","","","","canvas-keyboard-response","21","1246016","0.0-12.0-4.1","2d_cat_multi_stim_exp1","2022-4-26","16:12:35","25","75","3","9","10","40","30","120","62","20","[""White""]","No","Male","2845872","null","null","","","","clear_screen","","","","","","","","","","","","","","","","","","","","","","","","","",""
"","","","","","canvas-keyboard-response","22","1246526","0.0-12.0-0.2","2d_cat_multi_stim_exp1","2022-4-26","16:12:35","25","75","3","9","10","40","30","120","62","20","[""White""]","No","Male","2845872","null","null","","","","fixation","","","","","","","","","","","","","","","","","","","","","","","","","",""
"","","","","","canvas-keyboard-response","23","1247039","0.0-12.0-1.2","2d_cat_multi_stim_exp1","2022-4-26","16:12:35","25","75","3","9","10","40","30","120","62","20","[""White""]","No","Male","2845872","null","null","","","","clear_screen","","","","","","","","","","","","","","","","","","","","","","","","","",""
"","","","","","canvas-keyboard-response","24","1248592","0.0-12.0-2.2","2d_cat_multi_stim_exp1","2022-4-26","16:12:35","25","75","3","9","10","40","30","120","62","20","[""White""]","No","Male","2845872","1543","u","learn","","","learn_trial","23.3473","82.5112","in","1","1","","","","","","","","","","","","","","","","","","","","",""
"","","","","","canvas-keyboard-response","25","1249101","0.0-12.0-3.2","2d_cat_multi_stim_exp1","2022-4-26","16:12:35","25","75","3","9","10","40","30","120","62","20","[""White""]","No","Male","2845872","null","null","learn_feedback","","","learn_feedback","23.3473","82.5112","in","","","","","","","","","","","","","","","","","","","","","","",""
"","","","","","canvas-keyboard-response","26","1249163","0.0-12.0-4.2","2d_cat_multi_stim_exp1","2022-4-26","16:12:35","25","75","3","9","10","40","30","120","62","20","[""White""]","No","Male","2845872","null","null","","","","clear_screen","","","","","","","","","","","","","","","","","","","","","","","","","",""
"","","","","","canvas-keyboard-response","27","1249675","0.0-12.0-0.3","2d_cat_multi_stim_exp1","2022-4-26","16:12:35","25","75","3","9","10","40","30","120","62","20","[""White""]","No","Male","2845872","null","null","","","","fixation","","","","","","","","","","","","","","","","","","","","","","","","","",""
"","","","","","canvas-keyboard-response","28","1250189","0.0-12.0-1.3","2d_cat_multi_stim_exp1","2022-4-26","16:12:35","25","75","3","9","10","40","30","120","62","20","[""White""]","No","Male","2845872","null","null","","","","clear_screen","","","","","","","","","","","","","","","","","","","","","","","","","",""
"","","","","","canvas-keyboard-response","29","1251584","0.0-12.0-2.3","2d_cat_multi_stim_exp1","2022-4-26","16:12:35","25","75","3","9","10","40","30","120","62","20","[""White""]","No","Male","2845872","1385","u","learn","","","learn_trial","25","75","in","1","1","","","","","","","","","","","","","","","","","","","","",""
"","","","","","canvas-keyboard-response","30","1252095","0.0-12.0-3.3","2d_cat_multi_stim_exp1","2022-4-26","16:12:35","25","75","3","9","10","40","30","120","62","20","[""White""]","No","Male","2845872","null","null","learn_feedback","","","learn_feedback","25","75","in","","","","","","","","","","","","","","","","","","","","","","",""
"","","","","","canvas-keyboard-response","31","1252154","0.0-12.0-4.3","2d_cat_multi_stim_exp1","2022-4-26","16:12:35","25","75","3","9","10","40","30","120","62","20","[""White""]","No","Male","2845872","null","null","","","","clear_screen","","","","","","","","","","","","","","","","","","","","","","","","","",""
"","","","","","canvas-keyboard-response","32","1252662","0.0-12.0-0.4","2d_cat_multi_stim_exp1","2022-4-26","16:12:35","25","75","3","9","10","40","30","120","62","20","[""White""]","No","Male","2845872","null","null","","","","fixation","","","","","","","","","","","","","","","","","","","","","","","","","",""
"","","","","","canvas-keyboard-response","33","1253174","0.0-12.0-1.4","2d_cat_multi_stim_exp1","2022-4-26","16:12:35","25","75","3","9","10","40","30","120","62","20","[""White""]","No","Male","2845872","null","null","","","","clear_screen","","","","","","","","","","","","","","","","","","","","","","","","","",""
"","","","","","canvas-keyboard-response","34","1254232","0.0-12.0-2.4","2d_cat_multi_stim_exp1","2022-4-26","16:12:35","25","75","3","9","10","40","30","120","62","20","[""White""]","No","Male","2845872","1046","i","learn","","","learn_trial","16.6667","40","out","0","1","","","","","","","","","","","","","","","","","","","","",""
"","","","","","canvas-keyboard-response","35","1254739","0.0-12.0-3.4","2d_cat_multi_stim_exp1","2022-4-26","16:12:35","25","75","3","9","10","40","30","120","62","20","[""White""]","No","Male","2845872","null","null","learn_feedback","","","learn_feedback","16.6667","40","out","","","","","","","","","","","","","","","","","","","","","","",""
"","","","","","canvas-keyboard-response","36","1254802","0.0-12.0-4.4","2d_cat_multi_stim_exp1","2022-4-26","16:12:35","25","75","3","9","10","40","30","120","62","20","[""White""]","No","Male","2845872","null","null","","","","clear_screen","","","","","","","","","","","","","","","","","","","","","","","","","",""
"","","","","","canvas-keyboard-response","37","1255311","0.0-12.0-0.5","2d_cat_multi_stim_exp1","2022-4-26","16:12:35","25","75","3","9","10","40","30","120","62","20","[""White""]","No","Male","2845872","null","null","","","","fixation","","","","","","","","","","","","","","","","","","","","","","","","","",""
"","","","","","canvas-keyboard-response","38","1255821","0.0-12.0-1.5","2d_cat_multi_stim_exp1","2022-4-26","16:12:35","25","75","3","9","10","40","30","120","62","20","[""White""]","No","Male","2845872","null","null","","","","clear_screen","","","","","","","","","","","","","","","","","","","","","","","","","",""
"","","","","","canvas-keyboard-response","39","1256768","0.0-12.0-2.5","2d_cat_multi_stim_exp1","2022-4-26","16:12:35","25","75","3","9","10","40","30","120","62","20","[""White""]","No","Male","2845872","938","u","learn","","","learn_trial","25","75","in","1","1","","","","","","","","","","","","","","","","","","","","",""
"","","","","","canvas-keyboard-response","40","1257278","0.0-12.0-3.5","2d_cat_multi_stim_exp1","2022-4-26","16:12:35","25","75","3","9","10","40","30","120","62","20","[""White""]","No","Male","2845872","null","null","learn_feedback","","","learn_feedback","25","75","in","","","","","","","","","","","","","","","","","","","","","","",""
"","","","","","canvas-keyboard-response","41","1257336","0.0-12.0-4.5","2d_cat_multi_stim_exp1","2022-4-26","16:12:35","25","75","3","9","10","40","30","120","62","20","[""White""]","No","Male","2845872","null","null","","","","clear_screen","","","","","","","","","","","","","","","","","","","","","","","","","",""
"","","","","","canvas-keyboard-response","42","1257848","0.0-12.0-0.6","2d_cat_multi_stim_exp1","2022-4-26","16:12:35","25","75","3","9","10","40","30","120","62","20","[""White""]","No","Male","2845872","null","null","","","","fixation","","","","","","","","","","","","","","","","","","","","","","","","","",""
"","","","","","canvas-keyboard-response","43","1258358","0.0-12.0-1.6","2d_cat_multi_stim_exp1","2022-4-26","16:12:35","25","75","3","9","10","40","30","120","62","20","[""White""]","No","Male","2845872","null","null","","","","clear_screen","","","","","","","","","","","","","","","","","","","","","","","","","",""
"","","","","","canvas-keyboard-response","44","1259233","0.0-12.0-2.6","2d_cat_multi_stim_exp1","2022-4-26","16:12:35","25","75","3","9","10","40","30","120","62","20","[""White""]","No","Male","2845872","865","u","learn","","","learn_trial","25","75","in","1","1","","","","","","","","","","","","","","","","","","","","",""
"","","","","","canvas-keyboard-response","45","1259743","0.0-12.0-3.6","2d_cat_multi_stim_exp1","2022-4-26","16:12:35","25","75","3","9","10","40","30","120","62","20","[""White""]","No","Male","2845872","null","null","learn_feedback","","","learn_feedback","25","75","in","","","","","","","","","","","","","","","","","","","","","","",""
"","","","","","canvas-keyboard-response","46","1259803","0.0-12.0-4.6","2d_cat_multi_stim_exp1","2022-4-26","16:12:35","25","75","3","9","10","40","30","120","62","20","[""White""]","No","Male","2845872","null","null","","","","clear_screen","","","","","","","","","","","","","","","","","","","","","","","","","",""
"","","","","","canvas-keyboard-response","47","1260312","0.0-12.0-0.7","2d_cat_multi_stim_exp1","2022-4-26","16:12:35","25","75","3","9","10","40","30","120","62","20","[""White""]","No","Male","2845872","null","null","","","","fixation","","","","","","","","","","","","","","","","","","","","","","","","","",""
"","","","","","canvas-keyboard-response","48","1260826","0.0-12.0-1.7","2d_cat_multi_stim_exp1","2022-4-26","16:12:35","25","75","3","9","10","40","30","120","62","20","[""White""]","No","Male","2845872","null","null","","","","clear_screen","","","","","","","","","","","","","","","","","","","","","","","","","",""
"","","","","","canvas-keyboard-response","49","1261664","0.0-12.0-2.7","2d_cat_multi_stim_exp1","2022-4-26","16:12:35","25","75","3","9","10","40","30","120","62","20","[""White""]","No","Male","2845872","829","i","learn","","","learn_trial","30","30","out","0","1","","","","","","","","","","","","","","","","","","","","",""
"","","","","","canvas-keyboard-response","50","1262174","0.0-12.0-3.7","2d_cat_multi_stim_exp1","2022-4-26","16:12:35","25","75","3","9","10","40","30","120","62","20","[""White""]","No","Male","2845872","null","null","learn_feedback","","","learn_feedback","30","30","out","","","","","","","","","","","","","","","","","","","","","","",""
"","","","","","canvas-keyboard-response","51","1262233","0.0-12.0-4.7","2d_cat_multi_stim_exp1","2022-4-26","16:12:35","25","75","3","9","10","40","30","120","62","20","[""White""]","No","Male","2845872","null","null","","","","clear_screen","","","","","","","","","","","","","","","","","","","","","","","","","",""
"","","","","","canvas-keyboard-response","52","1262745","0.0-12.0-0.8","2d_cat_multi_stim_exp1","2022-4-26","16:12:35","25","75","3","9","10","40","30","120","62","20","[""White""]","No","Male","2845872","null","null","","","","fixation","","","","","","","","","","","","","","","","","","","","","","","","","",""
"","","","","","canvas-keyboard-response","53","1263256","0.0-12.0-1.8","2d_cat_multi_stim_exp1","2022-4-26","16:12:35","25","75","3","9","10","40","30","120","62","20","[""White""]","No","Male","2845872","null","null","","","","clear_screen","","","","","","","","","","","","","","","","","","","","","","","","","",""
"","","","","","canvas-keyboard-response","54","1264319","0.0-12.0-2.8","2d_cat_multi_stim_exp1","2022-4-26","16:12:35","25","75","3","9","10","40","30","120","62","20","[""White""]","No","Male","2845872","1055","i","learn","","","learn_trial","16.6667","80","out","0","1","","","","","","","","","","","","","","","","","","","","",""
"","","","","","canvas-keyboard-response","55","1264829","0.0-12.0-3.8","2d_cat_multi_stim_exp1","2022-4-26","16:12:35","25","75","3","9","10","40","30","120","62","20","[""White""]","No","Male","2845872","null","null","learn_feedback","","","learn_feedback","16.6667","80","out","","","","","","","","","","","","","","","","","","","","","","",""
"","","","","","canvas-keyboard-response","56","1264887","0.0-12.0-4.8","2d_cat_multi_stim_exp1","2022-4-26","16:12:35","25","75","3","9","10","40","30","120","62","20","[""White""]","No","Male","2845872","null","null","","","","clear_screen","","","","","","","","","","","","","","","","","","","","","","","","","",""
"","","","","","canvas-keyboard-response","57","1265398","0.0-12.0-0.9","2d_cat_multi_stim_exp1","2022-4-26","16:12:35","25","75","3","9","10","40","30","120","62","20","[""White""]","No","Male","2845872","null","null","","","","fixation","","","","","","","","","","","","","","","","","","","","","","","","","",""
"","","","","","canvas-keyboard-response","58","1265907","0.0-12.0-1.9","2d_cat_multi_stim_exp1","2022-4-26","16:12:35","25","75","3","9","10","40","30","120","62","20","[""White""]","No","Male","2845872","null","null","","","","clear_screen","","","","","","","","","","","","","","","","","","","","","","","","","",""
"","","","","","canvas-keyboard-response","59","1267184","0.0-12.0-2.9","2d_cat_multi_stim_exp1","2022-4-26","16:12:35","25","75","3","9","10","40","30","120","62","20","[""White""]","No","Male","2845872","1270","i","learn","","","learn_trial","36.6667","40","out","0","1","","","","","","","","","","","","","","","","","","","","",""
"","","","","","canvas-keyboard-response","60","1267695","0.0-12.0-3.9","2d_cat_multi_stim_exp1","2022-4-26","16:12:35","25","75","3","9","10","40","30","120","62","20","[""White""]","No","Male","2845872","null","null","learn_feedback","","","learn_feedback","36.6667","40","out","","","","","","","","","","","","","","","","","","","","","","",""
"","","","","","canvas-keyboard-response","61","1267758","0.0-12.0-4.9","2d_cat_multi_stim_exp1","2022-4-26","16:12:35","25","75","3","9","10","40","30","120","62","20","[""White""]","No","Male","2845872","null","null","","","","clear_screen","","","","","","","","","","","","","","","","","","","","","","","","","",""
"","","","","","canvas-keyboard-response","62","1268269","0.0-12.0-0.10","2d_cat_multi_stim_exp1","2022-4-26","16:12:35","25","75","3","9","10","40","30","120","62","20","[""White""]","No","Male","2845872","null","null","","","","fixation","","","","","","","","","","","","","","","","","","","","","","","","","",""
"","","","","","canvas-keyboard-response","63","1268779","0.0-12.0-1.10","2d_cat_multi_stim_exp1","2022-4-26","16:12:35","25","75","3","9","10","40","30","120","62","20","[""White""]","No","Male","2845872","null","null","","","","clear_screen","","","","","","","","","","","","","","","","","","","","","","","","","",""
"","","","","","canvas-keyboard-response","64","1269896","0.0-12.0-2.10","2d_cat_multi_stim_exp1","2022-4-26","16:12:35","25","75","3","9","10","40","30","120","62","20","[""White""]","No","Male","2845872","1105","u","learn","","","learn_trial","25","75","in","1","1","","","","","","","","","","","","","","","","","","","","",""
"","","","","","canvas-keyboard-response","65","1270406","0.0-12.0-3.10","2d_cat_multi_stim_exp1","2022-4-26","16:12:35","25","75","3","9","10","40","30","120","62","20","[""White""]","No","Male","2845872","null","null","learn_feedback","","","learn_feedback","25","75","in","","","","","","","","","","","","","","","","","","","","","","",""
"","","","","","canvas-keyboard-response","66","1270467","0.0-12.0-4.10","2d_cat_multi_stim_exp1","2022-4-26","16:12:35","25","75","3","9","10","40","30","120","62","20","[""White""]","No","Male","2845872","null","null","","","","clear_screen","","","","","","","","","","","","","","","","","","","","","","","","","",""
"","","","","","canvas-keyboard-response","67","1270975","0.0-12.0-0.11","2d_cat_multi_stim_exp1","2022-4-26","16:12:35","25","75","3","9","10","40","30","120","62","20","[""White""]","No","Male","2845872","null","null","","","","fixation","","","","","","","","","","","","","","","","","","","","","","","","","",""
"","","","","","canvas-keyboard-response","68","1271489","0.0-12.0-1.11","2d_cat_multi_stim_exp1","2022-4-26","16:12:35","25","75","3","9","10","40","30","120","62","20","[""White""]","No","Male","2845872","null","null","","","","clear_screen","","","","","","","","","","","","","","","","","","","","","","","","","",""
"","","","","","canvas-keyboard-response","69","1272448","0.0-12.0-2.11","2d_cat_multi_stim_exp1","2022-4-26","16:12:35","25","75","3","9","10","40","30","120","62","20","[""White""]","No","Male","2845872","950","u","learn","","","learn_trial","25","75","in","1","1","","","","","","","","","","","","","","","","","","","","",""
"","","","","","canvas-keyboard-response","70","1272957","0.0-12.0-3.11","2d_cat_multi_stim_exp1","2022-4-26","16:12:35","25","75","3","9","10","40","30","120","62","20","[""White""]","No","Male","2845872","null","null","learn_feedback","","","learn_feedback","25","75","in","","","","","","","","","","","","","","","","","","","","","","",""
"","","","","","canvas-keyboard-response","71","1273019","0.0-12.0-4.11","2d_cat_multi_stim_exp1","2022-4-26","16:12:35","25","75","3","9","10","40","30","120","62","20","[""White""]","No","Male","2845872","null","null","","","","clear_screen","","","","","","","","","","","","","","","","","","","","","","","","","",""
"","","","","","canvas-keyboard-response","72","1273528","0.0-12.0-0.12","2d_cat_multi_stim_exp1","2022-4-26","16:12:35","25","75","3","9","10","40","30","120","62","20","[""White""]","No","Male","2845872","null","null","","","","fixation","","","","","","","","","","","","","","","","","","","","","","","","","",""
"","","","","","canvas-keyboard-response","73","1274039","0.0-12.0-1.12","2d_cat_multi_stim_exp1","2022-4-26","16:12:35","25","75","3","9","10","40","30","120","62","20","[""White""]","No","Male","2845872","null","null","","","","clear_screen","","","","","","","","","","","","","","","","","","","","","","","","","",""
"","","","","","canvas-keyboard-response","74","1275096","0.0-12.0-2.12","2d_cat_multi_stim_exp1","2022-4-26","16:12:35","25","75","3","9","10","40","30","120","62","20","[""White""]","No","Male","2845872","1049","u","learn","","","learn_trial","25","75","in","1","1","","","","","","","","","","","","","","","","","","","","",""
"","","","","","canvas-keyboard-response","75","1275606","0.0-12.0-3.12","2d_cat_multi_stim_exp1","2022-4-26","16:12:35","25","75","3","9","10","40","30","120","62","20","[""White""]","No","Male","2845872","null","null","learn_feedback","","","learn_feedback","25","75","in","","","","","","","","","","","","","","","","","","","","","","",""
"","","","","","canvas-keyboard-response","76","1275666","0.0-12.0-4.12","2d_cat_multi_stim_exp1","2022-4-26","16:12:35","25","75","3","9","10","40","30","120","62","20","[""White""]","No","Male","2845872","null","null","","","","clear_screen","","","","","","","","","","","","","","","","","","","","","","","","","",""
"","","","","","canvas-keyboard-response","77","1276175","0.0-12.0-0.13","2d_cat_multi_stim_exp1","2022-4-26","16:12:35","25","75","3","9","10","40","30","120","62","20","[""White""]","No","Male","2845872","null","null","","","","fixation","","","","","","","","","","","","","","","","","","","","","","","","","",""
"","","","","","canvas-keyboard-response","78","1276689","0.0-12.0-1.13","2d_cat_multi_stim_exp1","2022-4-26","16:12:35","25","75","3","9","10","40","30","120","62","20","[""White""]","No","Male","2845872","null","null","","","","clear_screen","","","","","","","","","","","","","","","","","","","","","","","","","",""
"","","","","","canvas-keyboard-response","79","1277512","0.0-12.0-2.13","2d_cat_multi_stim_exp1","2022-4-26","16:12:35","25","75","3","9","10","40","30","120","62","20","[""White""]","No","Male","2845872","815","i","learn","","","learn_trial","26.6667","40","out","0","1","","","","","","","","","","","","","","","","","","","","",""
"","","","","","canvas-keyboard-response","80","1278023","0.0-12.0-3.13","2d_cat_multi_stim_exp1","2022-4-26","16:12:35","25","75","3","9","10","40","30","120","62","20","[""White""]","No","Male","2845872","null","null","learn_feedback","","","learn_feedback","26.6667","40","out","","","","","","","","","","","","","","","","","","","","","","",""
"","","","","","canvas-keyboard-response","81","1278087","0.0-12.0-4.13","2d_cat_multi_stim_exp1","2022-4-26","16:12:35","25","75","3","9","10","40","30","120","62","20","[""White""]","No","Male","2845872","null","null","","","","clear_screen","","","","","","","","","","","","","","","","","","","","","","","","","",""
"","","","","","canvas-keyboard-response","82","1278596","0.0-12.0-0.14","2d_cat_multi_stim_exp1","2022-4-26","16:12:35","25","75","3","9","10","40","30","120","62","20","[""White""]","No","Male","2845872","null","null","","","","fixation","","","","","","","","","","","","","","","","","","","","","","","","","",""
"","","","","","canvas-keyboard-response","83","1279108","0.0-12.0-1.14","2d_cat_multi_stim_exp1","2022-4-26","16:12:35","25","75","3","9","10","40","30","120","62","20","[""White""]","No","Male","2845872","null","null","","","","clear_screen","","","","","","","","","","","","","","","","","","","","","","","","","",""
"","","","","","canvas-keyboard-response","84","1280289","0.0-12.0-2.14","2d_cat_multi_stim_exp1","2022-4-26","16:12:35","25","75","3","9","10","40","30","120","62","20","[""White""]","No","Male","2845872","1170","i","learn","","","learn_trial","33.3333","120","out","0","1","","","","","","","","","","","","","","","","","","","","",""
"","","","","","canvas-keyboard-response","85","1280798","0.0-12.0-3.14","2d_cat_multi_stim_exp1","2022-4-26","16:12:35","25","75","3","9","10","40","30","120","62","20","[""White""]","No","Male","2845872","null","null","learn_feedback","","","learn_feedback","33.3333","120","out","","","","","","","","","","","","","","","","","","","","","","",""
"","","","","","canvas-keyboard-response","86","1280859","0.0-12.0-4.14","2d_cat_multi_stim_exp1","2022-4-26","16:12:35","25","75","3","9","10","40","30","120","62","20","[""White""]","No","Male","2845872","null","null","","","","clear_screen","","","","","","","","","","","","","","","","","","","","","","","","","",""
"","","","","","canvas-keyboard-response","87","1281368","0.0-12.0-0.15","2d_cat_multi_stim_exp1","2022-4-26","16:12:35","25","75","3","9","10","40","30","120","62","20","[""White""]","No","Male","2845872","null","null","","","","fixation","","","","","","","","","","","","","","","","","","","","","","","","","",""
"","","","","","canvas-keyboard-response","88","1281883","0.0-12.0-1.15","2d_cat_multi_stim_exp1","2022-4-26","16:12:35","25","75","3","9","10","40","30","120","62","20","[""White""]","No","Male","2845872","null","null","","","","clear_screen","","","","","","","","","","","","","","","","","","","","","","","","","",""
"","","","","","canvas-keyboard-response","89","1282800","0.0-12.0-2.15","2d_cat_multi_stim_exp1","2022-4-26","16:12:35","25","75","3","9","10","40","30","120","62","20","[""White""]","No","Male","2845872","906","u","learn","","","learn_trial","30","80","out","1","0","","","","","","","","","","","","","","","","","","","","",""
"","","","","","canvas-keyboard-response","90","1283810","0.0-12.0-3.15","2d_cat_multi_stim_exp1","2022-4-26","16:12:35","25","75","3","9","10","40","30","120","62","20","[""White""]","No","Male","2845872","null","null","learn_feedback","","","learn_feedback","30","80","out","","","","","","","","","","","","","","","","","","","","","","",""
"","","","","","canvas-keyboard-response","91","1283872","0.0-12.0-4.15","2d_cat_multi_stim_exp1","2022-4-26","16:12:35","25","75","3","9","10","40","30","120","62","20","[""White""]","No","Male","2845872","null","null","","","","clear_screen","","","","","","","","","","","","","","","","","","","","","","","","","",""
"","","","","","canvas-keyboard-response","92","1284380","0.0-12.0-0.16","2d_cat_multi_stim_exp1","2022-4-26","16:12:35","25","75","3","9","10","40","30","120","62","20","[""White""]","No","Male","2845872","null","null","","","","fixation","","","","","","","","","","","","","","","","","","","","","","","","","",""
"","","","","","canvas-keyboard-response","93","1284889","0.0-12.0-1.16","2d_cat_multi_stim_exp1","2022-4-26","16:12:35","25","75","3","9","10","40","30","120","62","20","[""White""]","No","Male","2845872","null","null","","","","clear_screen","","","","","","","","","","","","","","","","","","","","","","","","","",""
"","","","","","canvas-keyboard-response","94","1286936","0.0-12.0-2.16","2d_cat_multi_stim_exp1","2022-4-26","16:12:35","25","75","3","9","10","40","30","120","62","20","[""White""]","No","Male","2845872","2037","u","learn","","","learn_trial","23.3333","90","out","1","0","","","","","","","","","","","","","","","","","","","","",""
"","","","","","canvas-keyboard-response","95","1287945","0.0-12.0-3.16","2d_cat_multi_stim_exp1","2022-4-26","16:12:35","25","75","3","9","10","40","30","120","62","20","[""White""]","No","Male","2845872","null","null","learn_feedback","","","learn_feedback","23.3333","90","out","","","","","","","","","","","","","","","","","","","","","","",""
"","","","","","canvas-keyboard-response","96","1288004","0.0-12.0-4.16","2d_cat_multi_stim_exp1","2022-4-26","16:12:35","25","75","3","9","10","40","30","120","62","20","[""White""]","No","Male","2845872","null","null","","","","clear_screen","","","","","","","","","","","","","","","","","","","","","","","","","",""
"","","","","","canvas-keyboard-response","97","1288513","0.0-12.0-0.17","2d_cat_multi_stim_exp1","2022-4-26","16:12:35","25","75","3","9","10","40","30","120","62","20","[""White""]","No","Male","2845872","null","null","","","","fixation","","","","","","","","","","","","","","","","","","","","","","","","","",""
"","","","","","canvas-keyboard-response","98","1289022","0.0-12.0-1.17","2d_cat_multi_stim_exp1","2022-4-26","16:12:35","25","75","3","9","10","40","30","120","62","20","[""White""]","No","Male","2845872","null","null","","","","clear_screen","","","","","","","","","","","","","","","","","","","","","","","","","",""
"","","","","","canvas-keyboard-response","99","1289952","0.0-12.0-2.17","2d_cat_multi_stim_exp1","2022-4-26","16:12:35","25","75","3","9","10","40","30","120","62","20","[""White""]","No","Male","2845872","920","u","learn","","","learn_trial","25","75","in","1","1","","","","","","","","","","","","","","","","","","","","",""
"","","","","","canvas-keyboard-response","100","1290460","0.0-12.0-3.17","2d_cat_multi_stim_exp1","2022-4-26","16:12:35","25","75","3","9","10","40","30","120","62","20","[""White""]","No","Male","2845872","null","null","learn_feedback","","","learn_feedback","25","75","in","","","","","","","","","","","","","","","","","","","","","","",""
"","","","","","canvas-keyboard-response","101","1290520","0.0-12.0-4.17","2d_cat_multi_stim_exp1","2022-4-26","16:12:35","25","75","3","9","10","40","30","120","62","20","[""White""]","No","Male","2845872","null","null","","","","clear_screen","","","","","","","","","","","","","","","","","","","","","","","","","",""
"","","","","","canvas-keyboard-response","102","1291028","0.0-12.0-0.18","2d_cat_multi_stim_exp1","2022-4-26","16:12:35","25","75","3","9","10","40","30","120","62","20","[""White""]","No","Male","2845872","null","null","","","","fixation","","","","","","","","","","","","","","","","","","","","","","","","","",""
"","","","","","canvas-keyboard-response","103","1291537","0.0-12.0-1.18","2d_cat_multi_stim_exp1","2022-4-26","16:12:35","25","75","3","9","10","40","30","120","62","20","[""White""]","No","Male","2845872","null","null","","","","clear_screen","","","","","","","","","","","","","","","","","","","","","","","","","",""
"","","","","","canvas-keyboard-response","104","1292695","0.0-12.0-2.18","2d_cat_multi_stim_exp1","2022-4-26","16:12:35","25","75","3","9","10","40","30","120","62","20","[""White""]","No","Male","2845872","1150","u","learn","","","learn_trial","22.9268","68.4948","in","1","1","","","","","","","","","","","","","","","","","","","","",""
"","","","","","canvas-keyboard-response","105","1293206","0.0-12.0-3.18","2d_cat_multi_stim_exp1","2022-4-26","16:12:35","25","75","3","9","10","40","30","120","62","20","[""White""]","No","Male","2845872","null","null","learn_feedback","","","learn_feedback","22.9268","68.4948","in","","","","","","","","","","","","","","","","","","","","","","",""
"","","","","","canvas-keyboard-response","106","1293269","0.0-12.0-4.18","2d_cat_multi_stim_exp1","2022-4-26","16:12:35","25","75","3","9","10","40","30","120","62","20","[""White""]","No","Male","2845872","null","null","","","","clear_screen","","","","","","","","","","","","","","","","","","","","","","","","","",""
"","","","","","canvas-keyboard-response","107","1293778","0.0-12.0-0.19","2d_cat_multi_stim_exp1","2022-4-26","16:12:35","25","75","3","9","10","40","30","120","62","20","[""White""]","No","Male","2845872","null","null","","","","fixation","","","","","","","","","","","","","","","","","","","","","","","","","",""
"","","","","","canvas-keyboard-response","108","1294288","0.0-12.0-1.19","2d_cat_multi_stim_exp1","2022-4-26","16:12:35","25","75","3","9","10","40","30","120","62","20","[""White""]","No","Male","2845872","null","null","","","","clear_screen","","","","","","","","","","","","","","","","","","","","","","","","","",""
"","","","","","canvas-keyboard-response","109","1295080","0.0-12.0-2.19","2d_cat_multi_stim_exp1","2022-4-26","16:12:35","25","75","3","9","10","40","30","120","62","20","[""White""]","No","Male","2845872","782","i","learn","","","learn_trial","40","110","out","0","1","","","","","","","","","","","","","","","","","","","","",""
"","","","","","canvas-keyboard-response","110","1295589","0.0-12.0-3.19","2d_cat_multi_stim_exp1","2022-4-26","16:12:35","25","75","3","9","10","40","30","120","62","20","[""White""]","No","Male","2845872","null","null","learn_feedback","","","learn_feedback","40","110","out","","","","","","","","","","","","","","","","","","","","","","",""
"","","","","","canvas-keyboard-response","111","1295652","0.0-12.0-4.19","2d_cat_multi_stim_exp1","2022-4-26","16:12:35","25","75","3","9","10","40","30","120","62","20","[""White""]","No","Male","2845872","null","null","","","","clear_screen","","","","","","","","","","","","","","","","","","","","","","","","","",""
"","","","","","canvas-keyboard-response","112","1296160","0.0-12.0-0.20","2d_cat_multi_stim_exp1","2022-4-26","16:12:35","25","75","3","9","10","40","30","120","62","20","[""White""]","No","Male","2845872","null","null","","","","fixation","","","","","","","","","","","","","","","","","","","","","","","","","",""
"","","","","","canvas-keyboard-response","113","1296675","0.0-12.0-1.20","2d_cat_multi_stim_exp1","2022-4-26","16:12:35","25","75","3","9","10","40","30","120","62","20","[""White""]","No","Male","2845872","null","null","","","","clear_screen","","","","","","","","","","","","","","","","","","","","","","","","","",""
"","","","","","canvas-keyboard-response","114","1297640","0.0-12.0-2.20","2d_cat_multi_stim_exp1","2022-4-26","16:12:35","25","75","3","9","10","40","30","120","62","20","[""White""]","No","Male","2845872","956","u","learn","","","learn_trial","25","75","in","1","1","","","","","","","","","","","","","","","","","","","","",""
"","","","","","canvas-keyboard-response","115","1298151","0.0-12.0-3.20","2d_cat_multi_stim_exp1","2022-4-26","16:12:35","25","75","3","9","10","40","30","120","62","20","[""White""]","No","Male","2845872","null","null","learn_feedback","","","learn_feedback","25","75","in","","","","","","","","","","","","","","","","","","","","","","",""
"","","","","","canvas-keyboard-response","116","1298209","0.0-12.0-4.20","2d_cat_multi_stim_exp1","2022-4-26","16:12:35","25","75","3","9","10","40","30","120","62","20","[""White""]","No","Male","2845872","null","null","","","","clear_screen","","","","","","","","","","","","","","","","","","","","","","","","","",""
"","","","","","canvas-keyboard-response","117","1298717","0.0-12.0-0.21","2d_cat_multi_stim_exp1","2022-4-26","16:12:35","25","75","3","9","10","40","30","120","62","20","[""White""]","No","Male","2845872","null","null","","","","fixation","","","","","","","","","","","","","","","","","","","","","","","","","",""
"","","","","","canvas-keyboard-response","118","1299228","0.0-12.0-1.21","2d_cat_multi_stim_exp1","2022-4-26","16:12:35","25","75","3","9","10","40","30","120","62","20","[""White""]","No","Male","2845872","null","null","","","","clear_screen","","","","","","","","","","","","","","","","","","","","","","","","","",""
"","","","","","canvas-keyboard-response","119","1300056","0.0-12.0-2.21","2d_cat_multi_stim_exp1","2022-4-26","16:12:35","25","75","3","9","10","40","30","120","62","20","[""White""]","No","Male","2845872","818","i","learn","","","learn_trial","10","120","out","0","1","","","","","","","","","","","","","","","","","","","","",""
"","","","","","canvas-keyboard-response","120","1300564","0.0-12.0-3.21","2d_cat_multi_stim_exp1","2022-4-26","16:12:35","25","75","3","9","10","40","30","120","62","20","[""White""]","No","Male","2845872","null","null","learn_feedback","","","learn_feedback","10","120","out","","","","","","","","","","","","","","","","","","","","","","",""
"","","","","","canvas-keyboard-response","121","1300625","0.0-12.0-4.21","2d_cat_multi_stim_exp1","2022-4-26","16:12:35","25","75","3","9","10","40","30","120","62","20","[""White""]","No","Male","2845872","null","null","","","","clear_screen","","","","","","","","","","","","","","","","","","","","","","","","","",""
"","","","","","canvas-keyboard-response","122","1301136","0.0-12.0-0.22","2d_cat_multi_stim_exp1","2022-4-26","16:12:35","25","75","3","9","10","40","30","120","62","20","[""White""]","No","Male","2845872","null","null","","","","fixation","","","","","","","","","","","","","","","","","","","","","","","","","",""
"","","","","","canvas-keyboard-response","123","1301649","0.0-12.0-1.22","2d_cat_multi_stim_exp1","2022-4-26","16:12:35","25","75","3","9","10","40","30","120","62","20","[""White""]","No","Male","2845872","null","null","","","","clear_screen","","","","","","","","","","","","","","","","","","","","","","","","","",""
"","","","","","canvas-keyboard-response","124","1302663","0.0-12.0-2.22","2d_cat_multi_stim_exp1","2022-4-26","16:12:35","25","75","3","9","10","40","30","120","62","20","[""White""]","No","Male","2845872","1006","u","learn","","","learn_trial","27.8087","71.8376","in","1","1","","","","","","","","","","","","","","","","","","","","",""
"","","","","","canvas-keyboard-response","125","1303175","0.0-12.0-3.22","2d_cat_multi_stim_exp1","2022-4-26","16:12:35","25","75","3","9","10","40","30","120","62","20","[""White""]","No","Male","2845872","null","null","learn_feedback","","","learn_feedback","27.8087","71.8376","in","","","","","","","","","","","","","","","","","","","","","","",""
"","","","","","canvas-keyboard-response","126","1303239","0.0-12.0-4.22","2d_cat_multi_stim_exp1","2022-4-26","16:12:35","25","75","3","9","10","40","30","120","62","20","[""White""]","No","Male","2845872","null","null","","","","clear_screen","","","","","","","","","","","","","","","","","","","","","","","","","",""
"","","","","","canvas-keyboard-response","127","1303746","0.0-12.0-0.23","2d_cat_multi_stim_exp1","2022-4-26","16:12:35","25","75","3","9","10","40","30","120","62","20","[""White""]","No","Male","2845872","null","null","","","","fixation","","","","","","","","","","","","","","","","","","","","","","","","","",""
"","","","","","canvas-keyboard-response","128","1304259","0.0-12.0-1.23","2d_cat_multi_stim_exp1","2022-4-26","16:12:35","25","75","3","9","10","40","30","120","62","20","[""White""]","No","Male","2845872","null","null","","","","clear_screen","","","","","","","","","","","","","","","","","","","","","","","","","",""
"","","","","","canvas-keyboard-response","129","1305088","0.0-12.0-2.23","2d_cat_multi_stim_exp1","2022-4-26","16:12:35","25","75","3","9","10","40","30","120","62","20","[""White""]","No","Male","2845872","818","i","learn","","","learn_trial","10","60","out","0","1","","","","","","","","","","","","","","","","","","","","",""
"","","","","","canvas-keyboard-response","130","1305596","0.0-12.0-3.23","2d_cat_multi_stim_exp1","2022-4-26","16:12:35","25","75","3","9","10","40","30","120","62","20","[""White""]","No","Male","2845872","null","null","learn_feedback","","","learn_feedback","10","60","out","","","","","","","","","","","","","","","","","","","","","","",""
"","","","","","canvas-keyboard-response","131","1305660","0.0-12.0-4.23","2d_cat_multi_stim_exp1","2022-4-26","16:12:35","25","75","3","9","10","40","30","120","62","20","[""White""]","No","Male","2845872","null","null","","","","clear_screen","","","","","","","","","","","","","","","","","","","","","","","","","",""
"","","","","","canvas-keyboard-response","132","1306168","0.0-12.0-0.24","2d_cat_multi_stim_exp1","2022-4-26","16:12:35","25","75","3","9","10","40","30","120","62","20","[""White""]","No","Male","2845872","null","null","","","","fixation","","","","","","","","","","","","","","","","","","","","","","","","","",""
"","","","","","canvas-keyboard-response","133","1306679","0.0-12.0-1.24","2d_cat_multi_stim_exp1","2022-4-26","16:12:35","25","75","3","9","10","40","30","120","62","20","[""White""]","No","Male","2845872","null","null","","","","clear_screen","","","","","","","","","","","","","","","","","","","","","","","","","",""
"","","","","","canvas-keyboard-response","134","1307687","0.0-12.0-2.24","2d_cat_multi_stim_exp1","2022-4-26","16:12:35","25","75","3","9","10","40","30","120","62","20","[""White""]","No","Male","2845872","1000","u","learn","","","learn_trial","25","75","in","1","1","","","","","","","","","","","","","","","","","","","","",""
"","","","","","canvas-keyboard-response","135","1308196","0.0-12.0-3.24","2d_cat_multi_stim_exp1","2022-4-26","16:12:35","25","75","3","9","10","40","30","120","62","20","[""White""]","No","Male","2845872","null","null","learn_feedback","","","learn_feedback","25","75","in","","","","","","","","","","","","","","","","","","","","","","",""
"","","","","","canvas-keyboard-response","136","1308255","0.0-12.0-4.24","2d_cat_multi_stim_exp1","2022-4-26","16:12:35","25","75","3","9","10","40","30","120","62","20","[""White""]","No","Male","2845872","null","null","","","","clear_screen","","","","","","","","","","","","","","","","","","","","","","","","","",""
"","","","","","canvas-keyboard-response","137","1308763","0.0-12.0-0.25","2d_cat_multi_stim_exp1","2022-4-26","16:12:35","25","75","3","9","10","40","30","120","62","20","[""White""]","No","Male","2845872","null","null","","","","fixation","","","","","","","","","","","","","","","","","","","","","","","","","",""
"","","","","","canvas-keyboard-response","138","1309275","0.0-12.0-1.25","2d_cat_multi_stim_exp1","2022-4-26","16:12:35","25","75","3","9","10","40","30","120","62","20","[""White""]","No","Male","2845872","null","null","","","","clear_screen","","","","","","","","","","","","","","","","","","","","","","","","","",""
"","","","","","canvas-keyboard-response","139","1310296","0.0-12.0-2.25","2d_cat_multi_stim_exp1","2022-4-26","16:12:35","25","75","3","9","10","40","30","120","62","20","[""White""]","No","Male","2845872","1012","i","learn","","","learn_trial","33.3333","50","out","0","1","","","","","","","","","","","","","","","","","","","","",""
"","","","","","canvas-keyboard-response","140","1310804","0.0-12.0-3.25","2d_cat_multi_stim_exp1","2022-4-26","16:12:35","25","75","3","9","10","40","30","120","62","20","[""White""]","No","Male","2845872","null","null","learn_feedback","","","learn_feedback","33.3333","50","out","","","","","","","","","","","","","","","","","","","","","","",""
"","","","","","canvas-keyboard-response","141","1310867","0.0-12.0-4.25","2d_cat_multi_stim_exp1","2022-4-26","16:12:35","25","75","3","9","10","40","30","120","62","20","[""White""]","No","Male","2845872","null","null","","","","clear_screen","","","","","","","","","","","","","","","","","","","","","","","","","",""
"","","","","","canvas-keyboard-response","142","1311377","0.0-12.0-0.26","2d_cat_multi_stim_exp1","2022-4-26","16:12:35","25","75","3","9","10","40","30","120","62","20","[""White""]","No","Male","2845872","null","null","","","","fixation","","","","","","","","","","","","","","","","","","","","","","","","","",""
"","","","","","canvas-keyboard-response","143","1311888","0.0-12.0-1.26","2d_cat_multi_stim_exp1","2022-4-26","16:12:35","25","75","3","9","10","40","30","120","62","20","[""White""]","No","Male","2845872","null","null","","","","clear_screen","","","","","","","","","","","","","","","","","","","","","","","","","",""
"","","","","","canvas-keyboard-response","144","1313032","0.0-12.0-2.26","2d_cat_multi_stim_exp1","2022-4-26","16:12:35","25","75","3","9","10","40","30","120","62","20","[""White""]","No","Male","2845872","1134","u","learn","","","learn_trial","25","75","in","1","1","","","","","","","","","","","","","","","","","","","","",""
"","","","","","canvas-keyboard-response","145","1313540","0.0-12.0-3.26","2d_cat_multi_stim_exp1","2022-4-26","16:12:35","25","75","3","9","10","40","30","120","62","20","[""White""]","No","Male","2845872","null","null","learn_feedback","","","learn_feedback","25","75","in","","","","","","","","","","","","","","","","","","","","","","",""
"","","","","","canvas-keyboard-response","146","1313600","0.0-12.0-4.26","2d_cat_multi_stim_exp1","2022-4-26","16:12:35","25","75","3","9","10","40","30","120","62","20","[""White""]","No","Male","2845872","null","null","","","","clear_screen","","","","","","","","","","","","","","","","","","","","","","","","","",""
"","","","","","canvas-keyboard-response","147","1314110","0.0-12.0-0.27","2d_cat_multi_stim_exp1","2022-4-26","16:12:35","25","75","3","9","10","40","30","120","62","20","[""White""]","No","Male","2845872","null","null","","","","fixation","","","","","","","","","","","","","","","","","","","","","","","","","",""
"","","","","","canvas-keyboard-response","148","1314624","0.0-12.0-1.27","2d_cat_multi_stim_exp1","2022-4-26","16:12:35","25","75","3","9","10","40","30","120","62","20","[""White""]","No","Male","2845872","null","null","","","","clear_screen","","","","","","","","","","","","","","","","","","","","","","","","","",""
"","","","","","canvas-keyboard-response","149","1315512","0.0-12.0-2.27","2d_cat_multi_stim_exp1","2022-4-26","16:12:35","25","75","3","9","10","40","30","120","62","20","[""White""]","No","Male","2845872","878","u","learn","","","learn_trial","25","75","in","1","1","","","","","","","","","","","","","","","","","","","","",""
"","","","","","canvas-keyboard-response","150","1316022","0.0-12.0-3.27","2d_cat_multi_stim_exp1","2022-4-26","16:12:35","25","75","3","9","10","40","30","120","62","20","[""White""]","No","Male","2845872","null","null","learn_feedback","","","learn_feedback","25","75","in","","","","","","","","","","","","","","","","","","","","","","",""
"","","","","","canvas-keyboard-response","151","1316082","0.0-12.0-4.27","2d_cat_multi_stim_exp1","2022-4-26","16:12:35","25","75","3","9","10","40","30","120","62","20","[""White""]","No","Male","2845872","null","null","","","","clear_screen","","","","","","","","","","","","","","","","","","","","","","","","","",""
"","","","","","canvas-keyboard-response","152","1316595","0.0-12.0-0.28","2d_cat_multi_stim_exp1","2022-4-26","16:12:35","25","75","3","9","10","40","30","120","62","20","[""White""]","No","Male","2845872","null","null","","","","fixation","","","","","","","","","","","","","","","","","","","","","","","","","",""
"","","","","","canvas-keyboard-response","153","1317107","0.0-12.0-1.28","2d_cat_multi_stim_exp1","2022-4-26","16:12:35","25","75","3","9","10","40","30","120","62","20","[""White""]","No","Male","2845872","null","null","","","","clear_screen","","","","","","","","","","","","","","","","","","","","","","","","","",""
"","","","","","canvas-keyboard-response","154","1317984","0.0-12.0-2.28","2d_cat_multi_stim_exp1","2022-4-26","16:12:35","25","75","3","9","10","40","30","120","62","20","[""White""]","No","Male","2845872","865","i","learn","","","learn_trial","40","90","out","0","1","","","","","","","","","","","","","","","","","","","","",""
"","","","","","canvas-keyboard-response","155","1318495","0.0-12.0-3.28","2d_cat_multi_stim_exp1","2022-4-26","16:12:35","25","75","3","9","10","40","30","120","62","20","[""White""]","No","Male","2845872","null","null","learn_feedback","","","learn_feedback","40","90","out","","","","","","","","","","","","","","","","","","","","","","",""
"","","","","","canvas-keyboard-response","156","1318556","0.0-12.0-4.28","2d_cat_multi_stim_exp1","2022-4-26","16:12:35","25","75","3","9","10","40","30","120","62","20","[""White""]","No","Male","2845872","null","null","","","","clear_screen","","","","","","","","","","","","","","","","","","","","","","","","","",""
"","","","","","canvas-keyboard-response","157","1319066","0.0-12.0-0.29","2d_cat_multi_stim_exp1","2022-4-26","16:12:35","25","75","3","9","10","40","30","120","62","20","[""White""]","No","Male","2845872","null","null","","","","fixation","","","","","","","","","","","","","","","","","","","","","","","","","",""
"","","","","","canvas-keyboard-response","158","1319579","0.0-12.0-1.29","2d_cat_multi_stim_exp1","2022-4-26","16:12:35","25","75","3","9","10","40","30","120","62","20","[""White""]","No","Male","2845872","null","null","","","","clear_screen","","","","","","","","","","","","","","","","","","","","","","","","","",""
"","","","","","canvas-keyboard-response","159","1321032","0.0-12.0-2.29","2d_cat_multi_stim_exp1","2022-4-26","16:12:35","25","75","3","9","10","40","30","120","62","20","[""White""]","No","Male","2845872","1445","u","learn","","","learn_trial","25","75","in","1","1","","","","","","","","","","","","","","","","","","","","",""
"","","","","","canvas-keyboard-response","160","1321542","0.0-12.0-3.29","2d_cat_multi_stim_exp1","2022-4-26","16:12:35","25","75","3","9","10","40","30","120","62","20","[""White""]","No","Male","2845872","null","null","learn_feedback","","","learn_feedback","25","75","in","","","","","","","","","","","","","","","","","","","","","","",""
"","","","","","canvas-keyboard-response","161","1321603","0.0-12.0-4.29","2d_cat_multi_stim_exp1","2022-4-26","16:12:35","25","75","3","9","10","40","30","120","62","20","[""White""]","No","Male","2845872","null","null","","","","clear_screen","","","","","","","","","","","","","","","","","","","","","","","","","",""
"","","","","","canvas-keyboard-response","162","1322112","0.0-12.0-0.30","2d_cat_multi_stim_exp1","2022-4-26","16:12:35","25","75","3","9","10","40","30","120","62","20","[""White""]","No","Male","2845872","null","null","","","","fixation","","","","","","","","","","","","","","","","","","","","","","","","","",""
"","","","","","canvas-keyboard-response","163","1322623","0.0-12.0-1.30","2d_cat_multi_stim_exp1","2022-4-26","16:12:35","25","75","3","9","10","40","30","120","62","20","[""White""]","No","Male","2845872","null","null","","","","clear_screen","","","","","","","","","","","","","","","","","","","","","","","","","",""
"","","","","","canvas-keyboard-response","164","1323544","0.0-12.0-2.30","2d_cat_multi_stim_exp1","2022-4-26","16:12:35","25","75","3","9","10","40","30","120","62","20","[""White""]","No","Male","2845872","913","i","learn","","","learn_trial","36.6667","70","out","0","1","","","","","","","","","","","","","","","","","","","","",""
"","","","","","canvas-keyboard-response","165","1324052","0.0-12.0-3.30","2d_cat_multi_stim_exp1","2022-4-26","16:12:35","25","75","3","9","10","40","30","120","62","20","[""White""]","No","Male","2845872","null","null","learn_feedback","","","learn_feedback","36.6667","70","out","","","","","","","","","","","","","","","","","","","","","","",""
"","","","","","canvas-keyboard-response","166","1324114","0.0-12.0-4.30","2d_cat_multi_stim_exp1","2022-4-26","16:12:35","25","75","3","9","10","40","30","120","62","20","[""White""]","No","Male","2845872","null","null","","","","clear_screen","","","","","","","","","","","","","","","","","","","","","","","","","",""
"","","","","","canvas-keyboard-response","167","1324624","0.0-12.0-0.31","2d_cat_multi_stim_exp1","2022-4-26","16:12:35","25","75","3","9","10","40","30","120","62","20","[""White""]","No","Male","2845872","null","null","","","","fixation","","","","","","","","","","","","","","","","","","","","","","","","","",""
"","","","","","canvas-keyboard-response","168","1325137","0.0-12.0-1.31","2d_cat_multi_stim_exp1","2022-4-26","16:12:35","25","75","3","9","10","40","30","120","62","20","[""White""]","No","Male","2845872","null","null","","","","clear_screen","","","","","","","","","","","","","","","","","","","","","","","","","",""
"","","","","","canvas-keyboard-response","169","1326241","0.0-12.0-2.31","2d_cat_multi_stim_exp1","2022-4-26","16:12:35","25","75","3","9","10","40","30","120","62","20","[""White""]","No","Male","2845872","1093","i","learn","","","learn_trial","26.6667","100","out","0","1","","","","","","","","","","","","","","","","","","","","",""
"","","","","","canvas-keyboard-response","170","1326752","0.0-12.0-3.31","2d_cat_multi_stim_exp1","2022-4-26","16:12:35","25","75","3","9","10","40","30","120","62","20","[""White""]","No","Male","2845872","null","null","learn_feedback","","","learn_feedback","26.6667","100","out","","","","","","","","","","","","","","","","","","","","","","",""
"","","","","","canvas-keyboard-response","171","1326811","0.0-12.0-4.31","2d_cat_multi_stim_exp1","2022-4-26","16:12:35","25","75","3","9","10","40","30","120","62","20","[""White""]","No","Male","2845872","null","null","","","","clear_screen","","","","","","","","","","","","","","","","","","","","","","","","","",""
"","","","","","canvas-keyboard-response","172","1327321","0.0-12.0-0.32","2d_cat_multi_stim_exp1","2022-4-26","16:12:35","25","75","3","9","10","40","30","120","62","20","[""White""]","No","Male","2845872","null","null","","","","fixation","","","","","","","","","","","","","","","","","","","","","","","","","",""
"","","","","","canvas-keyboard-response","173","1327830","0.0-12.0-1.32","2d_cat_multi_stim_exp1","2022-4-26","16:12:35","25","75","3","9","10","40","30","120","62","20","[""White""]","No","Male","2845872","null","null","","","","clear_screen","","","","","","","","","","","","","","","","","","","","","","","","","",""
"","","","","","canvas-keyboard-response","174","1328576","0.0-12.0-2.32","2d_cat_multi_stim_exp1","2022-4-26","16:12:35","25","75","3","9","10","40","30","120","62","20","[""White""]","No","Male","2845872","735","i","learn","","","learn_trial","13.3333","50","out","0","1","","","","","","","","","","","","","","","","","","","","",""
"","","","","","canvas-keyboard-response","175","1329088","0.0-12.0-3.32","2d_cat_multi_stim_exp1","2022-4-26","16:12:35","25","75","3","9","10","40","30","120","62","20","[""White""]","No","Male","2845872","null","null","learn_feedback","","","learn_feedback","13.3333","50","out","","","","","","","","","","","","","","","","","","","","","","",""
"","","","","","canvas-keyboard-response","176","1329148","0.0-12.0-4.32","2d_cat_multi_stim_exp1","2022-4-26","16:12:35","25","75","3","9","10","40","30","120","62","20","[""White""]","No","Male","2845872","null","null","","","","clear_screen","","","","","","","","","","","","","","","","","","","","","","","","","",""
"","","","","","canvas-keyboard-response","177","1329657","0.0-12.0-0.33","2d_cat_multi_stim_exp1","2022-4-26","16:12:35","25","75","3","9","10","40","30","120","62","20","[""White""]","No","Male","2845872","null","null","","","","fixation","","","","","","","","","","","","","","","","","","","","","","","","","",""
"","","","","","canvas-keyboard-response","178","1330167","0.0-12.0-1.33","2d_cat_multi_stim_exp1","2022-4-26","16:12:35","25","75","3","9","10","40","30","120","62","20","[""White""]","No","Male","2845872","null","null","","","","clear_screen","","","","","","","","","","","","","","","","","","","","","","","","","",""
"","","","","","canvas-keyboard-response","179","1330904","0.0-12.0-2.33","2d_cat_multi_stim_exp1","2022-4-26","16:12:35","25","75","3","9","10","40","30","120","62","20","[""White""]","No","Male","2845872","725","u","learn","","","learn_trial","23.3333","70","out","1","0","","","","","","","","","","","","","","","","","","","","",""
"","","","","","canvas-keyboard-response","180","1331914","0.0-12.0-3.33","2d_cat_multi_stim_exp1","2022-4-26","16:12:35","25","75","3","9","10","40","30","120","62","20","[""White""]","No","Male","2845872","null","null","learn_feedback","","","learn_feedback","23.3333","70","out","","","","","","","","","","","","","","","","","","","","","","",""
"","","","","","canvas-keyboard-response","181","1331976","0.0-12.0-4.33","2d_cat_multi_stim_exp1","2022-4-26","16:12:35","25","75","3","9","10","40","30","120","62","20","[""White""]","No","Male","2845872","null","null","","","","clear_screen","","","","","","","","","","","","","","","","","","","","","","","","","",""
"","","","","","canvas-keyboard-response","182","1332486","0.0-12.0-0.34","2d_cat_multi_stim_exp1","2022-4-26","16:12:35","25","75","3","9","10","40","30","120","62","20","[""White""]","No","Male","2845872","null","null","","","","fixation","","","","","","","","","","","","","","","","","","","","","","","","","",""
"","","","","","canvas-keyboard-response","183","1332999","0.0-12.0-1.34","2d_cat_multi_stim_exp1","2022-4-26","16:12:35","25","75","3","9","10","40","30","120","62","20","[""White""]","No","Male","2845872","null","null","","","","clear_screen","","","","","","","","","","","","","","","","","","","","","","","","","",""
"","","","","","canvas-keyboard-response","184","1334600","0.0-12.0-2.34","2d_cat_multi_stim_exp1","2022-4-26","16:12:35","25","75","3","9","10","40","30","120","62","20","[""White""]","No","Male","2845872","1591","u","learn","","","learn_trial","25","75","in","1","1","","","","","","","","","","","","","","","","","","","","",""
"","","","","","canvas-keyboard-response","185","1335109","0.0-12.0-3.34","2d_cat_multi_stim_exp1","2022-4-26","16:12:35","25","75","3","9","10","40","30","120","62","20","[""White""]","No","Male","2845872","null","null","learn_feedback","","","learn_feedback","25","75","in","","","","","","","","","","","","","","","","","","","","","","",""
"","","","","","canvas-keyboard-response","186","1335171","0.0-12.0-4.34","2d_cat_multi_stim_exp1","2022-4-26","16:12:35","25","75","3","9","10","40","30","120","62","20","[""White""]","No","Male","2845872","null","null","","","","clear_screen","","","","","","","","","","","","","","","","","","","","","","","","","",""
"","","","","","canvas-keyboard-response","187","1335681","0.0-12.0-0.35","2d_cat_multi_stim_exp1","2022-4-26","16:12:35","25","75","3","9","10","40","30","120","62","20","[""White""]","No","Male","2845872","null","null","","","","fixation","","","","","","","","","","","","","","","","","","","","","","","","","",""
"","","","","","canvas-keyboard-response","188","1336194","0.0-12.0-1.35","2d_cat_multi_stim_exp1","2022-4-26","16:12:35","25","75","3","9","10","40","30","120","62","20","[""White""]","No","Male","2845872","null","null","","","","clear_screen","","","","","","","","","","","","","","","","","","","","","","","","","",""
"","","","","","canvas-keyboard-response","189","1337344","0.0-12.0-2.35","2d_cat_multi_stim_exp1","2022-4-26","16:12:35","25","75","3","9","10","40","30","120","62","20","[""White""]","No","Male","2845872","1141","u","learn","","","learn_trial","25","75","in","1","1","","","","","","","","","","","","","","","","","","","","",""
"","","","","","canvas-keyboard-response","190","1337853","0.0-12.0-3.35","2d_cat_multi_stim_exp1","2022-4-26","16:12:35","25","75","3","9","10","40","30","120","62","20","[""White""]","No","Male","2845872","null","null","learn_feedback","","","learn_feedback","25","75","in","","","","","","","","","","","","","","","","","","","","","","",""
"","","","","","canvas-keyboard-response","191","1337912","0.0-12.0-4.35","2d_cat_multi_stim_exp1","2022-4-26","16:12:35","25","75","3","9","10","40","30","120","62","20","[""White""]","No","Male","2845872","null","null","","","","clear_screen","","","","","","","","","","","","","","","","","","","","","","","","","",""
"","","","","","canvas-keyboard-response","192","1338422","0.0-12.0-0.36","2d_cat_multi_stim_exp1","2022-4-26","16:12:35","25","75","3","9","10","40","30","120","62","20","[""White""]","No","Male","2845872","null","null","","","","fixation","","","","","","","","","","","","","","","","","","","","","","","","","",""
"","","","","","canvas-keyboard-response","193","1338934","0.0-12.0-1.36","2d_cat_multi_stim_exp1","2022-4-26","16:12:35","25","75","3","9","10","40","30","120","62","20","[""White""]","No","Male","2845872","null","null","","","","clear_screen","","","","","","","","","","","","","","","","","","","","","","","","","",""
"","","","","","canvas-keyboard-response","194","1339744","0.0-12.0-2.36","2d_cat_multi_stim_exp1","2022-4-26","16:12:35","25","75","3","9","10","40","30","120","62","20","[""White""]","No","Male","2845872","799","u","learn","","","learn_trial","25","75","in","1","1","","","","","","","","","","","","","","","","","","","","",""
"","","","","","canvas-keyboard-response","195","1340254","0.0-12.0-3.36","2d_cat_multi_stim_exp1","2022-4-26","16:12:35","25","75","3","9","10","40","30","120","62","20","[""White""]","No","Male","2845872","null","null","learn_feedback","","","learn_feedback","25","75","in","","","","","","","","","","","","","","","","","","","","","","",""
"","","","","","canvas-keyboard-response","196","1340313","0.0-12.0-4.36","2d_cat_multi_stim_exp1","2022-4-26","16:12:35","25","75","3","9","10","40","30","120","62","20","[""White""]","No","Male","2845872","null","null","","","","clear_screen","","","","","","","","","","","","","","","","","","","","","","","","","",""
"","","","","","canvas-keyboard-response","197","1340822","0.0-12.0-0.37","2d_cat_multi_stim_exp1","2022-4-26","16:12:35","25","75","3","9","10","40","30","120","62","20","[""White""]","No","Male","2845872","null","null","","","","fixation","","","","","","","","","","","","","","","","","","","","","","","","","",""
"","","","","","canvas-keyboard-response","198","1341334","0.0-12.0-1.37","2d_cat_multi_stim_exp1","2022-4-26","16:12:35","25","75","3","9","10","40","30","120","62","20","[""White""]","No","Male","2845872","null","null","","","","clear_screen","","","","","","","","","","","","","","","","","","","","","","","","","",""
"","","","","","canvas-keyboard-response","199","1342312","0.0-12.0-2.37","2d_cat_multi_stim_exp1","2022-4-26","16:12:35","25","75","3","9","10","40","30","120","62","20","[""White""]","No","Male","2845872","967","i","learn","","","learn_trial","20.7574","87.7279","in","0","0","","","","","","","","","","","","","","","","","","","","",""
"","","","","","canvas-keyboard-response","200","1343323","0.0-12.0-3.37","2d_cat_multi_stim_exp1","2022-4-26","16:12:35","25","75","3","9","10","40","30","120","62","20","[""White""]","No","Male","2845872","null","null","learn_feedback","","","learn_feedback","20.7574","87.7279","in","","","","","","","","","","","","","","","","","","","","","","",""
"","","","","","canvas-keyboard-response","201","1343383","0.0-12.0-4.37","2d_cat_multi_stim_exp1","2022-4-26","16:12:35","25","75","3","9","10","40","30","120","62","20","[""White""]","No","Male","2845872","null","null","","","","clear_screen","","","","","","","","","","","","","","","","","","","","","","","","","",""
"","","","","","canvas-keyboard-response","202","1343893","0.0-12.0-0.38","2d_cat_multi_stim_exp1","2022-4-26","16:12:35","25","75","3","9","10","40","30","120","62","20","[""White""]","No","Male","2845872","null","null","","","","fixation","","","","","","","","","","","","","","","","","","","","","","","","","",""
"","","","","","canvas-keyboard-response","203","1344404","0.0-12.0-1.38","2d_cat_multi_stim_exp1","2022-4-26","16:12:35","25","75","3","9","10","40","30","120","62","20","[""White""]","No","Male","2845872","null","null","","","","clear_screen","","","","","","","","","","","","","","","","","","","","","","","","","",""
"","","","","","canvas-keyboard-response","204","1345287","0.0-12.0-2.38","2d_cat_multi_stim_exp1","2022-4-26","16:12:35","25","75","3","9","10","40","30","120","62","20","[""White""]","No","Male","2845872","875","i","learn","","","learn_trial","23.3333","110","out","0","1","","","","","","","","","","","","","","","","","","","","",""
"","","","","","canvas-keyboard-response","205","1345797","0.0-12.0-3.38","2d_cat_multi_stim_exp1","2022-4-26","16:12:35","25","75","3","9","10","40","30","120","62","20","[""White""]","No","Male","2845872","null","null","learn_feedback","","","learn_feedback","23.3333","110","out","","","","","","","","","","","","","","","","","","","","","","",""
"","","","","","canvas-keyboard-response","206","1345859","0.0-12.0-4.38","2d_cat_multi_stim_exp1","2022-4-26","16:12:35","25","75","3","9","10","40","30","120","62","20","[""White""]","No","Male","2845872","null","null","","","","clear_screen","","","","","","","","","","","","","","","","","","","","","","","","","",""
"","","","","","canvas-keyboard-response","207","1346368","0.0-12.0-0.39","2d_cat_multi_stim_exp1","2022-4-26","16:12:35","25","75","3","9","10","40","30","120","62","20","[""White""]","No","Male","2845872","null","null","","","","fixation","","","","","","","","","","","","","","","","","","","","","","","","","",""
"","","","","","canvas-keyboard-response","208","1346877","0.0-12.0-1.39","2d_cat_multi_stim_exp1","2022-4-26","16:12:35","25","75","3","9","10","40","30","120","62","20","[""White""]","No","Male","2845872","null","null","","","","clear_screen","","","","","","","","","","","","","","","","","","","","","","","","","",""
"","","","","","canvas-keyboard-response","209","1347767","0.0-12.0-2.39","2d_cat_multi_stim_exp1","2022-4-26","16:12:35","25","75","3","9","10","40","30","120","62","20","[""White""]","No","Male","2845872","882","i","learn","","","learn_trial","40","120","out","0","1","","","","","","","","","","","","","","","","","","","","",""
"","","","","","canvas-keyboard-response","210","1348278","0.0-12.0-3.39","2d_cat_multi_stim_exp1","2022-4-26","16:12:35","25","75","3","9","10","40","30","120","62","20","[""White""]","No","Male","2845872","null","null","learn_feedback","","","learn_feedback","40","120","out","","","","","","","","","","","","","","","","","","","","","","",""
"","","","","","canvas-keyboard-response","211","1348338","0.0-12.0-4.39","2d_cat_multi_stim_exp1","2022-4-26","16:12:35","25","75","3","9","10","40","30","120","62","20","[""White""]","No","Male","2845872","null","null","","","","clear_screen","","","","","","","","","","","","","","","","","","","","","","","","","",""
"","","","","","canvas-keyboard-response","212","1348850","0.0-12.0-0.40","2d_cat_multi_stim_exp1","2022-4-26","16:12:35","25","75","3","9","10","40","30","120","62","20","[""White""]","No","Male","2845872","null","null","","","","fixation","","","","","","","","","","","","","","","","","","","","","","","","","",""
"","","","","","canvas-keyboard-response","213","1349363","0.0-12.0-1.40","2d_cat_multi_stim_exp1","2022-4-26","16:12:35","25","75","3","9","10","40","30","120","62","20","[""White""]","No","Male","2845872","null","null","","","","clear_screen","","","","","","","","","","","","","","","","","","","","","","","","","",""
"","","","","","canvas-keyboard-response","214","1350632","0.0-12.0-2.40","2d_cat_multi_stim_exp1","2022-4-26","16:12:35","25","75","3","9","10","40","30","120","62","20","[""White""]","No","Male","2845872","1257","u","learn","","","learn_trial","25","75","in","1","1","","","","","","","","","","","","","","","","","","","","",""
"","","","","","canvas-keyboard-response","215","1351145","0.0-12.0-3.40","2d_cat_multi_stim_exp1","2022-4-26","16:12:35","25","75","3","9","10","40","30","120","62","20","[""White""]","No","Male","2845872","null","null","learn_feedback","","","learn_feedback","25","75","in","","","","","","","","","","","","","","","","","","","","","","",""
"","","","","","canvas-keyboard-response","216","1351204","0.0-12.0-4.40","2d_cat_multi_stim_exp1","2022-4-26","16:12:35","25","75","3","9","10","40","30","120","62","20","[""White""]","No","Male","2845872","null","null","","","","clear_screen","","","","","","","","","","","","","","","","","","","","","","","","","",""
"","","","","","canvas-keyboard-response","217","1351713","0.0-12.0-0.41","2d_cat_multi_stim_exp1","2022-4-26","16:12:35","25","75","3","9","10","40","30","120","62","20","[""White""]","No","Male","2845872","null","null","","","","fixation","","","","","","","","","","","","","","","","","","","","","","","","","",""
"","","","","","canvas-keyboard-response","218","1352222","0.0-12.0-1.41","2d_cat_multi_stim_exp1","2022-4-26","16:12:35","25","75","3","9","10","40","30","120","62","20","[""White""]","No","Male","2845872","null","null","","","","clear_screen","","","","","","","","","","","","","","","","","","","","","","","","","",""
"","","","","","canvas-keyboard-response","219","1353040","0.0-12.0-2.41","2d_cat_multi_stim_exp1","2022-4-26","16:12:35","25","75","3","9","10","40","30","120","62","20","[""White""]","No","Male","2845872","809","i","learn","","","learn_trial","40","30","out","0","1","","","","","","","","","","","","","","","","","","","","",""
"","","","","","canvas-keyboard-response","220","1353549","0.0-12.0-3.41","2d_cat_multi_stim_exp1","2022-4-26","16:12:35","25","75","3","9","10","40","30","120","62","20","[""White""]","No","Male","2845872","null","null","learn_feedback","","","learn_feedback","40","30","out","","","","","","","","","","","","","","","","","","","","","","",""
"","","","","","canvas-keyboard-response","221","1353608","0.0-12.0-4.41","2d_cat_multi_stim_exp1","2022-4-26","16:12:35","25","75","3","9","10","40","30","120","62","20","[""White""]","No","Male","2845872","null","null","","","","clear_screen","","","","","","","","","","","","","","","","","","","","","","","","","",""
"","","","","","canvas-keyboard-response","222","1354116","0.0-12.0-0.42","2d_cat_multi_stim_exp1","2022-4-26","16:12:35","25","75","3","9","10","40","30","120","62","20","[""White""]","No","Male","2845872","null","null","","","","fixation","","","","","","","","","","","","","","","","","","","","","","","","","",""
"","","","","","canvas-keyboard-response","223","1354628","0.0-12.0-1.42","2d_cat_multi_stim_exp1","2022-4-26","16:12:35","25","75","3","9","10","40","30","120","62","20","[""White""]","No","Male","2845872","null","null","","","","clear_screen","","","","","","","","","","","","","","","","","","","","","","","","","",""
"","","","","","canvas-keyboard-response","224","1355615","0.0-12.0-2.42","2d_cat_multi_stim_exp1","2022-4-26","16:12:35","25","75","3","9","10","40","30","120","62","20","[""White""]","No","Male","2845872","978","u","learn","","","learn_trial","25","75","in","1","1","","","","","","","","","","","","","","","","","","","","",""
"","","","","","canvas-keyboard-response","225","1356122","0.0-12.0-3.42","2d_cat_multi_stim_exp1","2022-4-26","16:12:35","25","75","3","9","10","40","30","120","62","20","[""White""]","No","Male","2845872","null","null","learn_feedback","","","learn_feedback","25","75","in","","","","","","","","","","","","","","","","","","","","","","",""
"","","","","","canvas-keyboard-response","226","1356183","0.0-12.0-4.42","2d_cat_multi_stim_exp1","2022-4-26","16:12:35","25","75","3","9","10","40","30","120","62","20","[""White""]","No","Male","2845872","null","null","","","","clear_screen","","","","","","","","","","","","","","","","","","","","","","","","","",""
"","","","","","canvas-keyboard-response","227","1356692","0.0-12.0-0.43","2d_cat_multi_stim_exp1","2022-4-26","16:12:35","25","75","3","9","10","40","30","120","62","20","[""White""]","No","Male","2845872","null","null","","","","fixation","","","","","","","","","","","","","","","","","","","","","","","","","",""
"","","","","","canvas-keyboard-response","228","1357202","0.0-12.0-1.43","2d_cat_multi_stim_exp1","2022-4-26","16:12:35","25","75","3","9","10","40","30","120","62","20","[""White""]","No","Male","2845872","null","null","","","","clear_screen","","","","","","","","","","","","","","","","","","","","","","","","","",""
"","","","","","canvas-keyboard-response","229","1358456","0.0-12.0-2.43","2d_cat_multi_stim_exp1","2022-4-26","16:12:35","25","75","3","9","10","40","30","120","62","20","[""White""]","No","Male","2845872","1243","i","learn","","","learn_trial","22.5729","80.2901","in","0","0","","","","","","","","","","","","","","","","","","","","",""
"","","","","","canvas-keyboard-response","230","1359466","0.0-12.0-3.43","2d_cat_multi_stim_exp1","2022-4-26","16:12:35","25","75","3","9","10","40","30","120","62","20","[""White""]","No","Male","2845872","null","null","learn_feedback","","","learn_feedback","22.5729","80.2901","in","","","","","","","","","","","","","","","","","","","","","","",""
"","","","","","canvas-keyboard-response","231","1359527","0.0-12.0-4.43","2d_cat_multi_stim_exp1","2022-4-26","16:12:35","25","75","3","9","10","40","30","120","62","20","[""White""]","No","Male","2845872","null","null","","","","clear_screen","","","","","","","","","","","","","","","","","","","","","","","","","",""
"","","","","","canvas-keyboard-response","232","1360035","0.0-12.0-0.44","2d_cat_multi_stim_exp1","2022-4-26","16:12:35","25","75","3","9","10","40","30","120","62","20","[""White""]","No","Male","2845872","null","null","","","","fixation","","","","","","","","","","","","","","","","","","","","","","","","","",""
"","","","","","canvas-keyboard-response","233","1360547","0.0-12.0-1.44","2d_cat_multi_stim_exp1","2022-4-26","16:12:35","25","75","3","9","10","40","30","120","62","20","[""White""]","No","Male","2845872","null","null","","","","clear_screen","","","","","","","","","","","","","","","","","","","","","","","","","",""
"","","","","","canvas-keyboard-response","234","1361623","0.0-12.0-2.44","2d_cat_multi_stim_exp1","2022-4-26","16:12:35","25","75","3","9","10","40","30","120","62","20","[""White""]","No","Male","2845872","1069","i","learn","","","learn_trial","30","60","out","0","1","","","","","","","","","","","","","","","","","","","","",""
"","","","","","canvas-keyboard-response","235","1362131","0.0-12.0-3.44","2d_cat_multi_stim_exp1","2022-4-26","16:12:35","25","75","3","9","10","40","30","120","62","20","[""White""]","No","Male","2845872","null","null","learn_feedback","","","learn_feedback","30","60","out","","","","","","","","","","","","","","","","","","","","","","",""
"","","","","","canvas-keyboard-response","236","1362192","0.0-12.0-4.44","2d_cat_multi_stim_exp1","2022-4-26","16:12:35","25","75","3","9","10","40","30","120","62","20","[""White""]","No","Male","2845872","null","null","","","","clear_screen","","","","","","","","","","","","","","","","","","","","","","","","","",""
"","","","","","canvas-keyboard-response","237","1362700","0.0-12.0-0.45","2d_cat_multi_stim_exp1","2022-4-26","16:12:35","25","75","3","9","10","40","30","120","62","20","[""White""]","No","Male","2845872","null","null","","","","fixation","","","","","","","","","","","","","","","","","","","","","","","","","",""
"","","","","","canvas-keyboard-response","238","1363210","0.0-12.0-1.45","2d_cat_multi_stim_exp1","2022-4-26","16:12:35","25","75","3","9","10","40","30","120","62","20","[""White""]","No","Male","2845872","null","null","","","","clear_screen","","","","","","","","","","","","","","","","","","","","","","","","","",""
"","","","","","canvas-keyboard-response","239","1363896","0.0-12.0-2.45","2d_cat_multi_stim_exp1","2022-4-26","16:12:35","25","75","3","9","10","40","30","120","62","20","[""White""]","No","Male","2845872","677","i","learn","","","learn_trial","16.6667","30","out","0","1","","","","","","","","","","","","","","","","","","","","",""
"","","","","","canvas-keyboard-response","240","1364406","0.0-12.0-3.45","2d_cat_multi_stim_exp1","2022-4-26","16:12:35","25","75","3","9","10","40","30","120","62","20","[""White""]","No","Male","2845872","null","null","learn_feedback","","","learn_feedback","16.6667","30","out","","","","","","","","","","","","","","","","","","","","","","",""
"","","","","","canvas-keyboard-response","241","1364468","0.0-12.0-4.45","2d_cat_multi_stim_exp1","2022-4-26","16:12:35","25","75","3","9","10","40","30","120","62","20","[""White""]","No","Male","2845872","null","null","","","","clear_screen","","","","","","","","","","","","","","","","","","","","","","","","","",""
"","","","","","canvas-keyboard-response","242","1364977","0.0-12.0-0.46","2d_cat_multi_stim_exp1","2022-4-26","16:12:35","25","75","3","9","10","40","30","120","62","20","[""White""]","No","Male","2845872","null","null","","","","fixation","","","","","","","","","","","","","","","","","","","","","","","","","",""
"","","","","","canvas-keyboard-response","243","1365489","0.0-12.0-1.46","2d_cat_multi_stim_exp1","2022-4-26","16:12:35","25","75","3","9","10","40","30","120","62","20","[""White""]","No","Male","2845872","null","null","","","","clear_screen","","","","","","","","","","","","","","","","","","","","","","","","","",""
"","","","","","canvas-keyboard-response","244","1366463","0.0-12.0-2.46","2d_cat_multi_stim_exp1","2022-4-26","16:12:35","25","75","3","9","10","40","30","120","62","20","[""White""]","No","Male","2845872","966","u","learn","","","learn_trial","25","75","in","1","1","","","","","","","","","","","","","","","","","","","","",""
"","","","","","canvas-keyboard-response","245","1366974","0.0-12.0-3.46","2d_cat_multi_stim_exp1","2022-4-26","16:12:35","25","75","3","9","10","40","30","120","62","20","[""White""]","No","Male","2845872","null","null","learn_feedback","","","learn_feedback","25","75","in","","","","","","","","","","","","","","","","","","","","","","",""
"","","","","","canvas-keyboard-response","246","1367033","0.0-12.0-4.46","2d_cat_multi_stim_exp1","2022-4-26","16:12:35","25","75","3","9","10","40","30","120","62","20","[""White""]","No","Male","2845872","null","null","","","","clear_screen","","","","","","","","","","","","","","","","","","","","","","","","","",""
"","","","","","canvas-keyboard-response","247","1367545","0.0-12.0-0.47","2d_cat_multi_stim_exp1","2022-4-26","16:12:35","25","75","3","9","10","40","30","120","62","20","[""White""]","No","Male","2845872","null","null","","","","fixation","","","","","","","","","","","","","","","","","","","","","","","","","",""
"","","","","","canvas-keyboard-response","248","1368054","0.0-12.0-1.47","2d_cat_multi_stim_exp1","2022-4-26","16:12:35","25","75","3","9","10","40","30","120","62","20","[""White""]","No","Male","2845872","null","null","","","","clear_screen","","","","","","","","","","","","","","","","","","","","","","","","","",""
"","","","","","canvas-keyboard-response","249","1369408","0.0-12.0-2.47","2d_cat_multi_stim_exp1","2022-4-26","16:12:35","25","75","3","9","10","40","30","120","62","20","[""White""]","No","Male","2845872","1341","u","learn","","","learn_trial","27.9518","73.393","in","1","1","","","","","","","","","","","","","","","","","","","","",""
"","","","","","canvas-keyboard-response","250","1369917","0.0-12.0-3.47","2d_cat_multi_stim_exp1","2022-4-26","16:12:35","25","75","3","9","10","40","30","120","62","20","[""White""]","No","Male","2845872","null","null","learn_feedback","","","learn_feedback","27.9518","73.393","in","","","","","","","","","","","","","","","","","","","","","","",""
"","","","","","canvas-keyboard-response","251","1369976","0.0-12.0-4.47","2d_cat_multi_stim_exp1","2022-4-26","16:12:35","25","75","3","9","10","40","30","120","62","20","[""White""]","No","Male","2845872","null","null","","","","clear_screen","","","","","","","","","","","","","","","","","","","","","","","","","",""
"","","","","","canvas-keyboard-response","252","1370485","0.0-12.0-0.48","2d_cat_multi_stim_exp1","2022-4-26","16:12:35","25","75","3","9","10","40","30","120","62","20","[""White""]","No","Male","2845872","null","null","","","","fixation","","","","","","","","","","","","","","","","","","","","","","","","","",""
"","","","","","canvas-keyboard-response","253","1370995","0.0-12.0-1.48","2d_cat_multi_stim_exp1","2022-4-26","16:12:35","25","75","3","9","10","40","30","120","62","20","[""White""]","No","Male","2845872","null","null","","","","clear_screen","","","","","","","","","","","","","","","","","","","","","","","","","",""
"","","","","","canvas-keyboard-response","254","1372224","0.0-12.0-2.48","2d_cat_multi_stim_exp1","2022-4-26","16:12:35","25","75","3","9","10","40","30","120","62","20","[""White""]","No","Male","2845872","1218","u","learn","","","learn_trial","25","75","in","1","1","","","","","","","","","","","","","","","","","","","","",""
"","","","","","canvas-keyboard-response","255","1372733","0.0-12.0-3.48","2d_cat_multi_stim_exp1","2022-4-26","16:12:35","25","75","3","9","10","40","30","120","62","20","[""White""]","No","Male","2845872","null","null","learn_feedback","","","learn_feedback","25","75","in","","","","","","","","","","","","","","","","","","","","","","",""
"","","","","","canvas-keyboard-response","256","1372789","0.0-12.0-4.48","2d_cat_multi_stim_exp1","2022-4-26","16:12:35","25","75","3","9","10","40","30","120","62","20","[""White""]","No","Male","2845872","null","null","","","","clear_screen","","","","","","","","","","","","","","","","","","","","","","","","","",""
"","","","","","canvas-keyboard-response","257","1373298","0.0-12.0-0.49","2d_cat_multi_stim_exp1","2022-4-26","16:12:35","25","75","3","9","10","40","30","120","62","20","[""White""]","No","Male","2845872","null","null","","","","fixation","","","","","","","","","","","","","","","","","","","","","","","","","",""
"","","","","","canvas-keyboard-response","258","1373809","0.0-12.0-1.49","2d_cat_multi_stim_exp1","2022-4-26","16:12:35","25","75","3","9","10","40","30","120","62","20","[""White""]","No","Male","2845872","null","null","","","","clear_screen","","","","","","","","","","","","","","","","","","","","","","","","","",""
"","","","","","canvas-keyboard-response","259","1374976","0.0-12.0-2.49","2d_cat_multi_stim_exp1","2022-4-26","16:12:35","25","75","3","9","10","40","30","120","62","20","[""White""]","No","Male","2845872","1158","i","learn","","","learn_trial","26.6667","110","out","0","1","","","","","","","","","","","","","","","","","","","","",""
"","","","","","canvas-keyboard-response","260","1375487","0.0-12.0-3.49","2d_cat_multi_stim_exp1","2022-4-26","16:12:35","25","75","3","9","10","40","30","120","62","20","[""White""]","No","Male","2845872","null","null","learn_feedback","","","learn_feedback","26.6667","110","out","","","","","","","","","","","","","","","","","","","","","","",""
"","","","","","canvas-keyboard-response","261","1375547","0.0-12.0-4.49","2d_cat_multi_stim_exp1","2022-4-26","16:12:35","25","75","3","9","10","40","30","120","62","20","[""White""]","No","Male","2845872","null","null","","","","clear_screen","","","","","","","","","","","","","","","","","","","","","","","","","",""
"","","","","","canvas-keyboard-response","262","1376057","0.0-12.0-0.50","2d_cat_multi_stim_exp1","2022-4-26","16:12:35","25","75","3","9","10","40","30","120","62","20","[""White""]","No","Male","2845872","null","null","","","","fixation","","","","","","","","","","","","","","","","","","","","","","","","","",""
"","","","","","canvas-keyboard-response","263","1376570","0.0-12.0-1.50","2d_cat_multi_stim_exp1","2022-4-26","16:12:35","25","75","3","9","10","40","30","120","62","20","[""White""]","No","Male","2845872","null","null","","","","clear_screen","","","","","","","","","","","","","","","","","","","","","","","","","",""
"","","","","","canvas-keyboard-response","264","1377304","0.0-12.0-2.50","2d_cat_multi_stim_exp1","2022-4-26","16:12:35","25","75","3","9","10","40","30","120","62","20","[""White""]","No","Male","2845872","725","i","learn","","","learn_trial","23.3333","30","out","0","1","","","","","","","","","","","","","","","","","","","","",""
"","","","","","canvas-keyboard-response","265","1377815","0.0-12.0-3.50","2d_cat_multi_stim_exp1","2022-4-26","16:12:35","25","75","3","9","10","40","30","120","62","20","[""White""]","No","Male","2845872","null","null","learn_feedback","","","learn_feedback","23.3333","30","out","","","","","","","","","","","","","","","","","","","","","","",""
"","","","","","canvas-keyboard-response","266","1377875","0.0-12.0-4.50","2d_cat_multi_stim_exp1","2022-4-26","16:12:35","25","75","3","9","10","40","30","120","62","20","[""White""]","No","Male","2845872","null","null","","","","clear_screen","","","","","","","","","","","","","","","","","","","","","","","","","",""
"","","","","","canvas-keyboard-response","267","1378387","0.0-12.0-0.51","2d_cat_multi_stim_exp1","2022-4-26","16:12:35","25","75","3","9","10","40","30","120","62","20","[""White""]","No","Male","2845872","null","null","","","","fixation","","","","","","","","","","","","","","","","","","","","","","","","","",""
"","","","","","canvas-keyboard-response","268","1378896","0.0-12.0-1.51","2d_cat_multi_stim_exp1","2022-4-26","16:12:35","25","75","3","9","10","40","30","120","62","20","[""White""]","No","Male","2845872","null","null","","","","clear_screen","","","","","","","","","","","","","","","","","","","","","","","","","",""
"","","","","","canvas-keyboard-response","269","1379504","0.0-12.0-2.51","2d_cat_multi_stim_exp1","2022-4-26","16:12:35","25","75","3","9","10","40","30","120","62","20","[""White""]","No","Male","2845872","597","i","learn","","","learn_trial","10","30","out","0","1","","","","","","","","","","","","","","","","","","","","",""
"","","","","","canvas-keyboard-response","270","1380014","0.0-12.0-3.51","2d_cat_multi_stim_exp1","2022-4-26","16:12:35","25","75","3","9","10","40","30","120","62","20","[""White""]","No","Male","2845872","null","null","learn_feedback","","","learn_feedback","10","30","out","","","","","","","","","","","","","","","","","","","","","","",""
"","","","","","canvas-keyboard-response","271","1380078","0.0-12.0-4.51","2d_cat_multi_stim_exp1","2022-4-26","16:12:35","25","75","3","9","10","40","30","120","62","20","[""White""]","No","Male","2845872","null","null","","","","clear_screen","","","","","","","","","","","","","","","","","","","","","","","","","",""
"","","","","","canvas-keyboard-response","272","1380586","0.0-12.0-0.52","2d_cat_multi_stim_exp1","2022-4-26","16:12:35","25","75","3","9","10","40","30","120","62","20","[""White""]","No","Male","2845872","null","null","","","","fixation","","","","","","","","","","","","","","","","","","","","","","","","","",""
"","","","","","canvas-keyboard-response","273","1381099","0.0-12.0-1.52","2d_cat_multi_stim_exp1","2022-4-26","16:12:35","25","75","3","9","10","40","30","120","62","20","[""White""]","No","Male","2845872","null","null","","","","clear_screen","","","","","","","","","","","","","","","","","","","","","","","","","",""
"","","","","","canvas-keyboard-response","274","1381896","0.0-12.0-2.52","2d_cat_multi_stim_exp1","2022-4-26","16:12:35","25","75","3","9","10","40","30","120","62","20","[""White""]","No","Male","2845872","788","u","learn","","","learn_trial","28","75","in","1","1","","","","","","","","","","","","","","","","","","","","",""
"","","","","","canvas-keyboard-response","275","1382405","0.0-12.0-3.52","2d_cat_multi_stim_exp1","2022-4-26","16:12:35","25","75","3","9","10","40","30","120","62","20","[""White""]","No","Male","2845872","null","null","learn_feedback","","","learn_feedback","28","75","in","","","","","","","","","","","","","","","","","","","","","","",""
"","","","","","canvas-keyboard-response","276","1382466","0.0-12.0-4.52","2d_cat_multi_stim_exp1","2022-4-26","16:12:35","25","75","3","9","10","40","30","120","62","20","[""White""]","No","Male","2845872","null","null","","","","clear_screen","","","","","","","","","","","","","","","","","","","","","","","","","",""
"","","","","","canvas-keyboard-response","277","1382977","0.0-12.0-0.53","2d_cat_multi_stim_exp1","2022-4-26","16:12:35","25","75","3","9","10","40","30","120","62","20","[""White""]","No","Male","2845872","null","null","","","","fixation","","","","","","","","","","","","","","","","","","","","","","","","","",""
"","","","","","canvas-keyboard-response","278","1383490","0.0-12.0-1.53","2d_cat_multi_stim_exp1","2022-4-26","16:12:35","25","75","3","9","10","40","30","120","62","20","[""White""]","No","Male","2845872","null","null","","","","clear_screen","","","","","","","","","","","","","","","","","","","","","","","","","",""
"","","","","","canvas-keyboard-response","279","1384199","0.0-12.0-2.53","2d_cat_multi_stim_exp1","2022-4-26","16:12:35","25","75","3","9","10","40","30","120","62","20","[""White""]","No","Male","2845872","701","i","learn","","","learn_trial","36.6667","110","out","0","1","","","","","","","","","","","","","","","","","","","","",""
"","","","","","canvas-keyboard-response","280","1384712","0.0-12.0-3.53","2d_cat_multi_stim_exp1","2022-4-26","16:12:35","25","75","3","9","10","40","30","120","62","20","[""White""]","No","Male","2845872","null","null","learn_feedback","","","learn_feedback","36.6667","110","out","","","","","","","","","","","","","","","","","","","","","","",""
"","","","","","canvas-keyboard-response","281","1384769","0.0-12.0-4.53","2d_cat_multi_stim_exp1","2022-4-26","16:12:35","25","75","3","9","10","40","30","120","62","20","[""White""]","No","Male","2845872","null","null","","","","clear_screen","","","","","","","","","","","","","","","","","","","","","","","","","",""
"","","","","","canvas-keyboard-response","282","1385280","0.0-12.0-0.54","2d_cat_multi_stim_exp1","2022-4-26","16:12:35","25","75","3","9","10","40","30","120","62","20","[""White""]","No","Male","2845872","null","null","","","","fixation","","","","","","","","","","","","","","","","","","","","","","","","","",""
"","","","","","canvas-keyboard-response","283","1385792","0.0-12.0-1.54","2d_cat_multi_stim_exp1","2022-4-26","16:12:35","25","75","3","9","10","40","30","120","62","20","[""White""]","No","Male","2845872","null","null","","","","clear_screen","","","","","","","","","","","","","","","","","","","","","","","","","",""
"","","","","","canvas-keyboard-response","284","1387200","0.0-12.0-2.54","2d_cat_multi_stim_exp1","2022-4-26","16:12:35","25","75","3","9","10","40","30","120","62","20","[""White""]","No","Male","2845872","1394","i","learn","","","learn_trial","16.6667","110","out","0","1","","","","","","","","","","","","","","","","","","","","",""
"","","","","","canvas-keyboard-response","285","1387711","0.0-12.0-3.54","2d_cat_multi_stim_exp1","2022-4-26","16:12:35","25","75","3","9","10","40","30","120","62","20","[""White""]","No","Male","2845872","null","null","learn_feedback","","","learn_feedback","16.6667","110","out","","","","","","","","","","","","","","","","","","","","","","",""
"","","","","","canvas-keyboard-response","286","1387767","0.0-12.0-4.54","2d_cat_multi_stim_exp1","2022-4-26","16:12:35","25","75","3","9","10","40","30","120","62","20","[""White""]","No","Male","2845872","null","null","","","","clear_screen","","","","","","","","","","","","","","","","","","","","","","","","","",""
"","","","","","canvas-keyboard-response","287","1388280","0.0-12.0-0.55","2d_cat_multi_stim_exp1","2022-4-26","16:12:35","25","75","3","9","10","40","30","120","62","20","[""White""]","No","Male","2845872","null","null","","","","fixation","","","","","","","","","","","","","","","","","","","","","","","","","",""
"","","","","","canvas-keyboard-response","288","1388788","0.0-12.0-1.55","2d_cat_multi_stim_exp1","2022-4-26","16:12:35","25","75","3","9","10","40","30","120","62","20","[""White""]","No","Male","2845872","null","null","","","","clear_screen","","","","","","","","","","","","","","","","","","","","","","","","","",""
"","","","","","canvas-keyboard-response","289","1390239","0.0-12.0-2.55","2d_cat_multi_stim_exp1","2022-4-26","16:12:35","25","75","3","9","10","40","30","120","62","20","[""White""]","No","Male","2845872","1441","i","learn","","","learn_trial","25","57","in","0","0","","","","","","","","","","","","","","","","","","","","",""
"","","","","","canvas-keyboard-response","290","1391250","0.0-12.0-3.55","2d_cat_multi_stim_exp1","2022-4-26","16:12:35","25","75","3","9","10","40","30","120","62","20","[""White""]","No","Male","2845872","null","null","learn_feedback","","","learn_feedback","25","57","in","","","","","","","","","","","","","","","","","","","","","","",""
"","","","","","canvas-keyboard-response","291","1391314","0.0-12.0-4.55","2d_cat_multi_stim_exp1","2022-4-26","16:12:35","25","75","3","9","10","40","30","120","62","20","[""White""]","No","Male","2845872","null","null","","","","clear_screen","","","","","","","","","","","","","","","","","","","","","","","","","",""
"","","","","","canvas-keyboard-response","292","1391823","0.0-12.0-0.56","2d_cat_multi_stim_exp1","2022-4-26","16:12:35","25","75","3","9","10","40","30","120","62","20","[""White""]","No","Male","2845872","null","null","","","","fixation","","","","","","","","","","","","","","","","","","","","","","","","","",""
"","","","","","canvas-keyboard-response","293","1392335","0.0-12.0-1.56","2d_cat_multi_stim_exp1","2022-4-26","16:12:35","25","75","3","9","10","40","30","120","62","20","[""White""]","No","Male","2845872","null","null","","","","clear_screen","","","","","","","","","","","","","","","","","","","","","","","","","",""
"","","","","","canvas-keyboard-response","294","1393248","0.0-12.0-2.56","2d_cat_multi_stim_exp1","2022-4-26","16:12:35","25","75","3","9","10","40","30","120","62","20","[""White""]","No","Male","2845872","905","i","learn","","","learn_trial","30","40","out","0","1","","","","","","","","","","","","","","","","","","","","",""
"","","","","","canvas-keyboard-response","295","1393761","0.0-12.0-3.56","2d_cat_multi_stim_exp1","2022-4-26","16:12:35","25","75","3","9","10","40","30","120","62","20","[""White""]","No","Male","2845872","null","null","learn_feedback","","","learn_feedback","30","40","out","","","","","","","","","","","","","","","","","","","","","","",""
"","","","","","canvas-keyboard-response","296","1393821","0.0-12.0-4.56","2d_cat_multi_stim_exp1","2022-4-26","16:12:35","25","75","3","9","10","40","30","120","62","20","[""White""]","No","Male","2845872","null","null","","","","clear_screen","","","","","","","","","","","","","","","","","","","","","","","","","",""
"","","","","","canvas-keyboard-response","297","1394330","0.0-12.0-0.57","2d_cat_multi_stim_exp1","2022-4-26","16:12:35","25","75","3","9","10","40","30","120","62","20","[""White""]","No","Male","2845872","null","null","","","","fixation","","","","","","","","","","","","","","","","","","","","","","","","","",""
