"success","timeout","failed_images","failed_audio","failed_video","trial_type","trial_index","time_elapsed","internal_node_id","exp_name","date","time","angle_mean_in","radius_mean_in","angle_sd_in","radius_sd_in","angle_min_out","angle_max_out","radius_min_out","radius_max_out","sub_n","age","race","ethnicity","gender","exp_duration","rt","response","exp_trial_type","stimulus","view_history","screen_id","angle","radius","distribution","choice","correct","order","angle_a","radius_a","angle_b","radius_b","jkl_correct","transfer_trial_type","choice_set","abc_correct","tc_correct","tc_angle","tdc_a","tdc_b","tdc_c","pair","category_a","category_b","category_c","angle_c","radius_c","question_order"
"true","false","[]","[]","[]","preload","0","31","0.0-0.0","2d_cat_multi_stim_exp1","2022-4-21","14:52:32","25","75","3","9","10","40","30","120","51","19","[""Asian""]","No","Female","1711690","","","","","","","","","","","","","","","","","","","","","","","","","","","","","","","",""
"","","","","","survey-html-form","1","3014","0.0-1.0","2d_cat_multi_stim_exp1","2022-4-21","14:52:32","25","75","3","9","10","40","30","120","51","19","[""Asian""]","No","Female","1711690","2969","{""response"":""51""}","enter-sub-number","","","","","","","","","","","","","","","","","","","","","","","","","","","","",""
"true","","","","","fullscreen","2","4814","0.0-2.0","2d_cat_multi_stim_exp1","2022-4-21","14:52:32","25","75","3","9","10","40","30","120","51","19","[""Asian""]","No","Female","1711690","","","","","","","","","","","","","","","","","","","","","","","","","","","","","","","",""
"","","","","","image-button-response","3","38336","0.0-3.0","2d_cat_multi_stim_exp1","2022-4-21","14:52:32","25","75","3","9","10","40","30","120","51","19","[""Asian""]","No","Female","1711690","33514","0","","consent.png","","","","","","","","","","","","","","","","","","","","","","","","","","","",""
"","","","","","html-button-response","4","43616","0.0-4.0","2d_cat_multi_stim_exp1","2022-4-21","14:52:32","25","75","3","9","10","40","30","120","51","19","[""Asian""]","No","Female","1711690","5275","0","","<div style= ""font-size:25px;"" <p> <strong> Welcome to the experiment! </strong><br> <p style=""color:#8B0000; font-size:25px;""><strong> Please do NOT exit full screen until you are done with the experiment. </strong> </p><p style=""font-size:25px;color:#8B0000;""> <strong> The experiment will be canceled and your data will be lost <br> if you try to go back or refresh the page at any point during the experiment.</strong> </p><br><p> <strong> Thanks in advance for your contribution to our research! </strong></p>","","","","","","","","","","","","","","","","","","","","","","","","","","","",""
"","","","","","instructions","5","116318","0.0-5.0","2d_cat_multi_stim_exp1","2022-4-21","14:52:32","25","75","3","9","10","40","30","120","51","19","[""Asian""]","No","Female","1711690","72697","","","","[{""page_index"":0,""viewing_time"":8017},{""page_index"":1,""viewing_time"":1752},{""page_index"":2,""viewing_time"":10616},{""page_index"":3,""viewing_time"":52312}]","instructions_1","","","","","","","","","","","","","","","","","","","","","","","","","",""
"","","","","","instructions","6","119357","0.0-6.0","2d_cat_multi_stim_exp1","2022-4-21","14:52:32","25","75","3","9","10","40","30","120","51","19","[""Asian""]","No","Female","1711690","3035","","","","[{""page_index"":0,""viewing_time"":3035}]","Click to see the kinds of turtles that will appear in the study.","","","","","","","","","","","","","","","","","","","","","","","","","",""
"","","","","","canvas-keyboard-response","7","134379","0.0-7.0","2d_cat_multi_stim_exp1","2022-4-21","14:52:32","25","75","3","9","10","40","30","120","51","19","[""Asian""]","No","Female","1711690","null","null","","","","demo_range","","","","","","","","","","","","","","","","","","","","","","","","","",""
"","","","","","instructions","8","137198","0.0-8.0","2d_cat_multi_stim_exp1","2022-4-21","14:52:32","25","75","3","9","10","40","30","120","51","19","[""Asian""]","No","Female","1711690","2316","","","","[{""page_index"":0,""viewing_time"":2316}]","Click to see some turtles in the subspecies.","","","","","","","","","","","","","","","","","","","","","","","","","",""
"","","","","","canvas-keyboard-response","9","152220","0.0-9.0","2d_cat_multi_stim_exp1","2022-4-21","14:52:32","25","75","3","9","10","40","30","120","51","19","[""Asian""]","No","Female","1711690","null","null","","","","demo_in","","","","","","","","","","","","","","","","","","","","","","","","","",""
"","","","","","instructions","10","208932","0.0-10.0","2d_cat_multi_stim_exp1","2022-4-21","14:52:32","25","75","3","9","10","40","30","120","51","19","[""Asian""]","No","Female","1711690","56212","","","","[{""page_index"":0,""viewing_time"":17916},{""page_index"":1,""viewing_time"":29952},{""page_index"":2,""viewing_time"":8344}]","instructions_2","","","","","","","","","","","","","","","","","","","","","","","","","",""
"","","","","","instructions","11","210109","0.0-11.0","2d_cat_multi_stim_exp1","2022-4-21","14:52:32","25","75","3","9","10","40","30","120","51","19","[""Asian""]","No","Female","1711690","1174","","","","[{""page_index"":0,""viewing_time"":1173}]","Click to begin the first phase of the experiment.","","","","","","","","","","","","","","","","","","","","","","","","","",""
"","","","","","canvas-keyboard-response","12","210619","0.0-12.0-0.0","2d_cat_multi_stim_exp1","2022-4-21","14:52:32","25","75","3","9","10","40","30","120","51","19","[""Asian""]","No","Female","1711690","null","null","","","","fixation","","","","","","","","","","","","","","","","","","","","","","","","","",""
"","","","","","canvas-keyboard-response","13","211128","0.0-12.0-1.0","2d_cat_multi_stim_exp1","2022-4-21","14:52:32","25","75","3","9","10","40","30","120","51","19","[""Asian""]","No","Female","1711690","null","null","","","","clear_screen","","","","","","","","","","","","","","","","","","","","","","","","","",""
"","","","","","canvas-keyboard-response","14","215474","0.0-12.0-2.0","2d_cat_multi_stim_exp1","2022-4-21","14:52:32","25","75","3","9","10","40","30","120","51","19","[""Asian""]","No","Female","1711690","4335","u","learn","","","learn_trial","33.3333","80","out","1","0","","","","","","","","","","","","","","","","","","","","",""
"","","","","","canvas-keyboard-response","15","216487","0.0-12.0-3.0","2d_cat_multi_stim_exp1","2022-4-21","14:52:32","25","75","3","9","10","40","30","120","51","19","[""Asian""]","No","Female","1711690","null","null","learn_feedback","","","learn_feedback","33.3333","80","out","","","","","","","","","","","","","","","","","","","","","","",""
"","","","","","canvas-keyboard-response","16","216549","0.0-12.0-4.0","2d_cat_multi_stim_exp1","2022-4-21","14:52:32","25","75","3","9","10","40","30","120","51","19","[""Asian""]","No","Female","1711690","null","null","","","","clear_screen","","","","","","","","","","","","","","","","","","","","","","","","","",""
"","","","","","canvas-keyboard-response","17","217059","0.0-12.0-0.1","2d_cat_multi_stim_exp1","2022-4-21","14:52:32","25","75","3","9","10","40","30","120","51","19","[""Asian""]","No","Female","1711690","null","null","","","","fixation","","","","","","","","","","","","","","","","","","","","","","","","","",""
"","","","","","canvas-keyboard-response","18","217570","0.0-12.0-1.1","2d_cat_multi_stim_exp1","2022-4-21","14:52:32","25","75","3","9","10","40","30","120","51","19","[""Asian""]","No","Female","1711690","null","null","","","","clear_screen","","","","","","","","","","","","","","","","","","","","","","","","","",""
"","","","","","canvas-keyboard-response","19","220266","0.0-12.0-2.1","2d_cat_multi_stim_exp1","2022-4-21","14:52:32","25","75","3","9","10","40","30","120","51","19","[""Asian""]","No","Female","1711690","2685","u","learn","","","learn_trial","33.3333","40","out","1","0","","","","","","","","","","","","","","","","","","","","",""
"","","","","","canvas-keyboard-response","20","221275","0.0-12.0-3.1","2d_cat_multi_stim_exp1","2022-4-21","14:52:32","25","75","3","9","10","40","30","120","51","19","[""Asian""]","No","Female","1711690","null","null","learn_feedback","","","learn_feedback","33.3333","40","out","","","","","","","","","","","","","","","","","","","","","","",""
"","","","","","canvas-keyboard-response","21","221335","0.0-12.0-4.1","2d_cat_multi_stim_exp1","2022-4-21","14:52:32","25","75","3","9","10","40","30","120","51","19","[""Asian""]","No","Female","1711690","null","null","","","","clear_screen","","","","","","","","","","","","","","","","","","","","","","","","","",""
"","","","","","canvas-keyboard-response","22","221845","0.0-12.0-0.2","2d_cat_multi_stim_exp1","2022-4-21","14:52:32","25","75","3","9","10","40","30","120","51","19","[""Asian""]","No","Female","1711690","null","null","","","","fixation","","","","","","","","","","","","","","","","","","","","","","","","","",""
"","","","","","canvas-keyboard-response","23","222354","0.0-12.0-1.2","2d_cat_multi_stim_exp1","2022-4-21","14:52:32","25","75","3","9","10","40","30","120","51","19","[""Asian""]","No","Female","1711690","null","null","","","","clear_screen","","","","","","","","","","","","","","","","","","","","","","","","","",""
"","","","","","canvas-keyboard-response","24","225442","0.0-12.0-2.2","2d_cat_multi_stim_exp1","2022-4-21","14:52:32","25","75","3","9","10","40","30","120","51","19","[""Asian""]","No","Female","1711690","3078","i","learn","","","learn_trial","10","90","out","0","1","","","","","","","","","","","","","","","","","","","","",""
"","","","","","canvas-keyboard-response","25","225954","0.0-12.0-3.2","2d_cat_multi_stim_exp1","2022-4-21","14:52:32","25","75","3","9","10","40","30","120","51","19","[""Asian""]","No","Female","1711690","null","null","learn_feedback","","","learn_feedback","10","90","out","","","","","","","","","","","","","","","","","","","","","","",""
"","","","","","canvas-keyboard-response","26","226013","0.0-12.0-4.2","2d_cat_multi_stim_exp1","2022-4-21","14:52:32","25","75","3","9","10","40","30","120","51","19","[""Asian""]","No","Female","1711690","null","null","","","","clear_screen","","","","","","","","","","","","","","","","","","","","","","","","","",""
"","","","","","canvas-keyboard-response","27","226523","0.0-12.0-0.3","2d_cat_multi_stim_exp1","2022-4-21","14:52:32","25","75","3","9","10","40","30","120","51","19","[""Asian""]","No","Female","1711690","null","null","","","","fixation","","","","","","","","","","","","","","","","","","","","","","","","","",""
"","","","","","canvas-keyboard-response","28","227033","0.0-12.0-1.3","2d_cat_multi_stim_exp1","2022-4-21","14:52:32","25","75","3","9","10","40","30","120","51","19","[""Asian""]","No","Female","1711690","null","null","","","","clear_screen","","","","","","","","","","","","","","","","","","","","","","","","","",""
"","","","","","canvas-keyboard-response","29","228290","0.0-12.0-2.3","2d_cat_multi_stim_exp1","2022-4-21","14:52:32","25","75","3","9","10","40","30","120","51","19","[""Asian""]","No","Female","1711690","1248","u","learn","","","learn_trial","25","75","in","1","1","","","","","","","","","","","","","","","","","","","","",""
"","","","","","canvas-keyboard-response","30","228806","0.0-12.0-3.3","2d_cat_multi_stim_exp1","2022-4-21","14:52:32","25","75","3","9","10","40","30","120","51","19","[""Asian""]","No","Female","1711690","null","null","learn_feedback","","","learn_feedback","25","75","in","","","","","","","","","","","","","","","","","","","","","","",""
"","","","","","canvas-keyboard-response","31","228869","0.0-12.0-4.3","2d_cat_multi_stim_exp1","2022-4-21","14:52:32","25","75","3","9","10","40","30","120","51","19","[""Asian""]","No","Female","1711690","null","null","","","","clear_screen","","","","","","","","","","","","","","","","","","","","","","","","","",""
"","","","","","canvas-keyboard-response","32","229378","0.0-12.0-0.4","2d_cat_multi_stim_exp1","2022-4-21","14:52:32","25","75","3","9","10","40","30","120","51","19","[""Asian""]","No","Female","1711690","null","null","","","","fixation","","","","","","","","","","","","","","","","","","","","","","","","","",""
"","","","","","canvas-keyboard-response","33","229887","0.0-12.0-1.4","2d_cat_multi_stim_exp1","2022-4-21","14:52:32","25","75","3","9","10","40","30","120","51","19","[""Asian""]","No","Female","1711690","null","null","","","","clear_screen","","","","","","","","","","","","","","","","","","","","","","","","","",""
"","","","","","canvas-keyboard-response","34","231274","0.0-12.0-2.4","2d_cat_multi_stim_exp1","2022-4-21","14:52:32","25","75","3","9","10","40","30","120","51","19","[""Asian""]","No","Female","1711690","1377","u","learn","","","learn_trial","25","75","in","1","1","","","","","","","","","","","","","","","","","","","","",""
"","","","","","canvas-keyboard-response","35","231784","0.0-12.0-3.4","2d_cat_multi_stim_exp1","2022-4-21","14:52:32","25","75","3","9","10","40","30","120","51","19","[""Asian""]","No","Female","1711690","null","null","learn_feedback","","","learn_feedback","25","75","in","","","","","","","","","","","","","","","","","","","","","","",""
"","","","","","canvas-keyboard-response","36","231843","0.0-12.0-4.4","2d_cat_multi_stim_exp1","2022-4-21","14:52:32","25","75","3","9","10","40","30","120","51","19","[""Asian""]","No","Female","1711690","null","null","","","","clear_screen","","","","","","","","","","","","","","","","","","","","","","","","","",""
"","","","","","canvas-keyboard-response","37","232351","0.0-12.0-0.5","2d_cat_multi_stim_exp1","2022-4-21","14:52:32","25","75","3","9","10","40","30","120","51","19","[""Asian""]","No","Female","1711690","null","null","","","","fixation","","","","","","","","","","","","","","","","","","","","","","","","","",""
"","","","","","canvas-keyboard-response","38","232861","0.0-12.0-1.5","2d_cat_multi_stim_exp1","2022-4-21","14:52:32","25","75","3","9","10","40","30","120","51","19","[""Asian""]","No","Female","1711690","null","null","","","","clear_screen","","","","","","","","","","","","","","","","","","","","","","","","","",""
"","","","","","canvas-keyboard-response","39","234602","0.0-12.0-2.5","2d_cat_multi_stim_exp1","2022-4-21","14:52:32","25","75","3","9","10","40","30","120","51","19","[""Asian""]","No","Female","1711690","1731","i","learn","","","learn_trial","36.6667","120","out","0","1","","","","","","","","","","","","","","","","","","","","",""
"","","","","","canvas-keyboard-response","40","235111","0.0-12.0-3.5","2d_cat_multi_stim_exp1","2022-4-21","14:52:32","25","75","3","9","10","40","30","120","51","19","[""Asian""]","No","Female","1711690","null","null","learn_feedback","","","learn_feedback","36.6667","120","out","","","","","","","","","","","","","","","","","","","","","","",""
"","","","","","canvas-keyboard-response","41","235171","0.0-12.0-4.5","2d_cat_multi_stim_exp1","2022-4-21","14:52:32","25","75","3","9","10","40","30","120","51","19","[""Asian""]","No","Female","1711690","null","null","","","","clear_screen","","","","","","","","","","","","","","","","","","","","","","","","","",""
"","","","","","canvas-keyboard-response","42","235680","0.0-12.0-0.6","2d_cat_multi_stim_exp1","2022-4-21","14:52:32","25","75","3","9","10","40","30","120","51","19","[""Asian""]","No","Female","1711690","null","null","","","","fixation","","","","","","","","","","","","","","","","","","","","","","","","","",""
"","","","","","canvas-keyboard-response","43","236190","0.0-12.0-1.6","2d_cat_multi_stim_exp1","2022-4-21","14:52:32","25","75","3","9","10","40","30","120","51","19","[""Asian""]","No","Female","1711690","null","null","","","","clear_screen","","","","","","","","","","","","","","","","","","","","","","","","","",""
"","","","","","canvas-keyboard-response","44","236930","0.0-12.0-2.6","2d_cat_multi_stim_exp1","2022-4-21","14:52:32","25","75","3","9","10","40","30","120","51","19","[""Asian""]","No","Female","1711690","731","u","learn","","","learn_trial","25","75","in","1","1","","","","","","","","","","","","","","","","","","","","",""
"","","","","","canvas-keyboard-response","45","237440","0.0-12.0-3.6","2d_cat_multi_stim_exp1","2022-4-21","14:52:32","25","75","3","9","10","40","30","120","51","19","[""Asian""]","No","Female","1711690","null","null","learn_feedback","","","learn_feedback","25","75","in","","","","","","","","","","","","","","","","","","","","","","",""
"","","","","","canvas-keyboard-response","46","237500","0.0-12.0-4.6","2d_cat_multi_stim_exp1","2022-4-21","14:52:32","25","75","3","9","10","40","30","120","51","19","[""Asian""]","No","Female","1711690","null","null","","","","clear_screen","","","","","","","","","","","","","","","","","","","","","","","","","",""
"","","","","","canvas-keyboard-response","47","238011","0.0-12.0-0.7","2d_cat_multi_stim_exp1","2022-4-21","14:52:32","25","75","3","9","10","40","30","120","51","19","[""Asian""]","No","Female","1711690","null","null","","","","fixation","","","","","","","","","","","","","","","","","","","","","","","","","",""
"","","","","","canvas-keyboard-response","48","238520","0.0-12.0-1.7","2d_cat_multi_stim_exp1","2022-4-21","14:52:32","25","75","3","9","10","40","30","120","51","19","[""Asian""]","No","Female","1711690","null","null","","","","clear_screen","","","","","","","","","","","","","","","","","","","","","","","","","",""
"","","","","","canvas-keyboard-response","49","240026","0.0-12.0-2.7","2d_cat_multi_stim_exp1","2022-4-21","14:52:32","25","75","3","9","10","40","30","120","51","19","[""Asian""]","No","Female","1711690","1496","u","learn","","","learn_trial","30","90","out","1","0","","","","","","","","","","","","","","","","","","","","",""
"","","","","","canvas-keyboard-response","50","241036","0.0-12.0-3.7","2d_cat_multi_stim_exp1","2022-4-21","14:52:32","25","75","3","9","10","40","30","120","51","19","[""Asian""]","No","Female","1711690","null","null","learn_feedback","","","learn_feedback","30","90","out","","","","","","","","","","","","","","","","","","","","","","",""
"","","","","","canvas-keyboard-response","51","241095","0.0-12.0-4.7","2d_cat_multi_stim_exp1","2022-4-21","14:52:32","25","75","3","9","10","40","30","120","51","19","[""Asian""]","No","Female","1711690","null","null","","","","clear_screen","","","","","","","","","","","","","","","","","","","","","","","","","",""
"","","","","","canvas-keyboard-response","52","241604","0.0-12.0-0.8","2d_cat_multi_stim_exp1","2022-4-21","14:52:32","25","75","3","9","10","40","30","120","51","19","[""Asian""]","No","Female","1711690","null","null","","","","fixation","","","","","","","","","","","","","","","","","","","","","","","","","",""
"","","","","","canvas-keyboard-response","53","242113","0.0-12.0-1.8","2d_cat_multi_stim_exp1","2022-4-21","14:52:32","25","75","3","9","10","40","30","120","51","19","[""Asian""]","No","Female","1711690","null","null","","","","clear_screen","","","","","","","","","","","","","","","","","","","","","","","","","",""
"","","","","","canvas-keyboard-response","54","243218","0.0-12.0-2.8","2d_cat_multi_stim_exp1","2022-4-21","14:52:32","25","75","3","9","10","40","30","120","51","19","[""Asian""]","No","Female","1711690","1094","u","learn","","","learn_trial","25","75","in","1","1","","","","","","","","","","","","","","","","","","","","",""
"","","","","","canvas-keyboard-response","55","243728","0.0-12.0-3.8","2d_cat_multi_stim_exp1","2022-4-21","14:52:32","25","75","3","9","10","40","30","120","51","19","[""Asian""]","No","Female","1711690","null","null","learn_feedback","","","learn_feedback","25","75","in","","","","","","","","","","","","","","","","","","","","","","",""
"","","","","","canvas-keyboard-response","56","243787","0.0-12.0-4.8","2d_cat_multi_stim_exp1","2022-4-21","14:52:32","25","75","3","9","10","40","30","120","51","19","[""Asian""]","No","Female","1711690","null","null","","","","clear_screen","","","","","","","","","","","","","","","","","","","","","","","","","",""
"","","","","","canvas-keyboard-response","57","244296","0.0-12.0-0.9","2d_cat_multi_stim_exp1","2022-4-21","14:52:32","25","75","3","9","10","40","30","120","51","19","[""Asian""]","No","Female","1711690","null","null","","","","fixation","","","","","","","","","","","","","","","","","","","","","","","","","",""
"","","","","","canvas-keyboard-response","58","244805","0.0-12.0-1.9","2d_cat_multi_stim_exp1","2022-4-21","14:52:32","25","75","3","9","10","40","30","120","51","19","[""Asian""]","No","Female","1711690","null","null","","","","clear_screen","","","","","","","","","","","","","","","","","","","","","","","","","",""
"","","","","","canvas-keyboard-response","59","246290","0.0-12.0-2.9","2d_cat_multi_stim_exp1","2022-4-21","14:52:32","25","75","3","9","10","40","30","120","51","19","[""Asian""]","No","Female","1711690","1476","i","learn","","","learn_trial","13.3333","100","out","0","1","","","","","","","","","","","","","","","","","","","","",""
"","","","","","canvas-keyboard-response","60","246799","0.0-12.0-3.9","2d_cat_multi_stim_exp1","2022-4-21","14:52:32","25","75","3","9","10","40","30","120","51","19","[""Asian""]","No","Female","1711690","null","null","learn_feedback","","","learn_feedback","13.3333","100","out","","","","","","","","","","","","","","","","","","","","","","",""
"","","","","","canvas-keyboard-response","61","246859","0.0-12.0-4.9","2d_cat_multi_stim_exp1","2022-4-21","14:52:32","25","75","3","9","10","40","30","120","51","19","[""Asian""]","No","Female","1711690","null","null","","","","clear_screen","","","","","","","","","","","","","","","","","","","","","","","","","",""
"","","","","","canvas-keyboard-response","62","247369","0.0-12.0-0.10","2d_cat_multi_stim_exp1","2022-4-21","14:52:32","25","75","3","9","10","40","30","120","51","19","[""Asian""]","No","Female","1711690","null","null","","","","fixation","","","","","","","","","","","","","","","","","","","","","","","","","",""
"","","","","","canvas-keyboard-response","63","247881","0.0-12.0-1.10","2d_cat_multi_stim_exp1","2022-4-21","14:52:32","25","75","3","9","10","40","30","120","51","19","[""Asian""]","No","Female","1711690","null","null","","","","clear_screen","","","","","","","","","","","","","","","","","","","","","","","","","",""
"","","","","","canvas-keyboard-response","64","248987","0.0-12.0-2.10","2d_cat_multi_stim_exp1","2022-4-21","14:52:32","25","75","3","9","10","40","30","120","51","19","[""Asian""]","No","Female","1711690","1093","u","learn","","","learn_trial","25","75","in","1","1","","","","","","","","","","","","","","","","","","","","",""
"","","","","","canvas-keyboard-response","65","249498","0.0-12.0-3.10","2d_cat_multi_stim_exp1","2022-4-21","14:52:32","25","75","3","9","10","40","30","120","51","19","[""Asian""]","No","Female","1711690","null","null","learn_feedback","","","learn_feedback","25","75","in","","","","","","","","","","","","","","","","","","","","","","",""
"","","","","","canvas-keyboard-response","66","249557","0.0-12.0-4.10","2d_cat_multi_stim_exp1","2022-4-21","14:52:32","25","75","3","9","10","40","30","120","51","19","[""Asian""]","No","Female","1711690","null","null","","","","clear_screen","","","","","","","","","","","","","","","","","","","","","","","","","",""
"","","","","","canvas-keyboard-response","67","250067","0.0-12.0-0.11","2d_cat_multi_stim_exp1","2022-4-21","14:52:32","25","75","3","9","10","40","30","120","51","19","[""Asian""]","No","Female","1711690","null","null","","","","fixation","","","","","","","","","","","","","","","","","","","","","","","","","",""
"","","","","","canvas-keyboard-response","68","250578","0.0-12.0-1.11","2d_cat_multi_stim_exp1","2022-4-21","14:52:32","25","75","3","9","10","40","30","120","51","19","[""Asian""]","No","Female","1711690","null","null","","","","clear_screen","","","","","","","","","","","","","","","","","","","","","","","","","",""
"","","","","","canvas-keyboard-response","69","252010","0.0-12.0-2.11","2d_cat_multi_stim_exp1","2022-4-21","14:52:32","25","75","3","9","10","40","30","120","51","19","[""Asian""]","No","Female","1711690","1421","u","learn","","","learn_trial","25.9271","83.5595","in","1","1","","","","","","","","","","","","","","","","","","","","",""
"","","","","","canvas-keyboard-response","70","252521","0.0-12.0-3.11","2d_cat_multi_stim_exp1","2022-4-21","14:52:32","25","75","3","9","10","40","30","120","51","19","[""Asian""]","No","Female","1711690","null","null","learn_feedback","","","learn_feedback","25.9271","83.5595","in","","","","","","","","","","","","","","","","","","","","","","",""
"","","","","","canvas-keyboard-response","71","252581","0.0-12.0-4.11","2d_cat_multi_stim_exp1","2022-4-21","14:52:32","25","75","3","9","10","40","30","120","51","19","[""Asian""]","No","Female","1711690","null","null","","","","clear_screen","","","","","","","","","","","","","","","","","","","","","","","","","",""
"","","","","","canvas-keyboard-response","72","253092","0.0-12.0-0.12","2d_cat_multi_stim_exp1","2022-4-21","14:52:32","25","75","3","9","10","40","30","120","51","19","[""Asian""]","No","Female","1711690","null","null","","","","fixation","","","","","","","","","","","","","","","","","","","","","","","","","",""
"","","","","","canvas-keyboard-response","73","253603","0.0-12.0-1.12","2d_cat_multi_stim_exp1","2022-4-21","14:52:32","25","75","3","9","10","40","30","120","51","19","[""Asian""]","No","Female","1711690","null","null","","","","clear_screen","","","","","","","","","","","","","","","","","","","","","","","","","",""
"","","","","","canvas-keyboard-response","74","254618","0.0-12.0-2.12","2d_cat_multi_stim_exp1","2022-4-21","14:52:32","25","75","3","9","10","40","30","120","51","19","[""Asian""]","No","Female","1711690","1005","u","learn","","","learn_trial","25","75","in","1","1","","","","","","","","","","","","","","","","","","","","",""
"","","","","","canvas-keyboard-response","75","255128","0.0-12.0-3.12","2d_cat_multi_stim_exp1","2022-4-21","14:52:32","25","75","3","9","10","40","30","120","51","19","[""Asian""]","No","Female","1711690","null","null","learn_feedback","","","learn_feedback","25","75","in","","","","","","","","","","","","","","","","","","","","","","",""
"","","","","","canvas-keyboard-response","76","255187","0.0-12.0-4.12","2d_cat_multi_stim_exp1","2022-4-21","14:52:32","25","75","3","9","10","40","30","120","51","19","[""Asian""]","No","Female","1711690","null","null","","","","clear_screen","","","","","","","","","","","","","","","","","","","","","","","","","",""
"","","","","","canvas-keyboard-response","77","255697","0.0-12.0-0.13","2d_cat_multi_stim_exp1","2022-4-21","14:52:32","25","75","3","9","10","40","30","120","51","19","[""Asian""]","No","Female","1711690","null","null","","","","fixation","","","","","","","","","","","","","","","","","","","","","","","","","",""
"","","","","","canvas-keyboard-response","78","256206","0.0-12.0-1.13","2d_cat_multi_stim_exp1","2022-4-21","14:52:32","25","75","3","9","10","40","30","120","51","19","[""Asian""]","No","Female","1711690","null","null","","","","clear_screen","","","","","","","","","","","","","","","","","","","","","","","","","",""
"","","","","","canvas-keyboard-response","79","258770","0.0-12.0-2.13","2d_cat_multi_stim_exp1","2022-4-21","14:52:32","25","75","3","9","10","40","30","120","51","19","[""Asian""]","No","Female","1711690","2555","u","learn","","","learn_trial","23.3333","100","out","1","0","","","","","","","","","","","","","","","","","","","","",""
"","","","","","canvas-keyboard-response","80","259780","0.0-12.0-3.13","2d_cat_multi_stim_exp1","2022-4-21","14:52:32","25","75","3","9","10","40","30","120","51","19","[""Asian""]","No","Female","1711690","null","null","learn_feedback","","","learn_feedback","23.3333","100","out","","","","","","","","","","","","","","","","","","","","","","",""
"","","","","","canvas-keyboard-response","81","259839","0.0-12.0-4.13","2d_cat_multi_stim_exp1","2022-4-21","14:52:32","25","75","3","9","10","40","30","120","51","19","[""Asian""]","No","Female","1711690","null","null","","","","clear_screen","","","","","","","","","","","","","","","","","","","","","","","","","",""
"","","","","","canvas-keyboard-response","82","260348","0.0-12.0-0.14","2d_cat_multi_stim_exp1","2022-4-21","14:52:32","25","75","3","9","10","40","30","120","51","19","[""Asian""]","No","Female","1711690","null","null","","","","fixation","","","","","","","","","","","","","","","","","","","","","","","","","",""
"","","","","","canvas-keyboard-response","83","260858","0.0-12.0-1.14","2d_cat_multi_stim_exp1","2022-4-21","14:52:32","25","75","3","9","10","40","30","120","51","19","[""Asian""]","No","Female","1711690","null","null","","","","clear_screen","","","","","","","","","","","","","","","","","","","","","","","","","",""
"","","","","","canvas-keyboard-response","84","263049","0.0-12.0-2.14","2d_cat_multi_stim_exp1","2022-4-21","14:52:32","25","75","3","9","10","40","30","120","51","19","[""Asian""]","No","Female","1711690","2182","i","learn","","","learn_trial","29.2426","87.7279","in","0","0","","","","","","","","","","","","","","","","","","","","",""
"","","","","","canvas-keyboard-response","85","264060","0.0-12.0-3.14","2d_cat_multi_stim_exp1","2022-4-21","14:52:32","25","75","3","9","10","40","30","120","51","19","[""Asian""]","No","Female","1711690","null","null","learn_feedback","","","learn_feedback","29.2426","87.7279","in","","","","","","","","","","","","","","","","","","","","","","",""
"","","","","","canvas-keyboard-response","86","264119","0.0-12.0-4.14","2d_cat_multi_stim_exp1","2022-4-21","14:52:32","25","75","3","9","10","40","30","120","51","19","[""Asian""]","No","Female","1711690","null","null","","","","clear_screen","","","","","","","","","","","","","","","","","","","","","","","","","",""
"","","","","","canvas-keyboard-response","87","264627","0.0-12.0-0.15","2d_cat_multi_stim_exp1","2022-4-21","14:52:32","25","75","3","9","10","40","30","120","51","19","[""Asian""]","No","Female","1711690","null","null","","","","fixation","","","","","","","","","","","","","","","","","","","","","","","","","",""
"","","","","","canvas-keyboard-response","88","265137","0.0-12.0-1.15","2d_cat_multi_stim_exp1","2022-4-21","14:52:32","25","75","3","9","10","40","30","120","51","19","[""Asian""]","No","Female","1711690","null","null","","","","clear_screen","","","","","","","","","","","","","","","","","","","","","","","","","",""
"","","","","","canvas-keyboard-response","89","265954","0.0-12.0-2.15","2d_cat_multi_stim_exp1","2022-4-21","14:52:32","25","75","3","9","10","40","30","120","51","19","[""Asian""]","No","Female","1711690","808","i","learn","","","learn_trial","10","60","out","0","1","","","","","","","","","","","","","","","","","","","","",""
"","","","","","canvas-keyboard-response","90","266463","0.0-12.0-3.15","2d_cat_multi_stim_exp1","2022-4-21","14:52:32","25","75","3","9","10","40","30","120","51","19","[""Asian""]","No","Female","1711690","null","null","learn_feedback","","","learn_feedback","10","60","out","","","","","","","","","","","","","","","","","","","","","","",""
"","","","","","canvas-keyboard-response","91","266523","0.0-12.0-4.15","2d_cat_multi_stim_exp1","2022-4-21","14:52:32","25","75","3","9","10","40","30","120","51","19","[""Asian""]","No","Female","1711690","null","null","","","","clear_screen","","","","","","","","","","","","","","","","","","","","","","","","","",""
"","","","","","canvas-keyboard-response","92","267032","0.0-12.0-0.16","2d_cat_multi_stim_exp1","2022-4-21","14:52:32","25","75","3","9","10","40","30","120","51","19","[""Asian""]","No","Female","1711690","null","null","","","","fixation","","","","","","","","","","","","","","","","","","","","","","","","","",""
"","","","","","canvas-keyboard-response","93","267541","0.0-12.0-1.16","2d_cat_multi_stim_exp1","2022-4-21","14:52:32","25","75","3","9","10","40","30","120","51","19","[""Asian""]","No","Female","1711690","null","null","","","","clear_screen","","","","","","","","","","","","","","","","","","","","","","","","","",""
"","","","","","canvas-keyboard-response","94","270705","0.0-12.0-2.16","2d_cat_multi_stim_exp1","2022-4-21","14:52:32","25","75","3","9","10","40","30","120","51","19","[""Asian""]","No","Female","1711690","3153","i","learn","","","learn_trial","25","75","in","0","0","","","","","","","","","","","","","","","","","","","","",""
"","","","","","canvas-keyboard-response","95","271715","0.0-12.0-3.16","2d_cat_multi_stim_exp1","2022-4-21","14:52:32","25","75","3","9","10","40","30","120","51","19","[""Asian""]","No","Female","1711690","null","null","learn_feedback","","","learn_feedback","25","75","in","","","","","","","","","","","","","","","","","","","","","","",""
"","","","","","canvas-keyboard-response","96","271775","0.0-12.0-4.16","2d_cat_multi_stim_exp1","2022-4-21","14:52:32","25","75","3","9","10","40","30","120","51","19","[""Asian""]","No","Female","1711690","null","null","","","","clear_screen","","","","","","","","","","","","","","","","","","","","","","","","","",""
"","","","","","canvas-keyboard-response","97","272283","0.0-12.0-0.17","2d_cat_multi_stim_exp1","2022-4-21","14:52:32","25","75","3","9","10","40","30","120","51","19","[""Asian""]","No","Female","1711690","null","null","","","","fixation","","","","","","","","","","","","","","","","","","","","","","","","","",""
"","","","","","canvas-keyboard-response","98","272793","0.0-12.0-1.17","2d_cat_multi_stim_exp1","2022-4-21","14:52:32","25","75","3","9","10","40","30","120","51","19","[""Asian""]","No","Female","1711690","null","null","","","","clear_screen","","","","","","","","","","","","","","","","","","","","","","","","","",""
"","","","","","canvas-keyboard-response","99","274841","0.0-12.0-2.17","2d_cat_multi_stim_exp1","2022-4-21","14:52:32","25","75","3","9","10","40","30","120","51","19","[""Asian""]","No","Female","1711690","2039","i","learn","","","learn_trial","40","110","out","0","1","","","","","","","","","","","","","","","","","","","","",""
"","","","","","canvas-keyboard-response","100","275351","0.0-12.0-3.17","2d_cat_multi_stim_exp1","2022-4-21","14:52:32","25","75","3","9","10","40","30","120","51","19","[""Asian""]","No","Female","1711690","null","null","learn_feedback","","","learn_feedback","40","110","out","","","","","","","","","","","","","","","","","","","","","","",""
"","","","","","canvas-keyboard-response","101","275410","0.0-12.0-4.17","2d_cat_multi_stim_exp1","2022-4-21","14:52:32","25","75","3","9","10","40","30","120","51","19","[""Asian""]","No","Female","1711690","null","null","","","","clear_screen","","","","","","","","","","","","","","","","","","","","","","","","","",""
"","","","","","canvas-keyboard-response","102","275919","0.0-12.0-0.18","2d_cat_multi_stim_exp1","2022-4-21","14:52:32","25","75","3","9","10","40","30","120","51","19","[""Asian""]","No","Female","1711690","null","null","","","","fixation","","","","","","","","","","","","","","","","","","","","","","","","","",""
"","","","","","canvas-keyboard-response","103","276428","0.0-12.0-1.18","2d_cat_multi_stim_exp1","2022-4-21","14:52:32","25","75","3","9","10","40","30","120","51","19","[""Asian""]","No","Female","1711690","null","null","","","","clear_screen","","","","","","","","","","","","","","","","","","","","","","","","","",""
"","","","","","canvas-keyboard-response","104","278281","0.0-12.0-2.18","2d_cat_multi_stim_exp1","2022-4-21","14:52:32","25","75","3","9","10","40","30","120","51","19","[""Asian""]","No","Female","1711690","1843","u","learn","","","learn_trial","23.8209","66.7243","in","1","1","","","","","","","","","","","","","","","","","","","","",""
"","","","","","canvas-keyboard-response","105","278791","0.0-12.0-3.18","2d_cat_multi_stim_exp1","2022-4-21","14:52:32","25","75","3","9","10","40","30","120","51","19","[""Asian""]","No","Female","1711690","null","null","learn_feedback","","","learn_feedback","23.8209","66.7243","in","","","","","","","","","","","","","","","","","","","","","","",""
"","","","","","canvas-keyboard-response","106","278850","0.0-12.0-4.18","2d_cat_multi_stim_exp1","2022-4-21","14:52:32","25","75","3","9","10","40","30","120","51","19","[""Asian""]","No","Female","1711690","null","null","","","","clear_screen","","","","","","","","","","","","","","","","","","","","","","","","","",""
"","","","","","canvas-keyboard-response","107","279359","0.0-12.0-0.19","2d_cat_multi_stim_exp1","2022-4-21","14:52:32","25","75","3","9","10","40","30","120","51","19","[""Asian""]","No","Female","1711690","null","null","","","","fixation","","","","","","","","","","","","","","","","","","","","","","","","","",""
"","","","","","canvas-keyboard-response","108","279869","0.0-12.0-1.19","2d_cat_multi_stim_exp1","2022-4-21","14:52:32","25","75","3","9","10","40","30","120","51","19","[""Asian""]","No","Female","1711690","null","null","","","","clear_screen","","","","","","","","","","","","","","","","","","","","","","","","","",""
"","","","","","canvas-keyboard-response","109","280715","0.0-12.0-2.19","2d_cat_multi_stim_exp1","2022-4-21","14:52:32","25","75","3","9","10","40","30","120","51","19","[""Asian""]","No","Female","1711690","835","i","learn","","","learn_trial","36.6667","40","out","0","1","","","","","","","","","","","","","","","","","","","","",""
"","","","","","canvas-keyboard-response","110","281227","0.0-12.0-3.19","2d_cat_multi_stim_exp1","2022-4-21","14:52:32","25","75","3","9","10","40","30","120","51","19","[""Asian""]","No","Female","1711690","null","null","learn_feedback","","","learn_feedback","36.6667","40","out","","","","","","","","","","","","","","","","","","","","","","",""
"","","","","","canvas-keyboard-response","111","281288","0.0-12.0-4.19","2d_cat_multi_stim_exp1","2022-4-21","14:52:32","25","75","3","9","10","40","30","120","51","19","[""Asian""]","No","Female","1711690","null","null","","","","clear_screen","","","","","","","","","","","","","","","","","","","","","","","","","",""
"","","","","","canvas-keyboard-response","112","281799","0.0-12.0-0.20","2d_cat_multi_stim_exp1","2022-4-21","14:52:32","25","75","3","9","10","40","30","120","51","19","[""Asian""]","No","Female","1711690","null","null","","","","fixation","","","","","","","","","","","","","","","","","","","","","","","","","",""
"","","","","","canvas-keyboard-response","113","282310","0.0-12.0-1.20","2d_cat_multi_stim_exp1","2022-4-21","14:52:32","25","75","3","9","10","40","30","120","51","19","[""Asian""]","No","Female","1711690","null","null","","","","clear_screen","","","","","","","","","","","","","","","","","","","","","","","","","",""
"","","","","","canvas-keyboard-response","114","283786","0.0-12.0-2.20","2d_cat_multi_stim_exp1","2022-4-21","14:52:32","25","75","3","9","10","40","30","120","51","19","[""Asian""]","No","Female","1711690","1464","u","learn","","","learn_trial","30","100","out","1","0","","","","","","","","","","","","","","","","","","","","",""
"","","","","","canvas-keyboard-response","115","284796","0.0-12.0-3.20","2d_cat_multi_stim_exp1","2022-4-21","14:52:32","25","75","3","9","10","40","30","120","51","19","[""Asian""]","No","Female","1711690","null","null","learn_feedback","","","learn_feedback","30","100","out","","","","","","","","","","","","","","","","","","","","","","",""
"","","","","","canvas-keyboard-response","116","284857","0.0-12.0-4.20","2d_cat_multi_stim_exp1","2022-4-21","14:52:32","25","75","3","9","10","40","30","120","51","19","[""Asian""]","No","Female","1711690","null","null","","","","clear_screen","","","","","","","","","","","","","","","","","","","","","","","","","",""
"","","","","","canvas-keyboard-response","117","285367","0.0-12.0-0.21","2d_cat_multi_stim_exp1","2022-4-21","14:52:32","25","75","3","9","10","40","30","120","51","19","[""Asian""]","No","Female","1711690","null","null","","","","fixation","","","","","","","","","","","","","","","","","","","","","","","","","",""
"","","","","","canvas-keyboard-response","118","285877","0.0-12.0-1.21","2d_cat_multi_stim_exp1","2022-4-21","14:52:32","25","75","3","9","10","40","30","120","51","19","[""Asian""]","No","Female","1711690","null","null","","","","clear_screen","","","","","","","","","","","","","","","","","","","","","","","","","",""
"","","","","","canvas-keyboard-response","119","286850","0.0-12.0-2.21","2d_cat_multi_stim_exp1","2022-4-21","14:52:32","25","75","3","9","10","40","30","120","51","19","[""Asian""]","No","Female","1711690","963","u","learn","","","learn_trial","25","75","in","1","1","","","","","","","","","","","","","","","","","","","","",""
"","","","","","canvas-keyboard-response","120","287361","0.0-12.0-3.21","2d_cat_multi_stim_exp1","2022-4-21","14:52:32","25","75","3","9","10","40","30","120","51","19","[""Asian""]","No","Female","1711690","null","null","learn_feedback","","","learn_feedback","25","75","in","","","","","","","","","","","","","","","","","","","","","","",""
"","","","","","canvas-keyboard-response","121","287421","0.0-12.0-4.21","2d_cat_multi_stim_exp1","2022-4-21","14:52:32","25","75","3","9","10","40","30","120","51","19","[""Asian""]","No","Female","1711690","null","null","","","","clear_screen","","","","","","","","","","","","","","","","","","","","","","","","","",""
"","","","","","canvas-keyboard-response","122","287930","0.0-12.0-0.22","2d_cat_multi_stim_exp1","2022-4-21","14:52:32","25","75","3","9","10","40","30","120","51","19","[""Asian""]","No","Female","1711690","null","null","","","","fixation","","","","","","","","","","","","","","","","","","","","","","","","","",""
"","","","","","canvas-keyboard-response","123","288440","0.0-12.0-1.22","2d_cat_multi_stim_exp1","2022-4-21","14:52:32","25","75","3","9","10","40","30","120","51","19","[""Asian""]","No","Female","1711690","null","null","","","","clear_screen","","","","","","","","","","","","","","","","","","","","","","","","","",""
"","","","","","canvas-keyboard-response","124","289761","0.0-12.0-2.22","2d_cat_multi_stim_exp1","2022-4-21","14:52:32","25","75","3","9","10","40","30","120","51","19","[""Asian""]","No","Female","1711690","1312","u","learn","","","learn_trial","16.6667","90","out","1","0","","","","","","","","","","","","","","","","","","","","",""
"","","","","","canvas-keyboard-response","125","290771","0.0-12.0-3.22","2d_cat_multi_stim_exp1","2022-4-21","14:52:32","25","75","3","9","10","40","30","120","51","19","[""Asian""]","No","Female","1711690","null","null","learn_feedback","","","learn_feedback","16.6667","90","out","","","","","","","","","","","","","","","","","","","","","","",""
"","","","","","canvas-keyboard-response","126","290830","0.0-12.0-4.22","2d_cat_multi_stim_exp1","2022-4-21","14:52:32","25","75","3","9","10","40","30","120","51","19","[""Asian""]","No","Female","1711690","null","null","","","","clear_screen","","","","","","","","","","","","","","","","","","","","","","","","","",""
"","","","","","canvas-keyboard-response","127","291338","0.0-12.0-0.23","2d_cat_multi_stim_exp1","2022-4-21","14:52:32","25","75","3","9","10","40","30","120","51","19","[""Asian""]","No","Female","1711690","null","null","","","","fixation","","","","","","","","","","","","","","","","","","","","","","","","","",""
"","","","","","canvas-keyboard-response","128","291848","0.0-12.0-1.23","2d_cat_multi_stim_exp1","2022-4-21","14:52:32","25","75","3","9","10","40","30","120","51","19","[""Asian""]","No","Female","1711690","null","null","","","","clear_screen","","","","","","","","","","","","","","","","","","","","","","","","","",""
"","","","","","canvas-keyboard-response","129","294146","0.0-12.0-2.23","2d_cat_multi_stim_exp1","2022-4-21","14:52:32","25","75","3","9","10","40","30","120","51","19","[""Asian""]","No","Female","1711690","2288","i","learn","","","learn_trial","25.4027","66.0815","in","0","0","","","","","","","","","","","","","","","","","","","","",""
"","","","","","canvas-keyboard-response","130","295155","0.0-12.0-3.23","2d_cat_multi_stim_exp1","2022-4-21","14:52:32","25","75","3","9","10","40","30","120","51","19","[""Asian""]","No","Female","1711690","null","null","learn_feedback","","","learn_feedback","25.4027","66.0815","in","","","","","","","","","","","","","","","","","","","","","","",""
"","","","","","canvas-keyboard-response","131","295214","0.0-12.0-4.23","2d_cat_multi_stim_exp1","2022-4-21","14:52:32","25","75","3","9","10","40","30","120","51","19","[""Asian""]","No","Female","1711690","null","null","","","","clear_screen","","","","","","","","","","","","","","","","","","","","","","","","","",""
"","","","","","canvas-keyboard-response","132","295723","0.0-12.0-0.24","2d_cat_multi_stim_exp1","2022-4-21","14:52:32","25","75","3","9","10","40","30","120","51","19","[""Asian""]","No","Female","1711690","null","null","","","","fixation","","","","","","","","","","","","","","","","","","","","","","","","","",""
"","","","","","canvas-keyboard-response","133","296232","0.0-12.0-1.24","2d_cat_multi_stim_exp1","2022-4-21","14:52:32","25","75","3","9","10","40","30","120","51","19","[""Asian""]","No","Female","1711690","null","null","","","","clear_screen","","","","","","","","","","","","","","","","","","","","","","","","","",""
"","","","","","canvas-keyboard-response","134","297785","0.0-12.0-2.24","2d_cat_multi_stim_exp1","2022-4-21","14:52:32","25","75","3","9","10","40","30","120","51","19","[""Asian""]","No","Female","1711690","1544","i","learn","","","learn_trial","22.0121","75.8068","in","0","0","","","","","","","","","","","","","","","","","","","","",""
"","","","","","canvas-keyboard-response","135","298795","0.0-12.0-3.24","2d_cat_multi_stim_exp1","2022-4-21","14:52:32","25","75","3","9","10","40","30","120","51","19","[""Asian""]","No","Female","1711690","null","null","learn_feedback","","","learn_feedback","22.0121","75.8068","in","","","","","","","","","","","","","","","","","","","","","","",""
"","","","","","canvas-keyboard-response","136","298854","0.0-12.0-4.24","2d_cat_multi_stim_exp1","2022-4-21","14:52:32","25","75","3","9","10","40","30","120","51","19","[""Asian""]","No","Female","1711690","null","null","","","","clear_screen","","","","","","","","","","","","","","","","","","","","","","","","","",""
"","","","","","canvas-keyboard-response","137","299363","0.0-12.0-0.25","2d_cat_multi_stim_exp1","2022-4-21","14:52:32","25","75","3","9","10","40","30","120","51","19","[""Asian""]","No","Female","1711690","null","null","","","","fixation","","","","","","","","","","","","","","","","","","","","","","","","","",""
"","","","","","canvas-keyboard-response","138","299873","0.0-12.0-1.25","2d_cat_multi_stim_exp1","2022-4-21","14:52:32","25","75","3","9","10","40","30","120","51","19","[""Asian""]","No","Female","1711690","null","null","","","","clear_screen","","","","","","","","","","","","","","","","","","","","","","","","","",""
"","","","","","canvas-keyboard-response","139","300465","0.0-12.0-2.25","2d_cat_multi_stim_exp1","2022-4-21","14:52:32","25","75","3","9","10","40","30","120","51","19","[""Asian""]","No","Female","1711690","583","u","learn","","","learn_trial","25.4027","83.9185","in","1","1","","","","","","","","","","","","","","","","","","","","",""
"","","","","","canvas-keyboard-response","140","300976","0.0-12.0-3.25","2d_cat_multi_stim_exp1","2022-4-21","14:52:32","25","75","3","9","10","40","30","120","51","19","[""Asian""]","No","Female","1711690","null","null","learn_feedback","","","learn_feedback","25.4027","83.9185","in","","","","","","","","","","","","","","","","","","","","","","",""
"","","","","","canvas-keyboard-response","141","301037","0.0-12.0-4.25","2d_cat_multi_stim_exp1","2022-4-21","14:52:32","25","75","3","9","10","40","30","120","51","19","[""Asian""]","No","Female","1711690","null","null","","","","clear_screen","","","","","","","","","","","","","","","","","","","","","","","","","",""
"","","","","","canvas-keyboard-response","142","301544","0.0-12.0-0.26","2d_cat_multi_stim_exp1","2022-4-21","14:52:32","25","75","3","9","10","40","30","120","51","19","[""Asian""]","No","Female","1711690","null","null","","","","fixation","","","","","","","","","","","","","","","","","","","","","","","","","",""
"","","","","","canvas-keyboard-response","143","302054","0.0-12.0-1.26","2d_cat_multi_stim_exp1","2022-4-21","14:52:32","25","75","3","9","10","40","30","120","51","19","[""Asian""]","No","Female","1711690","null","null","","","","clear_screen","","","","","","","","","","","","","","","","","","","","","","","","","",""
"","","","","","canvas-keyboard-response","144","302738","0.0-12.0-2.26","2d_cat_multi_stim_exp1","2022-4-21","14:52:32","25","75","3","9","10","40","30","120","51","19","[""Asian""]","No","Female","1711690","674","u","learn","","","learn_trial","25","75","in","1","1","","","","","","","","","","","","","","","","","","","","",""
"","","","","","canvas-keyboard-response","145","303247","0.0-12.0-3.26","2d_cat_multi_stim_exp1","2022-4-21","14:52:32","25","75","3","9","10","40","30","120","51","19","[""Asian""]","No","Female","1711690","null","null","learn_feedback","","","learn_feedback","25","75","in","","","","","","","","","","","","","","","","","","","","","","",""
"","","","","","canvas-keyboard-response","146","303307","0.0-12.0-4.26","2d_cat_multi_stim_exp1","2022-4-21","14:52:32","25","75","3","9","10","40","30","120","51","19","[""Asian""]","No","Female","1711690","null","null","","","","clear_screen","","","","","","","","","","","","","","","","","","","","","","","","","",""
"","","","","","canvas-keyboard-response","147","303815","0.0-12.0-0.27","2d_cat_multi_stim_exp1","2022-4-21","14:52:32","25","75","3","9","10","40","30","120","51","19","[""Asian""]","No","Female","1711690","null","null","","","","fixation","","","","","","","","","","","","","","","","","","","","","","","","","",""
"","","","","","canvas-keyboard-response","148","304325","0.0-12.0-1.27","2d_cat_multi_stim_exp1","2022-4-21","14:52:32","25","75","3","9","10","40","30","120","51","19","[""Asian""]","No","Female","1711690","null","null","","","","clear_screen","","","","","","","","","","","","","","","","","","","","","","","","","",""
"","","","","","canvas-keyboard-response","149","305225","0.0-12.0-2.27","2d_cat_multi_stim_exp1","2022-4-21","14:52:32","25","75","3","9","10","40","30","120","51","19","[""Asian""]","No","Female","1711690","891","u","learn","","","learn_trial","27.2592","80.9214","in","1","1","","","","","","","","","","","","","","","","","","","","",""
"","","","","","canvas-keyboard-response","150","305735","0.0-12.0-3.27","2d_cat_multi_stim_exp1","2022-4-21","14:52:32","25","75","3","9","10","40","30","120","51","19","[""Asian""]","No","Female","1711690","null","null","learn_feedback","","","learn_feedback","27.2592","80.9214","in","","","","","","","","","","","","","","","","","","","","","","",""
"","","","","","canvas-keyboard-response","151","305793","0.0-12.0-4.27","2d_cat_multi_stim_exp1","2022-4-21","14:52:32","25","75","3","9","10","40","30","120","51","19","[""Asian""]","No","Female","1711690","null","null","","","","clear_screen","","","","","","","","","","","","","","","","","","","","","","","","","",""
"","","","","","canvas-keyboard-response","152","306303","0.0-12.0-0.28","2d_cat_multi_stim_exp1","2022-4-21","14:52:32","25","75","3","9","10","40","30","120","51","19","[""Asian""]","No","Female","1711690","null","null","","","","fixation","","","","","","","","","","","","","","","","","","","","","","","","","",""
"","","","","","canvas-keyboard-response","153","306813","0.0-12.0-1.28","2d_cat_multi_stim_exp1","2022-4-21","14:52:32","25","75","3","9","10","40","30","120","51","19","[""Asian""]","No","Female","1711690","null","null","","","","clear_screen","","","","","","","","","","","","","","","","","","","","","","","","","",""
"","","","","","canvas-keyboard-response","154","307625","0.0-12.0-2.28","2d_cat_multi_stim_exp1","2022-4-21","14:52:32","25","75","3","9","10","40","30","120","51","19","[""Asian""]","No","Female","1711690","801","i","learn","","","learn_trial","16.6667","50","out","0","1","","","","","","","","","","","","","","","","","","","","",""
"","","","","","canvas-keyboard-response","155","308135","0.0-12.0-3.28","2d_cat_multi_stim_exp1","2022-4-21","14:52:32","25","75","3","9","10","40","30","120","51","19","[""Asian""]","No","Female","1711690","null","null","learn_feedback","","","learn_feedback","16.6667","50","out","","","","","","","","","","","","","","","","","","","","","","",""
"","","","","","canvas-keyboard-response","156","308195","0.0-12.0-4.28","2d_cat_multi_stim_exp1","2022-4-21","14:52:32","25","75","3","9","10","40","30","120","51","19","[""Asian""]","No","Female","1711690","null","null","","","","clear_screen","","","","","","","","","","","","","","","","","","","","","","","","","",""
"","","","","","canvas-keyboard-response","157","308703","0.0-12.0-0.29","2d_cat_multi_stim_exp1","2022-4-21","14:52:32","25","75","3","9","10","40","30","120","51","19","[""Asian""]","No","Female","1711690","null","null","","","","fixation","","","","","","","","","","","","","","","","","","","","","","","","","",""
"","","","","","canvas-keyboard-response","158","309213","0.0-12.0-1.29","2d_cat_multi_stim_exp1","2022-4-21","14:52:32","25","75","3","9","10","40","30","120","51","19","[""Asian""]","No","Female","1711690","null","null","","","","clear_screen","","","","","","","","","","","","","","","","","","","","","","","","","",""
"","","","","","canvas-keyboard-response","159","310114","0.0-12.0-2.29","2d_cat_multi_stim_exp1","2022-4-21","14:52:32","25","75","3","9","10","40","30","120","51","19","[""Asian""]","No","Female","1711690","890","u","learn","","","learn_trial","25","75","in","1","1","","","","","","","","","","","","","","","","","","","","",""
"","","","","","canvas-keyboard-response","160","310623","0.0-12.0-3.29","2d_cat_multi_stim_exp1","2022-4-21","14:52:32","25","75","3","9","10","40","30","120","51","19","[""Asian""]","No","Female","1711690","null","null","learn_feedback","","","learn_feedback","25","75","in","","","","","","","","","","","","","","","","","","","","","","",""
"","","","","","canvas-keyboard-response","161","310683","0.0-12.0-4.29","2d_cat_multi_stim_exp1","2022-4-21","14:52:32","25","75","3","9","10","40","30","120","51","19","[""Asian""]","No","Female","1711690","null","null","","","","clear_screen","","","","","","","","","","","","","","","","","","","","","","","","","",""
"","","","","","canvas-keyboard-response","162","311190","0.0-12.0-0.30","2d_cat_multi_stim_exp1","2022-4-21","14:52:32","25","75","3","9","10","40","30","120","51","19","[""Asian""]","No","Female","1711690","null","null","","","","fixation","","","","","","","","","","","","","","","","","","","","","","","","","",""
"","","","","","canvas-keyboard-response","163","311700","0.0-12.0-1.30","2d_cat_multi_stim_exp1","2022-4-21","14:52:32","25","75","3","9","10","40","30","120","51","19","[""Asian""]","No","Female","1711690","null","null","","","","clear_screen","","","","","","","","","","","","","","","","","","","","","","","","","",""
"","","","","","canvas-keyboard-response","164","312297","0.0-12.0-2.30","2d_cat_multi_stim_exp1","2022-4-21","14:52:32","25","75","3","9","10","40","30","120","51","19","[""Asian""]","No","Female","1711690","588","u","learn","","","learn_trial","25","57","in","1","1","","","","","","","","","","","","","","","","","","","","",""
"","","","","","canvas-keyboard-response","165","312807","0.0-12.0-3.30","2d_cat_multi_stim_exp1","2022-4-21","14:52:32","25","75","3","9","10","40","30","120","51","19","[""Asian""]","No","Female","1711690","null","null","learn_feedback","","","learn_feedback","25","57","in","","","","","","","","","","","","","","","","","","","","","","",""
"","","","","","canvas-keyboard-response","166","312865","0.0-12.0-4.30","2d_cat_multi_stim_exp1","2022-4-21","14:52:32","25","75","3","9","10","40","30","120","51","19","[""Asian""]","No","Female","1711690","null","null","","","","clear_screen","","","","","","","","","","","","","","","","","","","","","","","","","",""
"","","","","","canvas-keyboard-response","167","313375","0.0-12.0-0.31","2d_cat_multi_stim_exp1","2022-4-21","14:52:32","25","75","3","9","10","40","30","120","51","19","[""Asian""]","No","Female","1711690","null","null","","","","fixation","","","","","","","","","","","","","","","","","","","","","","","","","",""
"","","","","","canvas-keyboard-response","168","313884","0.0-12.0-1.31","2d_cat_multi_stim_exp1","2022-4-21","14:52:32","25","75","3","9","10","40","30","120","51","19","[""Asian""]","No","Female","1711690","null","null","","","","clear_screen","","","","","","","","","","","","","","","","","","","","","","","","","",""
"","","","","","canvas-keyboard-response","169","314281","0.0-12.0-2.31","2d_cat_multi_stim_exp1","2022-4-21","14:52:32","25","75","3","9","10","40","30","120","51","19","[""Asian""]","No","Female","1711690","387","u","learn","","","learn_trial","36.6667","90","out","1","0","","","","","","","","","","","","","","","","","","","","",""
"","","","","","canvas-keyboard-response","170","315291","0.0-12.0-3.31","2d_cat_multi_stim_exp1","2022-4-21","14:52:32","25","75","3","9","10","40","30","120","51","19","[""Asian""]","No","Female","1711690","null","null","learn_feedback","","","learn_feedback","36.6667","90","out","","","","","","","","","","","","","","","","","","","","","","",""
"","","","","","canvas-keyboard-response","171","315350","0.0-12.0-4.31","2d_cat_multi_stim_exp1","2022-4-21","14:52:32","25","75","3","9","10","40","30","120","51","19","[""Asian""]","No","Female","1711690","null","null","","","","clear_screen","","","","","","","","","","","","","","","","","","","","","","","","","",""
"","","","","","canvas-keyboard-response","172","315860","0.0-12.0-0.32","2d_cat_multi_stim_exp1","2022-4-21","14:52:32","25","75","3","9","10","40","30","120","51","19","[""Asian""]","No","Female","1711690","null","null","","","","fixation","","","","","","","","","","","","","","","","","","","","","","","","","",""
"","","","","","canvas-keyboard-response","173","316370","0.0-12.0-1.32","2d_cat_multi_stim_exp1","2022-4-21","14:52:32","25","75","3","9","10","40","30","120","51","19","[""Asian""]","No","Female","1711690","null","null","","","","clear_screen","","","","","","","","","","","","","","","","","","","","","","","","","",""
"","","","","","canvas-keyboard-response","174","316745","0.0-12.0-2.32","2d_cat_multi_stim_exp1","2022-4-21","14:52:32","25","75","3","9","10","40","30","120","51","19","[""Asian""]","No","Female","1711690","361","i","learn","","","learn_trial","10","100","out","0","1","","","","","","","","","","","","","","","","","","","","",""
"","","","","","canvas-keyboard-response","175","317255","0.0-12.0-3.32","2d_cat_multi_stim_exp1","2022-4-21","14:52:32","25","75","3","9","10","40","30","120","51","19","[""Asian""]","No","Female","1711690","null","null","learn_feedback","","","learn_feedback","10","100","out","","","","","","","","","","","","","","","","","","","","","","",""
"","","","","","canvas-keyboard-response","176","317314","0.0-12.0-4.32","2d_cat_multi_stim_exp1","2022-4-21","14:52:32","25","75","3","9","10","40","30","120","51","19","[""Asian""]","No","Female","1711690","null","null","","","","clear_screen","","","","","","","","","","","","","","","","","","","","","","","","","",""
"","","","","","canvas-keyboard-response","177","317823","0.0-12.0-0.33","2d_cat_multi_stim_exp1","2022-4-21","14:52:32","25","75","3","9","10","40","30","120","51","19","[""Asian""]","No","Female","1711690","null","null","","","","fixation","","","","","","","","","","","","","","","","","","","","","","","","","",""
"","","","","","canvas-keyboard-response","178","318332","0.0-12.0-1.33","2d_cat_multi_stim_exp1","2022-4-21","14:52:32","25","75","3","9","10","40","30","120","51","19","[""Asian""]","No","Female","1711690","null","null","","","","clear_screen","","","","","","","","","","","","","","","","","","","","","","","","","",""
"","","","","","canvas-keyboard-response","179","319290","0.0-12.0-2.33","2d_cat_multi_stim_exp1","2022-4-21","14:52:32","25","75","3","9","10","40","30","120","51","19","[""Asian""]","No","Female","1711690","946","i","learn","","","learn_trial","25","75","in","0","0","","","","","","","","","","","","","","","","","","","","",""
"","","","","","canvas-keyboard-response","180","320299","0.0-12.0-3.33","2d_cat_multi_stim_exp1","2022-4-21","14:52:32","25","75","3","9","10","40","30","120","51","19","[""Asian""]","No","Female","1711690","null","null","learn_feedback","","","learn_feedback","25","75","in","","","","","","","","","","","","","","","","","","","","","","",""
"","","","","","canvas-keyboard-response","181","320357","0.0-12.0-4.33","2d_cat_multi_stim_exp1","2022-4-21","14:52:32","25","75","3","9","10","40","30","120","51","19","[""Asian""]","No","Female","1711690","null","null","","","","clear_screen","","","","","","","","","","","","","","","","","","","","","","","","","",""
"","","","","","canvas-keyboard-response","182","320867","0.0-12.0-0.34","2d_cat_multi_stim_exp1","2022-4-21","14:52:32","25","75","3","9","10","40","30","120","51","19","[""Asian""]","No","Female","1711690","null","null","","","","fixation","","","","","","","","","","","","","","","","","","","","","","","","","",""
"","","","","","canvas-keyboard-response","183","321376","0.0-12.0-1.34","2d_cat_multi_stim_exp1","2022-4-21","14:52:32","25","75","3","9","10","40","30","120","51","19","[""Asian""]","No","Female","1711690","null","null","","","","clear_screen","","","","","","","","","","","","","","","","","","","","","","","","","",""
"","","","","","canvas-keyboard-response","184","321690","0.0-12.0-2.34","2d_cat_multi_stim_exp1","2022-4-21","14:52:32","25","75","3","9","10","40","30","120","51","19","[""Asian""]","No","Female","1711690","303","u","learn","","","learn_trial","20","90","out","1","0","","","","","","","","","","","","","","","","","","","","",""
"","","","","","canvas-keyboard-response","185","322699","0.0-12.0-3.34","2d_cat_multi_stim_exp1","2022-4-21","14:52:32","25","75","3","9","10","40","30","120","51","19","[""Asian""]","No","Female","1711690","null","null","learn_feedback","","","learn_feedback","20","90","out","","","","","","","","","","","","","","","","","","","","","","",""
"","","","","","canvas-keyboard-response","186","322757","0.0-12.0-4.34","2d_cat_multi_stim_exp1","2022-4-21","14:52:32","25","75","3","9","10","40","30","120","51","19","[""Asian""]","No","Female","1711690","null","null","","","","clear_screen","","","","","","","","","","","","","","","","","","","","","","","","","",""
"","","","","","canvas-keyboard-response","187","323267","0.0-12.0-0.35","2d_cat_multi_stim_exp1","2022-4-21","14:52:32","25","75","3","9","10","40","30","120","51","19","[""Asian""]","No","Female","1711690","null","null","","","","fixation","","","","","","","","","","","","","","","","","","","","","","","","","",""
"","","","","","canvas-keyboard-response","188","323776","0.0-12.0-1.35","2d_cat_multi_stim_exp1","2022-4-21","14:52:32","25","75","3","9","10","40","30","120","51","19","[""Asian""]","No","Female","1711690","null","null","","","","clear_screen","","","","","","","","","","","","","","","","","","","","","","","","","",""
"","","","","","canvas-keyboard-response","189","324137","0.0-12.0-2.35","2d_cat_multi_stim_exp1","2022-4-21","14:52:32","25","75","3","9","10","40","30","120","51","19","[""Asian""]","No","Female","1711690","349","i","learn","","","learn_trial","10","70","out","0","1","","","","","","","","","","","","","","","","","","","","",""
"","","","","","canvas-keyboard-response","190","324647","0.0-12.0-3.35","2d_cat_multi_stim_exp1","2022-4-21","14:52:32","25","75","3","9","10","40","30","120","51","19","[""Asian""]","No","Female","1711690","null","null","learn_feedback","","","learn_feedback","10","70","out","","","","","","","","","","","","","","","","","","","","","","",""
"","","","","","canvas-keyboard-response","191","324705","0.0-12.0-4.35","2d_cat_multi_stim_exp1","2022-4-21","14:52:32","25","75","3","9","10","40","30","120","51","19","[""Asian""]","No","Female","1711690","null","null","","","","clear_screen","","","","","","","","","","","","","","","","","","","","","","","","","",""
"","","","","","canvas-keyboard-response","192","325216","0.0-12.0-0.36","2d_cat_multi_stim_exp1","2022-4-21","14:52:32","25","75","3","9","10","40","30","120","51","19","[""Asian""]","No","Female","1711690","null","null","","","","fixation","","","","","","","","","","","","","","","","","","","","","","","","","",""
"","","","","","canvas-keyboard-response","193","325725","0.0-12.0-1.36","2d_cat_multi_stim_exp1","2022-4-21","14:52:32","25","75","3","9","10","40","30","120","51","19","[""Asian""]","No","Female","1711690","null","null","","","","clear_screen","","","","","","","","","","","","","","","","","","","","","","","","","",""
"","","","","","canvas-keyboard-response","194","326465","0.0-12.0-2.36","2d_cat_multi_stim_exp1","2022-4-21","14:52:32","25","75","3","9","10","40","30","120","51","19","[""Asian""]","No","Female","1711690","730","i","learn","","","learn_trial","33.3333","110","out","0","1","","","","","","","","","","","","","","","","","","","","",""
"","","","","","canvas-keyboard-response","195","326974","0.0-12.0-3.36","2d_cat_multi_stim_exp1","2022-4-21","14:52:32","25","75","3","9","10","40","30","120","51","19","[""Asian""]","No","Female","1711690","null","null","learn_feedback","","","learn_feedback","33.3333","110","out","","","","","","","","","","","","","","","","","","","","","","",""
"","","","","","canvas-keyboard-response","196","327034","0.0-12.0-4.36","2d_cat_multi_stim_exp1","2022-4-21","14:52:32","25","75","3","9","10","40","30","120","51","19","[""Asian""]","No","Female","1711690","null","null","","","","clear_screen","","","","","","","","","","","","","","","","","","","","","","","","","",""
"","","","","","canvas-keyboard-response","197","327543","0.0-12.0-0.37","2d_cat_multi_stim_exp1","2022-4-21","14:52:32","25","75","3","9","10","40","30","120","51","19","[""Asian""]","No","Female","1711690","null","null","","","","fixation","","","","","","","","","","","","","","","","","","","","","","","","","",""
"","","","","","canvas-keyboard-response","198","328052","0.0-12.0-1.37","2d_cat_multi_stim_exp1","2022-4-21","14:52:32","25","75","3","9","10","40","30","120","51","19","[""Asian""]","No","Female","1711690","null","null","","","","clear_screen","","","","","","","","","","","","","","","","","","","","","","","","","",""
"","","","","","canvas-keyboard-response","199","328769","0.0-12.0-2.37","2d_cat_multi_stim_exp1","2022-4-21","14:52:32","25","75","3","9","10","40","30","120","51","19","[""Asian""]","No","Female","1711690","709","i","learn","","","learn_trial","26.6667","50","out","0","1","","","","","","","","","","","","","","","","","","","","",""
"","","","","","canvas-keyboard-response","200","329279","0.0-12.0-3.37","2d_cat_multi_stim_exp1","2022-4-21","14:52:32","25","75","3","9","10","40","30","120","51","19","[""Asian""]","No","Female","1711690","null","null","learn_feedback","","","learn_feedback","26.6667","50","out","","","","","","","","","","","","","","","","","","","","","","",""
"","","","","","canvas-keyboard-response","201","329338","0.0-12.0-4.37","2d_cat_multi_stim_exp1","2022-4-21","14:52:32","25","75","3","9","10","40","30","120","51","19","[""Asian""]","No","Female","1711690","null","null","","","","clear_screen","","","","","","","","","","","","","","","","","","","","","","","","","",""
"","","","","","canvas-keyboard-response","202","329848","0.0-12.0-0.38","2d_cat_multi_stim_exp1","2022-4-21","14:52:32","25","75","3","9","10","40","30","120","51","19","[""Asian""]","No","Female","1711690","null","null","","","","fixation","","","","","","","","","","","","","","","","","","","","","","","","","",""
"","","","","","canvas-keyboard-response","203","330357","0.0-12.0-1.38","2d_cat_multi_stim_exp1","2022-4-21","14:52:32","25","75","3","9","10","40","30","120","51","19","[""Asian""]","No","Female","1711690","null","null","","","","clear_screen","","","","","","","","","","","","","","","","","","","","","","","","","",""
"","","","","","canvas-keyboard-response","204","330802","0.0-12.0-2.38","2d_cat_multi_stim_exp1","2022-4-21","14:52:32","25","75","3","9","10","40","30","120","51","19","[""Asian""]","No","Female","1711690","433","i","learn","","","learn_trial","22.1081","72.6057","in","0","0","","","","","","","","","","","","","","","","","","","","",""
"","","","","","canvas-keyboard-response","205","331814","0.0-12.0-3.38","2d_cat_multi_stim_exp1","2022-4-21","14:52:32","25","75","3","9","10","40","30","120","51","19","[""Asian""]","No","Female","1711690","null","null","learn_feedback","","","learn_feedback","22.1081","72.6057","in","","","","","","","","","","","","","","","","","","","","","","",""
"","","","","","canvas-keyboard-response","206","331876","0.0-12.0-4.38","2d_cat_multi_stim_exp1","2022-4-21","14:52:32","25","75","3","9","10","40","30","120","51","19","[""Asian""]","No","Female","1711690","null","null","","","","clear_screen","","","","","","","","","","","","","","","","","","","","","","","","","",""
"","","","","","canvas-keyboard-response","207","332387","0.0-12.0-0.39","2d_cat_multi_stim_exp1","2022-4-21","14:52:32","25","75","3","9","10","40","30","120","51","19","[""Asian""]","No","Female","1711690","null","null","","","","fixation","","","","","","","","","","","","","","","","","","","","","","","","","",""
"","","","","","canvas-keyboard-response","208","332897","0.0-12.0-1.39","2d_cat_multi_stim_exp1","2022-4-21","14:52:32","25","75","3","9","10","40","30","120","51","19","[""Asian""]","No","Female","1711690","null","null","","","","clear_screen","","","","","","","","","","","","","","","","","","","","","","","","","",""
"","","","","","canvas-keyboard-response","209","332946","0.0-12.0-2.39","2d_cat_multi_stim_exp1","2022-4-21","14:52:32","25","75","3","9","10","40","30","120","51","19","[""Asian""]","No","Female","1711690","40","u","learn","","","learn_trial","40","90","out","1","0","","","","","","","","","","","","","","","","","","","","",""
"","","","","","canvas-keyboard-response","210","333956","0.0-12.0-3.39","2d_cat_multi_stim_exp1","2022-4-21","14:52:32","25","75","3","9","10","40","30","120","51","19","[""Asian""]","No","Female","1711690","null","null","learn_feedback","","","learn_feedback","40","90","out","","","","","","","","","","","","","","","","","","","","","","",""
"","","","","","canvas-keyboard-response","211","334015","0.0-12.0-4.39","2d_cat_multi_stim_exp1","2022-4-21","14:52:32","25","75","3","9","10","40","30","120","51","19","[""Asian""]","No","Female","1711690","null","null","","","","clear_screen","","","","","","","","","","","","","","","","","","","","","","","","","",""
"","","","","","canvas-keyboard-response","212","334524","0.0-12.0-0.40","2d_cat_multi_stim_exp1","2022-4-21","14:52:32","25","75","3","9","10","40","30","120","51","19","[""Asian""]","No","Female","1711690","null","null","","","","fixation","","","","","","","","","","","","","","","","","","","","","","","","","",""
"","","","","","canvas-keyboard-response","213","335036","0.0-12.0-1.40","2d_cat_multi_stim_exp1","2022-4-21","14:52:32","25","75","3","9","10","40","30","120","51","19","[""Asian""]","No","Female","1711690","null","null","","","","clear_screen","","","","","","","","","","","","","","","","","","","","","","","","","",""
"","","","","","canvas-keyboard-response","214","335354","0.0-12.0-2.40","2d_cat_multi_stim_exp1","2022-4-21","14:52:32","25","75","3","9","10","40","30","120","51","19","[""Asian""]","No","Female","1711690","308","i","learn","","","learn_trial","20","80","out","0","1","","","","","","","","","","","","","","","","","","","","",""
"","","","","","canvas-keyboard-response","215","335865","0.0-12.0-3.40","2d_cat_multi_stim_exp1","2022-4-21","14:52:32","25","75","3","9","10","40","30","120","51","19","[""Asian""]","No","Female","1711690","null","null","learn_feedback","","","learn_feedback","20","80","out","","","","","","","","","","","","","","","","","","","","","","",""
"","","","","","canvas-keyboard-response","216","335924","0.0-12.0-4.40","2d_cat_multi_stim_exp1","2022-4-21","14:52:32","25","75","3","9","10","40","30","120","51","19","[""Asian""]","No","Female","1711690","null","null","","","","clear_screen","","","","","","","","","","","","","","","","","","","","","","","","","",""
"","","","","","canvas-keyboard-response","217","336434","0.0-12.0-0.41","2d_cat_multi_stim_exp1","2022-4-21","14:52:32","25","75","3","9","10","40","30","120","51","19","[""Asian""]","No","Female","1711690","null","null","","","","fixation","","","","","","","","","","","","","","","","","","","","","","","","","",""
"","","","","","canvas-keyboard-response","218","336944","0.0-12.0-1.41","2d_cat_multi_stim_exp1","2022-4-21","14:52:32","25","75","3","9","10","40","30","120","51","19","[""Asian""]","No","Female","1711690","null","null","","","","clear_screen","","","","","","","","","","","","","","","","","","","","","","","","","",""
"","","","","","canvas-keyboard-response","219","337385","0.0-12.0-2.41","2d_cat_multi_stim_exp1","2022-4-21","14:52:32","25","75","3","9","10","40","30","120","51","19","[""Asian""]","No","Female","1711690","432","u","learn","","","learn_trial","19","75","in","1","1","","","","","","","","","","","","","","","","","","","","",""
"","","","","","canvas-keyboard-response","220","337895","0.0-12.0-3.41","2d_cat_multi_stim_exp1","2022-4-21","14:52:32","25","75","3","9","10","40","30","120","51","19","[""Asian""]","No","Female","1711690","null","null","learn_feedback","","","learn_feedback","19","75","in","","","","","","","","","","","","","","","","","","","","","","",""
"","","","","","canvas-keyboard-response","221","337954","0.0-12.0-4.41","2d_cat_multi_stim_exp1","2022-4-21","14:52:32","25","75","3","9","10","40","30","120","51","19","[""Asian""]","No","Female","1711690","null","null","","","","clear_screen","","","","","","","","","","","","","","","","","","","","","","","","","",""
"","","","","","canvas-keyboard-response","222","338464","0.0-12.0-0.42","2d_cat_multi_stim_exp1","2022-4-21","14:52:32","25","75","3","9","10","40","30","120","51","19","[""Asian""]","No","Female","1711690","null","null","","","","fixation","","","","","","","","","","","","","","","","","","","","","","","","","",""
"","","","","","canvas-keyboard-response","223","338973","0.0-12.0-1.42","2d_cat_multi_stim_exp1","2022-4-21","14:52:32","25","75","3","9","10","40","30","120","51","19","[""Asian""]","No","Female","1711690","null","null","","","","clear_screen","","","","","","","","","","","","","","","","","","","","","","","","","",""
"","","","","","canvas-keyboard-response","224","339410","0.0-12.0-2.42","2d_cat_multi_stim_exp1","2022-4-21","14:52:32","25","75","3","9","10","40","30","120","51","19","[""Asian""]","No","Female","1711690","426","u","learn","","","learn_trial","23.3333","60","out","1","0","","","","","","","","","","","","","","","","","","","","",""
"","","","","","canvas-keyboard-response","225","340419","0.0-12.0-3.42","2d_cat_multi_stim_exp1","2022-4-21","14:52:32","25","75","3","9","10","40","30","120","51","19","[""Asian""]","No","Female","1711690","null","null","learn_feedback","","","learn_feedback","23.3333","60","out","","","","","","","","","","","","","","","","","","","","","","",""
"","","","","","canvas-keyboard-response","226","340478","0.0-12.0-4.42","2d_cat_multi_stim_exp1","2022-4-21","14:52:32","25","75","3","9","10","40","30","120","51","19","[""Asian""]","No","Female","1711690","null","null","","","","clear_screen","","","","","","","","","","","","","","","","","","","","","","","","","",""
"","","","","","canvas-keyboard-response","227","340988","0.0-12.0-0.43","2d_cat_multi_stim_exp1","2022-4-21","14:52:32","25","75","3","9","10","40","30","120","51","19","[""Asian""]","No","Female","1711690","null","null","","","","fixation","","","","","","","","","","","","","","","","","","","","","","","","","",""
"","","","","","canvas-keyboard-response","228","341497","0.0-12.0-1.43","2d_cat_multi_stim_exp1","2022-4-21","14:52:32","25","75","3","9","10","40","30","120","51","19","[""Asian""]","No","Female","1711690","null","null","","","","clear_screen","","","","","","","","","","","","","","","","","","","","","","","","","",""
"","","","","","canvas-keyboard-response","229","341609","0.0-12.0-2.43","2d_cat_multi_stim_exp1","2022-4-21","14:52:32","25","75","3","9","10","40","30","120","51","19","[""Asian""]","No","Female","1711690","102","i","learn","","","learn_trial","16.6667","70","out","0","1","","","","","","","","","","","","","","","","","","","","",""
"","","","","","canvas-keyboard-response","230","342120","0.0-12.0-3.43","2d_cat_multi_stim_exp1","2022-4-21","14:52:32","25","75","3","9","10","40","30","120","51","19","[""Asian""]","No","Female","1711690","null","null","learn_feedback","","","learn_feedback","16.6667","70","out","","","","","","","","","","","","","","","","","","","","","","",""
"","","","","","canvas-keyboard-response","231","342178","0.0-12.0-4.43","2d_cat_multi_stim_exp1","2022-4-21","14:52:32","25","75","3","9","10","40","30","120","51","19","[""Asian""]","No","Female","1711690","null","null","","","","clear_screen","","","","","","","","","","","","","","","","","","","","","","","","","",""
"","","","","","canvas-keyboard-response","232","342691","0.0-12.0-0.44","2d_cat_multi_stim_exp1","2022-4-21","14:52:32","25","75","3","9","10","40","30","120","51","19","[""Asian""]","No","Female","1711690","null","null","","","","fixation","","","","","","","","","","","","","","","","","","","","","","","","","",""
"","","","","","canvas-keyboard-response","233","343201","0.0-12.0-1.44","2d_cat_multi_stim_exp1","2022-4-21","14:52:32","25","75","3","9","10","40","30","120","51","19","[""Asian""]","No","Female","1711690","null","null","","","","clear_screen","","","","","","","","","","","","","","","","","","","","","","","","","",""
"","","","","","canvas-keyboard-response","234","343552","0.0-12.0-2.44","2d_cat_multi_stim_exp1","2022-4-21","14:52:32","25","75","3","9","10","40","30","120","51","19","[""Asian""]","No","Female","1711690","342","i","learn","","","learn_trial","16.6667","100","out","0","1","","","","","","","","","","","","","","","","","","","","",""
"","","","","","canvas-keyboard-response","235","344063","0.0-12.0-3.44","2d_cat_multi_stim_exp1","2022-4-21","14:52:32","25","75","3","9","10","40","30","120","51","19","[""Asian""]","No","Female","1711690","null","null","learn_feedback","","","learn_feedback","16.6667","100","out","","","","","","","","","","","","","","","","","","","","","","",""
"","","","","","canvas-keyboard-response","236","344122","0.0-12.0-4.44","2d_cat_multi_stim_exp1","2022-4-21","14:52:32","25","75","3","9","10","40","30","120","51","19","[""Asian""]","No","Female","1711690","null","null","","","","clear_screen","","","","","","","","","","","","","","","","","","","","","","","","","",""
"","","","","","canvas-keyboard-response","237","344630","0.0-12.0-0.45","2d_cat_multi_stim_exp1","2022-4-21","14:52:32","25","75","3","9","10","40","30","120","51","19","[""Asian""]","No","Female","1711690","null","null","","","","fixation","","","","","","","","","","","","","","","","","","","","","","","","","",""
"","","","","","canvas-keyboard-response","238","345141","0.0-12.0-1.45","2d_cat_multi_stim_exp1","2022-4-21","14:52:32","25","75","3","9","10","40","30","120","51","19","[""Asian""]","No","Female","1711690","null","null","","","","clear_screen","","","","","","","","","","","","","","","","","","","","","","","","","",""
"","","","","","canvas-keyboard-response","239","345618","0.0-12.0-2.45","2d_cat_multi_stim_exp1","2022-4-21","14:52:32","25","75","3","9","10","40","30","120","51","19","[""Asian""]","No","Female","1711690","467","i","learn","","","learn_trial","25","75","in","0","0","","","","","","","","","","","","","","","","","","","","",""
"","","","","","canvas-keyboard-response","240","346628","0.0-12.0-3.45","2d_cat_multi_stim_exp1","2022-4-21","14:52:32","25","75","3","9","10","40","30","120","51","19","[""Asian""]","No","Female","1711690","null","null","learn_feedback","","","learn_feedback","25","75","in","","","","","","","","","","","","","","","","","","","","","","",""
"","","","","","canvas-keyboard-response","241","346687","0.0-12.0-4.45","2d_cat_multi_stim_exp1","2022-4-21","14:52:32","25","75","3","9","10","40","30","120","51","19","[""Asian""]","No","Female","1711690","null","null","","","","clear_screen","","","","","","","","","","","","","","","","","","","","","","","","","",""
"","","","","","canvas-keyboard-response","242","347196","0.0-12.0-0.46","2d_cat_multi_stim_exp1","2022-4-21","14:52:32","25","75","3","9","10","40","30","120","51","19","[""Asian""]","No","Female","1711690","null","null","","","","fixation","","","","","","","","","","","","","","","","","","","","","","","","","",""
"","","","","","canvas-keyboard-response","243","347705","0.0-12.0-1.46","2d_cat_multi_stim_exp1","2022-4-21","14:52:32","25","75","3","9","10","40","30","120","51","19","[""Asian""]","No","Female","1711690","null","null","","","","clear_screen","","","","","","","","","","","","","","","","","","","","","","","","","",""
"","","","","","canvas-keyboard-response","244","348105","0.0-12.0-2.46","2d_cat_multi_stim_exp1","2022-4-21","14:52:32","25","75","3","9","10","40","30","120","51","19","[""Asian""]","No","Female","1711690","390","u","learn","","","learn_trial","25","75","in","1","1","","","","","","","","","","","","","","","","","","","","",""
"","","","","","canvas-keyboard-response","245","348614","0.0-12.0-3.46","2d_cat_multi_stim_exp1","2022-4-21","14:52:32","25","75","3","9","10","40","30","120","51","19","[""Asian""]","No","Female","1711690","null","null","learn_feedback","","","learn_feedback","25","75","in","","","","","","","","","","","","","","","","","","","","","","",""
"","","","","","canvas-keyboard-response","246","348674","0.0-12.0-4.46","2d_cat_multi_stim_exp1","2022-4-21","14:52:32","25","75","3","9","10","40","30","120","51","19","[""Asian""]","No","Female","1711690","null","null","","","","clear_screen","","","","","","","","","","","","","","","","","","","","","","","","","",""
"","","","","","canvas-keyboard-response","247","349185","0.0-12.0-0.47","2d_cat_multi_stim_exp1","2022-4-21","14:52:32","25","75","3","9","10","40","30","120","51","19","[""Asian""]","No","Female","1711690","null","null","","","","fixation","","","","","","","","","","","","","","","","","","","","","","","","","",""
"","","","","","canvas-keyboard-response","248","349695","0.0-12.0-1.47","2d_cat_multi_stim_exp1","2022-4-21","14:52:32","25","75","3","9","10","40","30","120","51","19","[""Asian""]","No","Female","1711690","null","null","","","","clear_screen","","","","","","","","","","","","","","","","","","","","","","","","","",""
"","","","","","canvas-keyboard-response","249","350130","0.0-12.0-2.47","2d_cat_multi_stim_exp1","2022-4-21","14:52:32","25","75","3","9","10","40","30","120","51","19","[""Asian""]","No","Female","1711690","425","u","learn","","","learn_trial","22.2971","71.095","in","1","1","","","","","","","","","","","","","","","","","","","","",""
"","","","","","canvas-keyboard-response","250","350639","0.0-12.0-3.47","2d_cat_multi_stim_exp1","2022-4-21","14:52:32","25","75","3","9","10","40","30","120","51","19","[""Asian""]","No","Female","1711690","null","null","learn_feedback","","","learn_feedback","22.2971","71.095","in","","","","","","","","","","","","","","","","","","","","","","",""
"","","","","","canvas-keyboard-response","251","350699","0.0-12.0-4.47","2d_cat_multi_stim_exp1","2022-4-21","14:52:32","25","75","3","9","10","40","30","120","51","19","[""Asian""]","No","Female","1711690","null","null","","","","clear_screen","","","","","","","","","","","","","","","","","","","","","","","","","",""
"","","","","","canvas-keyboard-response","252","351208","0.0-12.0-0.48","2d_cat_multi_stim_exp1","2022-4-21","14:52:32","25","75","3","9","10","40","30","120","51","19","[""Asian""]","No","Female","1711690","null","null","","","","fixation","","","","","","","","","","","","","","","","","","","","","","","","","",""
"","","","","","canvas-keyboard-response","253","351717","0.0-12.0-1.48","2d_cat_multi_stim_exp1","2022-4-21","14:52:32","25","75","3","9","10","40","30","120","51","19","[""Asian""]","No","Female","1711690","null","null","","","","clear_screen","","","","","","","","","","","","","","","","","","","","","","","","","",""
"","","","","","canvas-keyboard-response","254","352130","0.0-12.0-2.48","2d_cat_multi_stim_exp1","2022-4-21","14:52:32","25","75","3","9","10","40","30","120","51","19","[""Asian""]","No","Female","1711690","403","u","learn","","","learn_trial","24.3324","83.7744","in","1","1","","","","","","","","","","","","","","","","","","","","",""
"","","","","","canvas-keyboard-response","255","352640","0.0-12.0-3.48","2d_cat_multi_stim_exp1","2022-4-21","14:52:32","25","75","3","9","10","40","30","120","51","19","[""Asian""]","No","Female","1711690","null","null","learn_feedback","","","learn_feedback","24.3324","83.7744","in","","","","","","","","","","","","","","","","","","","","","","",""
"","","","","","canvas-keyboard-response","256","352698","0.0-12.0-4.48","2d_cat_multi_stim_exp1","2022-4-21","14:52:32","25","75","3","9","10","40","30","120","51","19","[""Asian""]","No","Female","1711690","null","null","","","","clear_screen","","","","","","","","","","","","","","","","","","","","","","","","","",""
"","","","","","canvas-keyboard-response","257","353208","0.0-12.0-0.49","2d_cat_multi_stim_exp1","2022-4-21","14:52:32","25","75","3","9","10","40","30","120","51","19","[""Asian""]","No","Female","1711690","null","null","","","","fixation","","","","","","","","","","","","","","","","","","","","","","","","","",""
"","","","","","canvas-keyboard-response","258","353717","0.0-12.0-1.49","2d_cat_multi_stim_exp1","2022-4-21","14:52:32","25","75","3","9","10","40","30","120","51","19","[""Asian""]","No","Female","1711690","null","null","","","","clear_screen","","","","","","","","","","","","","","","","","","","","","","","","","",""
"","","","","","canvas-keyboard-response","259","354184","0.0-12.0-2.49","2d_cat_multi_stim_exp1","2022-4-21","14:52:32","25","75","3","9","10","40","30","120","51","19","[""Asian""]","No","Female","1711690","458","u","learn","","","learn_trial","25.9271","66.4405","in","1","1","","","","","","","","","","","","","","","","","","","","",""
"","","","","","canvas-keyboard-response","260","354695","0.0-12.0-3.49","2d_cat_multi_stim_exp1","2022-4-21","14:52:32","25","75","3","9","10","40","30","120","51","19","[""Asian""]","No","Female","1711690","null","null","learn_feedback","","","learn_feedback","25.9271","66.4405","in","","","","","","","","","","","","","","","","","","","","","","",""
"","","","","","canvas-keyboard-response","261","354754","0.0-12.0-4.49","2d_cat_multi_stim_exp1","2022-4-21","14:52:32","25","75","3","9","10","40","30","120","51","19","[""Asian""]","No","Female","1711690","null","null","","","","clear_screen","","","","","","","","","","","","","","","","","","","","","","","","","",""
"","","","","","canvas-keyboard-response","262","355262","0.0-12.0-0.50","2d_cat_multi_stim_exp1","2022-4-21","14:52:32","25","75","3","9","10","40","30","120","51","19","[""Asian""]","No","Female","1711690","null","null","","","","fixation","","","","","","","","","","","","","","","","","","","","","","","","","",""
"","","","","","canvas-keyboard-response","263","355773","0.0-12.0-1.50","2d_cat_multi_stim_exp1","2022-4-21","14:52:32","25","75","3","9","10","40","30","120","51","19","[""Asian""]","No","Female","1711690","null","null","","","","clear_screen","","","","","","","","","","","","","","","","","","","","","","","","","",""
"","","","","","canvas-keyboard-response","264","356297","0.0-12.0-2.50","2d_cat_multi_stim_exp1","2022-4-21","14:52:32","25","75","3","9","10","40","30","120","51","19","[""Asian""]","No","Female","1711690","514","u","learn","","","learn_trial","25","75","in","1","1","","","","","","","","","","","","","","","","","","","","",""
"","","","","","canvas-keyboard-response","265","356808","0.0-12.0-3.50","2d_cat_multi_stim_exp1","2022-4-21","14:52:32","25","75","3","9","10","40","30","120","51","19","[""Asian""]","No","Female","1711690","null","null","learn_feedback","","","learn_feedback","25","75","in","","","","","","","","","","","","","","","","","","","","","","",""
"","","","","","canvas-keyboard-response","266","356867","0.0-12.0-4.50","2d_cat_multi_stim_exp1","2022-4-21","14:52:32","25","75","3","9","10","40","30","120","51","19","[""Asian""]","No","Female","1711690","null","null","","","","clear_screen","","","","","","","","","","","","","","","","","","","","","","","","","",""
"","","","","","canvas-keyboard-response","267","357376","0.0-12.0-0.51","2d_cat_multi_stim_exp1","2022-4-21","14:52:32","25","75","3","9","10","40","30","120","51","19","[""Asian""]","No","Female","1711690","null","null","","","","fixation","","","","","","","","","","","","","","","","","","","","","","","","","",""
"","","","","","canvas-keyboard-response","268","357886","0.0-12.0-1.51","2d_cat_multi_stim_exp1","2022-4-21","14:52:32","25","75","3","9","10","40","30","120","51","19","[""Asian""]","No","Female","1711690","null","null","","","","clear_screen","","","","","","","","","","","","","","","","","","","","","","","","","",""
"","","","","","canvas-keyboard-response","269","358552","0.0-12.0-2.51","2d_cat_multi_stim_exp1","2022-4-21","14:52:32","25","75","3","9","10","40","30","120","51","19","[""Asian""]","No","Female","1711690","658","i","learn","","","learn_trial","36.6667","60","out","0","1","","","","","","","","","","","","","","","","","","","","",""
"","","","","","canvas-keyboard-response","270","359061","0.0-12.0-3.51","2d_cat_multi_stim_exp1","2022-4-21","14:52:32","25","75","3","9","10","40","30","120","51","19","[""Asian""]","No","Female","1711690","null","null","learn_feedback","","","learn_feedback","36.6667","60","out","","","","","","","","","","","","","","","","","","","","","","",""
"","","","","","canvas-keyboard-response","271","359120","0.0-12.0-4.51","2d_cat_multi_stim_exp1","2022-4-21","14:52:32","25","75","3","9","10","40","30","120","51","19","[""Asian""]","No","Female","1711690","null","null","","","","clear_screen","","","","","","","","","","","","","","","","","","","","","","","","","",""
"","","","","","canvas-keyboard-response","272","359630","0.0-12.0-0.52","2d_cat_multi_stim_exp1","2022-4-21","14:52:32","25","75","3","9","10","40","30","120","51","19","[""Asian""]","No","Female","1711690","null","null","","","","fixation","","","","","","","","","","","","","","","","","","","","","","","","","",""
"","","","","","canvas-keyboard-response","273","360139","0.0-12.0-1.52","2d_cat_multi_stim_exp1","2022-4-21","14:52:32","25","75","3","9","10","40","30","120","51","19","[""Asian""]","No","Female","1711690","null","null","","","","clear_screen","","","","","","","","","","","","","","","","","","","","","","","","","",""
"","","","","","canvas-keyboard-response","274","361297","0.0-12.0-2.52","2d_cat_multi_stim_exp1","2022-4-21","14:52:32","25","75","3","9","10","40","30","120","51","19","[""Asian""]","No","Female","1711690","1148","i","learn","","","learn_trial","23.3333","30","out","0","1","","","","","","","","","","","","","","","","","","","","",""
"","","","","","canvas-keyboard-response","275","361806","0.0-12.0-3.52","2d_cat_multi_stim_exp1","2022-4-21","14:52:32","25","75","3","9","10","40","30","120","51","19","[""Asian""]","No","Female","1711690","null","null","learn_feedback","","","learn_feedback","23.3333","30","out","","","","","","","","","","","","","","","","","","","","","","",""
"","","","","","canvas-keyboard-response","276","361865","0.0-12.0-4.52","2d_cat_multi_stim_exp1","2022-4-21","14:52:32","25","75","3","9","10","40","30","120","51","19","[""Asian""]","No","Female","1711690","null","null","","","","clear_screen","","","","","","","","","","","","","","","","","","","","","","","","","",""
"","","","","","canvas-keyboard-response","277","362375","0.0-12.0-0.53","2d_cat_multi_stim_exp1","2022-4-21","14:52:32","25","75","3","9","10","40","30","120","51","19","[""Asian""]","No","Female","1711690","null","null","","","","fixation","","","","","","","","","","","","","","","","","","","","","","","","","",""
"","","","","","canvas-keyboard-response","278","362886","0.0-12.0-1.53","2d_cat_multi_stim_exp1","2022-4-21","14:52:32","25","75","3","9","10","40","30","120","51","19","[""Asian""]","No","Female","1711690","null","null","","","","clear_screen","","","","","","","","","","","","","","","","","","","","","","","","","",""
"","","","","","canvas-keyboard-response","279","364513","0.0-12.0-2.53","2d_cat_multi_stim_exp1","2022-4-21","14:52:32","25","75","3","9","10","40","30","120","51","19","[""Asian""]","No","Female","1711690","1614","u","learn","","","learn_trial","27.9518","76.607","in","1","1","","","","","","","","","","","","","","","","","","","","",""
"","","","","","canvas-keyboard-response","280","365026","0.0-12.0-3.53","2d_cat_multi_stim_exp1","2022-4-21","14:52:32","25","75","3","9","10","40","30","120","51","19","[""Asian""]","No","Female","1711690","null","null","learn_feedback","","","learn_feedback","27.9518","76.607","in","","","","","","","","","","","","","","","","","","","","","","",""
"","","","","","canvas-keyboard-response","281","365087","0.0-12.0-4.53","2d_cat_multi_stim_exp1","2022-4-21","14:52:32","25","75","3","9","10","40","30","120","51","19","[""Asian""]","No","Female","1711690","null","null","","","","clear_screen","","","","","","","","","","","","","","","","","","","","","","","","","",""
"","","","","","canvas-keyboard-response","282","365598","0.0-12.0-0.54","2d_cat_multi_stim_exp1","2022-4-21","14:52:32","25","75","3","9","10","40","30","120","51","19","[""Asian""]","No","Female","1711690","null","null","","","","fixation","","","","","","","","","","","","","","","","","","","","","","","","","",""
"","","","","","canvas-keyboard-response","283","366107","0.0-12.0-1.54","2d_cat_multi_stim_exp1","2022-4-21","14:52:32","25","75","3","9","10","40","30","120","51","19","[""Asian""]","No","Female","1711690","null","null","","","","clear_screen","","","","","","","","","","","","","","","","","","","","","","","","","",""
"","","","","","canvas-keyboard-response","284","366609","0.0-12.0-2.54","2d_cat_multi_stim_exp1","2022-4-21","14:52:32","25","75","3","9","10","40","30","120","51","19","[""Asian""]","No","Female","1711690","492","u","learn","","","learn_trial","25","75","in","1","1","","","","","","","","","","","","","","","","","","","","",""
"","","","","","canvas-keyboard-response","285","367119","0.0-12.0-3.54","2d_cat_multi_stim_exp1","2022-4-21","14:52:32","25","75","3","9","10","40","30","120","51","19","[""Asian""]","No","Female","1711690","null","null","learn_feedback","","","learn_feedback","25","75","in","","","","","","","","","","","","","","","","","","","","","","",""
"","","","","","canvas-keyboard-response","286","367178","0.0-12.0-4.54","2d_cat_multi_stim_exp1","2022-4-21","14:52:32","25","75","3","9","10","40","30","120","51","19","[""Asian""]","No","Female","1711690","null","null","","","","clear_screen","","","","","","","","","","","","","","","","","","","","","","","","","",""
"","","","","","canvas-keyboard-response","287","367688","0.0-12.0-0.55","2d_cat_multi_stim_exp1","2022-4-21","14:52:32","25","75","3","9","10","40","30","120","51","19","[""Asian""]","No","Female","1711690","null","null","","","","fixation","","","","","","","","","","","","","","","","","","","","","","","","","",""
"","","","","","canvas-keyboard-response","288","368198","0.0-12.0-1.55","2d_cat_multi_stim_exp1","2022-4-21","14:52:32","25","75","3","9","10","40","30","120","51","19","[""Asian""]","No","Female","1711690","null","null","","","","clear_screen","","","","","","","","","","","","","","","","","","","","","","","","","",""
"","","","","","canvas-keyboard-response","289","368593","0.0-12.0-2.55","2d_cat_multi_stim_exp1","2022-4-21","14:52:32","25","75","3","9","10","40","30","120","51","19","[""Asian""]","No","Female","1711690","385","u","learn","","","learn_trial","25","75","in","1","1","","","","","","","","","","","","","","","","","","","","",""
"","","","","","canvas-keyboard-response","290","369103","0.0-12.0-3.55","2d_cat_multi_stim_exp1","2022-4-21","14:52:32","25","75","3","9","10","40","30","120","51","19","[""Asian""]","No","Female","1711690","null","null","learn_feedback","","","learn_feedback","25","75","in","","","","","","","","","","","","","","","","","","","","","","",""
"","","","","","canvas-keyboard-response","291","369163","0.0-12.0-4.55","2d_cat_multi_stim_exp1","2022-4-21","14:52:32","25","75","3","9","10","40","30","120","51","19","[""Asian""]","No","Female","1711690","null","null","","","","clear_screen","","","","","","","","","","","","","","","","","","","","","","","","","",""
"","","","","","canvas-keyboard-response","292","369673","0.0-12.0-0.56","2d_cat_multi_stim_exp1","2022-4-21","14:52:32","25","75","3","9","10","40","30","120","51","19","[""Asian""]","No","Female","1711690","null","null","","","","fixation","","","","","","","","","","","","","","","","","","","","","","","","","",""
"","","","","","canvas-keyboard-response","293","370182","0.0-12.0-1.56","2d_cat_multi_stim_exp1","2022-4-21","14:52:32","25","75","3","9","10","40","30","120","51","19","[""Asian""]","No","Female","1711690","null","null","","","","clear_screen","","","","","","","","","","","","","","","","","","","","","","","","","",""
"","","","","","canvas-keyboard-response","294","370584","0.0-12.0-2.56","2d_cat_multi_stim_exp1","2022-4-21","14:52:32","25","75","3","9","10","40","30","120","51","19","[""Asian""]","No","Female","1711690","389","u","learn","","","learn_trial","25","75","in","1","1","","","","","","","","","","","","","","","","","","","","",""
"","","","","","canvas-keyboard-response","295","371095","0.0-12.0-3.56","2d_cat_multi_stim_exp1","2022-4-21","14:52:32","25","75","3","9","10","40","30","120","51","19","[""Asian""]","No","Female","1711690","null","null","learn_feedback","","","learn_feedback","25","75","in","","","","","","","","","","","","","","","","","","","","","","",""
"","","","","","canvas-keyboard-response","296","371154","0.0-12.0-4.56","2d_cat_multi_stim_exp1","2022-4-21","14:52:32","25","75","3","9","10","40","30","120","51","19","[""Asian""]","No","Female","1711690","null","null","","","","clear_screen","","","","","","","","","","","","","","","","","","","","","","","","","",""
