"success","timeout","failed_images","failed_audio","failed_video","trial_type","trial_index","time_elapsed","internal_node_id","exp_name","date","time","angle_mean_in","radius_mean_in","angle_sd_in","radius_sd_in","angle_min_out","angle_max_out","radius_min_out","radius_max_out","sub_n","age","race","ethnicity","gender","exp_duration","rt","response","exp_trial_type","stimulus","view_history","screen_id","angle","radius","distribution","choice","correct","order","angle_a","radius_a","angle_b","radius_b","jkl_correct","transfer_trial_type","choice_set","abc_correct","tc_correct","tc_angle","tdc_a","tdc_b","tdc_c","pair","category_a","category_b","category_c","angle_c","radius_c","question_order"
"true","false","[]","[]","[]","preload","0","47","0.0-0.0","2d_cat_multi_stim_exp1","2022-5-3","9:6:12","25","75","3","9","10","40","30","120","80","21","[""White""]","No","Female","2657299","","","","","","","","","","","","","","","","","","","","","","","","","","","","","","","",""
"","","","","","survey-html-form","1","2463","0.0-1.0","2d_cat_multi_stim_exp1","2022-5-3","9:6:12","25","75","3","9","10","40","30","120","80","21","[""White""]","No","Female","2657299","2389","{""response"":""80""}","enter-sub-number","","","","","","","","","","","","","","","","","","","","","","","","","","","","",""
"true","","","","","fullscreen","2","4997","0.0-2.0","2d_cat_multi_stim_exp1","2022-5-3","9:6:12","25","75","3","9","10","40","30","120","80","21","[""White""]","No","Female","2657299","","","","","","","","","","","","","","","","","","","","","","","","","","","","","","","",""
"","","","","","image-button-response","3","55582","0.0-3.0","2d_cat_multi_stim_exp1","2022-5-3","9:6:12","25","75","3","9","10","40","30","120","80","21","[""White""]","No","Female","2657299","50577","0","","consent.png","","","","","","","","","","","","","","","","","","","","","","","","","","","",""
"","","","","","html-button-response","4","60245","0.0-4.0","2d_cat_multi_stim_exp1","2022-5-3","9:6:12","25","75","3","9","10","40","30","120","80","21","[""White""]","No","Female","2657299","4658","0","","<div style= ""font-size:25px;"" <p> <strong> Welcome to the experiment! </strong><br> <p style=""color:#8B0000; font-size:25px;""><strong> Please do NOT exit full screen until you are done with the experiment. </strong> </p><p style=""font-size:25px;color:#8B0000;""> <strong> The experiment will be canceled and your data will be lost <br> if you try to go back or refresh the page at any point during the experiment.</strong> </p><br><p> <strong> Thanks in advance for your contribution to our research! </strong></p>","","","","","","","","","","","","","","","","","","","","","","","","","","","",""
"","","","","","instructions","5","113020","0.0-5.0","2d_cat_multi_stim_exp1","2022-5-3","9:6:12","25","75","3","9","10","40","30","120","80","21","[""White""]","No","Female","2657299","52772","","","","[{""page_index"":0,""viewing_time"":4940},{""page_index"":1,""viewing_time"":2203},{""page_index"":2,""viewing_time"":7749},{""page_index"":3,""viewing_time"":20695},{""page_index"":2,""viewing_time"":937},{""page_index"":1,""viewing_time"":1192},{""page_index"":0,""viewing_time"":2184},{""page_index"":1,""viewing_time"":1120},{""page_index"":2,""viewing_time"":2024},{""page_index"":3,""viewing_time"":9728}]","instructions_1","","","","","","","","","","","","","","","","","","","","","","","","","",""
"","","","","","instructions","6","116022","0.0-6.0","2d_cat_multi_stim_exp1","2022-5-3","9:6:12","25","75","3","9","10","40","30","120","80","21","[""White""]","No","Female","2657299","2995","","","","[{""page_index"":0,""viewing_time"":2995}]","Click to see the kinds of turtles that will appear in the study.","","","","","","","","","","","","","","","","","","","","","","","","","",""
"","","","","","canvas-keyboard-response","7","131042","0.0-7.0","2d_cat_multi_stim_exp1","2022-5-3","9:6:12","25","75","3","9","10","40","30","120","80","21","[""White""]","No","Female","2657299","null","null","","","","demo_range","","","","","","","","","","","","","","","","","","","","","","","","","",""
"","","","","","instructions","8","139764","0.0-8.0","2d_cat_multi_stim_exp1","2022-5-3","9:6:12","25","75","3","9","10","40","30","120","80","21","[""White""]","No","Female","2657299","8221","","","","[{""page_index"":0,""viewing_time"":8221}]","Click to see some turtles in the subspecies.","","","","","","","","","","","","","","","","","","","","","","","","","",""
"","","","","","canvas-keyboard-response","9","154786","0.0-9.0","2d_cat_multi_stim_exp1","2022-5-3","9:6:12","25","75","3","9","10","40","30","120","80","21","[""White""]","No","Female","2657299","null","null","","","","demo_in","","","","","","","","","","","","","","","","","","","","","","","","","",""
"","","","","","instructions","10","210204","0.0-10.0","2d_cat_multi_stim_exp1","2022-5-3","9:6:12","25","75","3","9","10","40","30","120","80","21","[""White""]","No","Female","2657299","54916","","","","[{""page_index"":0,""viewing_time"":13964},{""page_index"":1,""viewing_time"":12239},{""page_index"":0,""viewing_time"":8728},{""page_index"":1,""viewing_time"":13984},{""page_index"":2,""viewing_time"":6000}]","instructions_2","","","","","","","","","","","","","","","","","","","","","","","","","",""
"","","","","","instructions","11","212052","0.0-11.0","2d_cat_multi_stim_exp1","2022-5-3","9:6:12","25","75","3","9","10","40","30","120","80","21","[""White""]","No","Female","2657299","1845","","","","[{""page_index"":0,""viewing_time"":1845}]","Click to begin the first phase of the experiment.","","","","","","","","","","","","","","","","","","","","","","","","","",""
"","","","","","canvas-keyboard-response","12","212562","0.0-12.0-0.0","2d_cat_multi_stim_exp1","2022-5-3","9:6:12","25","75","3","9","10","40","30","120","80","21","[""White""]","No","Female","2657299","null","null","","","","fixation","","","","","","","","","","","","","","","","","","","","","","","","","",""
"","","","","","canvas-keyboard-response","13","213073","0.0-12.0-1.0","2d_cat_multi_stim_exp1","2022-5-3","9:6:12","25","75","3","9","10","40","30","120","80","21","[""White""]","No","Female","2657299","null","null","","","","clear_screen","","","","","","","","","","","","","","","","","","","","","","","","","",""
"","","","","","canvas-keyboard-response","14","216858","0.0-12.0-2.0","2d_cat_multi_stim_exp1","2022-5-3","9:6:12","25","75","3","9","10","40","30","120","80","21","[""White""]","No","Female","2657299","3773","u","learn","","","learn_trial","27.9518","73.393","in","1","1","","","","","","","","","","","","","","","","","","","","",""
"","","","","","canvas-keyboard-response","15","217373","0.0-12.0-3.0","2d_cat_multi_stim_exp1","2022-5-3","9:6:12","25","75","3","9","10","40","30","120","80","21","[""White""]","No","Female","2657299","null","null","learn_feedback","","","learn_feedback","27.9518","73.393","in","","","","","","","","","","","","","","","","","","","","","","",""
"","","","","","canvas-keyboard-response","16","217432","0.0-12.0-4.0","2d_cat_multi_stim_exp1","2022-5-3","9:6:12","25","75","3","9","10","40","30","120","80","21","[""White""]","No","Female","2657299","null","null","","","","clear_screen","","","","","","","","","","","","","","","","","","","","","","","","","",""
"","","","","","canvas-keyboard-response","17","217942","0.0-12.0-0.1","2d_cat_multi_stim_exp1","2022-5-3","9:6:12","25","75","3","9","10","40","30","120","80","21","[""White""]","No","Female","2657299","null","null","","","","fixation","","","","","","","","","","","","","","","","","","","","","","","","","",""
"","","","","","canvas-keyboard-response","18","218452","0.0-12.0-1.1","2d_cat_multi_stim_exp1","2022-5-3","9:6:12","25","75","3","9","10","40","30","120","80","21","[""White""]","No","Female","2657299","null","null","","","","clear_screen","","","","","","","","","","","","","","","","","","","","","","","","","",""
"","","","","","canvas-keyboard-response","19","222666","0.0-12.0-2.1","2d_cat_multi_stim_exp1","2022-5-3","9:6:12","25","75","3","9","10","40","30","120","80","21","[""White""]","No","Female","2657299","4203","i","learn","","","learn_trial","25","75","in","0","0","","","","","","","","","","","","","","","","","","","","",""
"","","","","","canvas-keyboard-response","20","223675","0.0-12.0-3.1","2d_cat_multi_stim_exp1","2022-5-3","9:6:12","25","75","3","9","10","40","30","120","80","21","[""White""]","No","Female","2657299","null","null","learn_feedback","","","learn_feedback","25","75","in","","","","","","","","","","","","","","","","","","","","","","",""
"","","","","","canvas-keyboard-response","21","223735","0.0-12.0-4.1","2d_cat_multi_stim_exp1","2022-5-3","9:6:12","25","75","3","9","10","40","30","120","80","21","[""White""]","No","Female","2657299","null","null","","","","clear_screen","","","","","","","","","","","","","","","","","","","","","","","","","",""
"","","","","","canvas-keyboard-response","22","224246","0.0-12.0-0.2","2d_cat_multi_stim_exp1","2022-5-3","9:6:12","25","75","3","9","10","40","30","120","80","21","[""White""]","No","Female","2657299","null","null","","","","fixation","","","","","","","","","","","","","","","","","","","","","","","","","",""
"","","","","","canvas-keyboard-response","23","224755","0.0-12.0-1.2","2d_cat_multi_stim_exp1","2022-5-3","9:6:12","25","75","3","9","10","40","30","120","80","21","[""White""]","No","Female","2657299","null","null","","","","clear_screen","","","","","","","","","","","","","","","","","","","","","","","","","",""
"","","","","","canvas-keyboard-response","24","227737","0.0-12.0-2.2","2d_cat_multi_stim_exp1","2022-5-3","9:6:12","25","75","3","9","10","40","30","120","80","21","[""White""]","No","Female","2657299","2972","u","learn","","","learn_trial","22.9268","68.4948","in","1","1","","","","","","","","","","","","","","","","","","","","",""
"","","","","","canvas-keyboard-response","25","228248","0.0-12.0-3.2","2d_cat_multi_stim_exp1","2022-5-3","9:6:12","25","75","3","9","10","40","30","120","80","21","[""White""]","No","Female","2657299","null","null","learn_feedback","","","learn_feedback","22.9268","68.4948","in","","","","","","","","","","","","","","","","","","","","","","",""
"","","","","","canvas-keyboard-response","26","228307","0.0-12.0-4.2","2d_cat_multi_stim_exp1","2022-5-3","9:6:12","25","75","3","9","10","40","30","120","80","21","[""White""]","No","Female","2657299","null","null","","","","clear_screen","","","","","","","","","","","","","","","","","","","","","","","","","",""
"","","","","","canvas-keyboard-response","27","228818","0.0-12.0-0.3","2d_cat_multi_stim_exp1","2022-5-3","9:6:12","25","75","3","9","10","40","30","120","80","21","[""White""]","No","Female","2657299","null","null","","","","fixation","","","","","","","","","","","","","","","","","","","","","","","","","",""
"","","","","","canvas-keyboard-response","28","229327","0.0-12.0-1.3","2d_cat_multi_stim_exp1","2022-5-3","9:6:12","25","75","3","9","10","40","30","120","80","21","[""White""]","No","Female","2657299","null","null","","","","clear_screen","","","","","","","","","","","","","","","","","","","","","","","","","",""
"","","","","","canvas-keyboard-response","29","231937","0.0-12.0-2.3","2d_cat_multi_stim_exp1","2022-5-3","9:6:12","25","75","3","9","10","40","30","120","80","21","[""White""]","No","Female","2657299","2601","u","learn","","","learn_trial","22.2971","71.095","in","1","1","","","","","","","","","","","","","","","","","","","","",""
"","","","","","canvas-keyboard-response","30","232448","0.0-12.0-3.3","2d_cat_multi_stim_exp1","2022-5-3","9:6:12","25","75","3","9","10","40","30","120","80","21","[""White""]","No","Female","2657299","null","null","learn_feedback","","","learn_feedback","22.2971","71.095","in","","","","","","","","","","","","","","","","","","","","","","",""
"","","","","","canvas-keyboard-response","31","232509","0.0-12.0-4.3","2d_cat_multi_stim_exp1","2022-5-3","9:6:12","25","75","3","9","10","40","30","120","80","21","[""White""]","No","Female","2657299","null","null","","","","clear_screen","","","","","","","","","","","","","","","","","","","","","","","","","",""
"","","","","","canvas-keyboard-response","32","233019","0.0-12.0-0.4","2d_cat_multi_stim_exp1","2022-5-3","9:6:12","25","75","3","9","10","40","30","120","80","21","[""White""]","No","Female","2657299","null","null","","","","fixation","","","","","","","","","","","","","","","","","","","","","","","","","",""
"","","","","","canvas-keyboard-response","33","233530","0.0-12.0-1.4","2d_cat_multi_stim_exp1","2022-5-3","9:6:12","25","75","3","9","10","40","30","120","80","21","[""White""]","No","Female","2657299","null","null","","","","clear_screen","","","","","","","","","","","","","","","","","","","","","","","","","",""
"","","","","","canvas-keyboard-response","34","235674","0.0-12.0-2.4","2d_cat_multi_stim_exp1","2022-5-3","9:6:12","25","75","3","9","10","40","30","120","80","21","[""White""]","No","Female","2657299","2132","i","learn","","","learn_trial","40","30","out","0","1","","","","","","","","","","","","","","","","","","","","",""
"","","","","","canvas-keyboard-response","35","236184","0.0-12.0-3.4","2d_cat_multi_stim_exp1","2022-5-3","9:6:12","25","75","3","9","10","40","30","120","80","21","[""White""]","No","Female","2657299","null","null","learn_feedback","","","learn_feedback","40","30","out","","","","","","","","","","","","","","","","","","","","","","",""
"","","","","","canvas-keyboard-response","36","236243","0.0-12.0-4.4","2d_cat_multi_stim_exp1","2022-5-3","9:6:12","25","75","3","9","10","40","30","120","80","21","[""White""]","No","Female","2657299","null","null","","","","clear_screen","","","","","","","","","","","","","","","","","","","","","","","","","",""
"","","","","","canvas-keyboard-response","37","236753","0.0-12.0-0.5","2d_cat_multi_stim_exp1","2022-5-3","9:6:12","25","75","3","9","10","40","30","120","80","21","[""White""]","No","Female","2657299","null","null","","","","fixation","","","","","","","","","","","","","","","","","","","","","","","","","",""
"","","","","","canvas-keyboard-response","38","237263","0.0-12.0-1.5","2d_cat_multi_stim_exp1","2022-5-3","9:6:12","25","75","3","9","10","40","30","120","80","21","[""White""]","No","Female","2657299","null","null","","","","clear_screen","","","","","","","","","","","","","","","","","","","","","","","","","",""
"","","","","","canvas-keyboard-response","39","239449","0.0-12.0-2.5","2d_cat_multi_stim_exp1","2022-5-3","9:6:12","25","75","3","9","10","40","30","120","80","21","[""White""]","No","Female","2657299","2176","i","learn","","","learn_trial","10","90","out","0","1","","","","","","","","","","","","","","","","","","","","",""
"","","","","","canvas-keyboard-response","40","239963","0.0-12.0-3.5","2d_cat_multi_stim_exp1","2022-5-3","9:6:12","25","75","3","9","10","40","30","120","80","21","[""White""]","No","Female","2657299","null","null","learn_feedback","","","learn_feedback","10","90","out","","","","","","","","","","","","","","","","","","","","","","",""
"","","","","","canvas-keyboard-response","41","240023","0.0-12.0-4.5","2d_cat_multi_stim_exp1","2022-5-3","9:6:12","25","75","3","9","10","40","30","120","80","21","[""White""]","No","Female","2657299","null","null","","","","clear_screen","","","","","","","","","","","","","","","","","","","","","","","","","",""
"","","","","","canvas-keyboard-response","42","240533","0.0-12.0-0.6","2d_cat_multi_stim_exp1","2022-5-3","9:6:12","25","75","3","9","10","40","30","120","80","21","[""White""]","No","Female","2657299","null","null","","","","fixation","","","","","","","","","","","","","","","","","","","","","","","","","",""
"","","","","","canvas-keyboard-response","43","241043","0.0-12.0-1.6","2d_cat_multi_stim_exp1","2022-5-3","9:6:12","25","75","3","9","10","40","30","120","80","21","[""White""]","No","Female","2657299","null","null","","","","clear_screen","","","","","","","","","","","","","","","","","","","","","","","","","",""
"","","","","","canvas-keyboard-response","44","243849","0.0-12.0-2.6","2d_cat_multi_stim_exp1","2022-5-3","9:6:12","25","75","3","9","10","40","30","120","80","21","[""White""]","No","Female","2657299","2797","u","learn","","","learn_trial","40","50","out","1","0","","","","","","","","","","","","","","","","","","","","",""
"","","","","","canvas-keyboard-response","45","244859","0.0-12.0-3.6","2d_cat_multi_stim_exp1","2022-5-3","9:6:12","25","75","3","9","10","40","30","120","80","21","[""White""]","No","Female","2657299","null","null","learn_feedback","","","learn_feedback","40","50","out","","","","","","","","","","","","","","","","","","","","","","",""
"","","","","","canvas-keyboard-response","46","244924","0.0-12.0-4.6","2d_cat_multi_stim_exp1","2022-5-3","9:6:12","25","75","3","9","10","40","30","120","80","21","[""White""]","No","Female","2657299","null","null","","","","clear_screen","","","","","","","","","","","","","","","","","","","","","","","","","",""
"","","","","","canvas-keyboard-response","47","245433","0.0-12.0-0.7","2d_cat_multi_stim_exp1","2022-5-3","9:6:12","25","75","3","9","10","40","30","120","80","21","[""White""]","No","Female","2657299","null","null","","","","fixation","","","","","","","","","","","","","","","","","","","","","","","","","",""
"","","","","","canvas-keyboard-response","48","245943","0.0-12.0-1.7","2d_cat_multi_stim_exp1","2022-5-3","9:6:12","25","75","3","9","10","40","30","120","80","21","[""White""]","No","Female","2657299","null","null","","","","clear_screen","","","","","","","","","","","","","","","","","","","","","","","","","",""
"","","","","","canvas-keyboard-response","49","250290","0.0-12.0-2.7","2d_cat_multi_stim_exp1","2022-5-3","9:6:12","25","75","3","9","10","40","30","120","80","21","[""White""]","No","Female","2657299","4337","i","learn","","","learn_trial","23.3333","80","out","0","1","","","","","","","","","","","","","","","","","","","","",""
"","","","","","canvas-keyboard-response","50","250800","0.0-12.0-3.7","2d_cat_multi_stim_exp1","2022-5-3","9:6:12","25","75","3","9","10","40","30","120","80","21","[""White""]","No","Female","2657299","null","null","learn_feedback","","","learn_feedback","23.3333","80","out","","","","","","","","","","","","","","","","","","","","","","",""
"","","","","","canvas-keyboard-response","51","250861","0.0-12.0-4.7","2d_cat_multi_stim_exp1","2022-5-3","9:6:12","25","75","3","9","10","40","30","120","80","21","[""White""]","No","Female","2657299","null","null","","","","clear_screen","","","","","","","","","","","","","","","","","","","","","","","","","",""
"","","","","","canvas-keyboard-response","52","251369","0.0-12.0-0.8","2d_cat_multi_stim_exp1","2022-5-3","9:6:12","25","75","3","9","10","40","30","120","80","21","[""White""]","No","Female","2657299","null","null","","","","fixation","","","","","","","","","","","","","","","","","","","","","","","","","",""
"","","","","","canvas-keyboard-response","53","251880","0.0-12.0-1.8","2d_cat_multi_stim_exp1","2022-5-3","9:6:12","25","75","3","9","10","40","30","120","80","21","[""White""]","No","Female","2657299","null","null","","","","clear_screen","","","","","","","","","","","","","","","","","","","","","","","","","",""
"","","","","","canvas-keyboard-response","54","253369","0.0-12.0-2.8","2d_cat_multi_stim_exp1","2022-5-3","9:6:12","25","75","3","9","10","40","30","120","80","21","[""White""]","No","Female","2657299","1480","i","learn","","","learn_trial","30","50","out","0","1","","","","","","","","","","","","","","","","","","","","",""
"","","","","","canvas-keyboard-response","55","253880","0.0-12.0-3.8","2d_cat_multi_stim_exp1","2022-5-3","9:6:12","25","75","3","9","10","40","30","120","80","21","[""White""]","No","Female","2657299","null","null","learn_feedback","","","learn_feedback","30","50","out","","","","","","","","","","","","","","","","","","","","","","",""
"","","","","","canvas-keyboard-response","56","253939","0.0-12.0-4.8","2d_cat_multi_stim_exp1","2022-5-3","9:6:12","25","75","3","9","10","40","30","120","80","21","[""White""]","No","Female","2657299","null","null","","","","clear_screen","","","","","","","","","","","","","","","","","","","","","","","","","",""
"","","","","","canvas-keyboard-response","57","254447","0.0-12.0-0.9","2d_cat_multi_stim_exp1","2022-5-3","9:6:12","25","75","3","9","10","40","30","120","80","21","[""White""]","No","Female","2657299","null","null","","","","fixation","","","","","","","","","","","","","","","","","","","","","","","","","",""
"","","","","","canvas-keyboard-response","58","254956","0.0-12.0-1.9","2d_cat_multi_stim_exp1","2022-5-3","9:6:12","25","75","3","9","10","40","30","120","80","21","[""White""]","No","Female","2657299","null","null","","","","clear_screen","","","","","","","","","","","","","","","","","","","","","","","","","",""
"","","","","","canvas-keyboard-response","59","256529","0.0-12.0-2.9","2d_cat_multi_stim_exp1","2022-5-3","9:6:12","25","75","3","9","10","40","30","120","80","21","[""White""]","No","Female","2657299","1562","i","learn","","","learn_trial","25","75","in","0","0","","","","","","","","","","","","","","","","","","","","",""
"","","","","","canvas-keyboard-response","60","257539","0.0-12.0-3.9","2d_cat_multi_stim_exp1","2022-5-3","9:6:12","25","75","3","9","10","40","30","120","80","21","[""White""]","No","Female","2657299","null","null","learn_feedback","","","learn_feedback","25","75","in","","","","","","","","","","","","","","","","","","","","","","",""
"","","","","","canvas-keyboard-response","61","257599","0.0-12.0-4.9","2d_cat_multi_stim_exp1","2022-5-3","9:6:12","25","75","3","9","10","40","30","120","80","21","[""White""]","No","Female","2657299","null","null","","","","clear_screen","","","","","","","","","","","","","","","","","","","","","","","","","",""
"","","","","","canvas-keyboard-response","62","258111","0.0-12.0-0.10","2d_cat_multi_stim_exp1","2022-5-3","9:6:12","25","75","3","9","10","40","30","120","80","21","[""White""]","No","Female","2657299","null","null","","","","fixation","","","","","","","","","","","","","","","","","","","","","","","","","",""
"","","","","","canvas-keyboard-response","63","258620","0.0-12.0-1.10","2d_cat_multi_stim_exp1","2022-5-3","9:6:12","25","75","3","9","10","40","30","120","80","21","[""White""]","No","Female","2657299","null","null","","","","clear_screen","","","","","","","","","","","","","","","","","","","","","","","","","",""
"","","","","","canvas-keyboard-response","64","261178","0.0-12.0-2.10","2d_cat_multi_stim_exp1","2022-5-3","9:6:12","25","75","3","9","10","40","30","120","80","21","[""White""]","No","Female","2657299","2547","u","learn","","","learn_trial","25","75","in","1","1","","","","","","","","","","","","","","","","","","","","",""
"","","","","","canvas-keyboard-response","65","261688","0.0-12.0-3.10","2d_cat_multi_stim_exp1","2022-5-3","9:6:12","25","75","3","9","10","40","30","120","80","21","[""White""]","No","Female","2657299","null","null","learn_feedback","","","learn_feedback","25","75","in","","","","","","","","","","","","","","","","","","","","","","",""
"","","","","","canvas-keyboard-response","66","261746","0.0-12.0-4.10","2d_cat_multi_stim_exp1","2022-5-3","9:6:12","25","75","3","9","10","40","30","120","80","21","[""White""]","No","Female","2657299","null","null","","","","clear_screen","","","","","","","","","","","","","","","","","","","","","","","","","",""
"","","","","","canvas-keyboard-response","67","262256","0.0-12.0-0.11","2d_cat_multi_stim_exp1","2022-5-3","9:6:12","25","75","3","9","10","40","30","120","80","21","[""White""]","No","Female","2657299","null","null","","","","fixation","","","","","","","","","","","","","","","","","","","","","","","","","",""
"","","","","","canvas-keyboard-response","68","262765","0.0-12.0-1.11","2d_cat_multi_stim_exp1","2022-5-3","9:6:12","25","75","3","9","10","40","30","120","80","21","[""White""]","No","Female","2657299","null","null","","","","clear_screen","","","","","","","","","","","","","","","","","","","","","","","","","",""
"","","","","","canvas-keyboard-response","69","265441","0.0-12.0-2.11","2d_cat_multi_stim_exp1","2022-5-3","9:6:12","25","75","3","9","10","40","30","120","80","21","[""White""]","No","Female","2657299","2667","i","learn","","","learn_trial","25","75","in","0","0","","","","","","","","","","","","","","","","","","","","",""
"","","","","","canvas-keyboard-response","70","266451","0.0-12.0-3.11","2d_cat_multi_stim_exp1","2022-5-3","9:6:12","25","75","3","9","10","40","30","120","80","21","[""White""]","No","Female","2657299","null","null","learn_feedback","","","learn_feedback","25","75","in","","","","","","","","","","","","","","","","","","","","","","",""
"","","","","","canvas-keyboard-response","71","266510","0.0-12.0-4.11","2d_cat_multi_stim_exp1","2022-5-3","9:6:12","25","75","3","9","10","40","30","120","80","21","[""White""]","No","Female","2657299","null","null","","","","clear_screen","","","","","","","","","","","","","","","","","","","","","","","","","",""
"","","","","","canvas-keyboard-response","72","267018","0.0-12.0-0.12","2d_cat_multi_stim_exp1","2022-5-3","9:6:12","25","75","3","9","10","40","30","120","80","21","[""White""]","No","Female","2657299","null","null","","","","fixation","","","","","","","","","","","","","","","","","","","","","","","","","",""
"","","","","","canvas-keyboard-response","73","267527","0.0-12.0-1.12","2d_cat_multi_stim_exp1","2022-5-3","9:6:12","25","75","3","9","10","40","30","120","80","21","[""White""]","No","Female","2657299","null","null","","","","clear_screen","","","","","","","","","","","","","","","","","","","","","","","","","",""
"","","","","","canvas-keyboard-response","74","269577","0.0-12.0-2.12","2d_cat_multi_stim_exp1","2022-5-3","9:6:12","25","75","3","9","10","40","30","120","80","21","[""White""]","No","Female","2657299","2040","u","learn","","","learn_trial","25","75","in","1","1","","","","","","","","","","","","","","","","","","","","",""
"","","","","","canvas-keyboard-response","75","270086","0.0-12.0-3.12","2d_cat_multi_stim_exp1","2022-5-3","9:6:12","25","75","3","9","10","40","30","120","80","21","[""White""]","No","Female","2657299","null","null","learn_feedback","","","learn_feedback","25","75","in","","","","","","","","","","","","","","","","","","","","","","",""
"","","","","","canvas-keyboard-response","76","270145","0.0-12.0-4.12","2d_cat_multi_stim_exp1","2022-5-3","9:6:12","25","75","3","9","10","40","30","120","80","21","[""White""]","No","Female","2657299","null","null","","","","clear_screen","","","","","","","","","","","","","","","","","","","","","","","","","",""
"","","","","","canvas-keyboard-response","77","270654","0.0-12.0-0.13","2d_cat_multi_stim_exp1","2022-5-3","9:6:12","25","75","3","9","10","40","30","120","80","21","[""White""]","No","Female","2657299","null","null","","","","fixation","","","","","","","","","","","","","","","","","","","","","","","","","",""
"","","","","","canvas-keyboard-response","78","271166","0.0-12.0-1.13","2d_cat_multi_stim_exp1","2022-5-3","9:6:12","25","75","3","9","10","40","30","120","80","21","[""White""]","No","Female","2657299","null","null","","","","clear_screen","","","","","","","","","","","","","","","","","","","","","","","","","",""
"","","","","","canvas-keyboard-response","79","275785","0.0-12.0-2.13","2d_cat_multi_stim_exp1","2022-5-3","9:6:12","25","75","3","9","10","40","30","120","80","21","[""White""]","No","Female","2657299","4610","u","learn","","","learn_trial","16.6667","100","out","1","0","","","","","","","","","","","","","","","","","","","","",""
"","","","","","canvas-keyboard-response","80","276795","0.0-12.0-3.13","2d_cat_multi_stim_exp1","2022-5-3","9:6:12","25","75","3","9","10","40","30","120","80","21","[""White""]","No","Female","2657299","null","null","learn_feedback","","","learn_feedback","16.6667","100","out","","","","","","","","","","","","","","","","","","","","","","",""
"","","","","","canvas-keyboard-response","81","276853","0.0-12.0-4.13","2d_cat_multi_stim_exp1","2022-5-3","9:6:12","25","75","3","9","10","40","30","120","80","21","[""White""]","No","Female","2657299","null","null","","","","clear_screen","","","","","","","","","","","","","","","","","","","","","","","","","",""
"","","","","","canvas-keyboard-response","82","277363","0.0-12.0-0.14","2d_cat_multi_stim_exp1","2022-5-3","9:6:12","25","75","3","9","10","40","30","120","80","21","[""White""]","No","Female","2657299","null","null","","","","fixation","","","","","","","","","","","","","","","","","","","","","","","","","",""
"","","","","","canvas-keyboard-response","83","277876","0.0-12.0-1.14","2d_cat_multi_stim_exp1","2022-5-3","9:6:12","25","75","3","9","10","40","30","120","80","21","[""White""]","No","Female","2657299","null","null","","","","clear_screen","","","","","","","","","","","","","","","","","","","","","","","","","",""
"","","","","","canvas-keyboard-response","84","279945","0.0-12.0-2.14","2d_cat_multi_stim_exp1","2022-5-3","9:6:12","25","75","3","9","10","40","30","120","80","21","[""White""]","No","Female","2657299","2059","u","learn","","","learn_trial","25","75","in","1","1","","","","","","","","","","","","","","","","","","","","",""
"","","","","","canvas-keyboard-response","85","280456","0.0-12.0-3.14","2d_cat_multi_stim_exp1","2022-5-3","9:6:12","25","75","3","9","10","40","30","120","80","21","[""White""]","No","Female","2657299","null","null","learn_feedback","","","learn_feedback","25","75","in","","","","","","","","","","","","","","","","","","","","","","",""
"","","","","","canvas-keyboard-response","86","280516","0.0-12.0-4.14","2d_cat_multi_stim_exp1","2022-5-3","9:6:12","25","75","3","9","10","40","30","120","80","21","[""White""]","No","Female","2657299","null","null","","","","clear_screen","","","","","","","","","","","","","","","","","","","","","","","","","",""
"","","","","","canvas-keyboard-response","87","281026","0.0-12.0-0.15","2d_cat_multi_stim_exp1","2022-5-3","9:6:12","25","75","3","9","10","40","30","120","80","21","[""White""]","No","Female","2657299","null","null","","","","fixation","","","","","","","","","","","","","","","","","","","","","","","","","",""
"","","","","","canvas-keyboard-response","88","281537","0.0-12.0-1.15","2d_cat_multi_stim_exp1","2022-5-3","9:6:12","25","75","3","9","10","40","30","120","80","21","[""White""]","No","Female","2657299","null","null","","","","clear_screen","","","","","","","","","","","","","","","","","","","","","","","","","",""
"","","","","","canvas-keyboard-response","89","287762","0.0-12.0-2.15","2d_cat_multi_stim_exp1","2022-5-3","9:6:12","25","75","3","9","10","40","30","120","80","21","[""White""]","No","Female","2657299","6210","i","learn","","","learn_trial","20","120","out","0","1","","","","","","","","","","","","","","","","","","","","",""
"","","","","","canvas-keyboard-response","90","288272","0.0-12.0-3.15","2d_cat_multi_stim_exp1","2022-5-3","9:6:12","25","75","3","9","10","40","30","120","80","21","[""White""]","No","Female","2657299","null","null","learn_feedback","","","learn_feedback","20","120","out","","","","","","","","","","","","","","","","","","","","","","",""
"","","","","","canvas-keyboard-response","91","288331","0.0-12.0-4.15","2d_cat_multi_stim_exp1","2022-5-3","9:6:12","25","75","3","9","10","40","30","120","80","21","[""White""]","No","Female","2657299","null","null","","","","clear_screen","","","","","","","","","","","","","","","","","","","","","","","","","",""
"","","","","","canvas-keyboard-response","92","288841","0.0-12.0-0.16","2d_cat_multi_stim_exp1","2022-5-3","9:6:12","25","75","3","9","10","40","30","120","80","21","[""White""]","No","Female","2657299","null","null","","","","fixation","","","","","","","","","","","","","","","","","","","","","","","","","",""
"","","","","","canvas-keyboard-response","93","289352","0.0-12.0-1.16","2d_cat_multi_stim_exp1","2022-5-3","9:6:12","25","75","3","9","10","40","30","120","80","21","[""White""]","No","Female","2657299","null","null","","","","clear_screen","","","","","","","","","","","","","","","","","","","","","","","","","",""
"","","","","","canvas-keyboard-response","94","291184","0.0-12.0-2.16","2d_cat_multi_stim_exp1","2022-5-3","9:6:12","25","75","3","9","10","40","30","120","80","21","[""White""]","No","Female","2657299","1823","u","learn","","","learn_trial","20","80","out","1","0","","","","","","","","","","","","","","","","","","","","",""
"","","","","","canvas-keyboard-response","95","292194","0.0-12.0-3.16","2d_cat_multi_stim_exp1","2022-5-3","9:6:12","25","75","3","9","10","40","30","120","80","21","[""White""]","No","Female","2657299","null","null","learn_feedback","","","learn_feedback","20","80","out","","","","","","","","","","","","","","","","","","","","","","",""
"","","","","","canvas-keyboard-response","96","292253","0.0-12.0-4.16","2d_cat_multi_stim_exp1","2022-5-3","9:6:12","25","75","3","9","10","40","30","120","80","21","[""White""]","No","Female","2657299","null","null","","","","clear_screen","","","","","","","","","","","","","","","","","","","","","","","","","",""
"","","","","","canvas-keyboard-response","97","292763","0.0-12.0-0.17","2d_cat_multi_stim_exp1","2022-5-3","9:6:12","25","75","3","9","10","40","30","120","80","21","[""White""]","No","Female","2657299","null","null","","","","fixation","","","","","","","","","","","","","","","","","","","","","","","","","",""
"","","","","","canvas-keyboard-response","98","293272","0.0-12.0-1.17","2d_cat_multi_stim_exp1","2022-5-3","9:6:12","25","75","3","9","10","40","30","120","80","21","[""White""]","No","Female","2657299","null","null","","","","clear_screen","","","","","","","","","","","","","","","","","","","","","","","","","",""
"","","","","","canvas-keyboard-response","99","294985","0.0-12.0-2.17","2d_cat_multi_stim_exp1","2022-5-3","9:6:12","25","75","3","9","10","40","30","120","80","21","[""White""]","No","Female","2657299","1703","u","learn","","","learn_trial","27.2592","80.9214","in","1","1","","","","","","","","","","","","","","","","","","","","",""
"","","","","","canvas-keyboard-response","100","295494","0.0-12.0-3.17","2d_cat_multi_stim_exp1","2022-5-3","9:6:12","25","75","3","9","10","40","30","120","80","21","[""White""]","No","Female","2657299","null","null","learn_feedback","","","learn_feedback","27.2592","80.9214","in","","","","","","","","","","","","","","","","","","","","","","",""
"","","","","","canvas-keyboard-response","101","295553","0.0-12.0-4.17","2d_cat_multi_stim_exp1","2022-5-3","9:6:12","25","75","3","9","10","40","30","120","80","21","[""White""]","No","Female","2657299","null","null","","","","clear_screen","","","","","","","","","","","","","","","","","","","","","","","","","",""
"","","","","","canvas-keyboard-response","102","296063","0.0-12.0-0.18","2d_cat_multi_stim_exp1","2022-5-3","9:6:12","25","75","3","9","10","40","30","120","80","21","[""White""]","No","Female","2657299","null","null","","","","fixation","","","","","","","","","","","","","","","","","","","","","","","","","",""
"","","","","","canvas-keyboard-response","103","296573","0.0-12.0-1.18","2d_cat_multi_stim_exp1","2022-5-3","9:6:12","25","75","3","9","10","40","30","120","80","21","[""White""]","No","Female","2657299","null","null","","","","clear_screen","","","","","","","","","","","","","","","","","","","","","","","","","",""
"","","","","","canvas-keyboard-response","104","306401","0.0-12.0-2.18","2d_cat_multi_stim_exp1","2022-5-3","9:6:12","25","75","3","9","10","40","30","120","80","21","[""White""]","No","Female","2657299","9818","u","learn","","","learn_trial","22.1081","77.3943","in","1","1","","","","","","","","","","","","","","","","","","","","",""
"","","","","","canvas-keyboard-response","105","306911","0.0-12.0-3.18","2d_cat_multi_stim_exp1","2022-5-3","9:6:12","25","75","3","9","10","40","30","120","80","21","[""White""]","No","Female","2657299","null","null","learn_feedback","","","learn_feedback","22.1081","77.3943","in","","","","","","","","","","","","","","","","","","","","","","",""
"","","","","","canvas-keyboard-response","106","306970","0.0-12.0-4.18","2d_cat_multi_stim_exp1","2022-5-3","9:6:12","25","75","3","9","10","40","30","120","80","21","[""White""]","No","Female","2657299","null","null","","","","clear_screen","","","","","","","","","","","","","","","","","","","","","","","","","",""
"","","","","","canvas-keyboard-response","107","307479","0.0-12.0-0.19","2d_cat_multi_stim_exp1","2022-5-3","9:6:12","25","75","3","9","10","40","30","120","80","21","[""White""]","No","Female","2657299","null","null","","","","fixation","","","","","","","","","","","","","","","","","","","","","","","","","",""
"","","","","","canvas-keyboard-response","108","307989","0.0-12.0-1.19","2d_cat_multi_stim_exp1","2022-5-3","9:6:12","25","75","3","9","10","40","30","120","80","21","[""White""]","No","Female","2657299","null","null","","","","clear_screen","","","","","","","","","","","","","","","","","","","","","","","","","",""
"","","","","","canvas-keyboard-response","109","309481","0.0-12.0-2.19","2d_cat_multi_stim_exp1","2022-5-3","9:6:12","25","75","3","9","10","40","30","120","80","21","[""White""]","No","Female","2657299","1482","i","learn","","","learn_trial","16.6667","120","out","0","1","","","","","","","","","","","","","","","","","","","","",""
"","","","","","canvas-keyboard-response","110","309991","0.0-12.0-3.19","2d_cat_multi_stim_exp1","2022-5-3","9:6:12","25","75","3","9","10","40","30","120","80","21","[""White""]","No","Female","2657299","null","null","learn_feedback","","","learn_feedback","16.6667","120","out","","","","","","","","","","","","","","","","","","","","","","",""
"","","","","","canvas-keyboard-response","111","310050","0.0-12.0-4.19","2d_cat_multi_stim_exp1","2022-5-3","9:6:12","25","75","3","9","10","40","30","120","80","21","[""White""]","No","Female","2657299","null","null","","","","clear_screen","","","","","","","","","","","","","","","","","","","","","","","","","",""
"","","","","","canvas-keyboard-response","112","310558","0.0-12.0-0.20","2d_cat_multi_stim_exp1","2022-5-3","9:6:12","25","75","3","9","10","40","30","120","80","21","[""White""]","No","Female","2657299","null","null","","","","fixation","","","","","","","","","","","","","","","","","","","","","","","","","",""
"","","","","","canvas-keyboard-response","113","311069","0.0-12.0-1.20","2d_cat_multi_stim_exp1","2022-5-3","9:6:12","25","75","3","9","10","40","30","120","80","21","[""White""]","No","Female","2657299","null","null","","","","clear_screen","","","","","","","","","","","","","","","","","","","","","","","","","",""
"","","","","","canvas-keyboard-response","114","313209","0.0-12.0-2.20","2d_cat_multi_stim_exp1","2022-5-3","9:6:12","25","75","3","9","10","40","30","120","80","21","[""White""]","No","Female","2657299","2131","i","learn","","","learn_trial","25","75","in","0","0","","","","","","","","","","","","","","","","","","","","",""
"","","","","","canvas-keyboard-response","115","314218","0.0-12.0-3.20","2d_cat_multi_stim_exp1","2022-5-3","9:6:12","25","75","3","9","10","40","30","120","80","21","[""White""]","No","Female","2657299","null","null","learn_feedback","","","learn_feedback","25","75","in","","","","","","","","","","","","","","","","","","","","","","",""
"","","","","","canvas-keyboard-response","116","314278","0.0-12.0-4.20","2d_cat_multi_stim_exp1","2022-5-3","9:6:12","25","75","3","9","10","40","30","120","80","21","[""White""]","No","Female","2657299","null","null","","","","clear_screen","","","","","","","","","","","","","","","","","","","","","","","","","",""
"","","","","","canvas-keyboard-response","117","314787","0.0-12.0-0.21","2d_cat_multi_stim_exp1","2022-5-3","9:6:12","25","75","3","9","10","40","30","120","80","21","[""White""]","No","Female","2657299","null","null","","","","fixation","","","","","","","","","","","","","","","","","","","","","","","","","",""
"","","","","","canvas-keyboard-response","118","315298","0.0-12.0-1.21","2d_cat_multi_stim_exp1","2022-5-3","9:6:12","25","75","3","9","10","40","30","120","80","21","[""White""]","No","Female","2657299","null","null","","","","clear_screen","","","","","","","","","","","","","","","","","","","","","","","","","",""
"","","","","","canvas-keyboard-response","119","316625","0.0-12.0-2.21","2d_cat_multi_stim_exp1","2022-5-3","9:6:12","25","75","3","9","10","40","30","120","80","21","[""White""]","No","Female","2657299","1317","i","learn","","","learn_trial","33.3333","90","out","0","1","","","","","","","","","","","","","","","","","","","","",""
"","","","","","canvas-keyboard-response","120","317136","0.0-12.0-3.21","2d_cat_multi_stim_exp1","2022-5-3","9:6:12","25","75","3","9","10","40","30","120","80","21","[""White""]","No","Female","2657299","null","null","learn_feedback","","","learn_feedback","33.3333","90","out","","","","","","","","","","","","","","","","","","","","","","",""
"","","","","","canvas-keyboard-response","121","317198","0.0-12.0-4.21","2d_cat_multi_stim_exp1","2022-5-3","9:6:12","25","75","3","9","10","40","30","120","80","21","[""White""]","No","Female","2657299","null","null","","","","clear_screen","","","","","","","","","","","","","","","","","","","","","","","","","",""
"","","","","","canvas-keyboard-response","122","317710","0.0-12.0-0.22","2d_cat_multi_stim_exp1","2022-5-3","9:6:12","25","75","3","9","10","40","30","120","80","21","[""White""]","No","Female","2657299","null","null","","","","fixation","","","","","","","","","","","","","","","","","","","","","","","","","",""
"","","","","","canvas-keyboard-response","123","318221","0.0-12.0-1.22","2d_cat_multi_stim_exp1","2022-5-3","9:6:12","25","75","3","9","10","40","30","120","80","21","[""White""]","No","Female","2657299","null","null","","","","clear_screen","","","","","","","","","","","","","","","","","","","","","","","","","",""
"","","","","","canvas-keyboard-response","124","328313","0.0-12.0-2.22","2d_cat_multi_stim_exp1","2022-5-3","9:6:12","25","75","3","9","10","40","30","120","80","21","[""White""]","No","Female","2657299","10080","i","learn","","","learn_trial","25","75","in","0","0","","","","","","","","","","","","","","","","","","","","",""
"","","","","","canvas-keyboard-response","125","329323","0.0-12.0-3.22","2d_cat_multi_stim_exp1","2022-5-3","9:6:12","25","75","3","9","10","40","30","120","80","21","[""White""]","No","Female","2657299","null","null","learn_feedback","","","learn_feedback","25","75","in","","","","","","","","","","","","","","","","","","","","","","",""
"","","","","","canvas-keyboard-response","126","329383","0.0-12.0-4.22","2d_cat_multi_stim_exp1","2022-5-3","9:6:12","25","75","3","9","10","40","30","120","80","21","[""White""]","No","Female","2657299","null","null","","","","clear_screen","","","","","","","","","","","","","","","","","","","","","","","","","",""
"","","","","","canvas-keyboard-response","127","329893","0.0-12.0-0.23","2d_cat_multi_stim_exp1","2022-5-3","9:6:12","25","75","3","9","10","40","30","120","80","21","[""White""]","No","Female","2657299","null","null","","","","fixation","","","","","","","","","","","","","","","","","","","","","","","","","",""
"","","","","","canvas-keyboard-response","128","330402","0.0-12.0-1.23","2d_cat_multi_stim_exp1","2022-5-3","9:6:12","25","75","3","9","10","40","30","120","80","21","[""White""]","No","Female","2657299","null","null","","","","clear_screen","","","","","","","","","","","","","","","","","","","","","","","","","",""
"","","","","","canvas-keyboard-response","129","339618","0.0-12.0-2.23","2d_cat_multi_stim_exp1","2022-5-3","9:6:12","25","75","3","9","10","40","30","120","80","21","[""White""]","No","Female","2657299","9203","i","learn","","","learn_trial","36.6667","60","out","0","1","","","","","","","","","","","","","","","","","","","","",""
"","","","","","canvas-keyboard-response","130","340128","0.0-12.0-3.23","2d_cat_multi_stim_exp1","2022-5-3","9:6:12","25","75","3","9","10","40","30","120","80","21","[""White""]","No","Female","2657299","null","null","learn_feedback","","","learn_feedback","36.6667","60","out","","","","","","","","","","","","","","","","","","","","","","",""
"","","","","","canvas-keyboard-response","131","340188","0.0-12.0-4.23","2d_cat_multi_stim_exp1","2022-5-3","9:6:12","25","75","3","9","10","40","30","120","80","21","[""White""]","No","Female","2657299","null","null","","","","clear_screen","","","","","","","","","","","","","","","","","","","","","","","","","",""
"","","","","","canvas-keyboard-response","132","340697","0.0-12.0-0.24","2d_cat_multi_stim_exp1","2022-5-3","9:6:12","25","75","3","9","10","40","30","120","80","21","[""White""]","No","Female","2657299","null","null","","","","fixation","","","","","","","","","","","","","","","","","","","","","","","","","",""
"","","","","","canvas-keyboard-response","133","341206","0.0-12.0-1.24","2d_cat_multi_stim_exp1","2022-5-3","9:6:12","25","75","3","9","10","40","30","120","80","21","[""White""]","No","Female","2657299","null","null","","","","clear_screen","","","","","","","","","","","","","","","","","","","","","","","","","",""
"","","","","","canvas-keyboard-response","134","347777","0.0-12.0-2.24","2d_cat_multi_stim_exp1","2022-5-3","9:6:12","25","75","3","9","10","40","30","120","80","21","[""White""]","No","Female","2657299","6560","i","learn","","","learn_trial","23.3333","110","out","0","1","","","","","","","","","","","","","","","","","","","","",""
"","","","","","canvas-keyboard-response","135","348287","0.0-12.0-3.24","2d_cat_multi_stim_exp1","2022-5-3","9:6:12","25","75","3","9","10","40","30","120","80","21","[""White""]","No","Female","2657299","null","null","learn_feedback","","","learn_feedback","23.3333","110","out","","","","","","","","","","","","","","","","","","","","","","",""
"","","","","","canvas-keyboard-response","136","348346","0.0-12.0-4.24","2d_cat_multi_stim_exp1","2022-5-3","9:6:12","25","75","3","9","10","40","30","120","80","21","[""White""]","No","Female","2657299","null","null","","","","clear_screen","","","","","","","","","","","","","","","","","","","","","","","","","",""
"","","","","","canvas-keyboard-response","137","348856","0.0-12.0-0.25","2d_cat_multi_stim_exp1","2022-5-3","9:6:12","25","75","3","9","10","40","30","120","80","21","[""White""]","No","Female","2657299","null","null","","","","fixation","","","","","","","","","","","","","","","","","","","","","","","","","",""
"","","","","","canvas-keyboard-response","138","349366","0.0-12.0-1.25","2d_cat_multi_stim_exp1","2022-5-3","9:6:12","25","75","3","9","10","40","30","120","80","21","[""White""]","No","Female","2657299","null","null","","","","clear_screen","","","","","","","","","","","","","","","","","","","","","","","","","",""
"","","","","","canvas-keyboard-response","139","351529","0.0-12.0-2.25","2d_cat_multi_stim_exp1","2022-5-3","9:6:12","25","75","3","9","10","40","30","120","80","21","[""White""]","No","Female","2657299","2154","u","learn","","","learn_trial","33.3333","80","out","1","0","","","","","","","","","","","","","","","","","","","","",""
"","","","","","canvas-keyboard-response","140","352539","0.0-12.0-3.25","2d_cat_multi_stim_exp1","2022-5-3","9:6:12","25","75","3","9","10","40","30","120","80","21","[""White""]","No","Female","2657299","null","null","learn_feedback","","","learn_feedback","33.3333","80","out","","","","","","","","","","","","","","","","","","","","","","",""
"","","","","","canvas-keyboard-response","141","352602","0.0-12.0-4.25","2d_cat_multi_stim_exp1","2022-5-3","9:6:12","25","75","3","9","10","40","30","120","80","21","[""White""]","No","Female","2657299","null","null","","","","clear_screen","","","","","","","","","","","","","","","","","","","","","","","","","",""
"","","","","","canvas-keyboard-response","142","353111","0.0-12.0-0.26","2d_cat_multi_stim_exp1","2022-5-3","9:6:12","25","75","3","9","10","40","30","120","80","21","[""White""]","No","Female","2657299","null","null","","","","fixation","","","","","","","","","","","","","","","","","","","","","","","","","",""
"","","","","","canvas-keyboard-response","143","353620","0.0-12.0-1.26","2d_cat_multi_stim_exp1","2022-5-3","9:6:12","25","75","3","9","10","40","30","120","80","21","[""White""]","No","Female","2657299","null","null","","","","clear_screen","","","","","","","","","","","","","","","","","","","","","","","","","",""
"","","","","","canvas-keyboard-response","144","355272","0.0-12.0-2.26","2d_cat_multi_stim_exp1","2022-5-3","9:6:12","25","75","3","9","10","40","30","120","80","21","[""White""]","No","Female","2657299","1643","u","learn","","","learn_trial","25","75","in","1","1","","","","","","","","","","","","","","","","","","","","",""
"","","","","","canvas-keyboard-response","145","355783","0.0-12.0-3.26","2d_cat_multi_stim_exp1","2022-5-3","9:6:12","25","75","3","9","10","40","30","120","80","21","[""White""]","No","Female","2657299","null","null","learn_feedback","","","learn_feedback","25","75","in","","","","","","","","","","","","","","","","","","","","","","",""
"","","","","","canvas-keyboard-response","146","355842","0.0-12.0-4.26","2d_cat_multi_stim_exp1","2022-5-3","9:6:12","25","75","3","9","10","40","30","120","80","21","[""White""]","No","Female","2657299","null","null","","","","clear_screen","","","","","","","","","","","","","","","","","","","","","","","","","",""
"","","","","","canvas-keyboard-response","147","356350","0.0-12.0-0.27","2d_cat_multi_stim_exp1","2022-5-3","9:6:12","25","75","3","9","10","40","30","120","80","21","[""White""]","No","Female","2657299","null","null","","","","fixation","","","","","","","","","","","","","","","","","","","","","","","","","",""
"","","","","","canvas-keyboard-response","148","356860","0.0-12.0-1.27","2d_cat_multi_stim_exp1","2022-5-3","9:6:12","25","75","3","9","10","40","30","120","80","21","[""White""]","No","Female","2657299","null","null","","","","clear_screen","","","","","","","","","","","","","","","","","","","","","","","","","",""
"","","","","","canvas-keyboard-response","149","358536","0.0-12.0-2.27","2d_cat_multi_stim_exp1","2022-5-3","9:6:12","25","75","3","9","10","40","30","120","80","21","[""White""]","No","Female","2657299","1668","u","learn","","","learn_trial","25","75","in","1","1","","","","","","","","","","","","","","","","","","","","",""
"","","","","","canvas-keyboard-response","150","359046","0.0-12.0-3.27","2d_cat_multi_stim_exp1","2022-5-3","9:6:12","25","75","3","9","10","40","30","120","80","21","[""White""]","No","Female","2657299","null","null","learn_feedback","","","learn_feedback","25","75","in","","","","","","","","","","","","","","","","","","","","","","",""
"","","","","","canvas-keyboard-response","151","359105","0.0-12.0-4.27","2d_cat_multi_stim_exp1","2022-5-3","9:6:12","25","75","3","9","10","40","30","120","80","21","[""White""]","No","Female","2657299","null","null","","","","clear_screen","","","","","","","","","","","","","","","","","","","","","","","","","",""
"","","","","","canvas-keyboard-response","152","359615","0.0-12.0-0.28","2d_cat_multi_stim_exp1","2022-5-3","9:6:12","25","75","3","9","10","40","30","120","80","21","[""White""]","No","Female","2657299","null","null","","","","fixation","","","","","","","","","","","","","","","","","","","","","","","","","",""
"","","","","","canvas-keyboard-response","153","360124","0.0-12.0-1.28","2d_cat_multi_stim_exp1","2022-5-3","9:6:12","25","75","3","9","10","40","30","120","80","21","[""White""]","No","Female","2657299","null","null","","","","clear_screen","","","","","","","","","","","","","","","","","","","","","","","","","",""
"","","","","","canvas-keyboard-response","154","362824","0.0-12.0-2.28","2d_cat_multi_stim_exp1","2022-5-3","9:6:12","25","75","3","9","10","40","30","120","80","21","[""White""]","No","Female","2657299","2691","u","learn","","","learn_trial","20","100","out","1","0","","","","","","","","","","","","","","","","","","","","",""
"","","","","","canvas-keyboard-response","155","363834","0.0-12.0-3.28","2d_cat_multi_stim_exp1","2022-5-3","9:6:12","25","75","3","9","10","40","30","120","80","21","[""White""]","No","Female","2657299","null","null","learn_feedback","","","learn_feedback","20","100","out","","","","","","","","","","","","","","","","","","","","","","",""
"","","","","","canvas-keyboard-response","156","363895","0.0-12.0-4.28","2d_cat_multi_stim_exp1","2022-5-3","9:6:12","25","75","3","9","10","40","30","120","80","21","[""White""]","No","Female","2657299","null","null","","","","clear_screen","","","","","","","","","","","","","","","","","","","","","","","","","",""
"","","","","","canvas-keyboard-response","157","364403","0.0-12.0-0.29","2d_cat_multi_stim_exp1","2022-5-3","9:6:12","25","75","3","9","10","40","30","120","80","21","[""White""]","No","Female","2657299","null","null","","","","fixation","","","","","","","","","","","","","","","","","","","","","","","","","",""
"","","","","","canvas-keyboard-response","158","364912","0.0-12.0-1.29","2d_cat_multi_stim_exp1","2022-5-3","9:6:12","25","75","3","9","10","40","30","120","80","21","[""White""]","No","Female","2657299","null","null","","","","clear_screen","","","","","","","","","","","","","","","","","","","","","","","","","",""
"","","","","","canvas-keyboard-response","159","366760","0.0-12.0-2.29","2d_cat_multi_stim_exp1","2022-5-3","9:6:12","25","75","3","9","10","40","30","120","80","21","[""White""]","No","Female","2657299","1838","i","learn","","","learn_trial","25","75","in","0","0","","","","","","","","","","","","","","","","","","","","",""
"","","","","","canvas-keyboard-response","160","367771","0.0-12.0-3.29","2d_cat_multi_stim_exp1","2022-5-3","9:6:12","25","75","3","9","10","40","30","120","80","21","[""White""]","No","Female","2657299","null","null","learn_feedback","","","learn_feedback","25","75","in","","","","","","","","","","","","","","","","","","","","","","",""
"","","","","","canvas-keyboard-response","161","367830","0.0-12.0-4.29","2d_cat_multi_stim_exp1","2022-5-3","9:6:12","25","75","3","9","10","40","30","120","80","21","[""White""]","No","Female","2657299","null","null","","","","clear_screen","","","","","","","","","","","","","","","","","","","","","","","","","",""
"","","","","","canvas-keyboard-response","162","368338","0.0-12.0-0.30","2d_cat_multi_stim_exp1","2022-5-3","9:6:12","25","75","3","9","10","40","30","120","80","21","[""White""]","No","Female","2657299","null","null","","","","fixation","","","","","","","","","","","","","","","","","","","","","","","","","",""
"","","","","","canvas-keyboard-response","163","368848","0.0-12.0-1.30","2d_cat_multi_stim_exp1","2022-5-3","9:6:12","25","75","3","9","10","40","30","120","80","21","[""White""]","No","Female","2657299","null","null","","","","clear_screen","","","","","","","","","","","","","","","","","","","","","","","","","",""
"","","","","","canvas-keyboard-response","164","370897","0.0-12.0-2.30","2d_cat_multi_stim_exp1","2022-5-3","9:6:12","25","75","3","9","10","40","30","120","80","21","[""White""]","No","Female","2657299","2039","u","learn","","","learn_trial","27.5753","79.6161","in","1","1","","","","","","","","","","","","","","","","","","","","",""
"","","","","","canvas-keyboard-response","165","371406","0.0-12.0-3.30","2d_cat_multi_stim_exp1","2022-5-3","9:6:12","25","75","3","9","10","40","30","120","80","21","[""White""]","No","Female","2657299","null","null","learn_feedback","","","learn_feedback","27.5753","79.6161","in","","","","","","","","","","","","","","","","","","","","","","",""
"","","","","","canvas-keyboard-response","166","371464","0.0-12.0-4.30","2d_cat_multi_stim_exp1","2022-5-3","9:6:12","25","75","3","9","10","40","30","120","80","21","[""White""]","No","Female","2657299","null","null","","","","clear_screen","","","","","","","","","","","","","","","","","","","","","","","","","",""
"","","","","","canvas-keyboard-response","167","371973","0.0-12.0-0.31","2d_cat_multi_stim_exp1","2022-5-3","9:6:12","25","75","3","9","10","40","30","120","80","21","[""White""]","No","Female","2657299","null","null","","","","fixation","","","","","","","","","","","","","","","","","","","","","","","","","",""
"","","","","","canvas-keyboard-response","168","372483","0.0-12.0-1.31","2d_cat_multi_stim_exp1","2022-5-3","9:6:12","25","75","3","9","10","40","30","120","80","21","[""White""]","No","Female","2657299","null","null","","","","clear_screen","","","","","","","","","","","","","","","","","","","","","","","","","",""
"","","","","","canvas-keyboard-response","169","373361","0.0-12.0-2.31","2d_cat_multi_stim_exp1","2022-5-3","9:6:12","25","75","3","9","10","40","30","120","80","21","[""White""]","No","Female","2657299","868","u","learn","","","learn_trial","20","70","out","1","0","","","","","","","","","","","","","","","","","","","","",""
"","","","","","canvas-keyboard-response","170","374370","0.0-12.0-3.31","2d_cat_multi_stim_exp1","2022-5-3","9:6:12","25","75","3","9","10","40","30","120","80","21","[""White""]","No","Female","2657299","null","null","learn_feedback","","","learn_feedback","20","70","out","","","","","","","","","","","","","","","","","","","","","","",""
"","","","","","canvas-keyboard-response","171","374429","0.0-12.0-4.31","2d_cat_multi_stim_exp1","2022-5-3","9:6:12","25","75","3","9","10","40","30","120","80","21","[""White""]","No","Female","2657299","null","null","","","","clear_screen","","","","","","","","","","","","","","","","","","","","","","","","","",""
"","","","","","canvas-keyboard-response","172","374940","0.0-12.0-0.32","2d_cat_multi_stim_exp1","2022-5-3","9:6:12","25","75","3","9","10","40","30","120","80","21","[""White""]","No","Female","2657299","null","null","","","","fixation","","","","","","","","","","","","","","","","","","","","","","","","","",""
"","","","","","canvas-keyboard-response","173","375450","0.0-12.0-1.32","2d_cat_multi_stim_exp1","2022-5-3","9:6:12","25","75","3","9","10","40","30","120","80","21","[""White""]","No","Female","2657299","null","null","","","","clear_screen","","","","","","","","","","","","","","","","","","","","","","","","","",""
"","","","","","canvas-keyboard-response","174","383505","0.0-12.0-2.32","2d_cat_multi_stim_exp1","2022-5-3","9:6:12","25","75","3","9","10","40","30","120","80","21","[""White""]","No","Female","2657299","8045","i","learn","","","learn_trial","24.8654","66.0091","in","0","0","","","","","","","","","","","","","","","","","","","","",""
"","","","","","canvas-keyboard-response","175","384513","0.0-12.0-3.32","2d_cat_multi_stim_exp1","2022-5-3","9:6:12","25","75","3","9","10","40","30","120","80","21","[""White""]","No","Female","2657299","null","null","learn_feedback","","","learn_feedback","24.8654","66.0091","in","","","","","","","","","","","","","","","","","","","","","","",""
"","","","","","canvas-keyboard-response","176","384573","0.0-12.0-4.32","2d_cat_multi_stim_exp1","2022-5-3","9:6:12","25","75","3","9","10","40","30","120","80","21","[""White""]","No","Female","2657299","null","null","","","","clear_screen","","","","","","","","","","","","","","","","","","","","","","","","","",""
"","","","","","canvas-keyboard-response","177","385082","0.0-12.0-0.33","2d_cat_multi_stim_exp1","2022-5-3","9:6:12","25","75","3","9","10","40","30","120","80","21","[""White""]","No","Female","2657299","null","null","","","","fixation","","","","","","","","","","","","","","","","","","","","","","","","","",""
"","","","","","canvas-keyboard-response","178","385591","0.0-12.0-1.33","2d_cat_multi_stim_exp1","2022-5-3","9:6:12","25","75","3","9","10","40","30","120","80","21","[""White""]","No","Female","2657299","null","null","","","","clear_screen","","","","","","","","","","","","","","","","","","","","","","","","","",""
"","","","","","canvas-keyboard-response","179","389432","0.0-12.0-2.33","2d_cat_multi_stim_exp1","2022-5-3","9:6:12","25","75","3","9","10","40","30","120","80","21","[""White""]","No","Female","2657299","3831","i","learn","","","learn_trial","10","30","out","0","1","","","","","","","","","","","","","","","","","","","","",""
"","","","","","canvas-keyboard-response","180","389941","0.0-12.0-3.33","2d_cat_multi_stim_exp1","2022-5-3","9:6:12","25","75","3","9","10","40","30","120","80","21","[""White""]","No","Female","2657299","null","null","learn_feedback","","","learn_feedback","10","30","out","","","","","","","","","","","","","","","","","","","","","","",""
"","","","","","canvas-keyboard-response","181","390000","0.0-12.0-4.33","2d_cat_multi_stim_exp1","2022-5-3","9:6:12","25","75","3","9","10","40","30","120","80","21","[""White""]","No","Female","2657299","null","null","","","","clear_screen","","","","","","","","","","","","","","","","","","","","","","","","","",""
"","","","","","canvas-keyboard-response","182","390508","0.0-12.0-0.34","2d_cat_multi_stim_exp1","2022-5-3","9:6:12","25","75","3","9","10","40","30","120","80","21","[""White""]","No","Female","2657299","null","null","","","","fixation","","","","","","","","","","","","","","","","","","","","","","","","","",""
"","","","","","canvas-keyboard-response","183","391018","0.0-12.0-1.34","2d_cat_multi_stim_exp1","2022-5-3","9:6:12","25","75","3","9","10","40","30","120","80","21","[""White""]","No","Female","2657299","null","null","","","","clear_screen","","","","","","","","","","","","","","","","","","","","","","","","","",""
"","","","","","canvas-keyboard-response","184","392785","0.0-12.0-2.34","2d_cat_multi_stim_exp1","2022-5-3","9:6:12","25","75","3","9","10","40","30","120","80","21","[""White""]","No","Female","2657299","1757","u","learn","","","learn_trial","20.7574","87.7279","in","1","1","","","","","","","","","","","","","","","","","","","","",""
"","","","","","canvas-keyboard-response","185","393295","0.0-12.0-3.34","2d_cat_multi_stim_exp1","2022-5-3","9:6:12","25","75","3","9","10","40","30","120","80","21","[""White""]","No","Female","2657299","null","null","learn_feedback","","","learn_feedback","20.7574","87.7279","in","","","","","","","","","","","","","","","","","","","","","","",""
"","","","","","canvas-keyboard-response","186","393353","0.0-12.0-4.34","2d_cat_multi_stim_exp1","2022-5-3","9:6:12","25","75","3","9","10","40","30","120","80","21","[""White""]","No","Female","2657299","null","null","","","","clear_screen","","","","","","","","","","","","","","","","","","","","","","","","","",""
"","","","","","canvas-keyboard-response","187","393863","0.0-12.0-0.35","2d_cat_multi_stim_exp1","2022-5-3","9:6:12","25","75","3","9","10","40","30","120","80","21","[""White""]","No","Female","2657299","null","null","","","","fixation","","","","","","","","","","","","","","","","","","","","","","","","","",""
"","","","","","canvas-keyboard-response","188","394375","0.0-12.0-1.35","2d_cat_multi_stim_exp1","2022-5-3","9:6:12","25","75","3","9","10","40","30","120","80","21","[""White""]","No","Female","2657299","null","null","","","","clear_screen","","","","","","","","","","","","","","","","","","","","","","","","","",""
"","","","","","canvas-keyboard-response","189","398152","0.0-12.0-2.35","2d_cat_multi_stim_exp1","2022-5-3","9:6:12","25","75","3","9","10","40","30","120","80","21","[""White""]","No","Female","2657299","3766","i","learn","","","learn_trial","10","60","out","0","1","","","","","","","","","","","","","","","","","","","","",""
"","","","","","canvas-keyboard-response","190","398661","0.0-12.0-3.35","2d_cat_multi_stim_exp1","2022-5-3","9:6:12","25","75","3","9","10","40","30","120","80","21","[""White""]","No","Female","2657299","null","null","learn_feedback","","","learn_feedback","10","60","out","","","","","","","","","","","","","","","","","","","","","","",""
"","","","","","canvas-keyboard-response","191","398720","0.0-12.0-4.35","2d_cat_multi_stim_exp1","2022-5-3","9:6:12","25","75","3","9","10","40","30","120","80","21","[""White""]","No","Female","2657299","null","null","","","","clear_screen","","","","","","","","","","","","","","","","","","","","","","","","","",""
"","","","","","canvas-keyboard-response","192","399229","0.0-12.0-0.36","2d_cat_multi_stim_exp1","2022-5-3","9:6:12","25","75","3","9","10","40","30","120","80","21","[""White""]","No","Female","2657299","null","null","","","","fixation","","","","","","","","","","","","","","","","","","","","","","","","","",""
"","","","","","canvas-keyboard-response","193","399739","0.0-12.0-1.36","2d_cat_multi_stim_exp1","2022-5-3","9:6:12","25","75","3","9","10","40","30","120","80","21","[""White""]","No","Female","2657299","null","null","","","","clear_screen","","","","","","","","","","","","","","","","","","","","","","","","","",""
"","","","","","canvas-keyboard-response","194","402672","0.0-12.0-2.36","2d_cat_multi_stim_exp1","2022-5-3","9:6:12","25","75","3","9","10","40","30","120","80","21","[""White""]","No","Female","2657299","2922","i","learn","","","learn_trial","10","80","out","0","1","","","","","","","","","","","","","","","","","","","","",""
"","","","","","canvas-keyboard-response","195","403182","0.0-12.0-3.36","2d_cat_multi_stim_exp1","2022-5-3","9:6:12","25","75","3","9","10","40","30","120","80","21","[""White""]","No","Female","2657299","null","null","learn_feedback","","","learn_feedback","10","80","out","","","","","","","","","","","","","","","","","","","","","","",""
"","","","","","canvas-keyboard-response","196","403241","0.0-12.0-4.36","2d_cat_multi_stim_exp1","2022-5-3","9:6:12","25","75","3","9","10","40","30","120","80","21","[""White""]","No","Female","2657299","null","null","","","","clear_screen","","","","","","","","","","","","","","","","","","","","","","","","","",""
"","","","","","canvas-keyboard-response","197","403750","0.0-12.0-0.37","2d_cat_multi_stim_exp1","2022-5-3","9:6:12","25","75","3","9","10","40","30","120","80","21","[""White""]","No","Female","2657299","null","null","","","","fixation","","","","","","","","","","","","","","","","","","","","","","","","","",""
"","","","","","canvas-keyboard-response","198","404259","0.0-12.0-1.37","2d_cat_multi_stim_exp1","2022-5-3","9:6:12","25","75","3","9","10","40","30","120","80","21","[""White""]","No","Female","2657299","null","null","","","","clear_screen","","","","","","","","","","","","","","","","","","","","","","","","","",""
"","","","","","canvas-keyboard-response","199","405559","0.0-12.0-2.37","2d_cat_multi_stim_exp1","2022-5-3","9:6:12","25","75","3","9","10","40","30","120","80","21","[""White""]","No","Female","2657299","1291","i","learn","","","learn_trial","36.6667","50","out","0","1","","","","","","","","","","","","","","","","","","","","",""
"","","","","","canvas-keyboard-response","200","406069","0.0-12.0-3.37","2d_cat_multi_stim_exp1","2022-5-3","9:6:12","25","75","3","9","10","40","30","120","80","21","[""White""]","No","Female","2657299","null","null","learn_feedback","","","learn_feedback","36.6667","50","out","","","","","","","","","","","","","","","","","","","","","","",""
"","","","","","canvas-keyboard-response","201","406129","0.0-12.0-4.37","2d_cat_multi_stim_exp1","2022-5-3","9:6:12","25","75","3","9","10","40","30","120","80","21","[""White""]","No","Female","2657299","null","null","","","","clear_screen","","","","","","","","","","","","","","","","","","","","","","","","","",""
"","","","","","canvas-keyboard-response","202","406638","0.0-12.0-0.38","2d_cat_multi_stim_exp1","2022-5-3","9:6:12","25","75","3","9","10","40","30","120","80","21","[""White""]","No","Female","2657299","null","null","","","","fixation","","","","","","","","","","","","","","","","","","","","","","","","","",""
"","","","","","canvas-keyboard-response","203","407148","0.0-12.0-1.38","2d_cat_multi_stim_exp1","2022-5-3","9:6:12","25","75","3","9","10","40","30","120","80","21","[""White""]","No","Female","2657299","null","null","","","","clear_screen","","","","","","","","","","","","","","","","","","","","","","","","","",""
"","","","","","canvas-keyboard-response","204","408744","0.0-12.0-2.38","2d_cat_multi_stim_exp1","2022-5-3","9:6:12","25","75","3","9","10","40","30","120","80","21","[""White""]","No","Female","2657299","1582","u","learn","","","learn_trial","25","75","in","1","1","","","","","","","","","","","","","","","","","","","","",""
"","","","","","canvas-keyboard-response","205","409254","0.0-12.0-3.38","2d_cat_multi_stim_exp1","2022-5-3","9:6:12","25","75","3","9","10","40","30","120","80","21","[""White""]","No","Female","2657299","null","null","learn_feedback","","","learn_feedback","25","75","in","","","","","","","","","","","","","","","","","","","","","","",""
"","","","","","canvas-keyboard-response","206","409313","0.0-12.0-4.38","2d_cat_multi_stim_exp1","2022-5-3","9:6:12","25","75","3","9","10","40","30","120","80","21","[""White""]","No","Female","2657299","null","null","","","","clear_screen","","","","","","","","","","","","","","","","","","","","","","","","","",""
"","","","","","canvas-keyboard-response","207","409822","0.0-12.0-0.39","2d_cat_multi_stim_exp1","2022-5-3","9:6:12","25","75","3","9","10","40","30","120","80","21","[""White""]","No","Female","2657299","null","null","","","","fixation","","","","","","","","","","","","","","","","","","","","","","","","","",""
"","","","","","canvas-keyboard-response","208","410331","0.0-12.0-1.39","2d_cat_multi_stim_exp1","2022-5-3","9:6:12","25","75","3","9","10","40","30","120","80","21","[""White""]","No","Female","2657299","null","null","","","","clear_screen","","","","","","","","","","","","","","","","","","","","","","","","","",""
"","","","","","canvas-keyboard-response","209","411519","0.0-12.0-2.39","2d_cat_multi_stim_exp1","2022-5-3","9:6:12","25","75","3","9","10","40","30","120","80","21","[""White""]","No","Female","2657299","1180","u","learn","","","learn_trial","23.3333","90","out","1","0","","","","","","","","","","","","","","","","","","","","",""
"","","","","","canvas-keyboard-response","210","412530","0.0-12.0-3.39","2d_cat_multi_stim_exp1","2022-5-3","9:6:12","25","75","3","9","10","40","30","120","80","21","[""White""]","No","Female","2657299","null","null","learn_feedback","","","learn_feedback","23.3333","90","out","","","","","","","","","","","","","","","","","","","","","","",""
"","","","","","canvas-keyboard-response","211","412589","0.0-12.0-4.39","2d_cat_multi_stim_exp1","2022-5-3","9:6:12","25","75","3","9","10","40","30","120","80","21","[""White""]","No","Female","2657299","null","null","","","","clear_screen","","","","","","","","","","","","","","","","","","","","","","","","","",""
"","","","","","canvas-keyboard-response","212","413099","0.0-12.0-0.40","2d_cat_multi_stim_exp1","2022-5-3","9:6:12","25","75","3","9","10","40","30","120","80","21","[""White""]","No","Female","2657299","null","null","","","","fixation","","","","","","","","","","","","","","","","","","","","","","","","","",""
"","","","","","canvas-keyboard-response","213","413612","0.0-12.0-1.40","2d_cat_multi_stim_exp1","2022-5-3","9:6:12","25","75","3","9","10","40","30","120","80","21","[""White""]","No","Female","2657299","null","null","","","","clear_screen","","","","","","","","","","","","","","","","","","","","","","","","","",""
"","","","","","canvas-keyboard-response","214","414720","0.0-12.0-2.40","2d_cat_multi_stim_exp1","2022-5-3","9:6:12","25","75","3","9","10","40","30","120","80","21","[""White""]","No","Female","2657299","1095","i","learn","","","learn_trial","16.6667","50","out","0","1","","","","","","","","","","","","","","","","","","","","",""
"","","","","","canvas-keyboard-response","215","415231","0.0-12.0-3.40","2d_cat_multi_stim_exp1","2022-5-3","9:6:12","25","75","3","9","10","40","30","120","80","21","[""White""]","No","Female","2657299","null","null","learn_feedback","","","learn_feedback","16.6667","50","out","","","","","","","","","","","","","","","","","","","","","","",""
"","","","","","canvas-keyboard-response","216","415291","0.0-12.0-4.40","2d_cat_multi_stim_exp1","2022-5-3","9:6:12","25","75","3","9","10","40","30","120","80","21","[""White""]","No","Female","2657299","null","null","","","","clear_screen","","","","","","","","","","","","","","","","","","","","","","","","","",""
"","","","","","canvas-keyboard-response","217","415801","0.0-12.0-0.41","2d_cat_multi_stim_exp1","2022-5-3","9:6:12","25","75","3","9","10","40","30","120","80","21","[""White""]","No","Female","2657299","null","null","","","","fixation","","","","","","","","","","","","","","","","","","","","","","","","","",""
"","","","","","canvas-keyboard-response","218","416310","0.0-12.0-1.41","2d_cat_multi_stim_exp1","2022-5-3","9:6:12","25","75","3","9","10","40","30","120","80","21","[""White""]","No","Female","2657299","null","null","","","","clear_screen","","","","","","","","","","","","","","","","","","","","","","","","","",""
"","","","","","canvas-keyboard-response","219","417152","0.0-12.0-2.41","2d_cat_multi_stim_exp1","2022-5-3","9:6:12","25","75","3","9","10","40","30","120","80","21","[""White""]","No","Female","2657299","832","i","learn","","","learn_trial","30","30","out","0","1","","","","","","","","","","","","","","","","","","","","",""
"","","","","","canvas-keyboard-response","220","417662","0.0-12.0-3.41","2d_cat_multi_stim_exp1","2022-5-3","9:6:12","25","75","3","9","10","40","30","120","80","21","[""White""]","No","Female","2657299","null","null","learn_feedback","","","learn_feedback","30","30","out","","","","","","","","","","","","","","","","","","","","","","",""
"","","","","","canvas-keyboard-response","221","417722","0.0-12.0-4.41","2d_cat_multi_stim_exp1","2022-5-3","9:6:12","25","75","3","9","10","40","30","120","80","21","[""White""]","No","Female","2657299","null","null","","","","clear_screen","","","","","","","","","","","","","","","","","","","","","","","","","",""
"","","","","","canvas-keyboard-response","222","418232","0.0-12.0-0.42","2d_cat_multi_stim_exp1","2022-5-3","9:6:12","25","75","3","9","10","40","30","120","80","21","[""White""]","No","Female","2657299","null","null","","","","fixation","","","","","","","","","","","","","","","","","","","","","","","","","",""
"","","","","","canvas-keyboard-response","223","418742","0.0-12.0-1.42","2d_cat_multi_stim_exp1","2022-5-3","9:6:12","25","75","3","9","10","40","30","120","80","21","[""White""]","No","Female","2657299","null","null","","","","clear_screen","","","","","","","","","","","","","","","","","","","","","","","","","",""
"","","","","","canvas-keyboard-response","224","420736","0.0-12.0-2.42","2d_cat_multi_stim_exp1","2022-5-3","9:6:12","25","75","3","9","10","40","30","120","80","21","[""White""]","No","Female","2657299","1984","u","learn","","","learn_trial","27.2592","69.0786","in","1","1","","","","","","","","","","","","","","","","","","","","",""
"","","","","","canvas-keyboard-response","225","421248","0.0-12.0-3.42","2d_cat_multi_stim_exp1","2022-5-3","9:6:12","25","75","3","9","10","40","30","120","80","21","[""White""]","No","Female","2657299","null","null","learn_feedback","","","learn_feedback","27.2592","69.0786","in","","","","","","","","","","","","","","","","","","","","","","",""
"","","","","","canvas-keyboard-response","226","421307","0.0-12.0-4.42","2d_cat_multi_stim_exp1","2022-5-3","9:6:12","25","75","3","9","10","40","30","120","80","21","[""White""]","No","Female","2657299","null","null","","","","clear_screen","","","","","","","","","","","","","","","","","","","","","","","","","",""
"","","","","","canvas-keyboard-response","227","421817","0.0-12.0-0.43","2d_cat_multi_stim_exp1","2022-5-3","9:6:12","25","75","3","9","10","40","30","120","80","21","[""White""]","No","Female","2657299","null","null","","","","fixation","","","","","","","","","","","","","","","","","","","","","","","","","",""
"","","","","","canvas-keyboard-response","228","422326","0.0-12.0-1.43","2d_cat_multi_stim_exp1","2022-5-3","9:6:12","25","75","3","9","10","40","30","120","80","21","[""White""]","No","Female","2657299","null","null","","","","clear_screen","","","","","","","","","","","","","","","","","","","","","","","","","",""
"","","","","","canvas-keyboard-response","229","424144","0.0-12.0-2.43","2d_cat_multi_stim_exp1","2022-5-3","9:6:12","25","75","3","9","10","40","30","120","80","21","[""White""]","No","Female","2657299","1809","i","learn","","","learn_trial","13.3333","110","out","0","1","","","","","","","","","","","","","","","","","","","","",""
"","","","","","canvas-keyboard-response","230","424654","0.0-12.0-3.43","2d_cat_multi_stim_exp1","2022-5-3","9:6:12","25","75","3","9","10","40","30","120","80","21","[""White""]","No","Female","2657299","null","null","learn_feedback","","","learn_feedback","13.3333","110","out","","","","","","","","","","","","","","","","","","","","","","",""
"","","","","","canvas-keyboard-response","231","424713","0.0-12.0-4.43","2d_cat_multi_stim_exp1","2022-5-3","9:6:12","25","75","3","9","10","40","30","120","80","21","[""White""]","No","Female","2657299","null","null","","","","clear_screen","","","","","","","","","","","","","","","","","","","","","","","","","",""
"","","","","","canvas-keyboard-response","232","425223","0.0-12.0-0.44","2d_cat_multi_stim_exp1","2022-5-3","9:6:12","25","75","3","9","10","40","30","120","80","21","[""White""]","No","Female","2657299","null","null","","","","fixation","","","","","","","","","","","","","","","","","","","","","","","","","",""
"","","","","","canvas-keyboard-response","233","425732","0.0-12.0-1.44","2d_cat_multi_stim_exp1","2022-5-3","9:6:12","25","75","3","9","10","40","30","120","80","21","[""White""]","No","Female","2657299","null","null","","","","clear_screen","","","","","","","","","","","","","","","","","","","","","","","","","",""
"","","","","","canvas-keyboard-response","234","426824","0.0-12.0-2.44","2d_cat_multi_stim_exp1","2022-5-3","9:6:12","25","75","3","9","10","40","30","120","80","21","[""White""]","No","Female","2657299","1083","i","learn","","","learn_trial","36.6667","40","out","0","1","","","","","","","","","","","","","","","","","","","","",""
"","","","","","canvas-keyboard-response","235","427338","0.0-12.0-3.44","2d_cat_multi_stim_exp1","2022-5-3","9:6:12","25","75","3","9","10","40","30","120","80","21","[""White""]","No","Female","2657299","null","null","learn_feedback","","","learn_feedback","36.6667","40","out","","","","","","","","","","","","","","","","","","","","","","",""
"","","","","","canvas-keyboard-response","236","427396","0.0-12.0-4.44","2d_cat_multi_stim_exp1","2022-5-3","9:6:12","25","75","3","9","10","40","30","120","80","21","[""White""]","No","Female","2657299","null","null","","","","clear_screen","","","","","","","","","","","","","","","","","","","","","","","","","",""
"","","","","","canvas-keyboard-response","237","427906","0.0-12.0-0.45","2d_cat_multi_stim_exp1","2022-5-3","9:6:12","25","75","3","9","10","40","30","120","80","21","[""White""]","No","Female","2657299","null","null","","","","fixation","","","","","","","","","","","","","","","","","","","","","","","","","",""
"","","","","","canvas-keyboard-response","238","428415","0.0-12.0-1.45","2d_cat_multi_stim_exp1","2022-5-3","9:6:12","25","75","3","9","10","40","30","120","80","21","[""White""]","No","Female","2657299","null","null","","","","clear_screen","","","","","","","","","","","","","","","","","","","","","","","","","",""
"","","","","","canvas-keyboard-response","239","429224","0.0-12.0-2.45","2d_cat_multi_stim_exp1","2022-5-3","9:6:12","25","75","3","9","10","40","30","120","80","21","[""White""]","No","Female","2657299","799","i","learn","","","learn_trial","10","40","out","0","1","","","","","","","","","","","","","","","","","","","","",""
"","","","","","canvas-keyboard-response","240","429734","0.0-12.0-3.45","2d_cat_multi_stim_exp1","2022-5-3","9:6:12","25","75","3","9","10","40","30","120","80","21","[""White""]","No","Female","2657299","null","null","learn_feedback","","","learn_feedback","10","40","out","","","","","","","","","","","","","","","","","","","","","","",""
"","","","","","canvas-keyboard-response","241","429793","0.0-12.0-4.45","2d_cat_multi_stim_exp1","2022-5-3","9:6:12","25","75","3","9","10","40","30","120","80","21","[""White""]","No","Female","2657299","null","null","","","","clear_screen","","","","","","","","","","","","","","","","","","","","","","","","","",""
"","","","","","canvas-keyboard-response","242","430302","0.0-12.0-0.46","2d_cat_multi_stim_exp1","2022-5-3","9:6:12","25","75","3","9","10","40","30","120","80","21","[""White""]","No","Female","2657299","null","null","","","","fixation","","","","","","","","","","","","","","","","","","","","","","","","","",""
"","","","","","canvas-keyboard-response","243","430812","0.0-12.0-1.46","2d_cat_multi_stim_exp1","2022-5-3","9:6:12","25","75","3","9","10","40","30","120","80","21","[""White""]","No","Female","2657299","null","null","","","","clear_screen","","","","","","","","","","","","","","","","","","","","","","","","","",""
"","","","","","canvas-keyboard-response","244","432087","0.0-12.0-2.46","2d_cat_multi_stim_exp1","2022-5-3","9:6:12","25","75","3","9","10","40","30","120","80","21","[""White""]","No","Female","2657299","1267","i","learn","","","learn_trial","40","40","out","0","1","","","","","","","","","","","","","","","","","","","","",""
"","","","","","canvas-keyboard-response","245","432597","0.0-12.0-3.46","2d_cat_multi_stim_exp1","2022-5-3","9:6:12","25","75","3","9","10","40","30","120","80","21","[""White""]","No","Female","2657299","null","null","learn_feedback","","","learn_feedback","40","40","out","","","","","","","","","","","","","","","","","","","","","","",""
"","","","","","canvas-keyboard-response","246","432656","0.0-12.0-4.46","2d_cat_multi_stim_exp1","2022-5-3","9:6:12","25","75","3","9","10","40","30","120","80","21","[""White""]","No","Female","2657299","null","null","","","","clear_screen","","","","","","","","","","","","","","","","","","","","","","","","","",""
"","","","","","canvas-keyboard-response","247","433166","0.0-12.0-0.47","2d_cat_multi_stim_exp1","2022-5-3","9:6:12","25","75","3","9","10","40","30","120","80","21","[""White""]","No","Female","2657299","null","null","","","","fixation","","","","","","","","","","","","","","","","","","","","","","","","","",""
"","","","","","canvas-keyboard-response","248","433675","0.0-12.0-1.47","2d_cat_multi_stim_exp1","2022-5-3","9:6:12","25","75","3","9","10","40","30","120","80","21","[""White""]","No","Female","2657299","null","null","","","","clear_screen","","","","","","","","","","","","","","","","","","","","","","","","","",""
"","","","","","canvas-keyboard-response","249","435512","0.0-12.0-2.47","2d_cat_multi_stim_exp1","2022-5-3","9:6:12","25","75","3","9","10","40","30","120","80","21","[""White""]","No","Female","2657299","1827","u","learn","","","learn_trial","23.3473","82.5112","in","1","1","","","","","","","","","","","","","","","","","","","","",""
"","","","","","canvas-keyboard-response","250","436022","0.0-12.0-3.47","2d_cat_multi_stim_exp1","2022-5-3","9:6:12","25","75","3","9","10","40","30","120","80","21","[""White""]","No","Female","2657299","null","null","learn_feedback","","","learn_feedback","23.3473","82.5112","in","","","","","","","","","","","","","","","","","","","","","","",""
"","","","","","canvas-keyboard-response","251","436082","0.0-12.0-4.47","2d_cat_multi_stim_exp1","2022-5-3","9:6:12","25","75","3","9","10","40","30","120","80","21","[""White""]","No","Female","2657299","null","null","","","","clear_screen","","","","","","","","","","","","","","","","","","","","","","","","","",""
"","","","","","canvas-keyboard-response","252","436591","0.0-12.0-0.48","2d_cat_multi_stim_exp1","2022-5-3","9:6:12","25","75","3","9","10","40","30","120","80","21","[""White""]","No","Female","2657299","null","null","","","","fixation","","","","","","","","","","","","","","","","","","","","","","","","","",""
"","","","","","canvas-keyboard-response","253","437101","0.0-12.0-1.48","2d_cat_multi_stim_exp1","2022-5-3","9:6:12","25","75","3","9","10","40","30","120","80","21","[""White""]","No","Female","2657299","null","null","","","","clear_screen","","","","","","","","","","","","","","","","","","","","","","","","","",""
"","","","","","canvas-keyboard-response","254","439176","0.0-12.0-2.48","2d_cat_multi_stim_exp1","2022-5-3","9:6:12","25","75","3","9","10","40","30","120","80","21","[""White""]","No","Female","2657299","2065","u","learn","","","learn_trial","23.8209","66.7243","in","1","1","","","","","","","","","","","","","","","","","","","","",""
"","","","","","canvas-keyboard-response","255","439685","0.0-12.0-3.48","2d_cat_multi_stim_exp1","2022-5-3","9:6:12","25","75","3","9","10","40","30","120","80","21","[""White""]","No","Female","2657299","null","null","learn_feedback","","","learn_feedback","23.8209","66.7243","in","","","","","","","","","","","","","","","","","","","","","","",""
"","","","","","canvas-keyboard-response","256","439744","0.0-12.0-4.48","2d_cat_multi_stim_exp1","2022-5-3","9:6:12","25","75","3","9","10","40","30","120","80","21","[""White""]","No","Female","2657299","null","null","","","","clear_screen","","","","","","","","","","","","","","","","","","","","","","","","","",""
"","","","","","canvas-keyboard-response","257","440253","0.0-12.0-0.49","2d_cat_multi_stim_exp1","2022-5-3","9:6:12","25","75","3","9","10","40","30","120","80","21","[""White""]","No","Female","2657299","null","null","","","","fixation","","","","","","","","","","","","","","","","","","","","","","","","","",""
"","","","","","canvas-keyboard-response","258","440763","0.0-12.0-1.49","2d_cat_multi_stim_exp1","2022-5-3","9:6:12","25","75","3","9","10","40","30","120","80","21","[""White""]","No","Female","2657299","null","null","","","","clear_screen","","","","","","","","","","","","","","","","","","","","","","","","","",""
"","","","","","canvas-keyboard-response","259","441639","0.0-12.0-2.49","2d_cat_multi_stim_exp1","2022-5-3","9:6:12","25","75","3","9","10","40","30","120","80","21","[""White""]","No","Female","2657299","866","i","learn","","","learn_trial","13.3333","50","out","0","1","","","","","","","","","","","","","","","","","","","","",""
"","","","","","canvas-keyboard-response","260","442149","0.0-12.0-3.49","2d_cat_multi_stim_exp1","2022-5-3","9:6:12","25","75","3","9","10","40","30","120","80","21","[""White""]","No","Female","2657299","null","null","learn_feedback","","","learn_feedback","13.3333","50","out","","","","","","","","","","","","","","","","","","","","","","",""
"","","","","","canvas-keyboard-response","261","442209","0.0-12.0-4.49","2d_cat_multi_stim_exp1","2022-5-3","9:6:12","25","75","3","9","10","40","30","120","80","21","[""White""]","No","Female","2657299","null","null","","","","clear_screen","","","","","","","","","","","","","","","","","","","","","","","","","",""
"","","","","","canvas-keyboard-response","262","442718","0.0-12.0-0.50","2d_cat_multi_stim_exp1","2022-5-3","9:6:12","25","75","3","9","10","40","30","120","80","21","[""White""]","No","Female","2657299","null","null","","","","fixation","","","","","","","","","","","","","","","","","","","","","","","","","",""
"","","","","","canvas-keyboard-response","263","443227","0.0-12.0-1.50","2d_cat_multi_stim_exp1","2022-5-3","9:6:12","25","75","3","9","10","40","30","120","80","21","[""White""]","No","Female","2657299","null","null","","","","clear_screen","","","","","","","","","","","","","","","","","","","","","","","","","",""
"","","","","","canvas-keyboard-response","264","446576","0.0-12.0-2.50","2d_cat_multi_stim_exp1","2022-5-3","9:6:12","25","75","3","9","10","40","30","120","80","21","[""White""]","No","Female","2657299","3339","u","learn","","","learn_trial","25.4027","66.0815","in","1","1","","","","","","","","","","","","","","","","","","","","",""
"","","","","","canvas-keyboard-response","265","447087","0.0-12.0-3.50","2d_cat_multi_stim_exp1","2022-5-3","9:6:12","25","75","3","9","10","40","30","120","80","21","[""White""]","No","Female","2657299","null","null","learn_feedback","","","learn_feedback","25.4027","66.0815","in","","","","","","","","","","","","","","","","","","","","","","",""
"","","","","","canvas-keyboard-response","266","447149","0.0-12.0-4.50","2d_cat_multi_stim_exp1","2022-5-3","9:6:12","25","75","3","9","10","40","30","120","80","21","[""White""]","No","Female","2657299","null","null","","","","clear_screen","","","","","","","","","","","","","","","","","","","","","","","","","",""
"","","","","","canvas-keyboard-response","267","447655","0.0-12.0-0.51","2d_cat_multi_stim_exp1","2022-5-3","9:6:12","25","75","3","9","10","40","30","120","80","21","[""White""]","No","Female","2657299","null","null","","","","fixation","","","","","","","","","","","","","","","","","","","","","","","","","",""
"","","","","","canvas-keyboard-response","268","448165","0.0-12.0-1.51","2d_cat_multi_stim_exp1","2022-5-3","9:6:12","25","75","3","9","10","40","30","120","80","21","[""White""]","No","Female","2657299","null","null","","","","clear_screen","","","","","","","","","","","","","","","","","","","","","","","","","",""
"","","","","","canvas-keyboard-response","269","449151","0.0-12.0-2.51","2d_cat_multi_stim_exp1","2022-5-3","9:6:12","25","75","3","9","10","40","30","120","80","21","[""White""]","No","Female","2657299","977","u","learn","","","learn_trial","20","90","out","1","0","","","","","","","","","","","","","","","","","","","","",""
"","","","","","canvas-keyboard-response","270","450162","0.0-12.0-3.51","2d_cat_multi_stim_exp1","2022-5-3","9:6:12","25","75","3","9","10","40","30","120","80","21","[""White""]","No","Female","2657299","null","null","learn_feedback","","","learn_feedback","20","90","out","","","","","","","","","","","","","","","","","","","","","","",""
"","","","","","canvas-keyboard-response","271","450221","0.0-12.0-4.51","2d_cat_multi_stim_exp1","2022-5-3","9:6:12","25","75","3","9","10","40","30","120","80","21","[""White""]","No","Female","2657299","null","null","","","","clear_screen","","","","","","","","","","","","","","","","","","","","","","","","","",""
"","","","","","canvas-keyboard-response","272","450730","0.0-12.0-0.52","2d_cat_multi_stim_exp1","2022-5-3","9:6:12","25","75","3","9","10","40","30","120","80","21","[""White""]","No","Female","2657299","null","null","","","","fixation","","","","","","","","","","","","","","","","","","","","","","","","","",""
"","","","","","canvas-keyboard-response","273","451239","0.0-12.0-1.52","2d_cat_multi_stim_exp1","2022-5-3","9:6:12","25","75","3","9","10","40","30","120","80","21","[""White""]","No","Female","2657299","null","null","","","","clear_screen","","","","","","","","","","","","","","","","","","","","","","","","","",""
"","","","","","canvas-keyboard-response","274","452415","0.0-12.0-2.52","2d_cat_multi_stim_exp1","2022-5-3","9:6:12","25","75","3","9","10","40","30","120","80","21","[""White""]","No","Female","2657299","1167","u","learn","","","learn_trial","25","75","in","1","1","","","","","","","","","","","","","","","","","","","","",""
"","","","","","canvas-keyboard-response","275","452926","0.0-12.0-3.52","2d_cat_multi_stim_exp1","2022-5-3","9:6:12","25","75","3","9","10","40","30","120","80","21","[""White""]","No","Female","2657299","null","null","learn_feedback","","","learn_feedback","25","75","in","","","","","","","","","","","","","","","","","","","","","","",""
"","","","","","canvas-keyboard-response","276","452985","0.0-12.0-4.52","2d_cat_multi_stim_exp1","2022-5-3","9:6:12","25","75","3","9","10","40","30","120","80","21","[""White""]","No","Female","2657299","null","null","","","","clear_screen","","","","","","","","","","","","","","","","","","","","","","","","","",""
"","","","","","canvas-keyboard-response","277","453494","0.0-12.0-0.53","2d_cat_multi_stim_exp1","2022-5-3","9:6:12","25","75","3","9","10","40","30","120","80","21","[""White""]","No","Female","2657299","null","null","","","","fixation","","","","","","","","","","","","","","","","","","","","","","","","","",""
"","","","","","canvas-keyboard-response","278","454003","0.0-12.0-1.53","2d_cat_multi_stim_exp1","2022-5-3","9:6:12","25","75","3","9","10","40","30","120","80","21","[""White""]","No","Female","2657299","null","null","","","","clear_screen","","","","","","","","","","","","","","","","","","","","","","","","","",""
"","","","","","canvas-keyboard-response","279","455991","0.0-12.0-2.53","2d_cat_multi_stim_exp1","2022-5-3","9:6:12","25","75","3","9","10","40","30","120","80","21","[""White""]","No","Female","2657299","1979","i","learn","","","learn_trial","40","110","out","0","1","","","","","","","","","","","","","","","","","","","","",""
"","","","","","canvas-keyboard-response","280","456502","0.0-12.0-3.53","2d_cat_multi_stim_exp1","2022-5-3","9:6:12","25","75","3","9","10","40","30","120","80","21","[""White""]","No","Female","2657299","null","null","learn_feedback","","","learn_feedback","40","110","out","","","","","","","","","","","","","","","","","","","","","","",""
"","","","","","canvas-keyboard-response","281","456560","0.0-12.0-4.53","2d_cat_multi_stim_exp1","2022-5-3","9:6:12","25","75","3","9","10","40","30","120","80","21","[""White""]","No","Female","2657299","null","null","","","","clear_screen","","","","","","","","","","","","","","","","","","","","","","","","","",""
"","","","","","canvas-keyboard-response","282","457071","0.0-12.0-0.54","2d_cat_multi_stim_exp1","2022-5-3","9:6:12","25","75","3","9","10","40","30","120","80","21","[""White""]","No","Female","2657299","null","null","","","","fixation","","","","","","","","","","","","","","","","","","","","","","","","","",""
"","","","","","canvas-keyboard-response","283","457581","0.0-12.0-1.54","2d_cat_multi_stim_exp1","2022-5-3","9:6:12","25","75","3","9","10","40","30","120","80","21","[""White""]","No","Female","2657299","null","null","","","","clear_screen","","","","","","","","","","","","","","","","","","","","","","","","","",""
"","","","","","canvas-keyboard-response","284","458847","0.0-12.0-2.54","2d_cat_multi_stim_exp1","2022-5-3","9:6:12","25","75","3","9","10","40","30","120","80","21","[""White""]","No","Female","2657299","1256","u","learn","","","learn_trial","25","75","in","1","1","","","","","","","","","","","","","","","","","","","","",""
"","","","","","canvas-keyboard-response","285","459357","0.0-12.0-3.54","2d_cat_multi_stim_exp1","2022-5-3","9:6:12","25","75","3","9","10","40","30","120","80","21","[""White""]","No","Female","2657299","null","null","learn_feedback","","","learn_feedback","25","75","in","","","","","","","","","","","","","","","","","","","","","","",""
"","","","","","canvas-keyboard-response","286","459416","0.0-12.0-4.54","2d_cat_multi_stim_exp1","2022-5-3","9:6:12","25","75","3","9","10","40","30","120","80","21","[""White""]","No","Female","2657299","null","null","","","","clear_screen","","","","","","","","","","","","","","","","","","","","","","","","","",""
"","","","","","canvas-keyboard-response","287","459924","0.0-12.0-0.55","2d_cat_multi_stim_exp1","2022-5-3","9:6:12","25","75","3","9","10","40","30","120","80","21","[""White""]","No","Female","2657299","null","null","","","","fixation","","","","","","","","","","","","","","","","","","","","","","","","","",""
"","","","","","canvas-keyboard-response","288","460434","0.0-12.0-1.55","2d_cat_multi_stim_exp1","2022-5-3","9:6:12","25","75","3","9","10","40","30","120","80","21","[""White""]","No","Female","2657299","null","null","","","","clear_screen","","","","","","","","","","","","","","","","","","","","","","","","","",""
"","","","","","canvas-keyboard-response","289","461143","0.0-12.0-2.55","2d_cat_multi_stim_exp1","2022-5-3","9:6:12","25","75","3","9","10","40","30","120","80","21","[""White""]","No","Female","2657299","700","u","learn","","","learn_trial","30","80","out","1","0","","","","","","","","","","","","","","","","","","","","",""
"","","","","","canvas-keyboard-response","290","462153","0.0-12.0-3.55","2d_cat_multi_stim_exp1","2022-5-3","9:6:12","25","75","3","9","10","40","30","120","80","21","[""White""]","No","Female","2657299","null","null","learn_feedback","","","learn_feedback","30","80","out","","","","","","","","","","","","","","","","","","","","","","",""
"","","","","","canvas-keyboard-response","291","462212","0.0-12.0-4.55","2d_cat_multi_stim_exp1","2022-5-3","9:6:12","25","75","3","9","10","40","30","120","80","21","[""White""]","No","Female","2657299","null","null","","","","clear_screen","","","","","","","","","","","","","","","","","","","","","","","","","",""
"","","","","","canvas-keyboard-response","292","462721","0.0-12.0-0.56","2d_cat_multi_stim_exp1","2022-5-3","9:6:12","25","75","3","9","10","40","30","120","80","21","[""White""]","No","Female","2657299","null","null","","","","fixation","","","","","","","","","","","","","","","","","","","","","","","","","",""
"","","","","","canvas-keyboard-response","293","463230","0.0-12.0-1.56","2d_cat_multi_stim_exp1","2022-5-3","9:6:12","25","75","3","9","10","40","30","120","80","21","[""White""]","No","Female","2657299","null","null","","","","clear_screen","","","","","","","","","","","","","","","","","","","","","","","","","",""
"","","","","","canvas-keyboard-response","294","465872","0.0-12.0-2.56","2d_cat_multi_stim_exp1","2022-5-3","9:6:12","25","75","3","9","10","40","30","120","80","21","[""White""]","No","Female","2657299","2631","u","learn","","","learn_trial","23.8209","83.2757","in","1","1","","","","","","","","","","","","","","","","","","","","",""
"","","","","","canvas-keyboard-response","295","466383","0.0-12.0-3.56","2d_cat_multi_stim_exp1","2022-5-3","9:6:12","25","75","3","9","10","40","30","120","80","21","[""White""]","No","Female","2657299","null","null","learn_feedback","","","learn_feedback","23.8209","83.2757","in","","","","","","","","","","","","","","","","","","","","","","",""
"","","","","","canvas-keyboard-response","296","466441","0.0-12.0-4.56","2d_cat_multi_stim_exp1","2022-5-3","9:6:12","25","75","3","9","10","40","30","120","80","21","[""White""]","No","Female","2657299","null","null","","","","clear_screen","","","","","","","","","","","","","","","","","","","","","","","","","",""
"","","","","","canvas-keyboard-response","297","466950","0.0-12.0-0.57","2d_cat_multi_stim_exp1","2022-5-3","9:6:12","25","75","3","9","10","40","30","120","80","21","[""White""]","No","Female","2657299","null","null","","","","fixation","","","","","","","","","","","","","","","","","","","","","","","","","",""
"","","","","","canvas-keyboard-response","298","467462","0.0-12.0-1.57","2d_cat_multi_stim_exp1","2022-5-3","9:6:12","25","75","3","9","10","40","30","120","80","21","[""White""]","No","Female","2657299","null","null","","","","clear_screen","","","","","","","","","","","","","","","","","","","","","","","","","",""
