"success","timeout","failed_images","failed_audio","failed_video","trial_type","trial_index","time_elapsed","internal_node_id","exp_name","date","time","angle_mean_in","radius_mean_in","angle_sd_in","radius_sd_in","angle_min_out","angle_max_out","radius_min_out","radius_max_out","sub_n","age","race","ethnicity","gender","exp_duration","rt","response","exp_trial_type","stimulus","view_history","screen_id","angle","radius","distribution","choice","correct","order","angle_a","radius_a","angle_b","radius_b","angle_c","radius_c","jkl_correct","transfer_trial_type","choice_set","abc_correct","tc_correct","tc_angle","tdc_a","tdc_b","tdc_c","pair","category_a","category_b","category_c","question_order"
"true","false","[]","[]","[]","preload","0","40","0.0-0.0","2d_cat_multi_stim_exp1","2022-4-25","15:28:57","25","75","3","9","10","40","30","120","58","20","[""Asian""]","No","Female","1993765","","","","","","","","","","","","","","","","","","","","","","","","","","","","","","","",""
"","","","","","survey-html-form","1","3583","0.0-1.0","2d_cat_multi_stim_exp1","2022-4-25","15:28:57","25","75","3","9","10","40","30","120","58","20","[""Asian""]","No","Female","1993765","3525","{""response"":""58""}","enter-sub-number","","","","","","","","","","","","","","","","","","","","","","","","","","","","",""
"true","","","","","fullscreen","2","5179","0.0-2.0","2d_cat_multi_stim_exp1","2022-4-25","15:28:57","25","75","3","9","10","40","30","120","58","20","[""Asian""]","No","Female","1993765","","","","","","","","","","","","","","","","","","","","","","","","","","","","","","","",""
"","","","","","image-button-response","3","21939","0.0-3.0","2d_cat_multi_stim_exp1","2022-4-25","15:28:57","25","75","3","9","10","40","30","120","58","20","[""Asian""]","No","Female","1993765","16753","0","","consent.png","","","","","","","","","","","","","","","","","","","","","","","","","","","",""
"","","","","","html-button-response","4","23194","0.0-4.0","2d_cat_multi_stim_exp1","2022-4-25","15:28:57","25","75","3","9","10","40","30","120","58","20","[""Asian""]","No","Female","1993765","1251","0","","<div style= ""font-size:25px;"" <p> <strong> Welcome to the experiment! </strong><br> <p style=""color:#8B0000; font-size:25px;""><strong> Please do NOT exit full screen until you are done with the experiment. </strong> </p><p style=""font-size:25px;color:#8B0000;""> <strong> The experiment will be canceled and your data will be lost <br> if you try to go back or refresh the page at any point during the experiment.</strong> </p><br><p> <strong> Thanks in advance for your contribution to our research! </strong></p>","","","","","","","","","","","","","","","","","","","","","","","","","","","",""
"","","","","","instructions","5","45986","0.0-5.0","2d_cat_multi_stim_exp1","2022-4-25","15:28:57","25","75","3","9","10","40","30","120","58","20","[""Asian""]","No","Female","1993765","22787","","","","[{""page_index"":0,""viewing_time"":3635},{""page_index"":1,""viewing_time"":2016},{""page_index"":2,""viewing_time"":6865},{""page_index"":3,""viewing_time"":10271}]","instructions_1","","","","","","","","","","","","","","","","","","","","","","","","","",""
"","","","","","instructions","6","49002","0.0-6.0","2d_cat_multi_stim_exp1","2022-4-25","15:28:57","25","75","3","9","10","40","30","120","58","20","[""Asian""]","No","Female","1993765","3012","","","","[{""page_index"":0,""viewing_time"":3012}]","Click to see the kinds of turtles that will appear in the study.","","","","","","","","","","","","","","","","","","","","","","","","","",""
"","","","","","canvas-keyboard-response","7","64024","0.0-7.0","2d_cat_multi_stim_exp1","2022-4-25","15:28:57","25","75","3","9","10","40","30","120","58","20","[""Asian""]","No","Female","1993765","null","null","","","","demo_range","","","","","","","","","","","","","","","","","","","","","","","","","",""
"","","","","","instructions","8","66394","0.0-8.0","2d_cat_multi_stim_exp1","2022-4-25","15:28:57","25","75","3","9","10","40","30","120","58","20","[""Asian""]","No","Female","1993765","1869","","","","[{""page_index"":0,""viewing_time"":1869}]","Click to see some turtles in the subspecies.","","","","","","","","","","","","","","","","","","","","","","","","","",""
"","","","","","canvas-keyboard-response","9","81416","0.0-9.0","2d_cat_multi_stim_exp1","2022-4-25","15:28:57","25","75","3","9","10","40","30","120","58","20","[""Asian""]","No","Female","1993765","null","null","","","","demo_in","","","","","","","","","","","","","","","","","","","","","","","","","",""
"","","","","","instructions","10","98041","0.0-10.0","2d_cat_multi_stim_exp1","2022-4-25","15:28:57","25","75","3","9","10","40","30","120","58","20","[""Asian""]","No","Female","1993765","16122","","","","[{""page_index"":0,""viewing_time"":3642},{""page_index"":1,""viewing_time"":10992},{""page_index"":2,""viewing_time"":1488}]","instructions_2","","","","","","","","","","","","","","","","","","","","","","","","","",""
"","","","","","instructions","11","99258","0.0-11.0","2d_cat_multi_stim_exp1","2022-4-25","15:28:57","25","75","3","9","10","40","30","120","58","20","[""Asian""]","No","Female","1993765","1213","","","","[{""page_index"":0,""viewing_time"":1213}]","Click to begin the first phase of the experiment.","","","","","","","","","","","","","","","","","","","","","","","","","",""
"","","","","","canvas-keyboard-response","12","99770","0.0-12.0-0.0","2d_cat_multi_stim_exp1","2022-4-25","15:28:57","25","75","3","9","10","40","30","120","58","20","[""Asian""]","No","Female","1993765","null","null","","","","fixation","","","","","","","","","","","","","","","","","","","","","","","","","",""
"","","","","","canvas-keyboard-response","13","100280","0.0-12.0-1.0","2d_cat_multi_stim_exp1","2022-4-25","15:28:57","25","75","3","9","10","40","30","120","58","20","[""Asian""]","No","Female","1993765","null","null","","","","clear_screen","","","","","","","","","","","","","","","","","","","","","","","","","",""
"","","","","","canvas-keyboard-response","14","103959","0.0-12.0-2.0","2d_cat_multi_stim_exp1","2022-4-25","15:28:57","25","75","3","9","10","40","30","120","58","20","[""Asian""]","No","Female","1993765","3667","u","learn","","","learn_trial","26.6667","90","out","1","0","","","","","","","","","","","","","","","","","","","","",""
"","","","","","canvas-keyboard-response","15","104971","0.0-12.0-3.0","2d_cat_multi_stim_exp1","2022-4-25","15:28:57","25","75","3","9","10","40","30","120","58","20","[""Asian""]","No","Female","1993765","null","null","learn_feedback","","","learn_feedback","26.6667","90","out","","","","","","","","","","","","","","","","","","","","","","",""
"","","","","","canvas-keyboard-response","16","105031","0.0-12.0-4.0","2d_cat_multi_stim_exp1","2022-4-25","15:28:57","25","75","3","9","10","40","30","120","58","20","[""Asian""]","No","Female","1993765","null","null","","","","clear_screen","","","","","","","","","","","","","","","","","","","","","","","","","",""
"","","","","","canvas-keyboard-response","17","105541","0.0-12.0-0.1","2d_cat_multi_stim_exp1","2022-4-25","15:28:57","25","75","3","9","10","40","30","120","58","20","[""Asian""]","No","Female","1993765","null","null","","","","fixation","","","","","","","","","","","","","","","","","","","","","","","","","",""
"","","","","","canvas-keyboard-response","18","106053","0.0-12.0-1.1","2d_cat_multi_stim_exp1","2022-4-25","15:28:57","25","75","3","9","10","40","30","120","58","20","[""Asian""]","No","Female","1993765","null","null","","","","clear_screen","","","","","","","","","","","","","","","","","","","","","","","","","",""
"","","","","","canvas-keyboard-response","19","109936","0.0-12.0-2.1","2d_cat_multi_stim_exp1","2022-4-25","15:28:57","25","75","3","9","10","40","30","120","58","20","[""Asian""]","No","Female","1993765","3871","i","learn","","","learn_trial","20","40","out","0","1","","","","","","","","","","","","","","","","","","","","",""
"","","","","","canvas-keyboard-response","20","110448","0.0-12.0-3.1","2d_cat_multi_stim_exp1","2022-4-25","15:28:57","25","75","3","9","10","40","30","120","58","20","[""Asian""]","No","Female","1993765","null","null","learn_feedback","","","learn_feedback","20","40","out","","","","","","","","","","","","","","","","","","","","","","",""
"","","","","","canvas-keyboard-response","21","110508","0.0-12.0-4.1","2d_cat_multi_stim_exp1","2022-4-25","15:28:57","25","75","3","9","10","40","30","120","58","20","[""Asian""]","No","Female","1993765","null","null","","","","clear_screen","","","","","","","","","","","","","","","","","","","","","","","","","",""
"","","","","","canvas-keyboard-response","22","111018","0.0-12.0-0.2","2d_cat_multi_stim_exp1","2022-4-25","15:28:57","25","75","3","9","10","40","30","120","58","20","[""Asian""]","No","Female","1993765","null","null","","","","fixation","","","","","","","","","","","","","","","","","","","","","","","","","",""
"","","","","","canvas-keyboard-response","23","111527","0.0-12.0-1.2","2d_cat_multi_stim_exp1","2022-4-25","15:28:57","25","75","3","9","10","40","30","120","58","20","[""Asian""]","No","Female","1993765","null","null","","","","clear_screen","","","","","","","","","","","","","","","","","","","","","","","","","",""
"","","","","","canvas-keyboard-response","24","112847","0.0-12.0-2.2","2d_cat_multi_stim_exp1","2022-4-25","15:28:57","25","75","3","9","10","40","30","120","58","20","[""Asian""]","No","Female","1993765","1310","u","learn","","","learn_trial","25","75","in","1","1","","","","","","","","","","","","","","","","","","","","",""
"","","","","","canvas-keyboard-response","25","113357","0.0-12.0-3.2","2d_cat_multi_stim_exp1","2022-4-25","15:28:57","25","75","3","9","10","40","30","120","58","20","[""Asian""]","No","Female","1993765","null","null","learn_feedback","","","learn_feedback","25","75","in","","","","","","","","","","","","","","","","","","","","","","",""
"","","","","","canvas-keyboard-response","26","113416","0.0-12.0-4.2","2d_cat_multi_stim_exp1","2022-4-25","15:28:57","25","75","3","9","10","40","30","120","58","20","[""Asian""]","No","Female","1993765","null","null","","","","clear_screen","","","","","","","","","","","","","","","","","","","","","","","","","",""
"","","","","","canvas-keyboard-response","27","113926","0.0-12.0-0.3","2d_cat_multi_stim_exp1","2022-4-25","15:28:57","25","75","3","9","10","40","30","120","58","20","[""Asian""]","No","Female","1993765","null","null","","","","fixation","","","","","","","","","","","","","","","","","","","","","","","","","",""
"","","","","","canvas-keyboard-response","28","114437","0.0-12.0-1.3","2d_cat_multi_stim_exp1","2022-4-25","15:28:57","25","75","3","9","10","40","30","120","58","20","[""Asian""]","No","Female","1993765","null","null","","","","clear_screen","","","","","","","","","","","","","","","","","","","","","","","","","",""
"","","","","","canvas-keyboard-response","29","118247","0.0-12.0-2.3","2d_cat_multi_stim_exp1","2022-4-25","15:28:57","25","75","3","9","10","40","30","120","58","20","[""Asian""]","No","Female","1993765","3801","i","learn","","","learn_trial","30","50","out","0","1","","","","","","","","","","","","","","","","","","","","",""
"","","","","","canvas-keyboard-response","30","118757","0.0-12.0-3.3","2d_cat_multi_stim_exp1","2022-4-25","15:28:57","25","75","3","9","10","40","30","120","58","20","[""Asian""]","No","Female","1993765","null","null","learn_feedback","","","learn_feedback","30","50","out","","","","","","","","","","","","","","","","","","","","","","",""
"","","","","","canvas-keyboard-response","31","118816","0.0-12.0-4.3","2d_cat_multi_stim_exp1","2022-4-25","15:28:57","25","75","3","9","10","40","30","120","58","20","[""Asian""]","No","Female","1993765","null","null","","","","clear_screen","","","","","","","","","","","","","","","","","","","","","","","","","",""
"","","","","","canvas-keyboard-response","32","119326","0.0-12.0-0.4","2d_cat_multi_stim_exp1","2022-4-25","15:28:57","25","75","3","9","10","40","30","120","58","20","[""Asian""]","No","Female","1993765","null","null","","","","fixation","","","","","","","","","","","","","","","","","","","","","","","","","",""
"","","","","","canvas-keyboard-response","33","119840","0.0-12.0-1.4","2d_cat_multi_stim_exp1","2022-4-25","15:28:57","25","75","3","9","10","40","30","120","58","20","[""Asian""]","No","Female","1993765","null","null","","","","clear_screen","","","","","","","","","","","","","","","","","","","","","","","","","",""
"","","","","","canvas-keyboard-response","34","121839","0.0-12.0-2.4","2d_cat_multi_stim_exp1","2022-4-25","15:28:57","25","75","3","9","10","40","30","120","58","20","[""Asian""]","No","Female","1993765","1991","u","learn","","","learn_trial","33.3333","90","out","1","0","","","","","","","","","","","","","","","","","","","","",""
"","","","","","canvas-keyboard-response","35","122849","0.0-12.0-3.4","2d_cat_multi_stim_exp1","2022-4-25","15:28:57","25","75","3","9","10","40","30","120","58","20","[""Asian""]","No","Female","1993765","null","null","learn_feedback","","","learn_feedback","33.3333","90","out","","","","","","","","","","","","","","","","","","","","","","",""
"","","","","","canvas-keyboard-response","36","122909","0.0-12.0-4.4","2d_cat_multi_stim_exp1","2022-4-25","15:28:57","25","75","3","9","10","40","30","120","58","20","[""Asian""]","No","Female","1993765","null","null","","","","clear_screen","","","","","","","","","","","","","","","","","","","","","","","","","",""
"","","","","","canvas-keyboard-response","37","123417","0.0-12.0-0.5","2d_cat_multi_stim_exp1","2022-4-25","15:28:57","25","75","3","9","10","40","30","120","58","20","[""Asian""]","No","Female","1993765","null","null","","","","fixation","","","","","","","","","","","","","","","","","","","","","","","","","",""
"","","","","","canvas-keyboard-response","38","123927","0.0-12.0-1.5","2d_cat_multi_stim_exp1","2022-4-25","15:28:57","25","75","3","9","10","40","30","120","58","20","[""Asian""]","No","Female","1993765","null","null","","","","clear_screen","","","","","","","","","","","","","","","","","","","","","","","","","",""
"","","","","","canvas-keyboard-response","39","125431","0.0-12.0-2.5","2d_cat_multi_stim_exp1","2022-4-25","15:28:57","25","75","3","9","10","40","30","120","58","20","[""Asian""]","No","Female","1993765","1494","i","learn","","","learn_trial","20","60","out","0","1","","","","","","","","","","","","","","","","","","","","",""
"","","","","","canvas-keyboard-response","40","125940","0.0-12.0-3.5","2d_cat_multi_stim_exp1","2022-4-25","15:28:57","25","75","3","9","10","40","30","120","58","20","[""Asian""]","No","Female","1993765","null","null","learn_feedback","","","learn_feedback","20","60","out","","","","","","","","","","","","","","","","","","","","","","",""
"","","","","","canvas-keyboard-response","41","125999","0.0-12.0-4.5","2d_cat_multi_stim_exp1","2022-4-25","15:28:57","25","75","3","9","10","40","30","120","58","20","[""Asian""]","No","Female","1993765","null","null","","","","clear_screen","","","","","","","","","","","","","","","","","","","","","","","","","",""
"","","","","","canvas-keyboard-response","42","126508","0.0-12.0-0.6","2d_cat_multi_stim_exp1","2022-4-25","15:28:57","25","75","3","9","10","40","30","120","58","20","[""Asian""]","No","Female","1993765","null","null","","","","fixation","","","","","","","","","","","","","","","","","","","","","","","","","",""
"","","","","","canvas-keyboard-response","43","127017","0.0-12.0-1.6","2d_cat_multi_stim_exp1","2022-4-25","15:28:57","25","75","3","9","10","40","30","120","58","20","[""Asian""]","No","Female","1993765","null","null","","","","clear_screen","","","","","","","","","","","","","","","","","","","","","","","","","",""
"","","","","","canvas-keyboard-response","44","130511","0.0-12.0-2.6","2d_cat_multi_stim_exp1","2022-4-25","15:28:57","25","75","3","9","10","40","30","120","58","20","[""Asian""]","No","Female","1993765","3484","i","learn","","","learn_trial","23.3333","80","out","0","1","","","","","","","","","","","","","","","","","","","","",""
"","","","","","canvas-keyboard-response","45","131021","0.0-12.0-3.6","2d_cat_multi_stim_exp1","2022-4-25","15:28:57","25","75","3","9","10","40","30","120","58","20","[""Asian""]","No","Female","1993765","null","null","learn_feedback","","","learn_feedback","23.3333","80","out","","","","","","","","","","","","","","","","","","","","","","",""
"","","","","","canvas-keyboard-response","46","131079","0.0-12.0-4.6","2d_cat_multi_stim_exp1","2022-4-25","15:28:57","25","75","3","9","10","40","30","120","58","20","[""Asian""]","No","Female","1993765","null","null","","","","clear_screen","","","","","","","","","","","","","","","","","","","","","","","","","",""
"","","","","","canvas-keyboard-response","47","131588","0.0-12.0-0.7","2d_cat_multi_stim_exp1","2022-4-25","15:28:57","25","75","3","9","10","40","30","120","58","20","[""Asian""]","No","Female","1993765","null","null","","","","fixation","","","","","","","","","","","","","","","","","","","","","","","","","",""
"","","","","","canvas-keyboard-response","48","132098","0.0-12.0-1.7","2d_cat_multi_stim_exp1","2022-4-25","15:28:57","25","75","3","9","10","40","30","120","58","20","[""Asian""]","No","Female","1993765","null","null","","","","clear_screen","","","","","","","","","","","","","","","","","","","","","","","","","",""
"","","","","","canvas-keyboard-response","49","133767","0.0-12.0-2.7","2d_cat_multi_stim_exp1","2022-4-25","15:28:57","25","75","3","9","10","40","30","120","58","20","[""Asian""]","No","Female","1993765","1659","u","learn","","","learn_trial","30","80","out","1","0","","","","","","","","","","","","","","","","","","","","",""
"","","","","","canvas-keyboard-response","50","134776","0.0-12.0-3.7","2d_cat_multi_stim_exp1","2022-4-25","15:28:57","25","75","3","9","10","40","30","120","58","20","[""Asian""]","No","Female","1993765","null","null","learn_feedback","","","learn_feedback","30","80","out","","","","","","","","","","","","","","","","","","","","","","",""
"","","","","","canvas-keyboard-response","51","134836","0.0-12.0-4.7","2d_cat_multi_stim_exp1","2022-4-25","15:28:57","25","75","3","9","10","40","30","120","58","20","[""Asian""]","No","Female","1993765","null","null","","","","clear_screen","","","","","","","","","","","","","","","","","","","","","","","","","",""
"","","","","","canvas-keyboard-response","52","135346","0.0-12.0-0.8","2d_cat_multi_stim_exp1","2022-4-25","15:28:57","25","75","3","9","10","40","30","120","58","20","[""Asian""]","No","Female","1993765","null","null","","","","fixation","","","","","","","","","","","","","","","","","","","","","","","","","",""
"","","","","","canvas-keyboard-response","53","135855","0.0-12.0-1.8","2d_cat_multi_stim_exp1","2022-4-25","15:28:57","25","75","3","9","10","40","30","120","58","20","[""Asian""]","No","Female","1993765","null","null","","","","clear_screen","","","","","","","","","","","","","","","","","","","","","","","","","",""
"","","","","","canvas-keyboard-response","54","138247","0.0-12.0-2.8","2d_cat_multi_stim_exp1","2022-4-25","15:28:57","25","75","3","9","10","40","30","120","58","20","[""Asian""]","No","Female","1993765","2383","i","learn","","","learn_trial","25","75","in","0","0","","","","","","","","","","","","","","","","","","","","",""
"","","","","","canvas-keyboard-response","55","139257","0.0-12.0-3.8","2d_cat_multi_stim_exp1","2022-4-25","15:28:57","25","75","3","9","10","40","30","120","58","20","[""Asian""]","No","Female","1993765","null","null","learn_feedback","","","learn_feedback","25","75","in","","","","","","","","","","","","","","","","","","","","","","",""
"","","","","","canvas-keyboard-response","56","139316","0.0-12.0-4.8","2d_cat_multi_stim_exp1","2022-4-25","15:28:57","25","75","3","9","10","40","30","120","58","20","[""Asian""]","No","Female","1993765","null","null","","","","clear_screen","","","","","","","","","","","","","","","","","","","","","","","","","",""
"","","","","","canvas-keyboard-response","57","139824","0.0-12.0-0.9","2d_cat_multi_stim_exp1","2022-4-25","15:28:57","25","75","3","9","10","40","30","120","58","20","[""Asian""]","No","Female","1993765","null","null","","","","fixation","","","","","","","","","","","","","","","","","","","","","","","","","",""
"","","","","","canvas-keyboard-response","58","140334","0.0-12.0-1.9","2d_cat_multi_stim_exp1","2022-4-25","15:28:57","25","75","3","9","10","40","30","120","58","20","[""Asian""]","No","Female","1993765","null","null","","","","clear_screen","","","","","","","","","","","","","","","","","","","","","","","","","",""
"","","","","","canvas-keyboard-response","59","141302","0.0-12.0-2.9","2d_cat_multi_stim_exp1","2022-4-25","15:28:57","25","75","3","9","10","40","30","120","58","20","[""Asian""]","No","Female","1993765","959","i","learn","","","learn_trial","26.8705","82.0365","in","0","0","","","","","","","","","","","","","","","","","","","","",""
"","","","","","canvas-keyboard-response","60","142312","0.0-12.0-3.9","2d_cat_multi_stim_exp1","2022-4-25","15:28:57","25","75","3","9","10","40","30","120","58","20","[""Asian""]","No","Female","1993765","null","null","learn_feedback","","","learn_feedback","26.8705","82.0365","in","","","","","","","","","","","","","","","","","","","","","","",""
"","","","","","canvas-keyboard-response","61","142371","0.0-12.0-4.9","2d_cat_multi_stim_exp1","2022-4-25","15:28:57","25","75","3","9","10","40","30","120","58","20","[""Asian""]","No","Female","1993765","null","null","","","","clear_screen","","","","","","","","","","","","","","","","","","","","","","","","","",""
"","","","","","canvas-keyboard-response","62","142879","0.0-12.0-0.10","2d_cat_multi_stim_exp1","2022-4-25","15:28:57","25","75","3","9","10","40","30","120","58","20","[""Asian""]","No","Female","1993765","null","null","","","","fixation","","","","","","","","","","","","","","","","","","","","","","","","","",""
"","","","","","canvas-keyboard-response","63","143389","0.0-12.0-1.10","2d_cat_multi_stim_exp1","2022-4-25","15:28:57","25","75","3","9","10","40","30","120","58","20","[""Asian""]","No","Female","1993765","null","null","","","","clear_screen","","","","","","","","","","","","","","","","","","","","","","","","","",""
"","","","","","canvas-keyboard-response","64","144871","0.0-12.0-2.10","2d_cat_multi_stim_exp1","2022-4-25","15:28:57","25","75","3","9","10","40","30","120","58","20","[""Asian""]","No","Female","1993765","1469","i","learn","","","learn_trial","36.6667","100","out","0","1","","","","","","","","","","","","","","","","","","","","",""
"","","","","","canvas-keyboard-response","65","145382","0.0-12.0-3.10","2d_cat_multi_stim_exp1","2022-4-25","15:28:57","25","75","3","9","10","40","30","120","58","20","[""Asian""]","No","Female","1993765","null","null","learn_feedback","","","learn_feedback","36.6667","100","out","","","","","","","","","","","","","","","","","","","","","","",""
"","","","","","canvas-keyboard-response","66","145440","0.0-12.0-4.10","2d_cat_multi_stim_exp1","2022-4-25","15:28:57","25","75","3","9","10","40","30","120","58","20","[""Asian""]","No","Female","1993765","null","null","","","","clear_screen","","","","","","","","","","","","","","","","","","","","","","","","","",""
"","","","","","canvas-keyboard-response","67","145949","0.0-12.0-0.11","2d_cat_multi_stim_exp1","2022-4-25","15:28:57","25","75","3","9","10","40","30","120","58","20","[""Asian""]","No","Female","1993765","null","null","","","","fixation","","","","","","","","","","","","","","","","","","","","","","","","","",""
"","","","","","canvas-keyboard-response","68","146458","0.0-12.0-1.11","2d_cat_multi_stim_exp1","2022-4-25","15:28:57","25","75","3","9","10","40","30","120","58","20","[""Asian""]","No","Female","1993765","null","null","","","","clear_screen","","","","","","","","","","","","","","","","","","","","","","","","","",""
"","","","","","canvas-keyboard-response","69","147254","0.0-12.0-2.11","2d_cat_multi_stim_exp1","2022-4-25","15:28:57","25","75","3","9","10","40","30","120","58","20","[""Asian""]","No","Female","1993765","787","u","learn","","","learn_trial","26.6667","100","out","1","0","","","","","","","","","","","","","","","","","","","","",""
"","","","","","canvas-keyboard-response","70","148264","0.0-12.0-3.11","2d_cat_multi_stim_exp1","2022-4-25","15:28:57","25","75","3","9","10","40","30","120","58","20","[""Asian""]","No","Female","1993765","null","null","learn_feedback","","","learn_feedback","26.6667","100","out","","","","","","","","","","","","","","","","","","","","","","",""
"","","","","","canvas-keyboard-response","71","148323","0.0-12.0-4.11","2d_cat_multi_stim_exp1","2022-4-25","15:28:57","25","75","3","9","10","40","30","120","58","20","[""Asian""]","No","Female","1993765","null","null","","","","clear_screen","","","","","","","","","","","","","","","","","","","","","","","","","",""
"","","","","","canvas-keyboard-response","72","148832","0.0-12.0-0.12","2d_cat_multi_stim_exp1","2022-4-25","15:28:57","25","75","3","9","10","40","30","120","58","20","[""Asian""]","No","Female","1993765","null","null","","","","fixation","","","","","","","","","","","","","","","","","","","","","","","","","",""
"","","","","","canvas-keyboard-response","73","149341","0.0-12.0-1.12","2d_cat_multi_stim_exp1","2022-4-25","15:28:57","25","75","3","9","10","40","30","120","58","20","[""Asian""]","No","Female","1993765","null","null","","","","clear_screen","","","","","","","","","","","","","","","","","","","","","","","","","",""
"","","","","","canvas-keyboard-response","74","150039","0.0-12.0-2.12","2d_cat_multi_stim_exp1","2022-4-25","15:28:57","25","75","3","9","10","40","30","120","58","20","[""Asian""]","No","Female","1993765","688","i","learn","","","learn_trial","10","90","out","0","1","","","","","","","","","","","","","","","","","","","","",""
"","","","","","canvas-keyboard-response","75","150548","0.0-12.0-3.12","2d_cat_multi_stim_exp1","2022-4-25","15:28:57","25","75","3","9","10","40","30","120","58","20","[""Asian""]","No","Female","1993765","null","null","learn_feedback","","","learn_feedback","10","90","out","","","","","","","","","","","","","","","","","","","","","","",""
"","","","","","canvas-keyboard-response","76","150606","0.0-12.0-4.12","2d_cat_multi_stim_exp1","2022-4-25","15:28:57","25","75","3","9","10","40","30","120","58","20","[""Asian""]","No","Female","1993765","null","null","","","","clear_screen","","","","","","","","","","","","","","","","","","","","","","","","","",""
"","","","","","canvas-keyboard-response","77","151115","0.0-12.0-0.13","2d_cat_multi_stim_exp1","2022-4-25","15:28:57","25","75","3","9","10","40","30","120","58","20","[""Asian""]","No","Female","1993765","null","null","","","","fixation","","","","","","","","","","","","","","","","","","","","","","","","","",""
"","","","","","canvas-keyboard-response","78","151625","0.0-12.0-1.13","2d_cat_multi_stim_exp1","2022-4-25","15:28:57","25","75","3","9","10","40","30","120","58","20","[""Asian""]","No","Female","1993765","null","null","","","","clear_screen","","","","","","","","","","","","","","","","","","","","","","","","","",""
"","","","","","canvas-keyboard-response","79","152544","0.0-12.0-2.13","2d_cat_multi_stim_exp1","2022-4-25","15:28:57","25","75","3","9","10","40","30","120","58","20","[""Asian""]","No","Female","1993765","909","u","learn","","","learn_trial","25","75","in","1","1","","","","","","","","","","","","","","","","","","","","",""
"","","","","","canvas-keyboard-response","80","153057","0.0-12.0-3.13","2d_cat_multi_stim_exp1","2022-4-25","15:28:57","25","75","3","9","10","40","30","120","58","20","[""Asian""]","No","Female","1993765","null","null","learn_feedback","","","learn_feedback","25","75","in","","","","","","","","","","","","","","","","","","","","","","",""
"","","","","","canvas-keyboard-response","81","153118","0.0-12.0-4.13","2d_cat_multi_stim_exp1","2022-4-25","15:28:57","25","75","3","9","10","40","30","120","58","20","[""Asian""]","No","Female","1993765","null","null","","","","clear_screen","","","","","","","","","","","","","","","","","","","","","","","","","",""
"","","","","","canvas-keyboard-response","82","153629","0.0-12.0-0.14","2d_cat_multi_stim_exp1","2022-4-25","15:28:57","25","75","3","9","10","40","30","120","58","20","[""Asian""]","No","Female","1993765","null","null","","","","fixation","","","","","","","","","","","","","","","","","","","","","","","","","",""
"","","","","","canvas-keyboard-response","83","154139","0.0-12.0-1.14","2d_cat_multi_stim_exp1","2022-4-25","15:28:57","25","75","3","9","10","40","30","120","58","20","[""Asian""]","No","Female","1993765","null","null","","","","clear_screen","","","","","","","","","","","","","","","","","","","","","","","","","",""
"","","","","","canvas-keyboard-response","84","155327","0.0-12.0-2.14","2d_cat_multi_stim_exp1","2022-4-25","15:28:57","25","75","3","9","10","40","30","120","58","20","[""Asian""]","No","Female","1993765","1178","u","learn","","","learn_trial","23.3333","90","out","1","0","","","","","","","","","","","","","","","","","","","","",""
"","","","","","canvas-keyboard-response","85","156339","0.0-12.0-3.14","2d_cat_multi_stim_exp1","2022-4-25","15:28:57","25","75","3","9","10","40","30","120","58","20","[""Asian""]","No","Female","1993765","null","null","learn_feedback","","","learn_feedback","23.3333","90","out","","","","","","","","","","","","","","","","","","","","","","",""
"","","","","","canvas-keyboard-response","86","156398","0.0-12.0-4.14","2d_cat_multi_stim_exp1","2022-4-25","15:28:57","25","75","3","9","10","40","30","120","58","20","[""Asian""]","No","Female","1993765","null","null","","","","clear_screen","","","","","","","","","","","","","","","","","","","","","","","","","",""
"","","","","","canvas-keyboard-response","87","156907","0.0-12.0-0.15","2d_cat_multi_stim_exp1","2022-4-25","15:28:57","25","75","3","9","10","40","30","120","58","20","[""Asian""]","No","Female","1993765","null","null","","","","fixation","","","","","","","","","","","","","","","","","","","","","","","","","",""
"","","","","","canvas-keyboard-response","88","157417","0.0-12.0-1.15","2d_cat_multi_stim_exp1","2022-4-25","15:28:57","25","75","3","9","10","40","30","120","58","20","[""Asian""]","No","Female","1993765","null","null","","","","clear_screen","","","","","","","","","","","","","","","","","","","","","","","","","",""
"","","","","","canvas-keyboard-response","89","158287","0.0-12.0-2.15","2d_cat_multi_stim_exp1","2022-4-25","15:28:57","25","75","3","9","10","40","30","120","58","20","[""Asian""]","No","Female","1993765","860","i","learn","","","learn_trial","40","60","out","0","1","","","","","","","","","","","","","","","","","","","","",""
"","","","","","canvas-keyboard-response","90","158798","0.0-12.0-3.15","2d_cat_multi_stim_exp1","2022-4-25","15:28:57","25","75","3","9","10","40","30","120","58","20","[""Asian""]","No","Female","1993765","null","null","learn_feedback","","","learn_feedback","40","60","out","","","","","","","","","","","","","","","","","","","","","","",""
"","","","","","canvas-keyboard-response","91","158858","0.0-12.0-4.15","2d_cat_multi_stim_exp1","2022-4-25","15:28:57","25","75","3","9","10","40","30","120","58","20","[""Asian""]","No","Female","1993765","null","null","","","","clear_screen","","","","","","","","","","","","","","","","","","","","","","","","","",""
"","","","","","canvas-keyboard-response","92","159367","0.0-12.0-0.16","2d_cat_multi_stim_exp1","2022-4-25","15:28:57","25","75","3","9","10","40","30","120","58","20","[""Asian""]","No","Female","1993765","null","null","","","","fixation","","","","","","","","","","","","","","","","","","","","","","","","","",""
"","","","","","canvas-keyboard-response","93","159876","0.0-12.0-1.16","2d_cat_multi_stim_exp1","2022-4-25","15:28:57","25","75","3","9","10","40","30","120","58","20","[""Asian""]","No","Female","1993765","null","null","","","","clear_screen","","","","","","","","","","","","","","","","","","","","","","","","","",""
"","","","","","canvas-keyboard-response","94","162199","0.0-12.0-2.16","2d_cat_multi_stim_exp1","2022-4-25","15:28:57","25","75","3","9","10","40","30","120","58","20","[""Asian""]","No","Female","1993765","2314","i","learn","","","learn_trial","25","75","in","0","0","","","","","","","","","","","","","","","","","","","","",""
"","","","","","canvas-keyboard-response","95","163211","0.0-12.0-3.16","2d_cat_multi_stim_exp1","2022-4-25","15:28:57","25","75","3","9","10","40","30","120","58","20","[""Asian""]","No","Female","1993765","null","null","learn_feedback","","","learn_feedback","25","75","in","","","","","","","","","","","","","","","","","","","","","","",""
"","","","","","canvas-keyboard-response","96","163270","0.0-12.0-4.16","2d_cat_multi_stim_exp1","2022-4-25","15:28:57","25","75","3","9","10","40","30","120","58","20","[""Asian""]","No","Female","1993765","null","null","","","","clear_screen","","","","","","","","","","","","","","","","","","","","","","","","","",""
"","","","","","canvas-keyboard-response","97","163779","0.0-12.0-0.17","2d_cat_multi_stim_exp1","2022-4-25","15:28:57","25","75","3","9","10","40","30","120","58","20","[""Asian""]","No","Female","1993765","null","null","","","","fixation","","","","","","","","","","","","","","","","","","","","","","","","","",""
"","","","","","canvas-keyboard-response","98","164289","0.0-12.0-1.17","2d_cat_multi_stim_exp1","2022-4-25","15:28:57","25","75","3","9","10","40","30","120","58","20","[""Asian""]","No","Female","1993765","null","null","","","","clear_screen","","","","","","","","","","","","","","","","","","","","","","","","","",""
"","","","","","canvas-keyboard-response","99","165823","0.0-12.0-2.17","2d_cat_multi_stim_exp1","2022-4-25","15:28:57","25","75","3","9","10","40","30","120","58","20","[""Asian""]","No","Female","1993765","1524","i","learn","","","learn_trial","19","75","in","0","0","","","","","","","","","","","","","","","","","","","","",""
"","","","","","canvas-keyboard-response","100","166832","0.0-12.0-3.17","2d_cat_multi_stim_exp1","2022-4-25","15:28:57","25","75","3","9","10","40","30","120","58","20","[""Asian""]","No","Female","1993765","null","null","learn_feedback","","","learn_feedback","19","75","in","","","","","","","","","","","","","","","","","","","","","","",""
"","","","","","canvas-keyboard-response","101","166891","0.0-12.0-4.17","2d_cat_multi_stim_exp1","2022-4-25","15:28:57","25","75","3","9","10","40","30","120","58","20","[""Asian""]","No","Female","1993765","null","null","","","","clear_screen","","","","","","","","","","","","","","","","","","","","","","","","","",""
"","","","","","canvas-keyboard-response","102","167400","0.0-12.0-0.18","2d_cat_multi_stim_exp1","2022-4-25","15:28:57","25","75","3","9","10","40","30","120","58","20","[""Asian""]","No","Female","1993765","null","null","","","","fixation","","","","","","","","","","","","","","","","","","","","","","","","","",""
"","","","","","canvas-keyboard-response","103","167909","0.0-12.0-1.18","2d_cat_multi_stim_exp1","2022-4-25","15:28:57","25","75","3","9","10","40","30","120","58","20","[""Asian""]","No","Female","1993765","null","null","","","","clear_screen","","","","","","","","","","","","","","","","","","","","","","","","","",""
"","","","","","canvas-keyboard-response","104","169111","0.0-12.0-2.18","2d_cat_multi_stim_exp1","2022-4-25","15:28:57","25","75","3","9","10","40","30","120","58","20","[""Asian""]","No","Female","1993765","1192","i","learn","","","learn_trial","40","30","out","0","1","","","","","","","","","","","","","","","","","","","","",""
"","","","","","canvas-keyboard-response","105","169620","0.0-12.0-3.18","2d_cat_multi_stim_exp1","2022-4-25","15:28:57","25","75","3","9","10","40","30","120","58","20","[""Asian""]","No","Female","1993765","null","null","learn_feedback","","","learn_feedback","40","30","out","","","","","","","","","","","","","","","","","","","","","","",""
"","","","","","canvas-keyboard-response","106","169680","0.0-12.0-4.18","2d_cat_multi_stim_exp1","2022-4-25","15:28:57","25","75","3","9","10","40","30","120","58","20","[""Asian""]","No","Female","1993765","null","null","","","","clear_screen","","","","","","","","","","","","","","","","","","","","","","","","","",""
"","","","","","canvas-keyboard-response","107","170189","0.0-12.0-0.19","2d_cat_multi_stim_exp1","2022-4-25","15:28:57","25","75","3","9","10","40","30","120","58","20","[""Asian""]","No","Female","1993765","null","null","","","","fixation","","","","","","","","","","","","","","","","","","","","","","","","","",""
"","","","","","canvas-keyboard-response","108","170698","0.0-12.0-1.19","2d_cat_multi_stim_exp1","2022-4-25","15:28:57","25","75","3","9","10","40","30","120","58","20","[""Asian""]","No","Female","1993765","null","null","","","","clear_screen","","","","","","","","","","","","","","","","","","","","","","","","","",""
"","","","","","canvas-keyboard-response","109","171559","0.0-12.0-2.19","2d_cat_multi_stim_exp1","2022-4-25","15:28:57","25","75","3","9","10","40","30","120","58","20","[""Asian""]","No","Female","1993765","850","u","learn","","","learn_trial","25","75","in","1","1","","","","","","","","","","","","","","","","","","","","",""
"","","","","","canvas-keyboard-response","110","172069","0.0-12.0-3.19","2d_cat_multi_stim_exp1","2022-4-25","15:28:57","25","75","3","9","10","40","30","120","58","20","[""Asian""]","No","Female","1993765","null","null","learn_feedback","","","learn_feedback","25","75","in","","","","","","","","","","","","","","","","","","","","","","",""
"","","","","","canvas-keyboard-response","111","172128","0.0-12.0-4.19","2d_cat_multi_stim_exp1","2022-4-25","15:28:57","25","75","3","9","10","40","30","120","58","20","[""Asian""]","No","Female","1993765","null","null","","","","clear_screen","","","","","","","","","","","","","","","","","","","","","","","","","",""
"","","","","","canvas-keyboard-response","112","172637","0.0-12.0-0.20","2d_cat_multi_stim_exp1","2022-4-25","15:28:57","25","75","3","9","10","40","30","120","58","20","[""Asian""]","No","Female","1993765","null","null","","","","fixation","","","","","","","","","","","","","","","","","","","","","","","","","",""
"","","","","","canvas-keyboard-response","113","173147","0.0-12.0-1.20","2d_cat_multi_stim_exp1","2022-4-25","15:28:57","25","75","3","9","10","40","30","120","58","20","[""Asian""]","No","Female","1993765","null","null","","","","clear_screen","","","","","","","","","","","","","","","","","","","","","","","","","",""
"","","","","","canvas-keyboard-response","114","174575","0.0-12.0-2.20","2d_cat_multi_stim_exp1","2022-4-25","15:28:57","25","75","3","9","10","40","30","120","58","20","[""Asian""]","No","Female","1993765","1418","i","learn","","","learn_trial","36.6667","120","out","0","1","","","","","","","","","","","","","","","","","","","","",""
"","","","","","canvas-keyboard-response","115","175084","0.0-12.0-3.20","2d_cat_multi_stim_exp1","2022-4-25","15:28:57","25","75","3","9","10","40","30","120","58","20","[""Asian""]","No","Female","1993765","null","null","learn_feedback","","","learn_feedback","36.6667","120","out","","","","","","","","","","","","","","","","","","","","","","",""
"","","","","","canvas-keyboard-response","116","175144","0.0-12.0-4.20","2d_cat_multi_stim_exp1","2022-4-25","15:28:57","25","75","3","9","10","40","30","120","58","20","[""Asian""]","No","Female","1993765","null","null","","","","clear_screen","","","","","","","","","","","","","","","","","","","","","","","","","",""
"","","","","","canvas-keyboard-response","117","175652","0.0-12.0-0.21","2d_cat_multi_stim_exp1","2022-4-25","15:28:57","25","75","3","9","10","40","30","120","58","20","[""Asian""]","No","Female","1993765","null","null","","","","fixation","","","","","","","","","","","","","","","","","","","","","","","","","",""
"","","","","","canvas-keyboard-response","118","176162","0.0-12.0-1.21","2d_cat_multi_stim_exp1","2022-4-25","15:28:57","25","75","3","9","10","40","30","120","58","20","[""Asian""]","No","Female","1993765","null","null","","","","clear_screen","","","","","","","","","","","","","","","","","","","","","","","","","",""
"","","","","","canvas-keyboard-response","119","176791","0.0-12.0-2.21","2d_cat_multi_stim_exp1","2022-4-25","15:28:57","25","75","3","9","10","40","30","120","58","20","[""Asian""]","No","Female","1993765","620","u","learn","","","learn_trial","25","75","in","1","1","","","","","","","","","","","","","","","","","","","","",""
"","","","","","canvas-keyboard-response","120","177299","0.0-12.0-3.21","2d_cat_multi_stim_exp1","2022-4-25","15:28:57","25","75","3","9","10","40","30","120","58","20","[""Asian""]","No","Female","1993765","null","null","learn_feedback","","","learn_feedback","25","75","in","","","","","","","","","","","","","","","","","","","","","","",""
"","","","","","canvas-keyboard-response","121","177358","0.0-12.0-4.21","2d_cat_multi_stim_exp1","2022-4-25","15:28:57","25","75","3","9","10","40","30","120","58","20","[""Asian""]","No","Female","1993765","null","null","","","","clear_screen","","","","","","","","","","","","","","","","","","","","","","","","","",""
"","","","","","canvas-keyboard-response","122","177867","0.0-12.0-0.22","2d_cat_multi_stim_exp1","2022-4-25","15:28:57","25","75","3","9","10","40","30","120","58","20","[""Asian""]","No","Female","1993765","null","null","","","","fixation","","","","","","","","","","","","","","","","","","","","","","","","","",""
"","","","","","canvas-keyboard-response","123","178377","0.0-12.0-1.22","2d_cat_multi_stim_exp1","2022-4-25","15:28:57","25","75","3","9","10","40","30","120","58","20","[""Asian""]","No","Female","1993765","null","null","","","","clear_screen","","","","","","","","","","","","","","","","","","","","","","","","","",""
"","","","","","canvas-keyboard-response","124","179214","0.0-12.0-2.22","2d_cat_multi_stim_exp1","2022-4-25","15:28:57","25","75","3","9","10","40","30","120","58","20","[""Asian""]","No","Female","1993765","828","i","learn","","","learn_trial","36.6667","80","out","0","1","","","","","","","","","","","","","","","","","","","","",""
"","","","","","canvas-keyboard-response","125","179724","0.0-12.0-3.22","2d_cat_multi_stim_exp1","2022-4-25","15:28:57","25","75","3","9","10","40","30","120","58","20","[""Asian""]","No","Female","1993765","null","null","learn_feedback","","","learn_feedback","36.6667","80","out","","","","","","","","","","","","","","","","","","","","","","",""
"","","","","","canvas-keyboard-response","126","179783","0.0-12.0-4.22","2d_cat_multi_stim_exp1","2022-4-25","15:28:57","25","75","3","9","10","40","30","120","58","20","[""Asian""]","No","Female","1993765","null","null","","","","clear_screen","","","","","","","","","","","","","","","","","","","","","","","","","",""
"","","","","","canvas-keyboard-response","127","180292","0.0-12.0-0.23","2d_cat_multi_stim_exp1","2022-4-25","15:28:57","25","75","3","9","10","40","30","120","58","20","[""Asian""]","No","Female","1993765","null","null","","","","fixation","","","","","","","","","","","","","","","","","","","","","","","","","",""
"","","","","","canvas-keyboard-response","128","180802","0.0-12.0-1.23","2d_cat_multi_stim_exp1","2022-4-25","15:28:57","25","75","3","9","10","40","30","120","58","20","[""Asian""]","No","Female","1993765","null","null","","","","clear_screen","","","","","","","","","","","","","","","","","","","","","","","","","",""
"","","","","","canvas-keyboard-response","129","181599","0.0-12.0-2.23","2d_cat_multi_stim_exp1","2022-4-25","15:28:57","25","75","3","9","10","40","30","120","58","20","[""Asian""]","No","Female","1993765","789","u","learn","","","learn_trial","25","75","in","1","1","","","","","","","","","","","","","","","","","","","","",""
"","","","","","canvas-keyboard-response","130","182108","0.0-12.0-3.23","2d_cat_multi_stim_exp1","2022-4-25","15:28:57","25","75","3","9","10","40","30","120","58","20","[""Asian""]","No","Female","1993765","null","null","learn_feedback","","","learn_feedback","25","75","in","","","","","","","","","","","","","","","","","","","","","","",""
"","","","","","canvas-keyboard-response","131","182168","0.0-12.0-4.23","2d_cat_multi_stim_exp1","2022-4-25","15:28:57","25","75","3","9","10","40","30","120","58","20","[""Asian""]","No","Female","1993765","null","null","","","","clear_screen","","","","","","","","","","","","","","","","","","","","","","","","","",""
"","","","","","canvas-keyboard-response","132","182676","0.0-12.0-0.24","2d_cat_multi_stim_exp1","2022-4-25","15:28:57","25","75","3","9","10","40","30","120","58","20","[""Asian""]","No","Female","1993765","null","null","","","","fixation","","","","","","","","","","","","","","","","","","","","","","","","","",""
"","","","","","canvas-keyboard-response","133","183185","0.0-12.0-1.24","2d_cat_multi_stim_exp1","2022-4-25","15:28:57","25","75","3","9","10","40","30","120","58","20","[""Asian""]","No","Female","1993765","null","null","","","","clear_screen","","","","","","","","","","","","","","","","","","","","","","","","","",""
"","","","","","canvas-keyboard-response","134","183982","0.0-12.0-2.24","2d_cat_multi_stim_exp1","2022-4-25","15:28:57","25","75","3","9","10","40","30","120","58","20","[""Asian""]","No","Female","1993765","788","i","learn","","","learn_trial","33.3333","60","out","0","1","","","","","","","","","","","","","","","","","","","","",""
"","","","","","canvas-keyboard-response","135","184492","0.0-12.0-3.24","2d_cat_multi_stim_exp1","2022-4-25","15:28:57","25","75","3","9","10","40","30","120","58","20","[""Asian""]","No","Female","1993765","null","null","learn_feedback","","","learn_feedback","33.3333","60","out","","","","","","","","","","","","","","","","","","","","","","",""
"","","","","","canvas-keyboard-response","136","184552","0.0-12.0-4.24","2d_cat_multi_stim_exp1","2022-4-25","15:28:57","25","75","3","9","10","40","30","120","58","20","[""Asian""]","No","Female","1993765","null","null","","","","clear_screen","","","","","","","","","","","","","","","","","","","","","","","","","",""
"","","","","","canvas-keyboard-response","137","185060","0.0-12.0-0.25","2d_cat_multi_stim_exp1","2022-4-25","15:28:57","25","75","3","9","10","40","30","120","58","20","[""Asian""]","No","Female","1993765","null","null","","","","fixation","","","","","","","","","","","","","","","","","","","","","","","","","",""
"","","","","","canvas-keyboard-response","138","185573","0.0-12.0-1.25","2d_cat_multi_stim_exp1","2022-4-25","15:28:57","25","75","3","9","10","40","30","120","58","20","[""Asian""]","No","Female","1993765","null","null","","","","clear_screen","","","","","","","","","","","","","","","","","","","","","","","","","",""
"","","","","","canvas-keyboard-response","139","186526","0.0-12.0-2.25","2d_cat_multi_stim_exp1","2022-4-25","15:28:57","25","75","3","9","10","40","30","120","58","20","[""Asian""]","No","Female","1993765","944","i","learn","","","learn_trial","26.6667","30","out","0","1","","","","","","","","","","","","","","","","","","","","",""
"","","","","","canvas-keyboard-response","140","187036","0.0-12.0-3.25","2d_cat_multi_stim_exp1","2022-4-25","15:28:57","25","75","3","9","10","40","30","120","58","20","[""Asian""]","No","Female","1993765","null","null","learn_feedback","","","learn_feedback","26.6667","30","out","","","","","","","","","","","","","","","","","","","","","","",""
"","","","","","canvas-keyboard-response","141","187095","0.0-12.0-4.25","2d_cat_multi_stim_exp1","2022-4-25","15:28:57","25","75","3","9","10","40","30","120","58","20","[""Asian""]","No","Female","1993765","null","null","","","","clear_screen","","","","","","","","","","","","","","","","","","","","","","","","","",""
"","","","","","canvas-keyboard-response","142","187604","0.0-12.0-0.26","2d_cat_multi_stim_exp1","2022-4-25","15:28:57","25","75","3","9","10","40","30","120","58","20","[""Asian""]","No","Female","1993765","null","null","","","","fixation","","","","","","","","","","","","","","","","","","","","","","","","","",""
"","","","","","canvas-keyboard-response","143","188114","0.0-12.0-1.26","2d_cat_multi_stim_exp1","2022-4-25","15:28:57","25","75","3","9","10","40","30","120","58","20","[""Asian""]","No","Female","1993765","null","null","","","","clear_screen","","","","","","","","","","","","","","","","","","","","","","","","","",""
"","","","","","canvas-keyboard-response","144","188862","0.0-12.0-2.26","2d_cat_multi_stim_exp1","2022-4-25","15:28:57","25","75","3","9","10","40","30","120","58","20","[""Asian""]","No","Female","1993765","739","i","learn","","","learn_trial","40","50","out","0","1","","","","","","","","","","","","","","","","","","","","",""
"","","","","","canvas-keyboard-response","145","189372","0.0-12.0-3.26","2d_cat_multi_stim_exp1","2022-4-25","15:28:57","25","75","3","9","10","40","30","120","58","20","[""Asian""]","No","Female","1993765","null","null","learn_feedback","","","learn_feedback","40","50","out","","","","","","","","","","","","","","","","","","","","","","",""
"","","","","","canvas-keyboard-response","146","189430","0.0-12.0-4.26","2d_cat_multi_stim_exp1","2022-4-25","15:28:57","25","75","3","9","10","40","30","120","58","20","[""Asian""]","No","Female","1993765","null","null","","","","clear_screen","","","","","","","","","","","","","","","","","","","","","","","","","",""
"","","","","","canvas-keyboard-response","147","189940","0.0-12.0-0.27","2d_cat_multi_stim_exp1","2022-4-25","15:28:57","25","75","3","9","10","40","30","120","58","20","[""Asian""]","No","Female","1993765","null","null","","","","fixation","","","","","","","","","","","","","","","","","","","","","","","","","",""
"","","","","","canvas-keyboard-response","148","190449","0.0-12.0-1.27","2d_cat_multi_stim_exp1","2022-4-25","15:28:57","25","75","3","9","10","40","30","120","58","20","[""Asian""]","No","Female","1993765","null","null","","","","clear_screen","","","","","","","","","","","","","","","","","","","","","","","","","",""
"","","","","","canvas-keyboard-response","149","191159","0.0-12.0-2.27","2d_cat_multi_stim_exp1","2022-4-25","15:28:57","25","75","3","9","10","40","30","120","58","20","[""Asian""]","No","Female","1993765","701","i","learn","","","learn_trial","40","120","out","0","1","","","","","","","","","","","","","","","","","","","","",""
"","","","","","canvas-keyboard-response","150","191667","0.0-12.0-3.27","2d_cat_multi_stim_exp1","2022-4-25","15:28:57","25","75","3","9","10","40","30","120","58","20","[""Asian""]","No","Female","1993765","null","null","learn_feedback","","","learn_feedback","40","120","out","","","","","","","","","","","","","","","","","","","","","","",""
"","","","","","canvas-keyboard-response","151","191726","0.0-12.0-4.27","2d_cat_multi_stim_exp1","2022-4-25","15:28:57","25","75","3","9","10","40","30","120","58","20","[""Asian""]","No","Female","1993765","null","null","","","","clear_screen","","","","","","","","","","","","","","","","","","","","","","","","","",""
"","","","","","canvas-keyboard-response","152","192235","0.0-12.0-0.28","2d_cat_multi_stim_exp1","2022-4-25","15:28:57","25","75","3","9","10","40","30","120","58","20","[""Asian""]","No","Female","1993765","null","null","","","","fixation","","","","","","","","","","","","","","","","","","","","","","","","","",""
"","","","","","canvas-keyboard-response","153","192745","0.0-12.0-1.28","2d_cat_multi_stim_exp1","2022-4-25","15:28:57","25","75","3","9","10","40","30","120","58","20","[""Asian""]","No","Female","1993765","null","null","","","","clear_screen","","","","","","","","","","","","","","","","","","","","","","","","","",""
"","","","","","canvas-keyboard-response","154","193758","0.0-12.0-2.28","2d_cat_multi_stim_exp1","2022-4-25","15:28:57","25","75","3","9","10","40","30","120","58","20","[""Asian""]","No","Female","1993765","1002","i","learn","","","learn_trial","33.3333","40","out","0","1","","","","","","","","","","","","","","","","","","","","",""
"","","","","","canvas-keyboard-response","155","194268","0.0-12.0-3.28","2d_cat_multi_stim_exp1","2022-4-25","15:28:57","25","75","3","9","10","40","30","120","58","20","[""Asian""]","No","Female","1993765","null","null","learn_feedback","","","learn_feedback","33.3333","40","out","","","","","","","","","","","","","","","","","","","","","","",""
"","","","","","canvas-keyboard-response","156","194327","0.0-12.0-4.28","2d_cat_multi_stim_exp1","2022-4-25","15:28:57","25","75","3","9","10","40","30","120","58","20","[""Asian""]","No","Female","1993765","null","null","","","","clear_screen","","","","","","","","","","","","","","","","","","","","","","","","","",""
"","","","","","canvas-keyboard-response","157","194836","0.0-12.0-0.29","2d_cat_multi_stim_exp1","2022-4-25","15:28:57","25","75","3","9","10","40","30","120","58","20","[""Asian""]","No","Female","1993765","null","null","","","","fixation","","","","","","","","","","","","","","","","","","","","","","","","","",""
"","","","","","canvas-keyboard-response","158","195345","0.0-12.0-1.29","2d_cat_multi_stim_exp1","2022-4-25","15:28:57","25","75","3","9","10","40","30","120","58","20","[""Asian""]","No","Female","1993765","null","null","","","","clear_screen","","","","","","","","","","","","","","","","","","","","","","","","","",""
"","","","","","canvas-keyboard-response","159","195990","0.0-12.0-2.29","2d_cat_multi_stim_exp1","2022-4-25","15:28:57","25","75","3","9","10","40","30","120","58","20","[""Asian""]","No","Female","1993765","636","i","learn","","","learn_trial","16.6667","70","out","0","1","","","","","","","","","","","","","","","","","","","","",""
"","","","","","canvas-keyboard-response","160","196500","0.0-12.0-3.29","2d_cat_multi_stim_exp1","2022-4-25","15:28:57","25","75","3","9","10","40","30","120","58","20","[""Asian""]","No","Female","1993765","null","null","learn_feedback","","","learn_feedback","16.6667","70","out","","","","","","","","","","","","","","","","","","","","","","",""
"","","","","","canvas-keyboard-response","161","196561","0.0-12.0-4.29","2d_cat_multi_stim_exp1","2022-4-25","15:28:57","25","75","3","9","10","40","30","120","58","20","[""Asian""]","No","Female","1993765","null","null","","","","clear_screen","","","","","","","","","","","","","","","","","","","","","","","","","",""
"","","","","","canvas-keyboard-response","162","197072","0.0-12.0-0.30","2d_cat_multi_stim_exp1","2022-4-25","15:28:57","25","75","3","9","10","40","30","120","58","20","[""Asian""]","No","Female","1993765","null","null","","","","fixation","","","","","","","","","","","","","","","","","","","","","","","","","",""
"","","","","","canvas-keyboard-response","163","197581","0.0-12.0-1.30","2d_cat_multi_stim_exp1","2022-4-25","15:28:57","25","75","3","9","10","40","30","120","58","20","[""Asian""]","No","Female","1993765","null","null","","","","clear_screen","","","","","","","","","","","","","","","","","","","","","","","","","",""
"","","","","","canvas-keyboard-response","164","198295","0.0-12.0-2.30","2d_cat_multi_stim_exp1","2022-4-25","15:28:57","25","75","3","9","10","40","30","120","58","20","[""Asian""]","No","Female","1993765","703","u","learn","","","learn_trial","23.3333","70","out","1","0","","","","","","","","","","","","","","","","","","","","",""
"","","","","","canvas-keyboard-response","165","199303","0.0-12.0-3.30","2d_cat_multi_stim_exp1","2022-4-25","15:28:57","25","75","3","9","10","40","30","120","58","20","[""Asian""]","No","Female","1993765","null","null","learn_feedback","","","learn_feedback","23.3333","70","out","","","","","","","","","","","","","","","","","","","","","","",""
"","","","","","canvas-keyboard-response","166","199362","0.0-12.0-4.30","2d_cat_multi_stim_exp1","2022-4-25","15:28:57","25","75","3","9","10","40","30","120","58","20","[""Asian""]","No","Female","1993765","null","null","","","","clear_screen","","","","","","","","","","","","","","","","","","","","","","","","","",""
"","","","","","canvas-keyboard-response","167","199871","0.0-12.0-0.31","2d_cat_multi_stim_exp1","2022-4-25","15:28:57","25","75","3","9","10","40","30","120","58","20","[""Asian""]","No","Female","1993765","null","null","","","","fixation","","","","","","","","","","","","","","","","","","","","","","","","","",""
"","","","","","canvas-keyboard-response","168","200381","0.0-12.0-1.31","2d_cat_multi_stim_exp1","2022-4-25","15:28:57","25","75","3","9","10","40","30","120","58","20","[""Asian""]","No","Female","1993765","null","null","","","","clear_screen","","","","","","","","","","","","","","","","","","","","","","","","","",""
"","","","","","canvas-keyboard-response","169","201239","0.0-12.0-2.31","2d_cat_multi_stim_exp1","2022-4-25","15:28:57","25","75","3","9","10","40","30","120","58","20","[""Asian""]","No","Female","1993765","848","i","learn","","","learn_trial","30","30","out","0","1","","","","","","","","","","","","","","","","","","","","",""
"","","","","","canvas-keyboard-response","170","201752","0.0-12.0-3.31","2d_cat_multi_stim_exp1","2022-4-25","15:28:57","25","75","3","9","10","40","30","120","58","20","[""Asian""]","No","Female","1993765","null","null","learn_feedback","","","learn_feedback","30","30","out","","","","","","","","","","","","","","","","","","","","","","",""
"","","","","","canvas-keyboard-response","171","201814","0.0-12.0-4.31","2d_cat_multi_stim_exp1","2022-4-25","15:28:57","25","75","3","9","10","40","30","120","58","20","[""Asian""]","No","Female","1993765","null","null","","","","clear_screen","","","","","","","","","","","","","","","","","","","","","","","","","",""
"","","","","","canvas-keyboard-response","172","202325","0.0-12.0-0.32","2d_cat_multi_stim_exp1","2022-4-25","15:28:57","25","75","3","9","10","40","30","120","58","20","[""Asian""]","No","Female","1993765","null","null","","","","fixation","","","","","","","","","","","","","","","","","","","","","","","","","",""
"","","","","","canvas-keyboard-response","173","202835","0.0-12.0-1.32","2d_cat_multi_stim_exp1","2022-4-25","15:28:57","25","75","3","9","10","40","30","120","58","20","[""Asian""]","No","Female","1993765","null","null","","","","clear_screen","","","","","","","","","","","","","","","","","","","","","","","","","",""
"","","","","","canvas-keyboard-response","174","203598","0.0-12.0-2.32","2d_cat_multi_stim_exp1","2022-4-25","15:28:57","25","75","3","9","10","40","30","120","58","20","[""Asian""]","No","Female","1993765","753","u","learn","","","learn_trial","25","75","in","1","1","","","","","","","","","","","","","","","","","","","","",""
"","","","","","canvas-keyboard-response","175","204109","0.0-12.0-3.32","2d_cat_multi_stim_exp1","2022-4-25","15:28:57","25","75","3","9","10","40","30","120","58","20","[""Asian""]","No","Female","1993765","null","null","learn_feedback","","","learn_feedback","25","75","in","","","","","","","","","","","","","","","","","","","","","","",""
"","","","","","canvas-keyboard-response","176","204168","0.0-12.0-4.32","2d_cat_multi_stim_exp1","2022-4-25","15:28:57","25","75","3","9","10","40","30","120","58","20","[""Asian""]","No","Female","1993765","null","null","","","","clear_screen","","","","","","","","","","","","","","","","","","","","","","","","","",""
"","","","","","canvas-keyboard-response","177","204678","0.0-12.0-0.33","2d_cat_multi_stim_exp1","2022-4-25","15:28:57","25","75","3","9","10","40","30","120","58","20","[""Asian""]","No","Female","1993765","null","null","","","","fixation","","","","","","","","","","","","","","","","","","","","","","","","","",""
"","","","","","canvas-keyboard-response","178","205188","0.0-12.0-1.33","2d_cat_multi_stim_exp1","2022-4-25","15:28:57","25","75","3","9","10","40","30","120","58","20","[""Asian""]","No","Female","1993765","null","null","","","","clear_screen","","","","","","","","","","","","","","","","","","","","","","","","","",""
"","","","","","canvas-keyboard-response","179","205967","0.0-12.0-2.33","2d_cat_multi_stim_exp1","2022-4-25","15:28:57","25","75","3","9","10","40","30","120","58","20","[""Asian""]","No","Female","1993765","767","u","learn","","","learn_trial","22.0121","74.1932","in","1","1","","","","","","","","","","","","","","","","","","","","",""
"","","","","","canvas-keyboard-response","180","206478","0.0-12.0-3.33","2d_cat_multi_stim_exp1","2022-4-25","15:28:57","25","75","3","9","10","40","30","120","58","20","[""Asian""]","No","Female","1993765","null","null","learn_feedback","","","learn_feedback","22.0121","74.1932","in","","","","","","","","","","","","","","","","","","","","","","",""
"","","","","","canvas-keyboard-response","181","206538","0.0-12.0-4.33","2d_cat_multi_stim_exp1","2022-4-25","15:28:57","25","75","3","9","10","40","30","120","58","20","[""Asian""]","No","Female","1993765","null","null","","","","clear_screen","","","","","","","","","","","","","","","","","","","","","","","","","",""
"","","","","","canvas-keyboard-response","182","207047","0.0-12.0-0.34","2d_cat_multi_stim_exp1","2022-4-25","15:28:57","25","75","3","9","10","40","30","120","58","20","[""Asian""]","No","Female","1993765","null","null","","","","fixation","","","","","","","","","","","","","","","","","","","","","","","","","",""
"","","","","","canvas-keyboard-response","183","207557","0.0-12.0-1.34","2d_cat_multi_stim_exp1","2022-4-25","15:28:57","25","75","3","9","10","40","30","120","58","20","[""Asian""]","No","Female","1993765","null","null","","","","clear_screen","","","","","","","","","","","","","","","","","","","","","","","","","",""
"","","","","","canvas-keyboard-response","184","208975","0.0-12.0-2.34","2d_cat_multi_stim_exp1","2022-4-25","15:28:57","25","75","3","9","10","40","30","120","58","20","[""Asian""]","No","Female","1993765","1407","i","learn","","","learn_trial","25","75","in","0","0","","","","","","","","","","","","","","","","","","","","",""
"","","","","","canvas-keyboard-response","185","209984","0.0-12.0-3.34","2d_cat_multi_stim_exp1","2022-4-25","15:28:57","25","75","3","9","10","40","30","120","58","20","[""Asian""]","No","Female","1993765","null","null","learn_feedback","","","learn_feedback","25","75","in","","","","","","","","","","","","","","","","","","","","","","",""
"","","","","","canvas-keyboard-response","186","210044","0.0-12.0-4.34","2d_cat_multi_stim_exp1","2022-4-25","15:28:57","25","75","3","9","10","40","30","120","58","20","[""Asian""]","No","Female","1993765","null","null","","","","clear_screen","","","","","","","","","","","","","","","","","","","","","","","","","",""
"","","","","","canvas-keyboard-response","187","210552","0.0-12.0-0.35","2d_cat_multi_stim_exp1","2022-4-25","15:28:57","25","75","3","9","10","40","30","120","58","20","[""Asian""]","No","Female","1993765","null","null","","","","fixation","","","","","","","","","","","","","","","","","","","","","","","","","",""
"","","","","","canvas-keyboard-response","188","211062","0.0-12.0-1.35","2d_cat_multi_stim_exp1","2022-4-25","15:28:57","25","75","3","9","10","40","30","120","58","20","[""Asian""]","No","Female","1993765","null","null","","","","clear_screen","","","","","","","","","","","","","","","","","","","","","","","","","",""
"","","","","","canvas-keyboard-response","189","211774","0.0-12.0-2.35","2d_cat_multi_stim_exp1","2022-4-25","15:28:57","25","75","3","9","10","40","30","120","58","20","[""Asian""]","No","Female","1993765","702","u","learn","","","learn_trial","25","75","in","1","1","","","","","","","","","","","","","","","","","","","","",""
"","","","","","canvas-keyboard-response","190","212285","0.0-12.0-3.35","2d_cat_multi_stim_exp1","2022-4-25","15:28:57","25","75","3","9","10","40","30","120","58","20","[""Asian""]","No","Female","1993765","null","null","learn_feedback","","","learn_feedback","25","75","in","","","","","","","","","","","","","","","","","","","","","","",""
"","","","","","canvas-keyboard-response","191","212344","0.0-12.0-4.35","2d_cat_multi_stim_exp1","2022-4-25","15:28:57","25","75","3","9","10","40","30","120","58","20","[""Asian""]","No","Female","1993765","null","null","","","","clear_screen","","","","","","","","","","","","","","","","","","","","","","","","","",""
"","","","","","canvas-keyboard-response","192","212853","0.0-12.0-0.36","2d_cat_multi_stim_exp1","2022-4-25","15:28:57","25","75","3","9","10","40","30","120","58","20","[""Asian""]","No","Female","1993765","null","null","","","","fixation","","","","","","","","","","","","","","","","","","","","","","","","","",""
"","","","","","canvas-keyboard-response","193","213361","0.0-12.0-1.36","2d_cat_multi_stim_exp1","2022-4-25","15:28:57","25","75","3","9","10","40","30","120","58","20","[""Asian""]","No","Female","1993765","null","null","","","","clear_screen","","","","","","","","","","","","","","","","","","","","","","","","","",""
"","","","","","canvas-keyboard-response","194","214015","0.0-12.0-2.36","2d_cat_multi_stim_exp1","2022-4-25","15:28:57","25","75","3","9","10","40","30","120","58","20","[""Asian""]","No","Female","1993765","643","u","learn","","","learn_trial","25","75","in","1","1","","","","","","","","","","","","","","","","","","","","",""
"","","","","","canvas-keyboard-response","195","214524","0.0-12.0-3.36","2d_cat_multi_stim_exp1","2022-4-25","15:28:57","25","75","3","9","10","40","30","120","58","20","[""Asian""]","No","Female","1993765","null","null","learn_feedback","","","learn_feedback","25","75","in","","","","","","","","","","","","","","","","","","","","","","",""
"","","","","","canvas-keyboard-response","196","214584","0.0-12.0-4.36","2d_cat_multi_stim_exp1","2022-4-25","15:28:57","25","75","3","9","10","40","30","120","58","20","[""Asian""]","No","Female","1993765","null","null","","","","clear_screen","","","","","","","","","","","","","","","","","","","","","","","","","",""
"","","","","","canvas-keyboard-response","197","215093","0.0-12.0-0.37","2d_cat_multi_stim_exp1","2022-4-25","15:28:57","25","75","3","9","10","40","30","120","58","20","[""Asian""]","No","Female","1993765","null","null","","","","fixation","","","","","","","","","","","","","","","","","","","","","","","","","",""
"","","","","","canvas-keyboard-response","198","215602","0.0-12.0-1.37","2d_cat_multi_stim_exp1","2022-4-25","15:28:57","25","75","3","9","10","40","30","120","58","20","[""Asian""]","No","Female","1993765","null","null","","","","clear_screen","","","","","","","","","","","","","","","","","","","","","","","","","",""
"","","","","","canvas-keyboard-response","199","216191","0.0-12.0-2.37","2d_cat_multi_stim_exp1","2022-4-25","15:28:57","25","75","3","9","10","40","30","120","58","20","[""Asian""]","No","Female","1993765","578","u","learn","","","learn_trial","25","75","in","1","1","","","","","","","","","","","","","","","","","","","","",""
"","","","","","canvas-keyboard-response","200","216700","0.0-12.0-3.37","2d_cat_multi_stim_exp1","2022-4-25","15:28:57","25","75","3","9","10","40","30","120","58","20","[""Asian""]","No","Female","1993765","null","null","learn_feedback","","","learn_feedback","25","75","in","","","","","","","","","","","","","","","","","","","","","","",""
"","","","","","canvas-keyboard-response","201","216761","0.0-12.0-4.37","2d_cat_multi_stim_exp1","2022-4-25","15:28:57","25","75","3","9","10","40","30","120","58","20","[""Asian""]","No","Female","1993765","null","null","","","","clear_screen","","","","","","","","","","","","","","","","","","","","","","","","","",""
"","","","","","canvas-keyboard-response","202","217269","0.0-12.0-0.38","2d_cat_multi_stim_exp1","2022-4-25","15:28:57","25","75","3","9","10","40","30","120","58","20","[""Asian""]","No","Female","1993765","null","null","","","","fixation","","","","","","","","","","","","","","","","","","","","","","","","","",""
"","","","","","canvas-keyboard-response","203","217779","0.0-12.0-1.38","2d_cat_multi_stim_exp1","2022-4-25","15:28:57","25","75","3","9","10","40","30","120","58","20","[""Asian""]","No","Female","1993765","null","null","","","","clear_screen","","","","","","","","","","","","","","","","","","","","","","","","","",""
"","","","","","canvas-keyboard-response","204","218703","0.0-12.0-2.38","2d_cat_multi_stim_exp1","2022-4-25","15:28:57","25","75","3","9","10","40","30","120","58","20","[""Asian""]","No","Female","1993765","913","i","learn","","","learn_trial","20","90","out","0","1","","","","","","","","","","","","","","","","","","","","",""
"","","","","","canvas-keyboard-response","205","219213","0.0-12.0-3.38","2d_cat_multi_stim_exp1","2022-4-25","15:28:57","25","75","3","9","10","40","30","120","58","20","[""Asian""]","No","Female","1993765","null","null","learn_feedback","","","learn_feedback","20","90","out","","","","","","","","","","","","","","","","","","","","","","",""
"","","","","","canvas-keyboard-response","206","219271","0.0-12.0-4.38","2d_cat_multi_stim_exp1","2022-4-25","15:28:57","25","75","3","9","10","40","30","120","58","20","[""Asian""]","No","Female","1993765","null","null","","","","clear_screen","","","","","","","","","","","","","","","","","","","","","","","","","",""
"","","","","","canvas-keyboard-response","207","219781","0.0-12.0-0.39","2d_cat_multi_stim_exp1","2022-4-25","15:28:57","25","75","3","9","10","40","30","120","58","20","[""Asian""]","No","Female","1993765","null","null","","","","fixation","","","","","","","","","","","","","","","","","","","","","","","","","",""
"","","","","","canvas-keyboard-response","208","220290","0.0-12.0-1.39","2d_cat_multi_stim_exp1","2022-4-25","15:28:57","25","75","3","9","10","40","30","120","58","20","[""Asian""]","No","Female","1993765","null","null","","","","clear_screen","","","","","","","","","","","","","","","","","","","","","","","","","",""
"","","","","","canvas-keyboard-response","209","221231","0.0-12.0-2.39","2d_cat_multi_stim_exp1","2022-4-25","15:28:57","25","75","3","9","10","40","30","120","58","20","[""Asian""]","No","Female","1993765","931","i","learn","","","learn_trial","13.3333","50","out","0","1","","","","","","","","","","","","","","","","","","","","",""
"","","","","","canvas-keyboard-response","210","221741","0.0-12.0-3.39","2d_cat_multi_stim_exp1","2022-4-25","15:28:57","25","75","3","9","10","40","30","120","58","20","[""Asian""]","No","Female","1993765","null","null","learn_feedback","","","learn_feedback","13.3333","50","out","","","","","","","","","","","","","","","","","","","","","","",""
"","","","","","canvas-keyboard-response","211","221800","0.0-12.0-4.39","2d_cat_multi_stim_exp1","2022-4-25","15:28:57","25","75","3","9","10","40","30","120","58","20","[""Asian""]","No","Female","1993765","null","null","","","","clear_screen","","","","","","","","","","","","","","","","","","","","","","","","","",""
"","","","","","canvas-keyboard-response","212","222308","0.0-12.0-0.40","2d_cat_multi_stim_exp1","2022-4-25","15:28:57","25","75","3","9","10","40","30","120","58","20","[""Asian""]","No","Female","1993765","null","null","","","","fixation","","","","","","","","","","","","","","","","","","","","","","","","","",""
"","","","","","canvas-keyboard-response","213","222818","0.0-12.0-1.40","2d_cat_multi_stim_exp1","2022-4-25","15:28:57","25","75","3","9","10","40","30","120","58","20","[""Asian""]","No","Female","1993765","null","null","","","","clear_screen","","","","","","","","","","","","","","","","","","","","","","","","","",""
"","","","","","canvas-keyboard-response","214","223774","0.0-12.0-2.40","2d_cat_multi_stim_exp1","2022-4-25","15:28:57","25","75","3","9","10","40","30","120","58","20","[""Asian""]","No","Female","1993765","946","i","learn","","","learn_trial","20","110","out","0","1","","","","","","","","","","","","","","","","","","","","",""
"","","","","","canvas-keyboard-response","215","224284","0.0-12.0-3.40","2d_cat_multi_stim_exp1","2022-4-25","15:28:57","25","75","3","9","10","40","30","120","58","20","[""Asian""]","No","Female","1993765","null","null","learn_feedback","","","learn_feedback","20","110","out","","","","","","","","","","","","","","","","","","","","","","",""
"","","","","","canvas-keyboard-response","216","224343","0.0-12.0-4.40","2d_cat_multi_stim_exp1","2022-4-25","15:28:57","25","75","3","9","10","40","30","120","58","20","[""Asian""]","No","Female","1993765","null","null","","","","clear_screen","","","","","","","","","","","","","","","","","","","","","","","","","",""
"","","","","","canvas-keyboard-response","217","224854","0.0-12.0-0.41","2d_cat_multi_stim_exp1","2022-4-25","15:28:57","25","75","3","9","10","40","30","120","58","20","[""Asian""]","No","Female","1993765","null","null","","","","fixation","","","","","","","","","","","","","","","","","","","","","","","","","",""
"","","","","","canvas-keyboard-response","218","225364","0.0-12.0-1.41","2d_cat_multi_stim_exp1","2022-4-25","15:28:57","25","75","3","9","10","40","30","120","58","20","[""Asian""]","No","Female","1993765","null","null","","","","clear_screen","","","","","","","","","","","","","","","","","","","","","","","","","",""
"","","","","","canvas-keyboard-response","219","226279","0.0-12.0-2.41","2d_cat_multi_stim_exp1","2022-4-25","15:28:57","25","75","3","9","10","40","30","120","58","20","[""Asian""]","No","Female","1993765","905","u","learn","","","learn_trial","25","75","in","1","1","","","","","","","","","","","","","","","","","","","","",""
"","","","","","canvas-keyboard-response","220","226789","0.0-12.0-3.41","2d_cat_multi_stim_exp1","2022-4-25","15:28:57","25","75","3","9","10","40","30","120","58","20","[""Asian""]","No","Female","1993765","null","null","learn_feedback","","","learn_feedback","25","75","in","","","","","","","","","","","","","","","","","","","","","","",""
"","","","","","canvas-keyboard-response","221","226848","0.0-12.0-4.41","2d_cat_multi_stim_exp1","2022-4-25","15:28:57","25","75","3","9","10","40","30","120","58","20","[""Asian""]","No","Female","1993765","null","null","","","","clear_screen","","","","","","","","","","","","","","","","","","","","","","","","","",""
"","","","","","canvas-keyboard-response","222","227356","0.0-12.0-0.42","2d_cat_multi_stim_exp1","2022-4-25","15:28:57","25","75","3","9","10","40","30","120","58","20","[""Asian""]","No","Female","1993765","null","null","","","","fixation","","","","","","","","","","","","","","","","","","","","","","","","","",""
"","","","","","canvas-keyboard-response","223","227866","0.0-12.0-1.42","2d_cat_multi_stim_exp1","2022-4-25","15:28:57","25","75","3","9","10","40","30","120","58","20","[""Asian""]","No","Female","1993765","null","null","","","","clear_screen","","","","","","","","","","","","","","","","","","","","","","","","","",""
"","","","","","canvas-keyboard-response","224","229015","0.0-12.0-2.42","2d_cat_multi_stim_exp1","2022-4-25","15:28:57","25","75","3","9","10","40","30","120","58","20","[""Asian""]","No","Female","1993765","1139","u","learn","","","learn_trial","25.4027","66.0815","in","1","1","","","","","","","","","","","","","","","","","","","","",""
"","","","","","canvas-keyboard-response","225","229525","0.0-12.0-3.42","2d_cat_multi_stim_exp1","2022-4-25","15:28:57","25","75","3","9","10","40","30","120","58","20","[""Asian""]","No","Female","1993765","null","null","learn_feedback","","","learn_feedback","25.4027","66.0815","in","","","","","","","","","","","","","","","","","","","","","","",""
"","","","","","canvas-keyboard-response","226","229583","0.0-12.0-4.42","2d_cat_multi_stim_exp1","2022-4-25","15:28:57","25","75","3","9","10","40","30","120","58","20","[""Asian""]","No","Female","1993765","null","null","","","","clear_screen","","","","","","","","","","","","","","","","","","","","","","","","","",""
"","","","","","canvas-keyboard-response","227","230093","0.0-12.0-0.43","2d_cat_multi_stim_exp1","2022-4-25","15:28:57","25","75","3","9","10","40","30","120","58","20","[""Asian""]","No","Female","1993765","null","null","","","","fixation","","","","","","","","","","","","","","","","","","","","","","","","","",""
"","","","","","canvas-keyboard-response","228","230603","0.0-12.0-1.43","2d_cat_multi_stim_exp1","2022-4-25","15:28:57","25","75","3","9","10","40","30","120","58","20","[""Asian""]","No","Female","1993765","null","null","","","","clear_screen","","","","","","","","","","","","","","","","","","","","","","","","","",""
"","","","","","canvas-keyboard-response","229","231253","0.0-12.0-2.43","2d_cat_multi_stim_exp1","2022-4-25","15:28:57","25","75","3","9","10","40","30","120","58","20","[""Asian""]","No","Female","1993765","642","i","learn","","","learn_trial","25","75","in","0","0","","","","","","","","","","","","","","","","","","","","",""
"","","","","","canvas-keyboard-response","230","232263","0.0-12.0-3.43","2d_cat_multi_stim_exp1","2022-4-25","15:28:57","25","75","3","9","10","40","30","120","58","20","[""Asian""]","No","Female","1993765","null","null","learn_feedback","","","learn_feedback","25","75","in","","","","","","","","","","","","","","","","","","","","","","",""
"","","","","","canvas-keyboard-response","231","232322","0.0-12.0-4.43","2d_cat_multi_stim_exp1","2022-4-25","15:28:57","25","75","3","9","10","40","30","120","58","20","[""Asian""]","No","Female","1993765","null","null","","","","clear_screen","","","","","","","","","","","","","","","","","","","","","","","","","",""
"","","","","","canvas-keyboard-response","232","232832","0.0-12.0-0.44","2d_cat_multi_stim_exp1","2022-4-25","15:28:57","25","75","3","9","10","40","30","120","58","20","[""Asian""]","No","Female","1993765","null","null","","","","fixation","","","","","","","","","","","","","","","","","","","","","","","","","",""
"","","","","","canvas-keyboard-response","233","233342","0.0-12.0-1.44","2d_cat_multi_stim_exp1","2022-4-25","15:28:57","25","75","3","9","10","40","30","120","58","20","[""Asian""]","No","Female","1993765","null","null","","","","clear_screen","","","","","","","","","","","","","","","","","","","","","","","","","",""
"","","","","","canvas-keyboard-response","234","234199","0.0-12.0-2.44","2d_cat_multi_stim_exp1","2022-4-25","15:28:57","25","75","3","9","10","40","30","120","58","20","[""Asian""]","No","Female","1993765","848","i","learn","","","learn_trial","23.3333","120","out","0","1","","","","","","","","","","","","","","","","","","","","",""
"","","","","","canvas-keyboard-response","235","234712","0.0-12.0-3.44","2d_cat_multi_stim_exp1","2022-4-25","15:28:57","25","75","3","9","10","40","30","120","58","20","[""Asian""]","No","Female","1993765","null","null","learn_feedback","","","learn_feedback","23.3333","120","out","","","","","","","","","","","","","","","","","","","","","","",""
"","","","","","canvas-keyboard-response","236","234773","0.0-12.0-4.44","2d_cat_multi_stim_exp1","2022-4-25","15:28:57","25","75","3","9","10","40","30","120","58","20","[""Asian""]","No","Female","1993765","null","null","","","","clear_screen","","","","","","","","","","","","","","","","","","","","","","","","","",""
"","","","","","canvas-keyboard-response","237","235284","0.0-12.0-0.45","2d_cat_multi_stim_exp1","2022-4-25","15:28:57","25","75","3","9","10","40","30","120","58","20","[""Asian""]","No","Female","1993765","null","null","","","","fixation","","","","","","","","","","","","","","","","","","","","","","","","","",""
"","","","","","canvas-keyboard-response","238","235795","0.0-12.0-1.45","2d_cat_multi_stim_exp1","2022-4-25","15:28:57","25","75","3","9","10","40","30","120","58","20","[""Asian""]","No","Female","1993765","null","null","","","","clear_screen","","","","","","","","","","","","","","","","","","","","","","","","","",""
"","","","","","canvas-keyboard-response","239","236814","0.0-12.0-2.45","2d_cat_multi_stim_exp1","2022-4-25","15:28:57","25","75","3","9","10","40","30","120","58","20","[""Asian""]","No","Female","1993765","1010","i","learn","","","learn_trial","13.3333","120","out","0","1","","","","","","","","","","","","","","","","","","","","",""
"","","","","","canvas-keyboard-response","240","237325","0.0-12.0-3.45","2d_cat_multi_stim_exp1","2022-4-25","15:28:57","25","75","3","9","10","40","30","120","58","20","[""Asian""]","No","Female","1993765","null","null","learn_feedback","","","learn_feedback","13.3333","120","out","","","","","","","","","","","","","","","","","","","","","","",""
"","","","","","canvas-keyboard-response","241","237384","0.0-12.0-4.45","2d_cat_multi_stim_exp1","2022-4-25","15:28:57","25","75","3","9","10","40","30","120","58","20","[""Asian""]","No","Female","1993765","null","null","","","","clear_screen","","","","","","","","","","","","","","","","","","","","","","","","","",""
"","","","","","canvas-keyboard-response","242","237894","0.0-12.0-0.46","2d_cat_multi_stim_exp1","2022-4-25","15:28:57","25","75","3","9","10","40","30","120","58","20","[""Asian""]","No","Female","1993765","null","null","","","","fixation","","","","","","","","","","","","","","","","","","","","","","","","","",""
"","","","","","canvas-keyboard-response","243","238404","0.0-12.0-1.46","2d_cat_multi_stim_exp1","2022-4-25","15:28:57","25","75","3","9","10","40","30","120","58","20","[""Asian""]","No","Female","1993765","null","null","","","","clear_screen","","","","","","","","","","","","","","","","","","","","","","","","","",""
"","","","","","canvas-keyboard-response","244","239199","0.0-12.0-2.46","2d_cat_multi_stim_exp1","2022-4-25","15:28:57","25","75","3","9","10","40","30","120","58","20","[""Asian""]","No","Female","1993765","784","u","learn","","","learn_trial","25","75","in","1","1","","","","","","","","","","","","","","","","","","","","",""
"","","","","","canvas-keyboard-response","245","239709","0.0-12.0-3.46","2d_cat_multi_stim_exp1","2022-4-25","15:28:57","25","75","3","9","10","40","30","120","58","20","[""Asian""]","No","Female","1993765","null","null","learn_feedback","","","learn_feedback","25","75","in","","","","","","","","","","","","","","","","","","","","","","",""
"","","","","","canvas-keyboard-response","246","239769","0.0-12.0-4.46","2d_cat_multi_stim_exp1","2022-4-25","15:28:57","25","75","3","9","10","40","30","120","58","20","[""Asian""]","No","Female","1993765","null","null","","","","clear_screen","","","","","","","","","","","","","","","","","","","","","","","","","",""
"","","","","","canvas-keyboard-response","247","240279","0.0-12.0-0.47","2d_cat_multi_stim_exp1","2022-4-25","15:28:57","25","75","3","9","10","40","30","120","58","20","[""Asian""]","No","Female","1993765","null","null","","","","fixation","","","","","","","","","","","","","","","","","","","","","","","","","",""
"","","","","","canvas-keyboard-response","248","240789","0.0-12.0-1.47","2d_cat_multi_stim_exp1","2022-4-25","15:28:57","25","75","3","9","10","40","30","120","58","20","[""Asian""]","No","Female","1993765","null","null","","","","clear_screen","","","","","","","","","","","","","","","","","","","","","","","","","",""
"","","","","","canvas-keyboard-response","249","241502","0.0-12.0-2.47","2d_cat_multi_stim_exp1","2022-4-25","15:28:57","25","75","3","9","10","40","30","120","58","20","[""Asian""]","No","Female","1993765","703","i","learn","","","learn_trial","20","50","out","0","1","","","","","","","","","","","","","","","","","","","","",""
"","","","","","canvas-keyboard-response","250","242017","0.0-12.0-3.47","2d_cat_multi_stim_exp1","2022-4-25","15:28:57","25","75","3","9","10","40","30","120","58","20","[""Asian""]","No","Female","1993765","null","null","learn_feedback","","","learn_feedback","20","50","out","","","","","","","","","","","","","","","","","","","","","","",""
"","","","","","canvas-keyboard-response","251","242077","0.0-12.0-4.47","2d_cat_multi_stim_exp1","2022-4-25","15:28:57","25","75","3","9","10","40","30","120","58","20","[""Asian""]","No","Female","1993765","null","null","","","","clear_screen","","","","","","","","","","","","","","","","","","","","","","","","","",""
"","","","","","canvas-keyboard-response","252","242585","0.0-12.0-0.48","2d_cat_multi_stim_exp1","2022-4-25","15:28:57","25","75","3","9","10","40","30","120","58","20","[""Asian""]","No","Female","1993765","null","null","","","","fixation","","","","","","","","","","","","","","","","","","","","","","","","","",""
"","","","","","canvas-keyboard-response","253","243095","0.0-12.0-1.48","2d_cat_multi_stim_exp1","2022-4-25","15:28:57","25","75","3","9","10","40","30","120","58","20","[""Asian""]","No","Female","1993765","null","null","","","","clear_screen","","","","","","","","","","","","","","","","","","","","","","","","","",""
"","","","","","canvas-keyboard-response","254","243711","0.0-12.0-2.48","2d_cat_multi_stim_exp1","2022-4-25","15:28:57","25","75","3","9","10","40","30","120","58","20","[""Asian""]","No","Female","1993765","605","i","learn","","","learn_trial","36.6667","30","out","0","1","","","","","","","","","","","","","","","","","","","","",""
"","","","","","canvas-keyboard-response","255","244220","0.0-12.0-3.48","2d_cat_multi_stim_exp1","2022-4-25","15:28:57","25","75","3","9","10","40","30","120","58","20","[""Asian""]","No","Female","1993765","null","null","learn_feedback","","","learn_feedback","36.6667","30","out","","","","","","","","","","","","","","","","","","","","","","",""
"","","","","","canvas-keyboard-response","256","244279","0.0-12.0-4.48","2d_cat_multi_stim_exp1","2022-4-25","15:28:57","25","75","3","9","10","40","30","120","58","20","[""Asian""]","No","Female","1993765","null","null","","","","clear_screen","","","","","","","","","","","","","","","","","","","","","","","","","",""
"","","","","","canvas-keyboard-response","257","244789","0.0-12.0-0.49","2d_cat_multi_stim_exp1","2022-4-25","15:28:57","25","75","3","9","10","40","30","120","58","20","[""Asian""]","No","Female","1993765","null","null","","","","fixation","","","","","","","","","","","","","","","","","","","","","","","","","",""
"","","","","","canvas-keyboard-response","258","245298","0.0-12.0-1.49","2d_cat_multi_stim_exp1","2022-4-25","15:28:57","25","75","3","9","10","40","30","120","58","20","[""Asian""]","No","Female","1993765","null","null","","","","clear_screen","","","","","","","","","","","","","","","","","","","","","","","","","",""
"","","","","","canvas-keyboard-response","259","248102","0.0-12.0-2.49","2d_cat_multi_stim_exp1","2022-4-25","15:28:57","25","75","3","9","10","40","30","120","58","20","[""Asian""]","No","Female","1993765","2795","i","learn","","","learn_trial","28","75","in","0","0","","","","","","","","","","","","","","","","","","","","",""
"","","","","","canvas-keyboard-response","260","249111","0.0-12.0-3.49","2d_cat_multi_stim_exp1","2022-4-25","15:28:57","25","75","3","9","10","40","30","120","58","20","[""Asian""]","No","Female","1993765","null","null","learn_feedback","","","learn_feedback","28","75","in","","","","","","","","","","","","","","","","","","","","","","",""
"","","","","","canvas-keyboard-response","261","249170","0.0-12.0-4.49","2d_cat_multi_stim_exp1","2022-4-25","15:28:57","25","75","3","9","10","40","30","120","58","20","[""Asian""]","No","Female","1993765","null","null","","","","clear_screen","","","","","","","","","","","","","","","","","","","","","","","","","",""
"","","","","","canvas-keyboard-response","262","249680","0.0-12.0-0.50","2d_cat_multi_stim_exp1","2022-4-25","15:28:57","25","75","3","9","10","40","30","120","58","20","[""Asian""]","No","Female","1993765","null","null","","","","fixation","","","","","","","","","","","","","","","","","","","","","","","","","",""
"","","","","","canvas-keyboard-response","263","250189","0.0-12.0-1.50","2d_cat_multi_stim_exp1","2022-4-25","15:28:57","25","75","3","9","10","40","30","120","58","20","[""Asian""]","No","Female","1993765","null","null","","","","clear_screen","","","","","","","","","","","","","","","","","","","","","","","","","",""
"","","","","","canvas-keyboard-response","264","250894","0.0-12.0-2.50","2d_cat_multi_stim_exp1","2022-4-25","15:28:57","25","75","3","9","10","40","30","120","58","20","[""Asian""]","No","Female","1993765","695","u","learn","","","learn_trial","25","75","in","1","1","","","","","","","","","","","","","","","","","","","","",""
"","","","","","canvas-keyboard-response","265","251407","0.0-12.0-3.50","2d_cat_multi_stim_exp1","2022-4-25","15:28:57","25","75","3","9","10","40","30","120","58","20","[""Asian""]","No","Female","1993765","null","null","learn_feedback","","","learn_feedback","25","75","in","","","","","","","","","","","","","","","","","","","","","","",""
"","","","","","canvas-keyboard-response","266","251465","0.0-12.0-4.50","2d_cat_multi_stim_exp1","2022-4-25","15:28:57","25","75","3","9","10","40","30","120","58","20","[""Asian""]","No","Female","1993765","null","null","","","","clear_screen","","","","","","","","","","","","","","","","","","","","","","","","","",""
"","","","","","canvas-keyboard-response","267","251975","0.0-12.0-0.51","2d_cat_multi_stim_exp1","2022-4-25","15:28:57","25","75","3","9","10","40","30","120","58","20","[""Asian""]","No","Female","1993765","null","null","","","","fixation","","","","","","","","","","","","","","","","","","","","","","","","","",""
"","","","","","canvas-keyboard-response","268","252485","0.0-12.0-1.51","2d_cat_multi_stim_exp1","2022-4-25","15:28:57","25","75","3","9","10","40","30","120","58","20","[""Asian""]","No","Female","1993765","null","null","","","","clear_screen","","","","","","","","","","","","","","","","","","","","","","","","","",""
"","","","","","canvas-keyboard-response","269","253062","0.0-12.0-2.51","2d_cat_multi_stim_exp1","2022-4-25","15:28:57","25","75","3","9","10","40","30","120","58","20","[""Asian""]","No","Female","1993765","568","u","learn","","","learn_trial","24.3324","66.2256","in","1","1","","","","","","","","","","","","","","","","","","","","",""
"","","","","","canvas-keyboard-response","270","253573","0.0-12.0-3.51","2d_cat_multi_stim_exp1","2022-4-25","15:28:57","25","75","3","9","10","40","30","120","58","20","[""Asian""]","No","Female","1993765","null","null","learn_feedback","","","learn_feedback","24.3324","66.2256","in","","","","","","","","","","","","","","","","","","","","","","",""
"","","","","","canvas-keyboard-response","271","253631","0.0-12.0-4.51","2d_cat_multi_stim_exp1","2022-4-25","15:28:57","25","75","3","9","10","40","30","120","58","20","[""Asian""]","No","Female","1993765","null","null","","","","clear_screen","","","","","","","","","","","","","","","","","","","","","","","","","",""
"","","","","","canvas-keyboard-response","272","254141","0.0-12.0-0.52","2d_cat_multi_stim_exp1","2022-4-25","15:28:57","25","75","3","9","10","40","30","120","58","20","[""Asian""]","No","Female","1993765","null","null","","","","fixation","","","","","","","","","","","","","","","","","","","","","","","","","",""
"","","","","","canvas-keyboard-response","273","254650","0.0-12.0-1.52","2d_cat_multi_stim_exp1","2022-4-25","15:28:57","25","75","3","9","10","40","30","120","58","20","[""Asian""]","No","Female","1993765","null","null","","","","clear_screen","","","","","","","","","","","","","","","","","","","","","","","","","",""
"","","","","","canvas-keyboard-response","274","255230","0.0-12.0-2.52","2d_cat_multi_stim_exp1","2022-4-25","15:28:57","25","75","3","9","10","40","30","120","58","20","[""Asian""]","No","Female","1993765","570","i","learn","","","learn_trial","13.3333","110","out","0","1","","","","","","","","","","","","","","","","","","","","",""
"","","","","","canvas-keyboard-response","275","255740","0.0-12.0-3.52","2d_cat_multi_stim_exp1","2022-4-25","15:28:57","25","75","3","9","10","40","30","120","58","20","[""Asian""]","No","Female","1993765","null","null","learn_feedback","","","learn_feedback","13.3333","110","out","","","","","","","","","","","","","","","","","","","","","","",""
"","","","","","canvas-keyboard-response","276","255799","0.0-12.0-4.52","2d_cat_multi_stim_exp1","2022-4-25","15:28:57","25","75","3","9","10","40","30","120","58","20","[""Asian""]","No","Female","1993765","null","null","","","","clear_screen","","","","","","","","","","","","","","","","","","","","","","","","","",""
"","","","","","canvas-keyboard-response","277","256307","0.0-12.0-0.53","2d_cat_multi_stim_exp1","2022-4-25","15:28:57","25","75","3","9","10","40","30","120","58","20","[""Asian""]","No","Female","1993765","null","null","","","","fixation","","","","","","","","","","","","","","","","","","","","","","","","","",""
"","","","","","canvas-keyboard-response","278","256817","0.0-12.0-1.53","2d_cat_multi_stim_exp1","2022-4-25","15:28:57","25","75","3","9","10","40","30","120","58","20","[""Asian""]","No","Female","1993765","null","null","","","","clear_screen","","","","","","","","","","","","","","","","","","","","","","","","","",""
"","","","","","canvas-keyboard-response","279","258710","0.0-12.0-2.53","2d_cat_multi_stim_exp1","2022-4-25","15:28:57","25","75","3","9","10","40","30","120","58","20","[""Asian""]","No","Female","1993765","1883","i","learn","","","learn_trial","20.7574","62.2721","in","0","0","","","","","","","","","","","","","","","","","","","","",""
"","","","","","canvas-keyboard-response","280","259723","0.0-12.0-3.53","2d_cat_multi_stim_exp1","2022-4-25","15:28:57","25","75","3","9","10","40","30","120","58","20","[""Asian""]","No","Female","1993765","null","null","learn_feedback","","","learn_feedback","20.7574","62.2721","in","","","","","","","","","","","","","","","","","","","","","","",""
"","","","","","canvas-keyboard-response","281","259782","0.0-12.0-4.53","2d_cat_multi_stim_exp1","2022-4-25","15:28:57","25","75","3","9","10","40","30","120","58","20","[""Asian""]","No","Female","1993765","null","null","","","","clear_screen","","","","","","","","","","","","","","","","","","","","","","","","","",""
"","","","","","canvas-keyboard-response","282","260290","0.0-12.0-0.54","2d_cat_multi_stim_exp1","2022-4-25","15:28:57","25","75","3","9","10","40","30","120","58","20","[""Asian""]","No","Female","1993765","null","null","","","","fixation","","","","","","","","","","","","","","","","","","","","","","","","","",""
"","","","","","canvas-keyboard-response","283","260801","0.0-12.0-1.54","2d_cat_multi_stim_exp1","2022-4-25","15:28:57","25","75","3","9","10","40","30","120","58","20","[""Asian""]","No","Female","1993765","null","null","","","","clear_screen","","","","","","","","","","","","","","","","","","","","","","","","","",""
"","","","","","canvas-keyboard-response","284","261557","0.0-12.0-2.54","2d_cat_multi_stim_exp1","2022-4-25","15:28:57","25","75","3","9","10","40","30","120","58","20","[""Asian""]","No","Female","1993765","746","u","learn","","","learn_trial","25","75","in","1","1","","","","","","","","","","","","","","","","","","","","",""
"","","","","","canvas-keyboard-response","285","262069","0.0-12.0-3.54","2d_cat_multi_stim_exp1","2022-4-25","15:28:57","25","75","3","9","10","40","30","120","58","20","[""Asian""]","No","Female","1993765","null","null","learn_feedback","","","learn_feedback","25","75","in","","","","","","","","","","","","","","","","","","","","","","",""
"","","","","","canvas-keyboard-response","286","262128","0.0-12.0-4.54","2d_cat_multi_stim_exp1","2022-4-25","15:28:57","25","75","3","9","10","40","30","120","58","20","[""Asian""]","No","Female","1993765","null","null","","","","clear_screen","","","","","","","","","","","","","","","","","","","","","","","","","",""
"","","","","","canvas-keyboard-response","287","262637","0.0-12.0-0.55","2d_cat_multi_stim_exp1","2022-4-25","15:28:57","25","75","3","9","10","40","30","120","58","20","[""Asian""]","No","Female","1993765","null","null","","","","fixation","","","","","","","","","","","","","","","","","","","","","","","","","",""
"","","","","","canvas-keyboard-response","288","263146","0.0-12.0-1.55","2d_cat_multi_stim_exp1","2022-4-25","15:28:57","25","75","3","9","10","40","30","120","58","20","[""Asian""]","No","Female","1993765","null","null","","","","clear_screen","","","","","","","","","","","","","","","","","","","","","","","","","",""
"","","","","","canvas-keyboard-response","289","263854","0.0-12.0-2.55","2d_cat_multi_stim_exp1","2022-4-25","15:28:57","25","75","3","9","10","40","30","120","58","20","[""Asian""]","No","Female","1993765","698","u","learn","","","learn_trial","23.3473","82.5112","in","1","1","","","","","","","","","","","","","","","","","","","","",""
"","","","","","canvas-keyboard-response","290","264364","0.0-12.0-3.55","2d_cat_multi_stim_exp1","2022-4-25","15:28:57","25","75","3","9","10","40","30","120","58","20","[""Asian""]","No","Female","1993765","null","null","learn_feedback","","","learn_feedback","23.3473","82.5112","in","","","","","","","","","","","","","","","","","","","","","","",""
"","","","","","canvas-keyboard-response","291","264423","0.0-12.0-4.55","2d_cat_multi_stim_exp1","2022-4-25","15:28:57","25","75","3","9","10","40","30","120","58","20","[""Asian""]","No","Female","1993765","null","null","","","","clear_screen","","","","","","","","","","","","","","","","","","","","","","","","","",""
"","","","","","canvas-keyboard-response","292","264932","0.0-12.0-0.56","2d_cat_multi_stim_exp1","2022-4-25","15:28:57","25","75","3","9","10","40","30","120","58","20","[""Asian""]","No","Female","1993765","null","null","","","","fixation","","","","","","","","","","","","","","","","","","","","","","","","","",""
"","","","","","canvas-keyboard-response","293","265441","0.0-12.0-1.56","2d_cat_multi_stim_exp1","2022-4-25","15:28:57","25","75","3","9","10","40","30","120","58","20","[""Asian""]","No","Female","1993765","null","null","","","","clear_screen","","","","","","","","","","","","","","","","","","","","","","","","","",""
"","","","","","canvas-keyboard-response","294","266174","0.0-12.0-2.56","2d_cat_multi_stim_exp1","2022-4-25","15:28:57","25","75","3","9","10","40","30","120","58","20","[""Asian""]","No","Female","1993765","723","u","learn","","","learn_trial","25","75","in","1","1","","","","","","","","","","","","","","","","","","","","",""
"","","","","","canvas-keyboard-response","295","266685","0.0-12.0-3.56","2d_cat_multi_stim_exp1","2022-4-25","15:28:57","25","75","3","9","10","40","30","120","58","20","[""Asian""]","No","Female","1993765","null","null","learn_feedback","","","learn_feedback","25","75","in","","","","","","","","","","","","","","","","","","","","","","",""
"","","","","","canvas-keyboard-response","296","266749","0.0-12.0-4.56","2d_cat_multi_stim_exp1","2022-4-25","15:28:57","25","75","3","9","10","40","30","120","58","20","[""Asian""]","No","Female","1993765","null","null","","","","clear_screen","","","","","","","","","","","","","","","","","","","","","","","","","",""
