"success","timeout","failed_images","failed_audio","failed_video","trial_type","trial_index","time_elapsed","internal_node_id","exp_name","date","time","angle_mean_in","radius_mean_in","angle_sd_in","radius_sd_in","angle_min_out","angle_max_out","radius_min_out","radius_max_out","sub_n","age","race","ethnicity","gender","exp_duration","rt","response","exp_trial_type","stimulus","view_history","screen_id","angle","radius","distribution","choice","correct","order","angle_a","radius_a","angle_b","radius_b","jkl_correct","transfer_trial_type","choice_set","abc_correct","tc_correct","tc_angle","tdc_a","tdc_b","tdc_c","pair","category_a","category_b","category_c","angle_c","radius_c","question_order"
"true","false","[]","[]","[]","preload","0","12","0.0-0.0","2d_cat_multi_stim_exp1","2022-4-12","15:26:44","25","75","3","9","10","40","30","120","30","23","[""White""]","Yes","Female","2214993","","","","","","","","","","","","","","","","","","","","","","","","","","","","","","","",""
"","","","","","survey-html-form","1","3429","0.0-1.0","2d_cat_multi_stim_exp1","2022-4-12","15:26:44","25","75","3","9","10","40","30","120","30","23","[""White""]","Yes","Female","2214993","3404","{""response"":""30""}","enter-sub-number","","","","","","","","","","","","","","","","","","","","","","","","","","","","",""
"true","","","","","fullscreen","2","6543","0.0-2.0","2d_cat_multi_stim_exp1","2022-4-12","15:26:44","25","75","3","9","10","40","30","120","30","23","[""White""]","Yes","Female","2214993","","","","","","","","","","","","","","","","","","","","","","","","","","","","","","","",""
"","","","","","image-button-response","3","505096","0.0-3.0","2d_cat_multi_stim_exp1","2022-4-12","15:26:44","25","75","3","9","10","40","30","120","30","23","[""White""]","Yes","Female","2214993","498545","0","","consent.png","","","","","","","","","","","","","","","","","","","","","","","","","","","",""
"","","","","","html-button-response","4","513687","0.0-4.0","2d_cat_multi_stim_exp1","2022-4-12","15:26:44","25","75","3","9","10","40","30","120","30","23","[""White""]","Yes","Female","2214993","8584","0","","<div style= ""font-size:25px;"" <p> <strong> Welcome to the experiment! </strong><br> <p style=""color:#8B0000; font-size:25px;""><strong> Please do NOT exit full screen until you are done with the experiment. </strong> </p><p style=""font-size:25px;color:#8B0000;""> <strong> The experiment will be canceled and your data will be lost <br> if you try to go back or refresh the page at any point during the experiment.</strong> </p><br><p> <strong> Thanks in advance for your contribution to our research! </strong></p>","","","","","","","","","","","","","","","","","","","","","","","","","","","",""
"","","","","","instructions","5","528230","0.0-5.0","2d_cat_multi_stim_exp1","2022-4-12","15:26:44","25","75","3","9","10","40","30","120","30","23","[""White""]","Yes","Female","2214993","14537","","","","[{""page_index"":0,""viewing_time"":3393},{""page_index"":1,""viewing_time"":1873},{""page_index"":2,""viewing_time"":2751},{""page_index"":3,""viewing_time"":6520}]","instructions_1","","","","","","","","","","","","","","","","","","","","","","","","","",""
"","","","","","instructions","6","529503","0.0-6.0","2d_cat_multi_stim_exp1","2022-4-12","15:26:44","25","75","3","9","10","40","30","120","30","23","[""White""]","Yes","Female","2214993","1269","","","","[{""page_index"":0,""viewing_time"":1269}]","Click to see the kinds of turtles that will appear in the study.","","","","","","","","","","","","","","","","","","","","","","","","","",""
"","","","","","canvas-keyboard-response","7","544520","0.0-7.0","2d_cat_multi_stim_exp1","2022-4-12","15:26:44","25","75","3","9","10","40","30","120","30","23","[""White""]","Yes","Female","2214993","null","null","","","","demo_range","","","","","","","","","","","","","","","","","","","","","","","","","",""
"","","","","","instructions","8","550103","0.0-8.0","2d_cat_multi_stim_exp1","2022-4-12","15:26:44","25","75","3","9","10","40","30","120","30","23","[""White""]","Yes","Female","2214993","5080","","","","[{""page_index"":0,""viewing_time"":5080}]","Click to see some turtles in the subspecies.","","","","","","","","","","","","","","","","","","","","","","","","","",""
"","","","","","canvas-keyboard-response","9","565118","0.0-9.0","2d_cat_multi_stim_exp1","2022-4-12","15:26:44","25","75","3","9","10","40","30","120","30","23","[""White""]","Yes","Female","2214993","null","null","","","","demo_in","","","","","","","","","","","","","","","","","","","","","","","","","",""
"","","","","","instructions","10","585662","0.0-10.0","2d_cat_multi_stim_exp1","2022-4-12","15:26:44","25","75","3","9","10","40","30","120","30","23","[""White""]","Yes","Female","2214993","20043","","","","[{""page_index"":0,""viewing_time"":8443},{""page_index"":1,""viewing_time"":10104},{""page_index"":2,""viewing_time"":1496}]","instructions_2","","","","","","","","","","","","","","","","","","","","","","","","","",""
"","","","","","instructions","11","587006","0.0-11.0","2d_cat_multi_stim_exp1","2022-4-12","15:26:44","25","75","3","9","10","40","30","120","30","23","[""White""]","Yes","Female","2214993","1341","","","","[{""page_index"":0,""viewing_time"":1341}]","Click to begin the first phase of the experiment.","","","","","","","","","","","","","","","","","","","","","","","","","",""
"","","","","","canvas-keyboard-response","12","587514","0.0-12.0-0.0","2d_cat_multi_stim_exp1","2022-4-12","15:26:44","25","75","3","9","10","40","30","120","30","23","[""White""]","Yes","Female","2214993","null","null","","","","fixation","","","","","","","","","","","","","","","","","","","","","","","","","",""
"","","","","","canvas-keyboard-response","13","588025","0.0-12.0-1.0","2d_cat_multi_stim_exp1","2022-4-12","15:26:44","25","75","3","9","10","40","30","120","30","23","[""White""]","Yes","Female","2214993","null","null","","","","clear_screen","","","","","","","","","","","","","","","","","","","","","","","","","",""
"","","","","","canvas-keyboard-response","14","591215","0.0-12.0-2.0","2d_cat_multi_stim_exp1","2022-4-12","15:26:44","25","75","3","9","10","40","30","120","30","23","[""White""]","Yes","Female","2214993","3179","i","learn","","","learn_trial","16.6667","60","out","0","1","","","","","","","","","","","","","","","","","","","","",""
"","","","","","canvas-keyboard-response","15","591729","0.0-12.0-3.0","2d_cat_multi_stim_exp1","2022-4-12","15:26:44","25","75","3","9","10","40","30","120","30","23","[""White""]","Yes","Female","2214993","null","null","learn_feedback","","","learn_feedback","16.6667","60","out","","","","","","","","","","","","","","","","","","","","","","",""
"","","","","","canvas-keyboard-response","16","591790","0.0-12.0-4.0","2d_cat_multi_stim_exp1","2022-4-12","15:26:44","25","75","3","9","10","40","30","120","30","23","[""White""]","Yes","Female","2214993","null","null","","","","clear_screen","","","","","","","","","","","","","","","","","","","","","","","","","",""
"","","","","","canvas-keyboard-response","17","592300","0.0-12.0-0.1","2d_cat_multi_stim_exp1","2022-4-12","15:26:44","25","75","3","9","10","40","30","120","30","23","[""White""]","Yes","Female","2214993","null","null","","","","fixation","","","","","","","","","","","","","","","","","","","","","","","","","",""
"","","","","","canvas-keyboard-response","18","592815","0.0-12.0-1.1","2d_cat_multi_stim_exp1","2022-4-12","15:26:44","25","75","3","9","10","40","30","120","30","23","[""White""]","Yes","Female","2214993","null","null","","","","clear_screen","","","","","","","","","","","","","","","","","","","","","","","","","",""
"","","","","","canvas-keyboard-response","19","594086","0.0-12.0-2.1","2d_cat_multi_stim_exp1","2022-4-12","15:26:44","25","75","3","9","10","40","30","120","30","23","[""White""]","Yes","Female","2214993","1261","u","learn","","","learn_trial","25","75","in","1","1","","","","","","","","","","","","","","","","","","","","",""
"","","","","","canvas-keyboard-response","20","594599","0.0-12.0-3.1","2d_cat_multi_stim_exp1","2022-4-12","15:26:44","25","75","3","9","10","40","30","120","30","23","[""White""]","Yes","Female","2214993","null","null","learn_feedback","","","learn_feedback","25","75","in","","","","","","","","","","","","","","","","","","","","","","",""
"","","","","","canvas-keyboard-response","21","594662","0.0-12.0-4.1","2d_cat_multi_stim_exp1","2022-4-12","15:26:44","25","75","3","9","10","40","30","120","30","23","[""White""]","Yes","Female","2214993","null","null","","","","clear_screen","","","","","","","","","","","","","","","","","","","","","","","","","",""
"","","","","","canvas-keyboard-response","22","595171","0.0-12.0-0.2","2d_cat_multi_stim_exp1","2022-4-12","15:26:44","25","75","3","9","10","40","30","120","30","23","[""White""]","Yes","Female","2214993","null","null","","","","fixation","","","","","","","","","","","","","","","","","","","","","","","","","",""
"","","","","","canvas-keyboard-response","23","595682","0.0-12.0-1.2","2d_cat_multi_stim_exp1","2022-4-12","15:26:44","25","75","3","9","10","40","30","120","30","23","[""White""]","Yes","Female","2214993","null","null","","","","clear_screen","","","","","","","","","","","","","","","","","","","","","","","","","",""
"","","","","","canvas-keyboard-response","24","596783","0.0-12.0-2.2","2d_cat_multi_stim_exp1","2022-4-12","15:26:44","25","75","3","9","10","40","30","120","30","23","[""White""]","Yes","Female","2214993","1091","u","learn","","","learn_trial","25","75","in","1","1","","","","","","","","","","","","","","","","","","","","",""
"","","","","","canvas-keyboard-response","25","597293","0.0-12.0-3.2","2d_cat_multi_stim_exp1","2022-4-12","15:26:44","25","75","3","9","10","40","30","120","30","23","[""White""]","Yes","Female","2214993","null","null","learn_feedback","","","learn_feedback","25","75","in","","","","","","","","","","","","","","","","","","","","","","",""
"","","","","","canvas-keyboard-response","26","597355","0.0-12.0-4.2","2d_cat_multi_stim_exp1","2022-4-12","15:26:44","25","75","3","9","10","40","30","120","30","23","[""White""]","Yes","Female","2214993","null","null","","","","clear_screen","","","","","","","","","","","","","","","","","","","","","","","","","",""
"","","","","","canvas-keyboard-response","27","597866","0.0-12.0-0.3","2d_cat_multi_stim_exp1","2022-4-12","15:26:44","25","75","3","9","10","40","30","120","30","23","[""White""]","Yes","Female","2214993","null","null","","","","fixation","","","","","","","","","","","","","","","","","","","","","","","","","",""
"","","","","","canvas-keyboard-response","28","598376","0.0-12.0-1.3","2d_cat_multi_stim_exp1","2022-4-12","15:26:44","25","75","3","9","10","40","30","120","30","23","[""White""]","Yes","Female","2214993","null","null","","","","clear_screen","","","","","","","","","","","","","","","","","","","","","","","","","",""
"","","","","","canvas-keyboard-response","29","599502","0.0-12.0-2.3","2d_cat_multi_stim_exp1","2022-4-12","15:26:44","25","75","3","9","10","40","30","120","30","23","[""White""]","Yes","Female","2214993","1117","u","learn","","","learn_trial","25","75","in","1","1","","","","","","","","","","","","","","","","","","","","",""
"","","","","","canvas-keyboard-response","30","600014","0.0-12.0-3.3","2d_cat_multi_stim_exp1","2022-4-12","15:26:44","25","75","3","9","10","40","30","120","30","23","[""White""]","Yes","Female","2214993","null","null","learn_feedback","","","learn_feedback","25","75","in","","","","","","","","","","","","","","","","","","","","","","",""
"","","","","","canvas-keyboard-response","31","600073","0.0-12.0-4.3","2d_cat_multi_stim_exp1","2022-4-12","15:26:44","25","75","3","9","10","40","30","120","30","23","[""White""]","Yes","Female","2214993","null","null","","","","clear_screen","","","","","","","","","","","","","","","","","","","","","","","","","",""
"","","","","","canvas-keyboard-response","32","600583","0.0-12.0-0.4","2d_cat_multi_stim_exp1","2022-4-12","15:26:44","25","75","3","9","10","40","30","120","30","23","[""White""]","Yes","Female","2214993","null","null","","","","fixation","","","","","","","","","","","","","","","","","","","","","","","","","",""
"","","","","","canvas-keyboard-response","33","601092","0.0-12.0-1.4","2d_cat_multi_stim_exp1","2022-4-12","15:26:44","25","75","3","9","10","40","30","120","30","23","[""White""]","Yes","Female","2214993","null","null","","","","clear_screen","","","","","","","","","","","","","","","","","","","","","","","","","",""
"","","","","","canvas-keyboard-response","34","603053","0.0-12.0-2.4","2d_cat_multi_stim_exp1","2022-4-12","15:26:44","25","75","3","9","10","40","30","120","30","23","[""White""]","Yes","Female","2214993","1950","u","learn","","","learn_trial","20","110","out","1","0","","","","","","","","","","","","","","","","","","","","",""
"","","","","","canvas-keyboard-response","35","604063","0.0-12.0-3.4","2d_cat_multi_stim_exp1","2022-4-12","15:26:44","25","75","3","9","10","40","30","120","30","23","[""White""]","Yes","Female","2214993","null","null","learn_feedback","","","learn_feedback","20","110","out","","","","","","","","","","","","","","","","","","","","","","",""
"","","","","","canvas-keyboard-response","36","604122","0.0-12.0-4.4","2d_cat_multi_stim_exp1","2022-4-12","15:26:44","25","75","3","9","10","40","30","120","30","23","[""White""]","Yes","Female","2214993","null","null","","","","clear_screen","","","","","","","","","","","","","","","","","","","","","","","","","",""
"","","","","","canvas-keyboard-response","37","604631","0.0-12.0-0.5","2d_cat_multi_stim_exp1","2022-4-12","15:26:44","25","75","3","9","10","40","30","120","30","23","[""White""]","Yes","Female","2214993","null","null","","","","fixation","","","","","","","","","","","","","","","","","","","","","","","","","",""
"","","","","","canvas-keyboard-response","38","605140","0.0-12.0-1.5","2d_cat_multi_stim_exp1","2022-4-12","15:26:44","25","75","3","9","10","40","30","120","30","23","[""White""]","Yes","Female","2214993","null","null","","","","clear_screen","","","","","","","","","","","","","","","","","","","","","","","","","",""
"","","","","","canvas-keyboard-response","39","606102","0.0-12.0-2.5","2d_cat_multi_stim_exp1","2022-4-12","15:26:44","25","75","3","9","10","40","30","120","30","23","[""White""]","Yes","Female","2214993","953","u","learn","","","learn_trial","25.9271","66.4405","in","1","1","","","","","","","","","","","","","","","","","","","","",""
"","","","","","canvas-keyboard-response","40","606611","0.0-12.0-3.5","2d_cat_multi_stim_exp1","2022-4-12","15:26:44","25","75","3","9","10","40","30","120","30","23","[""White""]","Yes","Female","2214993","null","null","learn_feedback","","","learn_feedback","25.9271","66.4405","in","","","","","","","","","","","","","","","","","","","","","","",""
"","","","","","canvas-keyboard-response","41","606672","0.0-12.0-4.5","2d_cat_multi_stim_exp1","2022-4-12","15:26:44","25","75","3","9","10","40","30","120","30","23","[""White""]","Yes","Female","2214993","null","null","","","","clear_screen","","","","","","","","","","","","","","","","","","","","","","","","","",""
"","","","","","canvas-keyboard-response","42","607179","0.0-12.0-0.6","2d_cat_multi_stim_exp1","2022-4-12","15:26:44","25","75","3","9","10","40","30","120","30","23","[""White""]","Yes","Female","2214993","null","null","","","","fixation","","","","","","","","","","","","","","","","","","","","","","","","","",""
"","","","","","canvas-keyboard-response","43","607690","0.0-12.0-1.6","2d_cat_multi_stim_exp1","2022-4-12","15:26:44","25","75","3","9","10","40","30","120","30","23","[""White""]","Yes","Female","2214993","null","null","","","","clear_screen","","","","","","","","","","","","","","","","","","","","","","","","","",""
"","","","","","canvas-keyboard-response","44","609070","0.0-12.0-2.6","2d_cat_multi_stim_exp1","2022-4-12","15:26:44","25","75","3","9","10","40","30","120","30","23","[""White""]","Yes","Female","2214993","1371","i","learn","","","learn_trial","27.9518","76.607","in","0","0","","","","","","","","","","","","","","","","","","","","",""
"","","","","","canvas-keyboard-response","45","610082","0.0-12.0-3.6","2d_cat_multi_stim_exp1","2022-4-12","15:26:44","25","75","3","9","10","40","30","120","30","23","[""White""]","Yes","Female","2214993","null","null","learn_feedback","","","learn_feedback","27.9518","76.607","in","","","","","","","","","","","","","","","","","","","","","","",""
"","","","","","canvas-keyboard-response","46","610144","0.0-12.0-4.6","2d_cat_multi_stim_exp1","2022-4-12","15:26:44","25","75","3","9","10","40","30","120","30","23","[""White""]","Yes","Female","2214993","null","null","","","","clear_screen","","","","","","","","","","","","","","","","","","","","","","","","","",""
"","","","","","canvas-keyboard-response","47","610655","0.0-12.0-0.7","2d_cat_multi_stim_exp1","2022-4-12","15:26:44","25","75","3","9","10","40","30","120","30","23","[""White""]","Yes","Female","2214993","null","null","","","","fixation","","","","","","","","","","","","","","","","","","","","","","","","","",""
"","","","","","canvas-keyboard-response","48","611165","0.0-12.0-1.7","2d_cat_multi_stim_exp1","2022-4-12","15:26:44","25","75","3","9","10","40","30","120","30","23","[""White""]","Yes","Female","2214993","null","null","","","","clear_screen","","","","","","","","","","","","","","","","","","","","","","","","","",""
"","","","","","canvas-keyboard-response","49","611957","0.0-12.0-2.7","2d_cat_multi_stim_exp1","2022-4-12","15:26:44","25","75","3","9","10","40","30","120","30","23","[""White""]","Yes","Female","2214993","782","u","learn","","","learn_trial","33.3333","110","out","1","0","","","","","","","","","","","","","","","","","","","","",""
"","","","","","canvas-keyboard-response","50","612971","0.0-12.0-3.7","2d_cat_multi_stim_exp1","2022-4-12","15:26:44","25","75","3","9","10","40","30","120","30","23","[""White""]","Yes","Female","2214993","null","null","learn_feedback","","","learn_feedback","33.3333","110","out","","","","","","","","","","","","","","","","","","","","","","",""
"","","","","","canvas-keyboard-response","51","613033","0.0-12.0-4.7","2d_cat_multi_stim_exp1","2022-4-12","15:26:44","25","75","3","9","10","40","30","120","30","23","[""White""]","Yes","Female","2214993","null","null","","","","clear_screen","","","","","","","","","","","","","","","","","","","","","","","","","",""
"","","","","","canvas-keyboard-response","52","613543","0.0-12.0-0.8","2d_cat_multi_stim_exp1","2022-4-12","15:26:44","25","75","3","9","10","40","30","120","30","23","[""White""]","Yes","Female","2214993","null","null","","","","fixation","","","","","","","","","","","","","","","","","","","","","","","","","",""
"","","","","","canvas-keyboard-response","53","614055","0.0-12.0-1.8","2d_cat_multi_stim_exp1","2022-4-12","15:26:44","25","75","3","9","10","40","30","120","30","23","[""White""]","Yes","Female","2214993","null","null","","","","clear_screen","","","","","","","","","","","","","","","","","","","","","","","","","",""
"","","","","","canvas-keyboard-response","54","615462","0.0-12.0-2.8","2d_cat_multi_stim_exp1","2022-4-12","15:26:44","25","75","3","9","10","40","30","120","30","23","[""White""]","Yes","Female","2214993","1398","u","learn","","","learn_trial","36.6667","100","out","1","0","","","","","","","","","","","","","","","","","","","","",""
"","","","","","canvas-keyboard-response","55","616474","0.0-12.0-3.8","2d_cat_multi_stim_exp1","2022-4-12","15:26:44","25","75","3","9","10","40","30","120","30","23","[""White""]","Yes","Female","2214993","null","null","learn_feedback","","","learn_feedback","36.6667","100","out","","","","","","","","","","","","","","","","","","","","","","",""
"","","","","","canvas-keyboard-response","56","616535","0.0-12.0-4.8","2d_cat_multi_stim_exp1","2022-4-12","15:26:44","25","75","3","9","10","40","30","120","30","23","[""White""]","Yes","Female","2214993","null","null","","","","clear_screen","","","","","","","","","","","","","","","","","","","","","","","","","",""
"","","","","","canvas-keyboard-response","57","617043","0.0-12.0-0.9","2d_cat_multi_stim_exp1","2022-4-12","15:26:44","25","75","3","9","10","40","30","120","30","23","[""White""]","Yes","Female","2214993","null","null","","","","fixation","","","","","","","","","","","","","","","","","","","","","","","","","",""
"","","","","","canvas-keyboard-response","58","617556","0.0-12.0-1.9","2d_cat_multi_stim_exp1","2022-4-12","15:26:44","25","75","3","9","10","40","30","120","30","23","[""White""]","Yes","Female","2214993","null","null","","","","clear_screen","","","","","","","","","","","","","","","","","","","","","","","","","",""
"","","","","","canvas-keyboard-response","59","618799","0.0-12.0-2.9","2d_cat_multi_stim_exp1","2022-4-12","15:26:44","25","75","3","9","10","40","30","120","30","23","[""White""]","Yes","Female","2214993","1234","i","learn","","","learn_trial","36.6667","110","out","0","1","","","","","","","","","","","","","","","","","","","","",""
"","","","","","canvas-keyboard-response","60","619308","0.0-12.0-3.9","2d_cat_multi_stim_exp1","2022-4-12","15:26:44","25","75","3","9","10","40","30","120","30","23","[""White""]","Yes","Female","2214993","null","null","learn_feedback","","","learn_feedback","36.6667","110","out","","","","","","","","","","","","","","","","","","","","","","",""
"","","","","","canvas-keyboard-response","61","619366","0.0-12.0-4.9","2d_cat_multi_stim_exp1","2022-4-12","15:26:44","25","75","3","9","10","40","30","120","30","23","[""White""]","Yes","Female","2214993","null","null","","","","clear_screen","","","","","","","","","","","","","","","","","","","","","","","","","",""
"","","","","","canvas-keyboard-response","62","619875","0.0-12.0-0.10","2d_cat_multi_stim_exp1","2022-4-12","15:26:44","25","75","3","9","10","40","30","120","30","23","[""White""]","Yes","Female","2214993","null","null","","","","fixation","","","","","","","","","","","","","","","","","","","","","","","","","",""
"","","","","","canvas-keyboard-response","63","620385","0.0-12.0-1.10","2d_cat_multi_stim_exp1","2022-4-12","15:26:44","25","75","3","9","10","40","30","120","30","23","[""White""]","Yes","Female","2214993","null","null","","","","clear_screen","","","","","","","","","","","","","","","","","","","","","","","","","",""
"","","","","","canvas-keyboard-response","64","621510","0.0-12.0-2.10","2d_cat_multi_stim_exp1","2022-4-12","15:26:44","25","75","3","9","10","40","30","120","30","23","[""White""]","Yes","Female","2214993","1116","u","learn","","","learn_trial","23.3333","90","out","1","0","","","","","","","","","","","","","","","","","","","","",""
"","","","","","canvas-keyboard-response","65","622519","0.0-12.0-3.10","2d_cat_multi_stim_exp1","2022-4-12","15:26:44","25","75","3","9","10","40","30","120","30","23","[""White""]","Yes","Female","2214993","null","null","learn_feedback","","","learn_feedback","23.3333","90","out","","","","","","","","","","","","","","","","","","","","","","",""
"","","","","","canvas-keyboard-response","66","622579","0.0-12.0-4.10","2d_cat_multi_stim_exp1","2022-4-12","15:26:44","25","75","3","9","10","40","30","120","30","23","[""White""]","Yes","Female","2214993","null","null","","","","clear_screen","","","","","","","","","","","","","","","","","","","","","","","","","",""
"","","","","","canvas-keyboard-response","67","623088","0.0-12.0-0.11","2d_cat_multi_stim_exp1","2022-4-12","15:26:44","25","75","3","9","10","40","30","120","30","23","[""White""]","Yes","Female","2214993","null","null","","","","fixation","","","","","","","","","","","","","","","","","","","","","","","","","",""
"","","","","","canvas-keyboard-response","68","623601","0.0-12.0-1.11","2d_cat_multi_stim_exp1","2022-4-12","15:26:44","25","75","3","9","10","40","30","120","30","23","[""White""]","Yes","Female","2214993","null","null","","","","clear_screen","","","","","","","","","","","","","","","","","","","","","","","","","",""
"","","","","","canvas-keyboard-response","69","624062","0.0-12.0-2.11","2d_cat_multi_stim_exp1","2022-4-12","15:26:44","25","75","3","9","10","40","30","120","30","23","[""White""]","Yes","Female","2214993","453","i","learn","","","learn_trial","16.6667","120","out","0","1","","","","","","","","","","","","","","","","","","","","",""
"","","","","","canvas-keyboard-response","70","624574","0.0-12.0-3.11","2d_cat_multi_stim_exp1","2022-4-12","15:26:44","25","75","3","9","10","40","30","120","30","23","[""White""]","Yes","Female","2214993","null","null","learn_feedback","","","learn_feedback","16.6667","120","out","","","","","","","","","","","","","","","","","","","","","","",""
"","","","","","canvas-keyboard-response","71","624634","0.0-12.0-4.11","2d_cat_multi_stim_exp1","2022-4-12","15:26:44","25","75","3","9","10","40","30","120","30","23","[""White""]","Yes","Female","2214993","null","null","","","","clear_screen","","","","","","","","","","","","","","","","","","","","","","","","","",""
"","","","","","canvas-keyboard-response","72","625143","0.0-12.0-0.12","2d_cat_multi_stim_exp1","2022-4-12","15:26:44","25","75","3","9","10","40","30","120","30","23","[""White""]","Yes","Female","2214993","null","null","","","","fixation","","","","","","","","","","","","","","","","","","","","","","","","","",""
"","","","","","canvas-keyboard-response","73","625652","0.0-12.0-1.12","2d_cat_multi_stim_exp1","2022-4-12","15:26:44","25","75","3","9","10","40","30","120","30","23","[""White""]","Yes","Female","2214993","null","null","","","","clear_screen","","","","","","","","","","","","","","","","","","","","","","","","","",""
"","","","","","canvas-keyboard-response","74","627110","0.0-12.0-2.12","2d_cat_multi_stim_exp1","2022-4-12","15:26:44","25","75","3","9","10","40","30","120","30","23","[""White""]","Yes","Female","2214993","1446","i","learn","","","learn_trial","30","40","out","0","1","","","","","","","","","","","","","","","","","","","","",""
"","","","","","canvas-keyboard-response","75","627622","0.0-12.0-3.12","2d_cat_multi_stim_exp1","2022-4-12","15:26:44","25","75","3","9","10","40","30","120","30","23","[""White""]","Yes","Female","2214993","null","null","learn_feedback","","","learn_feedback","30","40","out","","","","","","","","","","","","","","","","","","","","","","",""
"","","","","","canvas-keyboard-response","76","627683","0.0-12.0-4.12","2d_cat_multi_stim_exp1","2022-4-12","15:26:44","25","75","3","9","10","40","30","120","30","23","[""White""]","Yes","Female","2214993","null","null","","","","clear_screen","","","","","","","","","","","","","","","","","","","","","","","","","",""
"","","","","","canvas-keyboard-response","77","628196","0.0-12.0-0.13","2d_cat_multi_stim_exp1","2022-4-12","15:26:44","25","75","3","9","10","40","30","120","30","23","[""White""]","Yes","Female","2214993","null","null","","","","fixation","","","","","","","","","","","","","","","","","","","","","","","","","",""
"","","","","","canvas-keyboard-response","78","628710","0.0-12.0-1.13","2d_cat_multi_stim_exp1","2022-4-12","15:26:44","25","75","3","9","10","40","30","120","30","23","[""White""]","Yes","Female","2214993","null","null","","","","clear_screen","","","","","","","","","","","","","","","","","","","","","","","","","",""
"","","","","","canvas-keyboard-response","79","629814","0.0-12.0-2.13","2d_cat_multi_stim_exp1","2022-4-12","15:26:44","25","75","3","9","10","40","30","120","30","23","[""White""]","Yes","Female","2214993","1096","i","learn","","","learn_trial","27.5753","79.6161","in","0","0","","","","","","","","","","","","","","","","","","","","",""
"","","","","","canvas-keyboard-response","80","630823","0.0-12.0-3.13","2d_cat_multi_stim_exp1","2022-4-12","15:26:44","25","75","3","9","10","40","30","120","30","23","[""White""]","Yes","Female","2214993","null","null","learn_feedback","","","learn_feedback","27.5753","79.6161","in","","","","","","","","","","","","","","","","","","","","","","",""
"","","","","","canvas-keyboard-response","81","630882","0.0-12.0-4.13","2d_cat_multi_stim_exp1","2022-4-12","15:26:44","25","75","3","9","10","40","30","120","30","23","[""White""]","Yes","Female","2214993","null","null","","","","clear_screen","","","","","","","","","","","","","","","","","","","","","","","","","",""
"","","","","","canvas-keyboard-response","82","631391","0.0-12.0-0.14","2d_cat_multi_stim_exp1","2022-4-12","15:26:44","25","75","3","9","10","40","30","120","30","23","[""White""]","Yes","Female","2214993","null","null","","","","fixation","","","","","","","","","","","","","","","","","","","","","","","","","",""
"","","","","","canvas-keyboard-response","83","631904","0.0-12.0-1.14","2d_cat_multi_stim_exp1","2022-4-12","15:26:44","25","75","3","9","10","40","30","120","30","23","[""White""]","Yes","Female","2214993","null","null","","","","clear_screen","","","","","","","","","","","","","","","","","","","","","","","","","",""
"","","","","","canvas-keyboard-response","84","632799","0.0-12.0-2.14","2d_cat_multi_stim_exp1","2022-4-12","15:26:44","25","75","3","9","10","40","30","120","30","23","[""White""]","Yes","Female","2214993","883","u","learn","","","learn_trial","25","75","in","1","1","","","","","","","","","","","","","","","","","","","","",""
"","","","","","canvas-keyboard-response","85","633309","0.0-12.0-3.14","2d_cat_multi_stim_exp1","2022-4-12","15:26:44","25","75","3","9","10","40","30","120","30","23","[""White""]","Yes","Female","2214993","null","null","learn_feedback","","","learn_feedback","25","75","in","","","","","","","","","","","","","","","","","","","","","","",""
"","","","","","canvas-keyboard-response","86","633372","0.0-12.0-4.14","2d_cat_multi_stim_exp1","2022-4-12","15:26:44","25","75","3","9","10","40","30","120","30","23","[""White""]","Yes","Female","2214993","null","null","","","","clear_screen","","","","","","","","","","","","","","","","","","","","","","","","","",""
"","","","","","canvas-keyboard-response","87","633882","0.0-12.0-0.15","2d_cat_multi_stim_exp1","2022-4-12","15:26:44","25","75","3","9","10","40","30","120","30","23","[""White""]","Yes","Female","2214993","null","null","","","","fixation","","","","","","","","","","","","","","","","","","","","","","","","","",""
"","","","","","canvas-keyboard-response","88","634392","0.0-12.0-1.15","2d_cat_multi_stim_exp1","2022-4-12","15:26:44","25","75","3","9","10","40","30","120","30","23","[""White""]","Yes","Female","2214993","null","null","","","","clear_screen","","","","","","","","","","","","","","","","","","","","","","","","","",""
"","","","","","canvas-keyboard-response","89","635381","0.0-12.0-2.15","2d_cat_multi_stim_exp1","2022-4-12","15:26:44","25","75","3","9","10","40","30","120","30","23","[""White""]","Yes","Female","2214993","981","u","learn","","","learn_trial","25","75","in","1","1","","","","","","","","","","","","","","","","","","","","",""
"","","","","","canvas-keyboard-response","90","635892","0.0-12.0-3.15","2d_cat_multi_stim_exp1","2022-4-12","15:26:44","25","75","3","9","10","40","30","120","30","23","[""White""]","Yes","Female","2214993","null","null","learn_feedback","","","learn_feedback","25","75","in","","","","","","","","","","","","","","","","","","","","","","",""
"","","","","","canvas-keyboard-response","91","635954","0.0-12.0-4.15","2d_cat_multi_stim_exp1","2022-4-12","15:26:44","25","75","3","9","10","40","30","120","30","23","[""White""]","Yes","Female","2214993","null","null","","","","clear_screen","","","","","","","","","","","","","","","","","","","","","","","","","",""
"","","","","","canvas-keyboard-response","92","636463","0.0-12.0-0.16","2d_cat_multi_stim_exp1","2022-4-12","15:26:44","25","75","3","9","10","40","30","120","30","23","[""White""]","Yes","Female","2214993","null","null","","","","fixation","","","","","","","","","","","","","","","","","","","","","","","","","",""
"","","","","","canvas-keyboard-response","93","636977","0.0-12.0-1.16","2d_cat_multi_stim_exp1","2022-4-12","15:26:44","25","75","3","9","10","40","30","120","30","23","[""White""]","Yes","Female","2214993","null","null","","","","clear_screen","","","","","","","","","","","","","","","","","","","","","","","","","",""
"","","","","","canvas-keyboard-response","94","638742","0.0-12.0-2.16","2d_cat_multi_stim_exp1","2022-4-12","15:26:44","25","75","3","9","10","40","30","120","30","23","[""White""]","Yes","Female","2214993","1757","i","learn","","","learn_trial","40","70","out","0","1","","","","","","","","","","","","","","","","","","","","",""
"","","","","","canvas-keyboard-response","95","639251","0.0-12.0-3.16","2d_cat_multi_stim_exp1","2022-4-12","15:26:44","25","75","3","9","10","40","30","120","30","23","[""White""]","Yes","Female","2214993","null","null","learn_feedback","","","learn_feedback","40","70","out","","","","","","","","","","","","","","","","","","","","","","",""
"","","","","","canvas-keyboard-response","96","639310","0.0-12.0-4.16","2d_cat_multi_stim_exp1","2022-4-12","15:26:44","25","75","3","9","10","40","30","120","30","23","[""White""]","Yes","Female","2214993","null","null","","","","clear_screen","","","","","","","","","","","","","","","","","","","","","","","","","",""
"","","","","","canvas-keyboard-response","97","639818","0.0-12.0-0.17","2d_cat_multi_stim_exp1","2022-4-12","15:26:44","25","75","3","9","10","40","30","120","30","23","[""White""]","Yes","Female","2214993","null","null","","","","fixation","","","","","","","","","","","","","","","","","","","","","","","","","",""
"","","","","","canvas-keyboard-response","98","640332","0.0-12.0-1.17","2d_cat_multi_stim_exp1","2022-4-12","15:26:44","25","75","3","9","10","40","30","120","30","23","[""White""]","Yes","Female","2214993","null","null","","","","clear_screen","","","","","","","","","","","","","","","","","","","","","","","","","",""
"","","","","","canvas-keyboard-response","99","641343","0.0-12.0-2.17","2d_cat_multi_stim_exp1","2022-4-12","15:26:44","25","75","3","9","10","40","30","120","30","23","[""White""]","Yes","Female","2214993","1001","u","learn","","","learn_trial","25","75","in","1","1","","","","","","","","","","","","","","","","","","","","",""
"","","","","","canvas-keyboard-response","100","641851","0.0-12.0-3.17","2d_cat_multi_stim_exp1","2022-4-12","15:26:44","25","75","3","9","10","40","30","120","30","23","[""White""]","Yes","Female","2214993","null","null","learn_feedback","","","learn_feedback","25","75","in","","","","","","","","","","","","","","","","","","","","","","",""
"","","","","","canvas-keyboard-response","101","641911","0.0-12.0-4.17","2d_cat_multi_stim_exp1","2022-4-12","15:26:44","25","75","3","9","10","40","30","120","30","23","[""White""]","Yes","Female","2214993","null","null","","","","clear_screen","","","","","","","","","","","","","","","","","","","","","","","","","",""
"","","","","","canvas-keyboard-response","102","642419","0.0-12.0-0.18","2d_cat_multi_stim_exp1","2022-4-12","15:26:44","25","75","3","9","10","40","30","120","30","23","[""White""]","Yes","Female","2214993","null","null","","","","fixation","","","","","","","","","","","","","","","","","","","","","","","","","",""
"","","","","","canvas-keyboard-response","103","642929","0.0-12.0-1.18","2d_cat_multi_stim_exp1","2022-4-12","15:26:44","25","75","3","9","10","40","30","120","30","23","[""White""]","Yes","Female","2214993","null","null","","","","clear_screen","","","","","","","","","","","","","","","","","","","","","","","","","",""
"","","","","","canvas-keyboard-response","104","643741","0.0-12.0-2.18","2d_cat_multi_stim_exp1","2022-4-12","15:26:44","25","75","3","9","10","40","30","120","30","23","[""White""]","Yes","Female","2214993","805","i","learn","","","learn_trial","36.6667","80","out","0","1","","","","","","","","","","","","","","","","","","","","",""
"","","","","","canvas-keyboard-response","105","644252","0.0-12.0-3.18","2d_cat_multi_stim_exp1","2022-4-12","15:26:44","25","75","3","9","10","40","30","120","30","23","[""White""]","Yes","Female","2214993","null","null","learn_feedback","","","learn_feedback","36.6667","80","out","","","","","","","","","","","","","","","","","","","","","","",""
"","","","","","canvas-keyboard-response","106","644310","0.0-12.0-4.18","2d_cat_multi_stim_exp1","2022-4-12","15:26:44","25","75","3","9","10","40","30","120","30","23","[""White""]","Yes","Female","2214993","null","null","","","","clear_screen","","","","","","","","","","","","","","","","","","","","","","","","","",""
"","","","","","canvas-keyboard-response","107","644819","0.0-12.0-0.19","2d_cat_multi_stim_exp1","2022-4-12","15:26:44","25","75","3","9","10","40","30","120","30","23","[""White""]","Yes","Female","2214993","null","null","","","","fixation","","","","","","","","","","","","","","","","","","","","","","","","","",""
"","","","","","canvas-keyboard-response","108","645328","0.0-12.0-1.19","2d_cat_multi_stim_exp1","2022-4-12","15:26:44","25","75","3","9","10","40","30","120","30","23","[""White""]","Yes","Female","2214993","null","null","","","","clear_screen","","","","","","","","","","","","","","","","","","","","","","","","","",""
"","","","","","canvas-keyboard-response","109","646614","0.0-12.0-2.19","2d_cat_multi_stim_exp1","2022-4-12","15:26:44","25","75","3","9","10","40","30","120","30","23","[""White""]","Yes","Female","2214993","1278","i","learn","","","learn_trial","25","75","in","0","0","","","","","","","","","","","","","","","","","","","","",""
"","","","","","canvas-keyboard-response","110","647622","0.0-12.0-3.19","2d_cat_multi_stim_exp1","2022-4-12","15:26:44","25","75","3","9","10","40","30","120","30","23","[""White""]","Yes","Female","2214993","null","null","learn_feedback","","","learn_feedback","25","75","in","","","","","","","","","","","","","","","","","","","","","","",""
"","","","","","canvas-keyboard-response","111","647681","0.0-12.0-4.19","2d_cat_multi_stim_exp1","2022-4-12","15:26:44","25","75","3","9","10","40","30","120","30","23","[""White""]","Yes","Female","2214993","null","null","","","","clear_screen","","","","","","","","","","","","","","","","","","","","","","","","","",""
"","","","","","canvas-keyboard-response","112","648192","0.0-12.0-0.20","2d_cat_multi_stim_exp1","2022-4-12","15:26:44","25","75","3","9","10","40","30","120","30","23","[""White""]","Yes","Female","2214993","null","null","","","","fixation","","","","","","","","","","","","","","","","","","","","","","","","","",""
"","","","","","canvas-keyboard-response","113","648706","0.0-12.0-1.20","2d_cat_multi_stim_exp1","2022-4-12","15:26:44","25","75","3","9","10","40","30","120","30","23","[""White""]","Yes","Female","2214993","null","null","","","","clear_screen","","","","","","","","","","","","","","","","","","","","","","","","","",""
"","","","","","canvas-keyboard-response","114","649806","0.0-12.0-2.20","2d_cat_multi_stim_exp1","2022-4-12","15:26:44","25","75","3","9","10","40","30","120","30","23","[""White""]","Yes","Female","2214993","1091","i","learn","","","learn_trial","10","120","out","0","1","","","","","","","","","","","","","","","","","","","","",""
"","","","","","canvas-keyboard-response","115","650316","0.0-12.0-3.20","2d_cat_multi_stim_exp1","2022-4-12","15:26:44","25","75","3","9","10","40","30","120","30","23","[""White""]","Yes","Female","2214993","null","null","learn_feedback","","","learn_feedback","10","120","out","","","","","","","","","","","","","","","","","","","","","","",""
"","","","","","canvas-keyboard-response","116","650377","0.0-12.0-4.20","2d_cat_multi_stim_exp1","2022-4-12","15:26:44","25","75","3","9","10","40","30","120","30","23","[""White""]","Yes","Female","2214993","null","null","","","","clear_screen","","","","","","","","","","","","","","","","","","","","","","","","","",""
"","","","","","canvas-keyboard-response","117","650886","0.0-12.0-0.21","2d_cat_multi_stim_exp1","2022-4-12","15:26:44","25","75","3","9","10","40","30","120","30","23","[""White""]","Yes","Female","2214993","null","null","","","","fixation","","","","","","","","","","","","","","","","","","","","","","","","","",""
"","","","","","canvas-keyboard-response","118","651397","0.0-12.0-1.21","2d_cat_multi_stim_exp1","2022-4-12","15:26:44","25","75","3","9","10","40","30","120","30","23","[""White""]","Yes","Female","2214993","null","null","","","","clear_screen","","","","","","","","","","","","","","","","","","","","","","","","","",""
"","","","","","canvas-keyboard-response","119","652190","0.0-12.0-2.21","2d_cat_multi_stim_exp1","2022-4-12","15:26:44","25","75","3","9","10","40","30","120","30","23","[""White""]","Yes","Female","2214993","785","u","learn","","","learn_trial","26.6667","110","out","1","0","","","","","","","","","","","","","","","","","","","","",""
"","","","","","canvas-keyboard-response","120","653203","0.0-12.0-3.21","2d_cat_multi_stim_exp1","2022-4-12","15:26:44","25","75","3","9","10","40","30","120","30","23","[""White""]","Yes","Female","2214993","null","null","learn_feedback","","","learn_feedback","26.6667","110","out","","","","","","","","","","","","","","","","","","","","","","",""
"","","","","","canvas-keyboard-response","121","653262","0.0-12.0-4.21","2d_cat_multi_stim_exp1","2022-4-12","15:26:44","25","75","3","9","10","40","30","120","30","23","[""White""]","Yes","Female","2214993","null","null","","","","clear_screen","","","","","","","","","","","","","","","","","","","","","","","","","",""
"","","","","","canvas-keyboard-response","122","653772","0.0-12.0-0.22","2d_cat_multi_stim_exp1","2022-4-12","15:26:44","25","75","3","9","10","40","30","120","30","23","[""White""]","Yes","Female","2214993","null","null","","","","fixation","","","","","","","","","","","","","","","","","","","","","","","","","",""
"","","","","","canvas-keyboard-response","123","654281","0.0-12.0-1.22","2d_cat_multi_stim_exp1","2022-4-12","15:26:44","25","75","3","9","10","40","30","120","30","23","[""White""]","Yes","Female","2214993","null","null","","","","clear_screen","","","","","","","","","","","","","","","","","","","","","","","","","",""
"","","","","","canvas-keyboard-response","124","656103","0.0-12.0-2.22","2d_cat_multi_stim_exp1","2022-4-12","15:26:44","25","75","3","9","10","40","30","120","30","23","[""White""]","Yes","Female","2214993","1812","u","learn","","","learn_trial","25","75","in","1","1","","","","","","","","","","","","","","","","","","","","",""
"","","","","","canvas-keyboard-response","125","656613","0.0-12.0-3.22","2d_cat_multi_stim_exp1","2022-4-12","15:26:44","25","75","3","9","10","40","30","120","30","23","[""White""]","Yes","Female","2214993","null","null","learn_feedback","","","learn_feedback","25","75","in","","","","","","","","","","","","","","","","","","","","","","",""
"","","","","","canvas-keyboard-response","126","656676","0.0-12.0-4.22","2d_cat_multi_stim_exp1","2022-4-12","15:26:44","25","75","3","9","10","40","30","120","30","23","[""White""]","Yes","Female","2214993","null","null","","","","clear_screen","","","","","","","","","","","","","","","","","","","","","","","","","",""
"","","","","","canvas-keyboard-response","127","657186","0.0-12.0-0.23","2d_cat_multi_stim_exp1","2022-4-12","15:26:44","25","75","3","9","10","40","30","120","30","23","[""White""]","Yes","Female","2214993","null","null","","","","fixation","","","","","","","","","","","","","","","","","","","","","","","","","",""
"","","","","","canvas-keyboard-response","128","657697","0.0-12.0-1.23","2d_cat_multi_stim_exp1","2022-4-12","15:26:44","25","75","3","9","10","40","30","120","30","23","[""White""]","Yes","Female","2214993","null","null","","","","clear_screen","","","","","","","","","","","","","","","","","","","","","","","","","",""
"","","","","","canvas-keyboard-response","129","659070","0.0-12.0-2.23","2d_cat_multi_stim_exp1","2022-4-12","15:26:44","25","75","3","9","10","40","30","120","30","23","[""White""]","Yes","Female","2214993","1365","i","learn","","","learn_trial","23.8209","66.7243","in","0","0","","","","","","","","","","","","","","","","","","","","",""
"","","","","","canvas-keyboard-response","130","660079","0.0-12.0-3.23","2d_cat_multi_stim_exp1","2022-4-12","15:26:44","25","75","3","9","10","40","30","120","30","23","[""White""]","Yes","Female","2214993","null","null","learn_feedback","","","learn_feedback","23.8209","66.7243","in","","","","","","","","","","","","","","","","","","","","","","",""
"","","","","","canvas-keyboard-response","131","660143","0.0-12.0-4.23","2d_cat_multi_stim_exp1","2022-4-12","15:26:44","25","75","3","9","10","40","30","120","30","23","[""White""]","Yes","Female","2214993","null","null","","","","clear_screen","","","","","","","","","","","","","","","","","","","","","","","","","",""
"","","","","","canvas-keyboard-response","132","660654","0.0-12.0-0.24","2d_cat_multi_stim_exp1","2022-4-12","15:26:44","25","75","3","9","10","40","30","120","30","23","[""White""]","Yes","Female","2214993","null","null","","","","fixation","","","","","","","","","","","","","","","","","","","","","","","","","",""
"","","","","","canvas-keyboard-response","133","661165","0.0-12.0-1.24","2d_cat_multi_stim_exp1","2022-4-12","15:26:44","25","75","3","9","10","40","30","120","30","23","[""White""]","Yes","Female","2214993","null","null","","","","clear_screen","","","","","","","","","","","","","","","","","","","","","","","","","",""
"","","","","","canvas-keyboard-response","134","663343","0.0-12.0-2.24","2d_cat_multi_stim_exp1","2022-4-12","15:26:44","25","75","3","9","10","40","30","120","30","23","[""White""]","Yes","Female","2214993","2165","u","learn","","","learn_trial","25","75","in","1","1","","","","","","","","","","","","","","","","","","","","",""
"","","","","","canvas-keyboard-response","135","663855","0.0-12.0-3.24","2d_cat_multi_stim_exp1","2022-4-12","15:26:44","25","75","3","9","10","40","30","120","30","23","[""White""]","Yes","Female","2214993","null","null","learn_feedback","","","learn_feedback","25","75","in","","","","","","","","","","","","","","","","","","","","","","",""
"","","","","","canvas-keyboard-response","136","663919","0.0-12.0-4.24","2d_cat_multi_stim_exp1","2022-4-12","15:26:44","25","75","3","9","10","40","30","120","30","23","[""White""]","Yes","Female","2214993","null","null","","","","clear_screen","","","","","","","","","","","","","","","","","","","","","","","","","",""
"","","","","","canvas-keyboard-response","137","664430","0.0-12.0-0.25","2d_cat_multi_stim_exp1","2022-4-12","15:26:44","25","75","3","9","10","40","30","120","30","23","[""White""]","Yes","Female","2214993","null","null","","","","fixation","","","","","","","","","","","","","","","","","","","","","","","","","",""
"","","","","","canvas-keyboard-response","138","664944","0.0-12.0-1.25","2d_cat_multi_stim_exp1","2022-4-12","15:26:44","25","75","3","9","10","40","30","120","30","23","[""White""]","Yes","Female","2214993","null","null","","","","clear_screen","","","","","","","","","","","","","","","","","","","","","","","","","",""
"","","","","","canvas-keyboard-response","139","667390","0.0-12.0-2.25","2d_cat_multi_stim_exp1","2022-4-12","15:26:44","25","75","3","9","10","40","30","120","30","23","[""White""]","Yes","Female","2214993","2437","i","learn","","","learn_trial","16.6667","110","out","0","1","","","","","","","","","","","","","","","","","","","","",""
"","","","","","canvas-keyboard-response","140","667902","0.0-12.0-3.25","2d_cat_multi_stim_exp1","2022-4-12","15:26:44","25","75","3","9","10","40","30","120","30","23","[""White""]","Yes","Female","2214993","null","null","learn_feedback","","","learn_feedback","16.6667","110","out","","","","","","","","","","","","","","","","","","","","","","",""
"","","","","","canvas-keyboard-response","141","667962","0.0-12.0-4.25","2d_cat_multi_stim_exp1","2022-4-12","15:26:44","25","75","3","9","10","40","30","120","30","23","[""White""]","Yes","Female","2214993","null","null","","","","clear_screen","","","","","","","","","","","","","","","","","","","","","","","","","",""
"","","","","","canvas-keyboard-response","142","668471","0.0-12.0-0.26","2d_cat_multi_stim_exp1","2022-4-12","15:26:44","25","75","3","9","10","40","30","120","30","23","[""White""]","Yes","Female","2214993","null","null","","","","fixation","","","","","","","","","","","","","","","","","","","","","","","","","",""
"","","","","","canvas-keyboard-response","143","668978","0.0-12.0-1.26","2d_cat_multi_stim_exp1","2022-4-12","15:26:44","25","75","3","9","10","40","30","120","30","23","[""White""]","Yes","Female","2214993","null","null","","","","clear_screen","","","","","","","","","","","","","","","","","","","","","","","","","",""
"","","","","","canvas-keyboard-response","144","670023","0.0-12.0-2.26","2d_cat_multi_stim_exp1","2022-4-12","15:26:44","25","75","3","9","10","40","30","120","30","23","[""White""]","Yes","Female","2214993","1033","i","learn","","","learn_trial","25","75","in","0","0","","","","","","","","","","","","","","","","","","","","",""
"","","","","","canvas-keyboard-response","145","671032","0.0-12.0-3.26","2d_cat_multi_stim_exp1","2022-4-12","15:26:44","25","75","3","9","10","40","30","120","30","23","[""White""]","Yes","Female","2214993","null","null","learn_feedback","","","learn_feedback","25","75","in","","","","","","","","","","","","","","","","","","","","","","",""
"","","","","","canvas-keyboard-response","146","671094","0.0-12.0-4.26","2d_cat_multi_stim_exp1","2022-4-12","15:26:44","25","75","3","9","10","40","30","120","30","23","[""White""]","Yes","Female","2214993","null","null","","","","clear_screen","","","","","","","","","","","","","","","","","","","","","","","","","",""
"","","","","","canvas-keyboard-response","147","671605","0.0-12.0-0.27","2d_cat_multi_stim_exp1","2022-4-12","15:26:44","25","75","3","9","10","40","30","120","30","23","[""White""]","Yes","Female","2214993","null","null","","","","fixation","","","","","","","","","","","","","","","","","","","","","","","","","",""
"","","","","","canvas-keyboard-response","148","672114","0.0-12.0-1.27","2d_cat_multi_stim_exp1","2022-4-12","15:26:44","25","75","3","9","10","40","30","120","30","23","[""White""]","Yes","Female","2214993","null","null","","","","clear_screen","","","","","","","","","","","","","","","","","","","","","","","","","",""
"","","","","","canvas-keyboard-response","149","673598","0.0-12.0-2.27","2d_cat_multi_stim_exp1","2022-4-12","15:26:44","25","75","3","9","10","40","30","120","30","23","[""White""]","Yes","Female","2214993","1473","i","learn","","","learn_trial","20","30","out","0","1","","","","","","","","","","","","","","","","","","","","",""
"","","","","","canvas-keyboard-response","150","674108","0.0-12.0-3.27","2d_cat_multi_stim_exp1","2022-4-12","15:26:44","25","75","3","9","10","40","30","120","30","23","[""White""]","Yes","Female","2214993","null","null","learn_feedback","","","learn_feedback","20","30","out","","","","","","","","","","","","","","","","","","","","","","",""
"","","","","","canvas-keyboard-response","151","674169","0.0-12.0-4.27","2d_cat_multi_stim_exp1","2022-4-12","15:26:44","25","75","3","9","10","40","30","120","30","23","[""White""]","Yes","Female","2214993","null","null","","","","clear_screen","","","","","","","","","","","","","","","","","","","","","","","","","",""
"","","","","","canvas-keyboard-response","152","674677","0.0-12.0-0.28","2d_cat_multi_stim_exp1","2022-4-12","15:26:44","25","75","3","9","10","40","30","120","30","23","[""White""]","Yes","Female","2214993","null","null","","","","fixation","","","","","","","","","","","","","","","","","","","","","","","","","",""
"","","","","","canvas-keyboard-response","153","675190","0.0-12.0-1.28","2d_cat_multi_stim_exp1","2022-4-12","15:26:44","25","75","3","9","10","40","30","120","30","23","[""White""]","Yes","Female","2214993","null","null","","","","clear_screen","","","","","","","","","","","","","","","","","","","","","","","","","",""
"","","","","","canvas-keyboard-response","154","677398","0.0-12.0-2.28","2d_cat_multi_stim_exp1","2022-4-12","15:26:44","25","75","3","9","10","40","30","120","30","23","[""White""]","Yes","Female","2214993","2198","u","learn","","","learn_trial","25","75","in","1","1","","","","","","","","","","","","","","","","","","","","",""
"","","","","","canvas-keyboard-response","155","677910","0.0-12.0-3.28","2d_cat_multi_stim_exp1","2022-4-12","15:26:44","25","75","3","9","10","40","30","120","30","23","[""White""]","Yes","Female","2214993","null","null","learn_feedback","","","learn_feedback","25","75","in","","","","","","","","","","","","","","","","","","","","","","",""
"","","","","","canvas-keyboard-response","156","677968","0.0-12.0-4.28","2d_cat_multi_stim_exp1","2022-4-12","15:26:44","25","75","3","9","10","40","30","120","30","23","[""White""]","Yes","Female","2214993","null","null","","","","clear_screen","","","","","","","","","","","","","","","","","","","","","","","","","",""
"","","","","","canvas-keyboard-response","157","678479","0.0-12.0-0.29","2d_cat_multi_stim_exp1","2022-4-12","15:26:44","25","75","3","9","10","40","30","120","30","23","[""White""]","Yes","Female","2214993","null","null","","","","fixation","","","","","","","","","","","","","","","","","","","","","","","","","",""
"","","","","","canvas-keyboard-response","158","678990","0.0-12.0-1.29","2d_cat_multi_stim_exp1","2022-4-12","15:26:44","25","75","3","9","10","40","30","120","30","23","[""White""]","Yes","Female","2214993","null","null","","","","clear_screen","","","","","","","","","","","","","","","","","","","","","","","","","",""
"","","","","","canvas-keyboard-response","159","679910","0.0-12.0-2.29","2d_cat_multi_stim_exp1","2022-4-12","15:26:44","25","75","3","9","10","40","30","120","30","23","[""White""]","Yes","Female","2214993","911","i","learn","","","learn_trial","16.6667","30","out","0","1","","","","","","","","","","","","","","","","","","","","",""
"","","","","","canvas-keyboard-response","160","680420","0.0-12.0-3.29","2d_cat_multi_stim_exp1","2022-4-12","15:26:44","25","75","3","9","10","40","30","120","30","23","[""White""]","Yes","Female","2214993","null","null","learn_feedback","","","learn_feedback","16.6667","30","out","","","","","","","","","","","","","","","","","","","","","","",""
"","","","","","canvas-keyboard-response","161","680479","0.0-12.0-4.29","2d_cat_multi_stim_exp1","2022-4-12","15:26:44","25","75","3","9","10","40","30","120","30","23","[""White""]","Yes","Female","2214993","null","null","","","","clear_screen","","","","","","","","","","","","","","","","","","","","","","","","","",""
"","","","","","canvas-keyboard-response","162","680991","0.0-12.0-0.30","2d_cat_multi_stim_exp1","2022-4-12","15:26:44","25","75","3","9","10","40","30","120","30","23","[""White""]","Yes","Female","2214993","null","null","","","","fixation","","","","","","","","","","","","","","","","","","","","","","","","","",""
"","","","","","canvas-keyboard-response","163","681501","0.0-12.0-1.30","2d_cat_multi_stim_exp1","2022-4-12","15:26:44","25","75","3","9","10","40","30","120","30","23","[""White""]","Yes","Female","2214993","null","null","","","","clear_screen","","","","","","","","","","","","","","","","","","","","","","","","","",""
"","","","","","canvas-keyboard-response","164","682766","0.0-12.0-2.30","2d_cat_multi_stim_exp1","2022-4-12","15:26:44","25","75","3","9","10","40","30","120","30","23","[""White""]","Yes","Female","2214993","1253","u","learn","","","learn_trial","30","110","out","1","0","","","","","","","","","","","","","","","","","","","","",""
"","","","","","canvas-keyboard-response","165","683774","0.0-12.0-3.30","2d_cat_multi_stim_exp1","2022-4-12","15:26:44","25","75","3","9","10","40","30","120","30","23","[""White""]","Yes","Female","2214993","null","null","learn_feedback","","","learn_feedback","30","110","out","","","","","","","","","","","","","","","","","","","","","","",""
"","","","","","canvas-keyboard-response","166","683833","0.0-12.0-4.30","2d_cat_multi_stim_exp1","2022-4-12","15:26:44","25","75","3","9","10","40","30","120","30","23","[""White""]","Yes","Female","2214993","null","null","","","","clear_screen","","","","","","","","","","","","","","","","","","","","","","","","","",""
"","","","","","canvas-keyboard-response","167","684343","0.0-12.0-0.31","2d_cat_multi_stim_exp1","2022-4-12","15:26:44","25","75","3","9","10","40","30","120","30","23","[""White""]","Yes","Female","2214993","null","null","","","","fixation","","","","","","","","","","","","","","","","","","","","","","","","","",""
"","","","","","canvas-keyboard-response","168","684856","0.0-12.0-1.31","2d_cat_multi_stim_exp1","2022-4-12","15:26:44","25","75","3","9","10","40","30","120","30","23","[""White""]","Yes","Female","2214993","null","null","","","","clear_screen","","","","","","","","","","","","","","","","","","","","","","","","","",""
"","","","","","canvas-keyboard-response","169","685526","0.0-12.0-2.31","2d_cat_multi_stim_exp1","2022-4-12","15:26:44","25","75","3","9","10","40","30","120","30","23","[""White""]","Yes","Female","2214993","661","i","learn","","","learn_trial","40","60","out","0","1","","","","","","","","","","","","","","","","","","","","",""
"","","","","","canvas-keyboard-response","170","686038","0.0-12.0-3.31","2d_cat_multi_stim_exp1","2022-4-12","15:26:44","25","75","3","9","10","40","30","120","30","23","[""White""]","Yes","Female","2214993","null","null","learn_feedback","","","learn_feedback","40","60","out","","","","","","","","","","","","","","","","","","","","","","",""
"","","","","","canvas-keyboard-response","171","686095","0.0-12.0-4.31","2d_cat_multi_stim_exp1","2022-4-12","15:26:44","25","75","3","9","10","40","30","120","30","23","[""White""]","Yes","Female","2214993","null","null","","","","clear_screen","","","","","","","","","","","","","","","","","","","","","","","","","",""
"","","","","","canvas-keyboard-response","172","686605","0.0-12.0-0.32","2d_cat_multi_stim_exp1","2022-4-12","15:26:44","25","75","3","9","10","40","30","120","30","23","[""White""]","Yes","Female","2214993","null","null","","","","fixation","","","","","","","","","","","","","","","","","","","","","","","","","",""
"","","","","","canvas-keyboard-response","173","687116","0.0-12.0-1.32","2d_cat_multi_stim_exp1","2022-4-12","15:26:44","25","75","3","9","10","40","30","120","30","23","[""White""]","Yes","Female","2214993","null","null","","","","clear_screen","","","","","","","","","","","","","","","","","","","","","","","","","",""
"","","","","","canvas-keyboard-response","174","687918","0.0-12.0-2.32","2d_cat_multi_stim_exp1","2022-4-12","15:26:44","25","75","3","9","10","40","30","120","30","23","[""White""]","Yes","Female","2214993","792","i","learn","","","learn_trial","25","75","in","0","0","","","","","","","","","","","","","","","","","","","","",""
"","","","","","canvas-keyboard-response","175","688928","0.0-12.0-3.32","2d_cat_multi_stim_exp1","2022-4-12","15:26:44","25","75","3","9","10","40","30","120","30","23","[""White""]","Yes","Female","2214993","null","null","learn_feedback","","","learn_feedback","25","75","in","","","","","","","","","","","","","","","","","","","","","","",""
"","","","","","canvas-keyboard-response","176","688987","0.0-12.0-4.32","2d_cat_multi_stim_exp1","2022-4-12","15:26:44","25","75","3","9","10","40","30","120","30","23","[""White""]","Yes","Female","2214993","null","null","","","","clear_screen","","","","","","","","","","","","","","","","","","","","","","","","","",""
"","","","","","canvas-keyboard-response","177","689494","0.0-12.0-0.33","2d_cat_multi_stim_exp1","2022-4-12","15:26:44","25","75","3","9","10","40","30","120","30","23","[""White""]","Yes","Female","2214993","null","null","","","","fixation","","","","","","","","","","","","","","","","","","","","","","","","","",""
"","","","","","canvas-keyboard-response","178","690005","0.0-12.0-1.33","2d_cat_multi_stim_exp1","2022-4-12","15:26:44","25","75","3","9","10","40","30","120","30","23","[""White""]","Yes","Female","2214993","null","null","","","","clear_screen","","","","","","","","","","","","","","","","","","","","","","","","","",""
"","","","","","canvas-keyboard-response","179","691231","0.0-12.0-2.33","2d_cat_multi_stim_exp1","2022-4-12","15:26:44","25","75","3","9","10","40","30","120","30","23","[""White""]","Yes","Female","2214993","1215","i","learn","","","learn_trial","20","40","out","0","1","","","","","","","","","","","","","","","","","","","","",""
"","","","","","canvas-keyboard-response","180","691741","0.0-12.0-3.33","2d_cat_multi_stim_exp1","2022-4-12","15:26:44","25","75","3","9","10","40","30","120","30","23","[""White""]","Yes","Female","2214993","null","null","learn_feedback","","","learn_feedback","20","40","out","","","","","","","","","","","","","","","","","","","","","","",""
"","","","","","canvas-keyboard-response","181","691801","0.0-12.0-4.33","2d_cat_multi_stim_exp1","2022-4-12","15:26:44","25","75","3","9","10","40","30","120","30","23","[""White""]","Yes","Female","2214993","null","null","","","","clear_screen","","","","","","","","","","","","","","","","","","","","","","","","","",""
"","","","","","canvas-keyboard-response","182","692314","0.0-12.0-0.34","2d_cat_multi_stim_exp1","2022-4-12","15:26:44","25","75","3","9","10","40","30","120","30","23","[""White""]","Yes","Female","2214993","null","null","","","","fixation","","","","","","","","","","","","","","","","","","","","","","","","","",""
"","","","","","canvas-keyboard-response","183","692825","0.0-12.0-1.34","2d_cat_multi_stim_exp1","2022-4-12","15:26:44","25","75","3","9","10","40","30","120","30","23","[""White""]","Yes","Female","2214993","null","null","","","","clear_screen","","","","","","","","","","","","","","","","","","","","","","","","","",""
"","","","","","canvas-keyboard-response","184","694510","0.0-12.0-2.34","2d_cat_multi_stim_exp1","2022-4-12","15:26:44","25","75","3","9","10","40","30","120","30","23","[""White""]","Yes","Female","2214993","1675","i","learn","","","learn_trial","16.6667","70","out","0","1","","","","","","","","","","","","","","","","","","","","",""
"","","","","","canvas-keyboard-response","185","695018","0.0-12.0-3.34","2d_cat_multi_stim_exp1","2022-4-12","15:26:44","25","75","3","9","10","40","30","120","30","23","[""White""]","Yes","Female","2214993","null","null","learn_feedback","","","learn_feedback","16.6667","70","out","","","","","","","","","","","","","","","","","","","","","","",""
"","","","","","canvas-keyboard-response","186","695080","0.0-12.0-4.34","2d_cat_multi_stim_exp1","2022-4-12","15:26:44","25","75","3","9","10","40","30","120","30","23","[""White""]","Yes","Female","2214993","null","null","","","","clear_screen","","","","","","","","","","","","","","","","","","","","","","","","","",""
"","","","","","canvas-keyboard-response","187","695590","0.0-12.0-0.35","2d_cat_multi_stim_exp1","2022-4-12","15:26:44","25","75","3","9","10","40","30","120","30","23","[""White""]","Yes","Female","2214993","null","null","","","","fixation","","","","","","","","","","","","","","","","","","","","","","","","","",""
"","","","","","canvas-keyboard-response","188","696101","0.0-12.0-1.35","2d_cat_multi_stim_exp1","2022-4-12","15:26:44","25","75","3","9","10","40","30","120","30","23","[""White""]","Yes","Female","2214993","null","null","","","","clear_screen","","","","","","","","","","","","","","","","","","","","","","","","","",""
"","","","","","canvas-keyboard-response","189","697014","0.0-12.0-2.35","2d_cat_multi_stim_exp1","2022-4-12","15:26:44","25","75","3","9","10","40","30","120","30","23","[""White""]","Yes","Female","2214993","904","i","learn","","","learn_trial","16.6667","80","out","0","1","","","","","","","","","","","","","","","","","","","","",""
"","","","","","canvas-keyboard-response","190","697524","0.0-12.0-3.35","2d_cat_multi_stim_exp1","2022-4-12","15:26:44","25","75","3","9","10","40","30","120","30","23","[""White""]","Yes","Female","2214993","null","null","learn_feedback","","","learn_feedback","16.6667","80","out","","","","","","","","","","","","","","","","","","","","","","",""
"","","","","","canvas-keyboard-response","191","697586","0.0-12.0-4.35","2d_cat_multi_stim_exp1","2022-4-12","15:26:44","25","75","3","9","10","40","30","120","30","23","[""White""]","Yes","Female","2214993","null","null","","","","clear_screen","","","","","","","","","","","","","","","","","","","","","","","","","",""
"","","","","","canvas-keyboard-response","192","698096","0.0-12.0-0.36","2d_cat_multi_stim_exp1","2022-4-12","15:26:44","25","75","3","9","10","40","30","120","30","23","[""White""]","Yes","Female","2214993","null","null","","","","fixation","","","","","","","","","","","","","","","","","","","","","","","","","",""
"","","","","","canvas-keyboard-response","193","698607","0.0-12.0-1.36","2d_cat_multi_stim_exp1","2022-4-12","15:26:44","25","75","3","9","10","40","30","120","30","23","[""White""]","Yes","Female","2214993","null","null","","","","clear_screen","","","","","","","","","","","","","","","","","","","","","","","","","",""
"","","","","","canvas-keyboard-response","194","699606","0.0-12.0-2.36","2d_cat_multi_stim_exp1","2022-4-12","15:26:44","25","75","3","9","10","40","30","120","30","23","[""White""]","Yes","Female","2214993","988","i","learn","","","learn_trial","25","75","in","0","0","","","","","","","","","","","","","","","","","","","","",""
"","","","","","canvas-keyboard-response","195","700614","0.0-12.0-3.36","2d_cat_multi_stim_exp1","2022-4-12","15:26:44","25","75","3","9","10","40","30","120","30","23","[""White""]","Yes","Female","2214993","null","null","learn_feedback","","","learn_feedback","25","75","in","","","","","","","","","","","","","","","","","","","","","","",""
"","","","","","canvas-keyboard-response","196","700675","0.0-12.0-4.36","2d_cat_multi_stim_exp1","2022-4-12","15:26:44","25","75","3","9","10","40","30","120","30","23","[""White""]","Yes","Female","2214993","null","null","","","","clear_screen","","","","","","","","","","","","","","","","","","","","","","","","","",""
"","","","","","canvas-keyboard-response","197","701184","0.0-12.0-0.37","2d_cat_multi_stim_exp1","2022-4-12","15:26:44","25","75","3","9","10","40","30","120","30","23","[""White""]","Yes","Female","2214993","null","null","","","","fixation","","","","","","","","","","","","","","","","","","","","","","","","","",""
"","","","","","canvas-keyboard-response","198","701697","0.0-12.0-1.37","2d_cat_multi_stim_exp1","2022-4-12","15:26:44","25","75","3","9","10","40","30","120","30","23","[""White""]","Yes","Female","2214993","null","null","","","","clear_screen","","","","","","","","","","","","","","","","","","","","","","","","","",""
"","","","","","canvas-keyboard-response","199","702934","0.0-12.0-2.37","2d_cat_multi_stim_exp1","2022-4-12","15:26:44","25","75","3","9","10","40","30","120","30","23","[""White""]","Yes","Female","2214993","1227","i","learn","","","learn_trial","40","40","out","0","1","","","","","","","","","","","","","","","","","","","","",""
"","","","","","canvas-keyboard-response","200","703444","0.0-12.0-3.37","2d_cat_multi_stim_exp1","2022-4-12","15:26:44","25","75","3","9","10","40","30","120","30","23","[""White""]","Yes","Female","2214993","null","null","learn_feedback","","","learn_feedback","40","40","out","","","","","","","","","","","","","","","","","","","","","","",""
"","","","","","canvas-keyboard-response","201","703504","0.0-12.0-4.37","2d_cat_multi_stim_exp1","2022-4-12","15:26:44","25","75","3","9","10","40","30","120","30","23","[""White""]","Yes","Female","2214993","null","null","","","","clear_screen","","","","","","","","","","","","","","","","","","","","","","","","","",""
"","","","","","canvas-keyboard-response","202","704013","0.0-12.0-0.38","2d_cat_multi_stim_exp1","2022-4-12","15:26:44","25","75","3","9","10","40","30","120","30","23","[""White""]","Yes","Female","2214993","null","null","","","","fixation","","","","","","","","","","","","","","","","","","","","","","","","","",""
"","","","","","canvas-keyboard-response","203","704523","0.0-12.0-1.38","2d_cat_multi_stim_exp1","2022-4-12","15:26:44","25","75","3","9","10","40","30","120","30","23","[""White""]","Yes","Female","2214993","null","null","","","","clear_screen","","","","","","","","","","","","","","","","","","","","","","","","","",""
"","","","","","canvas-keyboard-response","204","705342","0.0-12.0-2.38","2d_cat_multi_stim_exp1","2022-4-12","15:26:44","25","75","3","9","10","40","30","120","30","23","[""White""]","Yes","Female","2214993","813","u","learn","","","learn_trial","25","75","in","1","1","","","","","","","","","","","","","","","","","","","","",""
"","","","","","canvas-keyboard-response","205","705849","0.0-12.0-3.38","2d_cat_multi_stim_exp1","2022-4-12","15:26:44","25","75","3","9","10","40","30","120","30","23","[""White""]","Yes","Female","2214993","null","null","learn_feedback","","","learn_feedback","25","75","in","","","","","","","","","","","","","","","","","","","","","","",""
"","","","","","canvas-keyboard-response","206","705910","0.0-12.0-4.38","2d_cat_multi_stim_exp1","2022-4-12","15:26:44","25","75","3","9","10","40","30","120","30","23","[""White""]","Yes","Female","2214993","null","null","","","","clear_screen","","","","","","","","","","","","","","","","","","","","","","","","","",""
"","","","","","canvas-keyboard-response","207","706418","0.0-12.0-0.39","2d_cat_multi_stim_exp1","2022-4-12","15:26:44","25","75","3","9","10","40","30","120","30","23","[""White""]","Yes","Female","2214993","null","null","","","","fixation","","","","","","","","","","","","","","","","","","","","","","","","","",""
"","","","","","canvas-keyboard-response","208","706930","0.0-12.0-1.39","2d_cat_multi_stim_exp1","2022-4-12","15:26:44","25","75","3","9","10","40","30","120","30","23","[""White""]","Yes","Female","2214993","null","null","","","","clear_screen","","","","","","","","","","","","","","","","","","","","","","","","","",""
"","","","","","canvas-keyboard-response","209","709806","0.0-12.0-2.39","2d_cat_multi_stim_exp1","2022-4-12","15:26:44","25","75","3","9","10","40","30","120","30","23","[""White""]","Yes","Female","2214993","2867","i","learn","","","learn_trial","16.6667","100","out","0","1","","","","","","","","","","","","","","","","","","","","",""
"","","","","","canvas-keyboard-response","210","710316","0.0-12.0-3.39","2d_cat_multi_stim_exp1","2022-4-12","15:26:44","25","75","3","9","10","40","30","120","30","23","[""White""]","Yes","Female","2214993","null","null","learn_feedback","","","learn_feedback","16.6667","100","out","","","","","","","","","","","","","","","","","","","","","","",""
"","","","","","canvas-keyboard-response","211","710378","0.0-12.0-4.39","2d_cat_multi_stim_exp1","2022-4-12","15:26:44","25","75","3","9","10","40","30","120","30","23","[""White""]","Yes","Female","2214993","null","null","","","","clear_screen","","","","","","","","","","","","","","","","","","","","","","","","","",""
"","","","","","canvas-keyboard-response","212","710888","0.0-12.0-0.40","2d_cat_multi_stim_exp1","2022-4-12","15:26:44","25","75","3","9","10","40","30","120","30","23","[""White""]","Yes","Female","2214993","null","null","","","","fixation","","","","","","","","","","","","","","","","","","","","","","","","","",""
"","","","","","canvas-keyboard-response","213","711397","0.0-12.0-1.40","2d_cat_multi_stim_exp1","2022-4-12","15:26:44","25","75","3","9","10","40","30","120","30","23","[""White""]","Yes","Female","2214993","null","null","","","","clear_screen","","","","","","","","","","","","","","","","","","","","","","","","","",""
"","","","","","canvas-keyboard-response","214","712366","0.0-12.0-2.40","2d_cat_multi_stim_exp1","2022-4-12","15:26:44","25","75","3","9","10","40","30","120","30","23","[""White""]","Yes","Female","2214993","958","i","learn","","","learn_trial","25","75","in","0","0","","","","","","","","","","","","","","","","","","","","",""
"","","","","","canvas-keyboard-response","215","713376","0.0-12.0-3.40","2d_cat_multi_stim_exp1","2022-4-12","15:26:44","25","75","3","9","10","40","30","120","30","23","[""White""]","Yes","Female","2214993","null","null","learn_feedback","","","learn_feedback","25","75","in","","","","","","","","","","","","","","","","","","","","","","",""
"","","","","","canvas-keyboard-response","216","713439","0.0-12.0-4.40","2d_cat_multi_stim_exp1","2022-4-12","15:26:44","25","75","3","9","10","40","30","120","30","23","[""White""]","Yes","Female","2214993","null","null","","","","clear_screen","","","","","","","","","","","","","","","","","","","","","","","","","",""
"","","","","","canvas-keyboard-response","217","713949","0.0-12.0-0.41","2d_cat_multi_stim_exp1","2022-4-12","15:26:44","25","75","3","9","10","40","30","120","30","23","[""White""]","Yes","Female","2214993","null","null","","","","fixation","","","","","","","","","","","","","","","","","","","","","","","","","",""
"","","","","","canvas-keyboard-response","218","714458","0.0-12.0-1.41","2d_cat_multi_stim_exp1","2022-4-12","15:26:44","25","75","3","9","10","40","30","120","30","23","[""White""]","Yes","Female","2214993","null","null","","","","clear_screen","","","","","","","","","","","","","","","","","","","","","","","","","",""
"","","","","","canvas-keyboard-response","219","715422","0.0-12.0-2.41","2d_cat_multi_stim_exp1","2022-4-12","15:26:44","25","75","3","9","10","40","30","120","30","23","[""White""]","Yes","Female","2214993","954","u","learn","","","learn_trial","25","75","in","1","1","","","","","","","","","","","","","","","","","","","","",""
"","","","","","canvas-keyboard-response","220","715931","0.0-12.0-3.41","2d_cat_multi_stim_exp1","2022-4-12","15:26:44","25","75","3","9","10","40","30","120","30","23","[""White""]","Yes","Female","2214993","null","null","learn_feedback","","","learn_feedback","25","75","in","","","","","","","","","","","","","","","","","","","","","","",""
"","","","","","canvas-keyboard-response","221","715995","0.0-12.0-4.41","2d_cat_multi_stim_exp1","2022-4-12","15:26:44","25","75","3","9","10","40","30","120","30","23","[""White""]","Yes","Female","2214993","null","null","","","","clear_screen","","","","","","","","","","","","","","","","","","","","","","","","","",""
"","","","","","canvas-keyboard-response","222","716505","0.0-12.0-0.42","2d_cat_multi_stim_exp1","2022-4-12","15:26:44","25","75","3","9","10","40","30","120","30","23","[""White""]","Yes","Female","2214993","null","null","","","","fixation","","","","","","","","","","","","","","","","","","","","","","","","","",""
"","","","","","canvas-keyboard-response","223","717017","0.0-12.0-1.42","2d_cat_multi_stim_exp1","2022-4-12","15:26:44","25","75","3","9","10","40","30","120","30","23","[""White""]","Yes","Female","2214993","null","null","","","","clear_screen","","","","","","","","","","","","","","","","","","","","","","","","","",""
"","","","","","canvas-keyboard-response","224","718366","0.0-12.0-2.42","2d_cat_multi_stim_exp1","2022-4-12","15:26:44","25","75","3","9","10","40","30","120","30","23","[""White""]","Yes","Female","2214993","1341","i","learn","","","learn_trial","25","75","in","0","0","","","","","","","","","","","","","","","","","","","","",""
"","","","","","canvas-keyboard-response","225","719377","0.0-12.0-3.42","2d_cat_multi_stim_exp1","2022-4-12","15:26:44","25","75","3","9","10","40","30","120","30","23","[""White""]","Yes","Female","2214993","null","null","learn_feedback","","","learn_feedback","25","75","in","","","","","","","","","","","","","","","","","","","","","","",""
"","","","","","canvas-keyboard-response","226","719437","0.0-12.0-4.42","2d_cat_multi_stim_exp1","2022-4-12","15:26:44","25","75","3","9","10","40","30","120","30","23","[""White""]","Yes","Female","2214993","null","null","","","","clear_screen","","","","","","","","","","","","","","","","","","","","","","","","","",""
"","","","","","canvas-keyboard-response","227","719945","0.0-12.0-0.43","2d_cat_multi_stim_exp1","2022-4-12","15:26:44","25","75","3","9","10","40","30","120","30","23","[""White""]","Yes","Female","2214993","null","null","","","","fixation","","","","","","","","","","","","","","","","","","","","","","","","","",""
"","","","","","canvas-keyboard-response","228","720459","0.0-12.0-1.43","2d_cat_multi_stim_exp1","2022-4-12","15:26:44","25","75","3","9","10","40","30","120","30","23","[""White""]","Yes","Female","2214993","null","null","","","","clear_screen","","","","","","","","","","","","","","","","","","","","","","","","","",""
"","","","","","canvas-keyboard-response","229","721358","0.0-12.0-2.43","2d_cat_multi_stim_exp1","2022-4-12","15:26:44","25","75","3","9","10","40","30","120","30","23","[""White""]","Yes","Female","2214993","888","u","learn","","","learn_trial","25","75","in","1","1","","","","","","","","","","","","","","","","","","","","",""
"","","","","","canvas-keyboard-response","230","721866","0.0-12.0-3.43","2d_cat_multi_stim_exp1","2022-4-12","15:26:44","25","75","3","9","10","40","30","120","30","23","[""White""]","Yes","Female","2214993","null","null","learn_feedback","","","learn_feedback","25","75","in","","","","","","","","","","","","","","","","","","","","","","",""
"","","","","","canvas-keyboard-response","231","721927","0.0-12.0-4.43","2d_cat_multi_stim_exp1","2022-4-12","15:26:44","25","75","3","9","10","40","30","120","30","23","[""White""]","Yes","Female","2214993","null","null","","","","clear_screen","","","","","","","","","","","","","","","","","","","","","","","","","",""
"","","","","","canvas-keyboard-response","232","722437","0.0-12.0-0.44","2d_cat_multi_stim_exp1","2022-4-12","15:26:44","25","75","3","9","10","40","30","120","30","23","[""White""]","Yes","Female","2214993","null","null","","","","fixation","","","","","","","","","","","","","","","","","","","","","","","","","",""
"","","","","","canvas-keyboard-response","233","722951","0.0-12.0-1.44","2d_cat_multi_stim_exp1","2022-4-12","15:26:44","25","75","3","9","10","40","30","120","30","23","[""White""]","Yes","Female","2214993","null","null","","","","clear_screen","","","","","","","","","","","","","","","","","","","","","","","","","",""
"","","","","","canvas-keyboard-response","234","724077","0.0-12.0-2.44","2d_cat_multi_stim_exp1","2022-4-12","15:26:44","25","75","3","9","10","40","30","120","30","23","[""White""]","Yes","Female","2214993","1115","i","learn","","","learn_trial","36.6667","40","out","0","1","","","","","","","","","","","","","","","","","","","","",""
"","","","","","canvas-keyboard-response","235","724586","0.0-12.0-3.44","2d_cat_multi_stim_exp1","2022-4-12","15:26:44","25","75","3","9","10","40","30","120","30","23","[""White""]","Yes","Female","2214993","null","null","learn_feedback","","","learn_feedback","36.6667","40","out","","","","","","","","","","","","","","","","","","","","","","",""
"","","","","","canvas-keyboard-response","236","724644","0.0-12.0-4.44","2d_cat_multi_stim_exp1","2022-4-12","15:26:44","25","75","3","9","10","40","30","120","30","23","[""White""]","Yes","Female","2214993","null","null","","","","clear_screen","","","","","","","","","","","","","","","","","","","","","","","","","",""
"","","","","","canvas-keyboard-response","237","725154","0.0-12.0-0.45","2d_cat_multi_stim_exp1","2022-4-12","15:26:44","25","75","3","9","10","40","30","120","30","23","[""White""]","Yes","Female","2214993","null","null","","","","fixation","","","","","","","","","","","","","","","","","","","","","","","","","",""
"","","","","","canvas-keyboard-response","238","725668","0.0-12.0-1.45","2d_cat_multi_stim_exp1","2022-4-12","15:26:44","25","75","3","9","10","40","30","120","30","23","[""White""]","Yes","Female","2214993","null","null","","","","clear_screen","","","","","","","","","","","","","","","","","","","","","","","","","",""
"","","","","","canvas-keyboard-response","239","726806","0.0-12.0-2.45","2d_cat_multi_stim_exp1","2022-4-12","15:26:44","25","75","3","9","10","40","30","120","30","23","[""White""]","Yes","Female","2214993","1129","i","learn","","","learn_trial","40","120","out","0","1","","","","","","","","","","","","","","","","","","","","",""
"","","","","","canvas-keyboard-response","240","727317","0.0-12.0-3.45","2d_cat_multi_stim_exp1","2022-4-12","15:26:44","25","75","3","9","10","40","30","120","30","23","[""White""]","Yes","Female","2214993","null","null","learn_feedback","","","learn_feedback","40","120","out","","","","","","","","","","","","","","","","","","","","","","",""
"","","","","","canvas-keyboard-response","241","727380","0.0-12.0-4.45","2d_cat_multi_stim_exp1","2022-4-12","15:26:44","25","75","3","9","10","40","30","120","30","23","[""White""]","Yes","Female","2214993","null","null","","","","clear_screen","","","","","","","","","","","","","","","","","","","","","","","","","",""
"","","","","","canvas-keyboard-response","242","727888","0.0-12.0-0.46","2d_cat_multi_stim_exp1","2022-4-12","15:26:44","25","75","3","9","10","40","30","120","30","23","[""White""]","Yes","Female","2214993","null","null","","","","fixation","","","","","","","","","","","","","","","","","","","","","","","","","",""
"","","","","","canvas-keyboard-response","243","728399","0.0-12.0-1.46","2d_cat_multi_stim_exp1","2022-4-12","15:26:44","25","75","3","9","10","40","30","120","30","23","[""White""]","Yes","Female","2214993","null","null","","","","clear_screen","","","","","","","","","","","","","","","","","","","","","","","","","",""
"","","","","","canvas-keyboard-response","244","729270","0.0-12.0-2.46","2d_cat_multi_stim_exp1","2022-4-12","15:26:44","25","75","3","9","10","40","30","120","30","23","[""White""]","Yes","Female","2214993","860","u","learn","","","learn_trial","33.3333","60","out","1","0","","","","","","","","","","","","","","","","","","","","",""
"","","","","","canvas-keyboard-response","245","730280","0.0-12.0-3.46","2d_cat_multi_stim_exp1","2022-4-12","15:26:44","25","75","3","9","10","40","30","120","30","23","[""White""]","Yes","Female","2214993","null","null","learn_feedback","","","learn_feedback","33.3333","60","out","","","","","","","","","","","","","","","","","","","","","","",""
"","","","","","canvas-keyboard-response","246","730342","0.0-12.0-4.46","2d_cat_multi_stim_exp1","2022-4-12","15:26:44","25","75","3","9","10","40","30","120","30","23","[""White""]","Yes","Female","2214993","null","null","","","","clear_screen","","","","","","","","","","","","","","","","","","","","","","","","","",""
"","","","","","canvas-keyboard-response","247","730853","0.0-12.0-0.47","2d_cat_multi_stim_exp1","2022-4-12","15:26:44","25","75","3","9","10","40","30","120","30","23","[""White""]","Yes","Female","2214993","null","null","","","","fixation","","","","","","","","","","","","","","","","","","","","","","","","","",""
"","","","","","canvas-keyboard-response","248","731362","0.0-12.0-1.47","2d_cat_multi_stim_exp1","2022-4-12","15:26:44","25","75","3","9","10","40","30","120","30","23","[""White""]","Yes","Female","2214993","null","null","","","","clear_screen","","","","","","","","","","","","","","","","","","","","","","","","","",""
"","","","","","canvas-keyboard-response","249","732582","0.0-12.0-2.47","2d_cat_multi_stim_exp1","2022-4-12","15:26:44","25","75","3","9","10","40","30","120","30","23","[""White""]","Yes","Female","2214993","1211","i","learn","","","learn_trial","26.6667","50","out","0","1","","","","","","","","","","","","","","","","","","","","",""
"","","","","","canvas-keyboard-response","250","733092","0.0-12.0-3.47","2d_cat_multi_stim_exp1","2022-4-12","15:26:44","25","75","3","9","10","40","30","120","30","23","[""White""]","Yes","Female","2214993","null","null","learn_feedback","","","learn_feedback","26.6667","50","out","","","","","","","","","","","","","","","","","","","","","","",""
"","","","","","canvas-keyboard-response","251","733152","0.0-12.0-4.47","2d_cat_multi_stim_exp1","2022-4-12","15:26:44","25","75","3","9","10","40","30","120","30","23","[""White""]","Yes","Female","2214993","null","null","","","","clear_screen","","","","","","","","","","","","","","","","","","","","","","","","","",""
"","","","","","canvas-keyboard-response","252","733661","0.0-12.0-0.48","2d_cat_multi_stim_exp1","2022-4-12","15:26:44","25","75","3","9","10","40","30","120","30","23","[""White""]","Yes","Female","2214993","null","null","","","","fixation","","","","","","","","","","","","","","","","","","","","","","","","","",""
"","","","","","canvas-keyboard-response","253","734172","0.0-12.0-1.48","2d_cat_multi_stim_exp1","2022-4-12","15:26:44","25","75","3","9","10","40","30","120","30","23","[""White""]","Yes","Female","2214993","null","null","","","","clear_screen","","","","","","","","","","","","","","","","","","","","","","","","","",""
"","","","","","canvas-keyboard-response","254","735438","0.0-12.0-2.48","2d_cat_multi_stim_exp1","2022-4-12","15:26:44","25","75","3","9","10","40","30","120","30","23","[""White""]","Yes","Female","2214993","1255","u","learn","","","learn_trial","25","75","in","1","1","","","","","","","","","","","","","","","","","","","","",""
"","","","","","canvas-keyboard-response","255","735950","0.0-12.0-3.48","2d_cat_multi_stim_exp1","2022-4-12","15:26:44","25","75","3","9","10","40","30","120","30","23","[""White""]","Yes","Female","2214993","null","null","learn_feedback","","","learn_feedback","25","75","in","","","","","","","","","","","","","","","","","","","","","","",""
"","","","","","canvas-keyboard-response","256","736013","0.0-12.0-4.48","2d_cat_multi_stim_exp1","2022-4-12","15:26:44","25","75","3","9","10","40","30","120","30","23","[""White""]","Yes","Female","2214993","null","null","","","","clear_screen","","","","","","","","","","","","","","","","","","","","","","","","","",""
"","","","","","canvas-keyboard-response","257","736525","0.0-12.0-0.49","2d_cat_multi_stim_exp1","2022-4-12","15:26:44","25","75","3","9","10","40","30","120","30","23","[""White""]","Yes","Female","2214993","null","null","","","","fixation","","","","","","","","","","","","","","","","","","","","","","","","","",""
"","","","","","canvas-keyboard-response","258","737034","0.0-12.0-1.49","2d_cat_multi_stim_exp1","2022-4-12","15:26:44","25","75","3","9","10","40","30","120","30","23","[""White""]","Yes","Female","2214993","null","null","","","","clear_screen","","","","","","","","","","","","","","","","","","","","","","","","","",""
"","","","","","canvas-keyboard-response","259","738286","0.0-12.0-2.49","2d_cat_multi_stim_exp1","2022-4-12","15:26:44","25","75","3","9","10","40","30","120","30","23","[""White""]","Yes","Female","2214993","1242","u","learn","","","learn_trial","23.3473","67.4888","in","1","1","","","","","","","","","","","","","","","","","","","","",""
"","","","","","canvas-keyboard-response","260","738795","0.0-12.0-3.49","2d_cat_multi_stim_exp1","2022-4-12","15:26:44","25","75","3","9","10","40","30","120","30","23","[""White""]","Yes","Female","2214993","null","null","learn_feedback","","","learn_feedback","23.3473","67.4888","in","","","","","","","","","","","","","","","","","","","","","","",""
"","","","","","canvas-keyboard-response","261","738850","0.0-12.0-4.49","2d_cat_multi_stim_exp1","2022-4-12","15:26:44","25","75","3","9","10","40","30","120","30","23","[""White""]","Yes","Female","2214993","null","null","","","","clear_screen","","","","","","","","","","","","","","","","","","","","","","","","","",""
"","","","","","canvas-keyboard-response","262","739358","0.0-12.0-0.50","2d_cat_multi_stim_exp1","2022-4-12","15:26:44","25","75","3","9","10","40","30","120","30","23","[""White""]","Yes","Female","2214993","null","null","","","","fixation","","","","","","","","","","","","","","","","","","","","","","","","","",""
"","","","","","canvas-keyboard-response","263","739871","0.0-12.0-1.50","2d_cat_multi_stim_exp1","2022-4-12","15:26:44","25","75","3","9","10","40","30","120","30","23","[""White""]","Yes","Female","2214993","null","null","","","","clear_screen","","","","","","","","","","","","","","","","","","","","","","","","","",""
"","","","","","canvas-keyboard-response","264","740798","0.0-12.0-2.50","2d_cat_multi_stim_exp1","2022-4-12","15:26:44","25","75","3","9","10","40","30","120","30","23","[""White""]","Yes","Female","2214993","917","u","learn","","","learn_trial","25","75","in","1","1","","","","","","","","","","","","","","","","","","","","",""
"","","","","","canvas-keyboard-response","265","741307","0.0-12.0-3.50","2d_cat_multi_stim_exp1","2022-4-12","15:26:44","25","75","3","9","10","40","30","120","30","23","[""White""]","Yes","Female","2214993","null","null","learn_feedback","","","learn_feedback","25","75","in","","","","","","","","","","","","","","","","","","","","","","",""
"","","","","","canvas-keyboard-response","266","741368","0.0-12.0-4.50","2d_cat_multi_stim_exp1","2022-4-12","15:26:44","25","75","3","9","10","40","30","120","30","23","[""White""]","Yes","Female","2214993","null","null","","","","clear_screen","","","","","","","","","","","","","","","","","","","","","","","","","",""
"","","","","","canvas-keyboard-response","267","741879","0.0-12.0-0.51","2d_cat_multi_stim_exp1","2022-4-12","15:26:44","25","75","3","9","10","40","30","120","30","23","[""White""]","Yes","Female","2214993","null","null","","","","fixation","","","","","","","","","","","","","","","","","","","","","","","","","",""
"","","","","","canvas-keyboard-response","268","742392","0.0-12.0-1.51","2d_cat_multi_stim_exp1","2022-4-12","15:26:44","25","75","3","9","10","40","30","120","30","23","[""White""]","Yes","Female","2214993","null","null","","","","clear_screen","","","","","","","","","","","","","","","","","","","","","","","","","",""
"","","","","","canvas-keyboard-response","269","743534","0.0-12.0-2.51","2d_cat_multi_stim_exp1","2022-4-12","15:26:44","25","75","3","9","10","40","30","120","30","23","[""White""]","Yes","Female","2214993","1132","i","learn","","","learn_trial","30","100","out","0","1","","","","","","","","","","","","","","","","","","","","",""
"","","","","","canvas-keyboard-response","270","744046","0.0-12.0-3.51","2d_cat_multi_stim_exp1","2022-4-12","15:26:44","25","75","3","9","10","40","30","120","30","23","[""White""]","Yes","Female","2214993","null","null","learn_feedback","","","learn_feedback","30","100","out","","","","","","","","","","","","","","","","","","","","","","",""
"","","","","","canvas-keyboard-response","271","744106","0.0-12.0-4.51","2d_cat_multi_stim_exp1","2022-4-12","15:26:44","25","75","3","9","10","40","30","120","30","23","[""White""]","Yes","Female","2214993","null","null","","","","clear_screen","","","","","","","","","","","","","","","","","","","","","","","","","",""
"","","","","","canvas-keyboard-response","272","744614","0.0-12.0-0.52","2d_cat_multi_stim_exp1","2022-4-12","15:26:44","25","75","3","9","10","40","30","120","30","23","[""White""]","Yes","Female","2214993","null","null","","","","fixation","","","","","","","","","","","","","","","","","","","","","","","","","",""
"","","","","","canvas-keyboard-response","273","745128","0.0-12.0-1.52","2d_cat_multi_stim_exp1","2022-4-12","15:26:44","25","75","3","9","10","40","30","120","30","23","[""White""]","Yes","Female","2214993","null","null","","","","clear_screen","","","","","","","","","","","","","","","","","","","","","","","","","",""
"","","","","","canvas-keyboard-response","274","746149","0.0-12.0-2.52","2d_cat_multi_stim_exp1","2022-4-12","15:26:44","25","75","3","9","10","40","30","120","30","23","[""White""]","Yes","Female","2214993","1010","i","learn","","","learn_trial","25","75","in","0","0","","","","","","","","","","","","","","","","","","","","",""
"","","","","","canvas-keyboard-response","275","747160","0.0-12.0-3.52","2d_cat_multi_stim_exp1","2022-4-12","15:26:44","25","75","3","9","10","40","30","120","30","23","[""White""]","Yes","Female","2214993","null","null","learn_feedback","","","learn_feedback","25","75","in","","","","","","","","","","","","","","","","","","","","","","",""
"","","","","","canvas-keyboard-response","276","747220","0.0-12.0-4.52","2d_cat_multi_stim_exp1","2022-4-12","15:26:44","25","75","3","9","10","40","30","120","30","23","[""White""]","Yes","Female","2214993","null","null","","","","clear_screen","","","","","","","","","","","","","","","","","","","","","","","","","",""
"","","","","","canvas-keyboard-response","277","747729","0.0-12.0-0.53","2d_cat_multi_stim_exp1","2022-4-12","15:26:44","25","75","3","9","10","40","30","120","30","23","[""White""]","Yes","Female","2214993","null","null","","","","fixation","","","","","","","","","","","","","","","","","","","","","","","","","",""
"","","","","","canvas-keyboard-response","278","748243","0.0-12.0-1.53","2d_cat_multi_stim_exp1","2022-4-12","15:26:44","25","75","3","9","10","40","30","120","30","23","[""White""]","Yes","Female","2214993","null","null","","","","clear_screen","","","","","","","","","","","","","","","","","","","","","","","","","",""
"","","","","","canvas-keyboard-response","279","748701","0.0-12.0-2.53","2d_cat_multi_stim_exp1","2022-4-12","15:26:44","25","75","3","9","10","40","30","120","30","23","[""White""]","Yes","Female","2214993","450","u","learn","","","learn_trial","26.4216","67.0746","in","1","1","","","","","","","","","","","","","","","","","","","","",""
"","","","","","canvas-keyboard-response","280","749214","0.0-12.0-3.53","2d_cat_multi_stim_exp1","2022-4-12","15:26:44","25","75","3","9","10","40","30","120","30","23","[""White""]","Yes","Female","2214993","null","null","learn_feedback","","","learn_feedback","26.4216","67.0746","in","","","","","","","","","","","","","","","","","","","","","","",""
"","","","","","canvas-keyboard-response","281","749275","0.0-12.0-4.53","2d_cat_multi_stim_exp1","2022-4-12","15:26:44","25","75","3","9","10","40","30","120","30","23","[""White""]","Yes","Female","2214993","null","null","","","","clear_screen","","","","","","","","","","","","","","","","","","","","","","","","","",""
"","","","","","canvas-keyboard-response","282","749786","0.0-12.0-0.54","2d_cat_multi_stim_exp1","2022-4-12","15:26:44","25","75","3","9","10","40","30","120","30","23","[""White""]","Yes","Female","2214993","null","null","","","","fixation","","","","","","","","","","","","","","","","","","","","","","","","","",""
"","","","","","canvas-keyboard-response","283","750300","0.0-12.0-1.54","2d_cat_multi_stim_exp1","2022-4-12","15:26:44","25","75","3","9","10","40","30","120","30","23","[""White""]","Yes","Female","2214993","null","null","","","","clear_screen","","","","","","","","","","","","","","","","","","","","","","","","","",""
"","","","","","canvas-keyboard-response","284","751078","0.0-12.0-2.54","2d_cat_multi_stim_exp1","2022-4-12","15:26:44","25","75","3","9","10","40","30","120","30","23","[""White""]","Yes","Female","2214993","770","u","learn","","","learn_trial","31","75","in","1","1","","","","","","","","","","","","","","","","","","","","",""
"","","","","","canvas-keyboard-response","285","751589","0.0-12.0-3.54","2d_cat_multi_stim_exp1","2022-4-12","15:26:44","25","75","3","9","10","40","30","120","30","23","[""White""]","Yes","Female","2214993","null","null","learn_feedback","","","learn_feedback","31","75","in","","","","","","","","","","","","","","","","","","","","","","",""
"","","","","","canvas-keyboard-response","286","751649","0.0-12.0-4.54","2d_cat_multi_stim_exp1","2022-4-12","15:26:44","25","75","3","9","10","40","30","120","30","23","[""White""]","Yes","Female","2214993","null","null","","","","clear_screen","","","","","","","","","","","","","","","","","","","","","","","","","",""
"","","","","","canvas-keyboard-response","287","752157","0.0-12.0-0.55","2d_cat_multi_stim_exp1","2022-4-12","15:26:44","25","75","3","9","10","40","30","120","30","23","[""White""]","Yes","Female","2214993","null","null","","","","fixation","","","","","","","","","","","","","","","","","","","","","","","","","",""
"","","","","","canvas-keyboard-response","288","752668","0.0-12.0-1.55","2d_cat_multi_stim_exp1","2022-4-12","15:26:44","25","75","3","9","10","40","30","120","30","23","[""White""]","Yes","Female","2214993","null","null","","","","clear_screen","","","","","","","","","","","","","","","","","","","","","","","","","",""
"","","","","","canvas-keyboard-response","289","753286","0.0-12.0-2.55","2d_cat_multi_stim_exp1","2022-4-12","15:26:44","25","75","3","9","10","40","30","120","30","23","[""White""]","Yes","Female","2214993","608","u","learn","","","learn_trial","27.2592","69.0786","in","1","1","","","","","","","","","","","","","","","","","","","","",""
"","","","","","canvas-keyboard-response","290","753796","0.0-12.0-3.55","2d_cat_multi_stim_exp1","2022-4-12","15:26:44","25","75","3","9","10","40","30","120","30","23","[""White""]","Yes","Female","2214993","null","null","learn_feedback","","","learn_feedback","27.2592","69.0786","in","","","","","","","","","","","","","","","","","","","","","","",""
"","","","","","canvas-keyboard-response","291","753854","0.0-12.0-4.55","2d_cat_multi_stim_exp1","2022-4-12","15:26:44","25","75","3","9","10","40","30","120","30","23","[""White""]","Yes","Female","2214993","null","null","","","","clear_screen","","","","","","","","","","","","","","","","","","","","","","","","","",""
"","","","","","canvas-keyboard-response","292","754363","0.0-12.0-0.56","2d_cat_multi_stim_exp1","2022-4-12","15:26:44","25","75","3","9","10","40","30","120","30","23","[""White""]","Yes","Female","2214993","null","null","","","","fixation","","","","","","","","","","","","","","","","","","","","","","","","","",""
"","","","","","canvas-keyboard-response","293","754876","0.0-12.0-1.56","2d_cat_multi_stim_exp1","2022-4-12","15:26:44","25","75","3","9","10","40","30","120","30","23","[""White""]","Yes","Female","2214993","null","null","","","","clear_screen","","","","","","","","","","","","","","","","","","","","","","","","","",""
"","","","","","canvas-keyboard-response","294","755999","0.0-12.0-2.56","2d_cat_multi_stim_exp1","2022-4-12","15:26:44","25","75","3","9","10","40","30","120","30","23","[""White""]","Yes","Female","2214993","1111","i","learn","","","learn_trial","10","40","out","0","1","","","","","","","","","","","","","","","","","","","","",""
"","","","","","canvas-keyboard-response","295","756507","0.0-12.0-3.56","2d_cat_multi_stim_exp1","2022-4-12","15:26:44","25","75","3","9","10","40","30","120","30","23","[""White""]","Yes","Female","2214993","null","null","learn_feedback","","","learn_feedback","10","40","out","","","","","","","","","","","","","","","","","","","","","","",""
