"success","timeout","failed_images","failed_audio","failed_video","trial_type","trial_index","time_elapsed","internal_node_id","exp_name","date","time","angle_mean_in","radius_mean_in","angle_sd_in","radius_sd_in","angle_min_out","angle_max_out","radius_min_out","radius_max_out","sub_n","age","race","ethnicity","gender","exp_duration","rt","response","exp_trial_type","stimulus","view_history","screen_id","angle","radius","distribution","choice","correct","order","angle_a","radius_a","angle_b","radius_b","angle_c","radius_c","jkl_correct","transfer_trial_type","choice_set","abc_correct","tc_correct","tc_angle","tdc_a","tdc_b","tdc_c","pair","category_a","category_b","category_c","question_order"
"true","false","[]","[]","[]","preload","0","17","0.0-0.0","2d_cat_multi_stim_exp1","2022-4-7","12:40:4","25","75","3","9","10","40","30","120","19","20","[""Asian""]","No","Female","2338952","","","","","","","","","","","","","","","","","","","","","","","","","","","","","","","",""
"","","","","","survey-html-form","1","596365","0.0-1.0","2d_cat_multi_stim_exp1","2022-4-7","12:40:4","25","75","3","9","10","40","30","120","19","20","[""Asian""]","No","Female","2338952","596335","{""response"":""19""}","enter-sub-number","","","","","","","","","","","","","","","","","","","","","","","","","","","","",""
"true","","","","","fullscreen","2","599147","0.0-2.0","2d_cat_multi_stim_exp1","2022-4-7","12:40:4","25","75","3","9","10","40","30","120","19","20","[""Asian""]","No","Female","2338952","","","","","","","","","","","","","","","","","","","","","","","","","","","","","","","",""
"","","","","","image-button-response","3","634227","0.0-3.0","2d_cat_multi_stim_exp1","2022-4-7","12:40:4","25","75","3","9","10","40","30","120","19","20","[""Asian""]","No","Female","2338952","35069","0","","consent.png","","","","","","","","","","","","","","","","","","","","","","","","","","","",""
"","","","","","html-button-response","4","636483","0.0-4.0","2d_cat_multi_stim_exp1","2022-4-7","12:40:4","25","75","3","9","10","40","30","120","19","20","[""Asian""]","No","Female","2338952","2250","0","","<div style= ""font-size:25px;"" <p> <strong> Welcome to the experiment! </strong><br> <p style=""color:#8B0000; font-size:25px;""><strong> Please do NOT exit full screen until you are done with the experiment. </strong> </p><p style=""font-size:25px;color:#8B0000;""> <strong> The experiment will be canceled and your data will be lost <br> if you try to go back or refresh the page at any point during the experiment.</strong> </p><br><p> <strong> Thanks in advance for your contribution to our research! </strong></p>","","","","","","","","","","","","","","","","","","","","","","","","","","","",""
"","","","","","instructions","5","673811","0.0-5.0","2d_cat_multi_stim_exp1","2022-4-7","12:40:4","25","75","3","9","10","40","30","120","19","20","[""Asian""]","No","Female","2338952","37326","","","","[{""page_index"":0,""viewing_time"":2813},{""page_index"":1,""viewing_time"":1808},{""page_index"":2,""viewing_time"":10855},{""page_index"":3,""viewing_time"":21849}]","instructions_1","","","","","","","","","","","","","","","","","","","","","","","","","",""
"","","","","","instructions","6","676090","0.0-6.0","2d_cat_multi_stim_exp1","2022-4-7","12:40:4","25","75","3","9","10","40","30","120","19","20","[""Asian""]","No","Female","2338952","2276","","","","[{""page_index"":0,""viewing_time"":2275}]","Click to see the kinds of turtles that will appear in the study.","","","","","","","","","","","","","","","","","","","","","","","","","",""
"","","","","","canvas-keyboard-response","7","691106","0.0-7.0","2d_cat_multi_stim_exp1","2022-4-7","12:40:4","25","75","3","9","10","40","30","120","19","20","[""Asian""]","No","Female","2338952","null","null","","","","demo_range","","","","","","","","","","","","","","","","","","","","","","","","","",""
"","","","","","instructions","8","693467","0.0-8.0","2d_cat_multi_stim_exp1","2022-4-7","12:40:4","25","75","3","9","10","40","30","120","19","20","[""Asian""]","No","Female","2338952","1859","","","","[{""page_index"":0,""viewing_time"":1858}]","Click to see some turtles in the subspecies.","","","","","","","","","","","","","","","","","","","","","","","","","",""
"","","","","","canvas-keyboard-response","9","708482","0.0-9.0","2d_cat_multi_stim_exp1","2022-4-7","12:40:4","25","75","3","9","10","40","30","120","19","20","[""Asian""]","No","Female","2338952","null","null","","","","demo_in","","","","","","","","","","","","","","","","","","","","","","","","","",""
"","","","","","instructions","10","743347","0.0-10.0","2d_cat_multi_stim_exp1","2022-4-7","12:40:4","25","75","3","9","10","40","30","120","19","20","[""Asian""]","No","Female","2338952","34362","","","","[{""page_index"":0,""viewing_time"":4162},{""page_index"":1,""viewing_time"":25640},{""page_index"":2,""viewing_time"":4560}]","instructions_2","","","","","","","","","","","","","","","","","","","","","","","","","",""
"","","","","","instructions","11","744843","0.0-11.0","2d_cat_multi_stim_exp1","2022-4-7","12:40:4","25","75","3","9","10","40","30","120","19","20","[""Asian""]","No","Female","2338952","1491","","","","[{""page_index"":0,""viewing_time"":1490}]","Click to begin the first phase of the experiment.","","","","","","","","","","","","","","","","","","","","","","","","","",""
"","","","","","canvas-keyboard-response","12","745353","0.0-12.0-0.0","2d_cat_multi_stim_exp1","2022-4-7","12:40:4","25","75","3","9","10","40","30","120","19","20","[""Asian""]","No","Female","2338952","null","null","","","","fixation","","","","","","","","","","","","","","","","","","","","","","","","","",""
"","","","","","canvas-keyboard-response","13","745866","0.0-12.0-1.0","2d_cat_multi_stim_exp1","2022-4-7","12:40:4","25","75","3","9","10","40","30","120","19","20","[""Asian""]","No","Female","2338952","null","null","","","","clear_screen","","","","","","","","","","","","","","","","","","","","","","","","","",""
"","","","","","canvas-keyboard-response","14","748618","0.0-12.0-2.0","2d_cat_multi_stim_exp1","2022-4-7","12:40:4","25","75","3","9","10","40","30","120","19","20","[""Asian""]","No","Female","2338952","2742","u","learn","","","learn_trial","25","75","in","1","1","","","","","","","","","","","","","","","","","","","","",""
"","","","","","canvas-keyboard-response","15","749130","0.0-12.0-3.0","2d_cat_multi_stim_exp1","2022-4-7","12:40:4","25","75","3","9","10","40","30","120","19","20","[""Asian""]","No","Female","2338952","null","null","learn_feedback","","","learn_feedback","25","75","in","","","","","","","","","","","","","","","","","","","","","","",""
"","","","","","canvas-keyboard-response","16","749194","0.0-12.0-4.0","2d_cat_multi_stim_exp1","2022-4-7","12:40:4","25","75","3","9","10","40","30","120","19","20","[""Asian""]","No","Female","2338952","null","null","","","","clear_screen","","","","","","","","","","","","","","","","","","","","","","","","","",""
"","","","","","canvas-keyboard-response","17","749705","0.0-12.0-0.1","2d_cat_multi_stim_exp1","2022-4-7","12:40:4","25","75","3","9","10","40","30","120","19","20","[""Asian""]","No","Female","2338952","null","null","","","","fixation","","","","","","","","","","","","","","","","","","","","","","","","","",""
"","","","","","canvas-keyboard-response","18","750218","0.0-12.0-1.1","2d_cat_multi_stim_exp1","2022-4-7","12:40:4","25","75","3","9","10","40","30","120","19","20","[""Asian""]","No","Female","2338952","null","null","","","","clear_screen","","","","","","","","","","","","","","","","","","","","","","","","","",""
"","","","","","canvas-keyboard-response","19","750994","0.0-12.0-2.1","2d_cat_multi_stim_exp1","2022-4-7","12:40:4","25","75","3","9","10","40","30","120","19","20","[""Asian""]","No","Female","2338952","766","u","learn","","","learn_trial","36.6667","70","out","1","0","","","","","","","","","","","","","","","","","","","","",""
"","","","","","canvas-keyboard-response","20","752004","0.0-12.0-3.1","2d_cat_multi_stim_exp1","2022-4-7","12:40:4","25","75","3","9","10","40","30","120","19","20","[""Asian""]","No","Female","2338952","null","null","learn_feedback","","","learn_feedback","36.6667","70","out","","","","","","","","","","","","","","","","","","","","","","",""
"","","","","","canvas-keyboard-response","21","752066","0.0-12.0-4.1","2d_cat_multi_stim_exp1","2022-4-7","12:40:4","25","75","3","9","10","40","30","120","19","20","[""Asian""]","No","Female","2338952","null","null","","","","clear_screen","","","","","","","","","","","","","","","","","","","","","","","","","",""
"","","","","","canvas-keyboard-response","22","752575","0.0-12.0-0.2","2d_cat_multi_stim_exp1","2022-4-7","12:40:4","25","75","3","9","10","40","30","120","19","20","[""Asian""]","No","Female","2338952","null","null","","","","fixation","","","","","","","","","","","","","","","","","","","","","","","","","",""
"","","","","","canvas-keyboard-response","23","753086","0.0-12.0-1.2","2d_cat_multi_stim_exp1","2022-4-7","12:40:4","25","75","3","9","10","40","30","120","19","20","[""Asian""]","No","Female","2338952","null","null","","","","clear_screen","","","","","","","","","","","","","","","","","","","","","","","","","",""
"","","","","","canvas-keyboard-response","24","753986","0.0-12.0-2.2","2d_cat_multi_stim_exp1","2022-4-7","12:40:4","25","75","3","9","10","40","30","120","19","20","[""Asian""]","No","Female","2338952","889","u","learn","","","learn_trial","23.3333","60","out","1","0","","","","","","","","","","","","","","","","","","","","",""
"","","","","","canvas-keyboard-response","25","754997","0.0-12.0-3.2","2d_cat_multi_stim_exp1","2022-4-7","12:40:4","25","75","3","9","10","40","30","120","19","20","[""Asian""]","No","Female","2338952","null","null","learn_feedback","","","learn_feedback","23.3333","60","out","","","","","","","","","","","","","","","","","","","","","","",""
"","","","","","canvas-keyboard-response","26","755058","0.0-12.0-4.2","2d_cat_multi_stim_exp1","2022-4-7","12:40:4","25","75","3","9","10","40","30","120","19","20","[""Asian""]","No","Female","2338952","null","null","","","","clear_screen","","","","","","","","","","","","","","","","","","","","","","","","","",""
"","","","","","canvas-keyboard-response","27","755570","0.0-12.0-0.3","2d_cat_multi_stim_exp1","2022-4-7","12:40:4","25","75","3","9","10","40","30","120","19","20","[""Asian""]","No","Female","2338952","null","null","","","","fixation","","","","","","","","","","","","","","","","","","","","","","","","","",""
"","","","","","canvas-keyboard-response","28","756082","0.0-12.0-1.3","2d_cat_multi_stim_exp1","2022-4-7","12:40:4","25","75","3","9","10","40","30","120","19","20","[""Asian""]","No","Female","2338952","null","null","","","","clear_screen","","","","","","","","","","","","","","","","","","","","","","","","","",""
"","","","","","canvas-keyboard-response","29","757082","0.0-12.0-2.3","2d_cat_multi_stim_exp1","2022-4-7","12:40:4","25","75","3","9","10","40","30","120","19","20","[""Asian""]","No","Female","2338952","990","i","learn","","","learn_trial","25.9271","66.4405","in","0","0","","","","","","","","","","","","","","","","","","","","",""
"","","","","","canvas-keyboard-response","30","758092","0.0-12.0-3.3","2d_cat_multi_stim_exp1","2022-4-7","12:40:4","25","75","3","9","10","40","30","120","19","20","[""Asian""]","No","Female","2338952","null","null","learn_feedback","","","learn_feedback","25.9271","66.4405","in","","","","","","","","","","","","","","","","","","","","","","",""
"","","","","","canvas-keyboard-response","31","758156","0.0-12.0-4.3","2d_cat_multi_stim_exp1","2022-4-7","12:40:4","25","75","3","9","10","40","30","120","19","20","[""Asian""]","No","Female","2338952","null","null","","","","clear_screen","","","","","","","","","","","","","","","","","","","","","","","","","",""
"","","","","","canvas-keyboard-response","32","758667","0.0-12.0-0.4","2d_cat_multi_stim_exp1","2022-4-7","12:40:4","25","75","3","9","10","40","30","120","19","20","[""Asian""]","No","Female","2338952","null","null","","","","fixation","","","","","","","","","","","","","","","","","","","","","","","","","",""
"","","","","","canvas-keyboard-response","33","759180","0.0-12.0-1.4","2d_cat_multi_stim_exp1","2022-4-7","12:40:4","25","75","3","9","10","40","30","120","19","20","[""Asian""]","No","Female","2338952","null","null","","","","clear_screen","","","","","","","","","","","","","","","","","","","","","","","","","",""
"","","","","","canvas-keyboard-response","34","760098","0.0-12.0-2.4","2d_cat_multi_stim_exp1","2022-4-7","12:40:4","25","75","3","9","10","40","30","120","19","20","[""Asian""]","No","Female","2338952","909","u","learn","","","learn_trial","25","75","in","1","1","","","","","","","","","","","","","","","","","","","","",""
"","","","","","canvas-keyboard-response","35","760613","0.0-12.0-3.4","2d_cat_multi_stim_exp1","2022-4-7","12:40:4","25","75","3","9","10","40","30","120","19","20","[""Asian""]","No","Female","2338952","null","null","learn_feedback","","","learn_feedback","25","75","in","","","","","","","","","","","","","","","","","","","","","","",""
"","","","","","canvas-keyboard-response","36","760675","0.0-12.0-4.4","2d_cat_multi_stim_exp1","2022-4-7","12:40:4","25","75","3","9","10","40","30","120","19","20","[""Asian""]","No","Female","2338952","null","null","","","","clear_screen","","","","","","","","","","","","","","","","","","","","","","","","","",""
"","","","","","canvas-keyboard-response","37","761185","0.0-12.0-0.5","2d_cat_multi_stim_exp1","2022-4-7","12:40:4","25","75","3","9","10","40","30","120","19","20","[""Asian""]","No","Female","2338952","null","null","","","","fixation","","","","","","","","","","","","","","","","","","","","","","","","","",""
"","","","","","canvas-keyboard-response","38","761698","0.0-12.0-1.5","2d_cat_multi_stim_exp1","2022-4-7","12:40:4","25","75","3","9","10","40","30","120","19","20","[""Asian""]","No","Female","2338952","null","null","","","","clear_screen","","","","","","","","","","","","","","","","","","","","","","","","","",""
"","","","","","canvas-keyboard-response","39","762570","0.0-12.0-2.5","2d_cat_multi_stim_exp1","2022-4-7","12:40:4","25","75","3","9","10","40","30","120","19","20","[""Asian""]","No","Female","2338952","863","u","learn","","","learn_trial","33.3333","110","out","1","0","","","","","","","","","","","","","","","","","","","","",""
"","","","","","canvas-keyboard-response","40","763578","0.0-12.0-3.5","2d_cat_multi_stim_exp1","2022-4-7","12:40:4","25","75","3","9","10","40","30","120","19","20","[""Asian""]","No","Female","2338952","null","null","learn_feedback","","","learn_feedback","33.3333","110","out","","","","","","","","","","","","","","","","","","","","","","",""
"","","","","","canvas-keyboard-response","41","763641","0.0-12.0-4.5","2d_cat_multi_stim_exp1","2022-4-7","12:40:4","25","75","3","9","10","40","30","120","19","20","[""Asian""]","No","Female","2338952","null","null","","","","clear_screen","","","","","","","","","","","","","","","","","","","","","","","","","",""
"","","","","","canvas-keyboard-response","42","764149","0.0-12.0-0.6","2d_cat_multi_stim_exp1","2022-4-7","12:40:4","25","75","3","9","10","40","30","120","19","20","[""Asian""]","No","Female","2338952","null","null","","","","fixation","","","","","","","","","","","","","","","","","","","","","","","","","",""
"","","","","","canvas-keyboard-response","43","764662","0.0-12.0-1.6","2d_cat_multi_stim_exp1","2022-4-7","12:40:4","25","75","3","9","10","40","30","120","19","20","[""Asian""]","No","Female","2338952","null","null","","","","clear_screen","","","","","","","","","","","","","","","","","","","","","","","","","",""
"","","","","","canvas-keyboard-response","44","766730","0.0-12.0-2.6","2d_cat_multi_stim_exp1","2022-4-7","12:40:4","25","75","3","9","10","40","30","120","19","20","[""Asian""]","No","Female","2338952","2056","u","learn","","","learn_trial","26.6667","80","out","1","0","","","","","","","","","","","","","","","","","","","","",""
"","","","","","canvas-keyboard-response","45","767739","0.0-12.0-3.6","2d_cat_multi_stim_exp1","2022-4-7","12:40:4","25","75","3","9","10","40","30","120","19","20","[""Asian""]","No","Female","2338952","null","null","learn_feedback","","","learn_feedback","26.6667","80","out","","","","","","","","","","","","","","","","","","","","","","",""
"","","","","","canvas-keyboard-response","46","767798","0.0-12.0-4.6","2d_cat_multi_stim_exp1","2022-4-7","12:40:4","25","75","3","9","10","40","30","120","19","20","[""Asian""]","No","Female","2338952","null","null","","","","clear_screen","","","","","","","","","","","","","","","","","","","","","","","","","",""
"","","","","","canvas-keyboard-response","47","768308","0.0-12.0-0.7","2d_cat_multi_stim_exp1","2022-4-7","12:40:4","25","75","3","9","10","40","30","120","19","20","[""Asian""]","No","Female","2338952","null","null","","","","fixation","","","","","","","","","","","","","","","","","","","","","","","","","",""
"","","","","","canvas-keyboard-response","48","768822","0.0-12.0-1.7","2d_cat_multi_stim_exp1","2022-4-7","12:40:4","25","75","3","9","10","40","30","120","19","20","[""Asian""]","No","Female","2338952","null","null","","","","clear_screen","","","","","","","","","","","","","","","","","","","","","","","","","",""
"","","","","","canvas-keyboard-response","49","769826","0.0-12.0-2.7","2d_cat_multi_stim_exp1","2022-4-7","12:40:4","25","75","3","9","10","40","30","120","19","20","[""Asian""]","No","Female","2338952","995","i","learn","","","learn_trial","25","75","in","0","0","","","","","","","","","","","","","","","","","","","","",""
"","","","","","canvas-keyboard-response","50","770837","0.0-12.0-3.7","2d_cat_multi_stim_exp1","2022-4-7","12:40:4","25","75","3","9","10","40","30","120","19","20","[""Asian""]","No","Female","2338952","null","null","learn_feedback","","","learn_feedback","25","75","in","","","","","","","","","","","","","","","","","","","","","","",""
"","","","","","canvas-keyboard-response","51","770900","0.0-12.0-4.7","2d_cat_multi_stim_exp1","2022-4-7","12:40:4","25","75","3","9","10","40","30","120","19","20","[""Asian""]","No","Female","2338952","null","null","","","","clear_screen","","","","","","","","","","","","","","","","","","","","","","","","","",""
"","","","","","canvas-keyboard-response","52","771409","0.0-12.0-0.8","2d_cat_multi_stim_exp1","2022-4-7","12:40:4","25","75","3","9","10","40","30","120","19","20","[""Asian""]","No","Female","2338952","null","null","","","","fixation","","","","","","","","","","","","","","","","","","","","","","","","","",""
"","","","","","canvas-keyboard-response","53","771922","0.0-12.0-1.8","2d_cat_multi_stim_exp1","2022-4-7","12:40:4","25","75","3","9","10","40","30","120","19","20","[""Asian""]","No","Female","2338952","null","null","","","","clear_screen","","","","","","","","","","","","","","","","","","","","","","","","","",""
"","","","","","canvas-keyboard-response","54","772811","0.0-12.0-2.8","2d_cat_multi_stim_exp1","2022-4-7","12:40:4","25","75","3","9","10","40","30","120","19","20","[""Asian""]","No","Female","2338952","877","u","learn","","","learn_trial","26.6667","70","out","1","0","","","","","","","","","","","","","","","","","","","","",""
"","","","","","canvas-keyboard-response","55","773820","0.0-12.0-3.8","2d_cat_multi_stim_exp1","2022-4-7","12:40:4","25","75","3","9","10","40","30","120","19","20","[""Asian""]","No","Female","2338952","null","null","learn_feedback","","","learn_feedback","26.6667","70","out","","","","","","","","","","","","","","","","","","","","","","",""
"","","","","","canvas-keyboard-response","56","773879","0.0-12.0-4.8","2d_cat_multi_stim_exp1","2022-4-7","12:40:4","25","75","3","9","10","40","30","120","19","20","[""Asian""]","No","Female","2338952","null","null","","","","clear_screen","","","","","","","","","","","","","","","","","","","","","","","","","",""
"","","","","","canvas-keyboard-response","57","774388","0.0-12.0-0.9","2d_cat_multi_stim_exp1","2022-4-7","12:40:4","25","75","3","9","10","40","30","120","19","20","[""Asian""]","No","Female","2338952","null","null","","","","fixation","","","","","","","","","","","","","","","","","","","","","","","","","",""
"","","","","","canvas-keyboard-response","58","774901","0.0-12.0-1.9","2d_cat_multi_stim_exp1","2022-4-7","12:40:4","25","75","3","9","10","40","30","120","19","20","[""Asian""]","No","Female","2338952","null","null","","","","clear_screen","","","","","","","","","","","","","","","","","","","","","","","","","",""
"","","","","","canvas-keyboard-response","59","776594","0.0-12.0-2.9","2d_cat_multi_stim_exp1","2022-4-7","12:40:4","25","75","3","9","10","40","30","120","19","20","[""Asian""]","No","Female","2338952","1682","i","learn","","","learn_trial","23.3333","50","out","0","1","","","","","","","","","","","","","","","","","","","","",""
"","","","","","canvas-keyboard-response","60","777104","0.0-12.0-3.9","2d_cat_multi_stim_exp1","2022-4-7","12:40:4","25","75","3","9","10","40","30","120","19","20","[""Asian""]","No","Female","2338952","null","null","learn_feedback","","","learn_feedback","23.3333","50","out","","","","","","","","","","","","","","","","","","","","","","",""
"","","","","","canvas-keyboard-response","61","777166","0.0-12.0-4.9","2d_cat_multi_stim_exp1","2022-4-7","12:40:4","25","75","3","9","10","40","30","120","19","20","[""Asian""]","No","Female","2338952","null","null","","","","clear_screen","","","","","","","","","","","","","","","","","","","","","","","","","",""
"","","","","","canvas-keyboard-response","62","777676","0.0-12.0-0.10","2d_cat_multi_stim_exp1","2022-4-7","12:40:4","25","75","3","9","10","40","30","120","19","20","[""Asian""]","No","Female","2338952","null","null","","","","fixation","","","","","","","","","","","","","","","","","","","","","","","","","",""
"","","","","","canvas-keyboard-response","63","778186","0.0-12.0-1.10","2d_cat_multi_stim_exp1","2022-4-7","12:40:4","25","75","3","9","10","40","30","120","19","20","[""Asian""]","No","Female","2338952","null","null","","","","clear_screen","","","","","","","","","","","","","","","","","","","","","","","","","",""
"","","","","","canvas-keyboard-response","64","778994","0.0-12.0-2.10","2d_cat_multi_stim_exp1","2022-4-7","12:40:4","25","75","3","9","10","40","30","120","19","20","[""Asian""]","No","Female","2338952","798","u","learn","","","learn_trial","36.6667","100","out","1","0","","","","","","","","","","","","","","","","","","","","",""
"","","","","","canvas-keyboard-response","65","780005","0.0-12.0-3.10","2d_cat_multi_stim_exp1","2022-4-7","12:40:4","25","75","3","9","10","40","30","120","19","20","[""Asian""]","No","Female","2338952","null","null","learn_feedback","","","learn_feedback","36.6667","100","out","","","","","","","","","","","","","","","","","","","","","","",""
"","","","","","canvas-keyboard-response","66","780066","0.0-12.0-4.10","2d_cat_multi_stim_exp1","2022-4-7","12:40:4","25","75","3","9","10","40","30","120","19","20","[""Asian""]","No","Female","2338952","null","null","","","","clear_screen","","","","","","","","","","","","","","","","","","","","","","","","","",""
"","","","","","canvas-keyboard-response","67","780573","0.0-12.0-0.11","2d_cat_multi_stim_exp1","2022-4-7","12:40:4","25","75","3","9","10","40","30","120","19","20","[""Asian""]","No","Female","2338952","null","null","","","","fixation","","","","","","","","","","","","","","","","","","","","","","","","","",""
"","","","","","canvas-keyboard-response","68","781085","0.0-12.0-1.11","2d_cat_multi_stim_exp1","2022-4-7","12:40:4","25","75","3","9","10","40","30","120","19","20","[""Asian""]","No","Female","2338952","null","null","","","","clear_screen","","","","","","","","","","","","","","","","","","","","","","","","","",""
"","","","","","canvas-keyboard-response","69","782049","0.0-12.0-2.11","2d_cat_multi_stim_exp1","2022-4-7","12:40:4","25","75","3","9","10","40","30","120","19","20","[""Asian""]","No","Female","2338952","956","i","learn","","","learn_trial","25","75","in","0","0","","","","","","","","","","","","","","","","","","","","",""
"","","","","","canvas-keyboard-response","70","783059","0.0-12.0-3.11","2d_cat_multi_stim_exp1","2022-4-7","12:40:4","25","75","3","9","10","40","30","120","19","20","[""Asian""]","No","Female","2338952","null","null","learn_feedback","","","learn_feedback","25","75","in","","","","","","","","","","","","","","","","","","","","","","",""
"","","","","","canvas-keyboard-response","71","783117","0.0-12.0-4.11","2d_cat_multi_stim_exp1","2022-4-7","12:40:4","25","75","3","9","10","40","30","120","19","20","[""Asian""]","No","Female","2338952","null","null","","","","clear_screen","","","","","","","","","","","","","","","","","","","","","","","","","",""
"","","","","","canvas-keyboard-response","72","783627","0.0-12.0-0.12","2d_cat_multi_stim_exp1","2022-4-7","12:40:4","25","75","3","9","10","40","30","120","19","20","[""Asian""]","No","Female","2338952","null","null","","","","fixation","","","","","","","","","","","","","","","","","","","","","","","","","",""
"","","","","","canvas-keyboard-response","73","784138","0.0-12.0-1.12","2d_cat_multi_stim_exp1","2022-4-7","12:40:4","25","75","3","9","10","40","30","120","19","20","[""Asian""]","No","Female","2338952","null","null","","","","clear_screen","","","","","","","","","","","","","","","","","","","","","","","","","",""
"","","","","","canvas-keyboard-response","74","784682","0.0-12.0-2.12","2d_cat_multi_stim_exp1","2022-4-7","12:40:4","25","75","3","9","10","40","30","120","19","20","[""Asian""]","No","Female","2338952","537","u","learn","","","learn_trial","25","75","in","1","1","","","","","","","","","","","","","","","","","","","","",""
"","","","","","canvas-keyboard-response","75","785194","0.0-12.0-3.12","2d_cat_multi_stim_exp1","2022-4-7","12:40:4","25","75","3","9","10","40","30","120","19","20","[""Asian""]","No","Female","2338952","null","null","learn_feedback","","","learn_feedback","25","75","in","","","","","","","","","","","","","","","","","","","","","","",""
"","","","","","canvas-keyboard-response","76","785254","0.0-12.0-4.12","2d_cat_multi_stim_exp1","2022-4-7","12:40:4","25","75","3","9","10","40","30","120","19","20","[""Asian""]","No","Female","2338952","null","null","","","","clear_screen","","","","","","","","","","","","","","","","","","","","","","","","","",""
"","","","","","canvas-keyboard-response","77","785764","0.0-12.0-0.13","2d_cat_multi_stim_exp1","2022-4-7","12:40:4","25","75","3","9","10","40","30","120","19","20","[""Asian""]","No","Female","2338952","null","null","","","","fixation","","","","","","","","","","","","","","","","","","","","","","","","","",""
"","","","","","canvas-keyboard-response","78","786278","0.0-12.0-1.13","2d_cat_multi_stim_exp1","2022-4-7","12:40:4","25","75","3","9","10","40","30","120","19","20","[""Asian""]","No","Female","2338952","null","null","","","","clear_screen","","","","","","","","","","","","","","","","","","","","","","","","","",""
"","","","","","canvas-keyboard-response","79","787018","0.0-12.0-2.13","2d_cat_multi_stim_exp1","2022-4-7","12:40:4","25","75","3","9","10","40","30","120","19","20","[""Asian""]","No","Female","2338952","730","i","learn","","","learn_trial","26.4216","67.0746","in","0","0","","","","","","","","","","","","","","","","","","","","",""
"","","","","","canvas-keyboard-response","80","788028","0.0-12.0-3.13","2d_cat_multi_stim_exp1","2022-4-7","12:40:4","25","75","3","9","10","40","30","120","19","20","[""Asian""]","No","Female","2338952","null","null","learn_feedback","","","learn_feedback","26.4216","67.0746","in","","","","","","","","","","","","","","","","","","","","","","",""
"","","","","","canvas-keyboard-response","81","788090","0.0-12.0-4.13","2d_cat_multi_stim_exp1","2022-4-7","12:40:4","25","75","3","9","10","40","30","120","19","20","[""Asian""]","No","Female","2338952","null","null","","","","clear_screen","","","","","","","","","","","","","","","","","","","","","","","","","",""
"","","","","","canvas-keyboard-response","82","788598","0.0-12.0-0.14","2d_cat_multi_stim_exp1","2022-4-7","12:40:4","25","75","3","9","10","40","30","120","19","20","[""Asian""]","No","Female","2338952","null","null","","","","fixation","","","","","","","","","","","","","","","","","","","","","","","","","",""
"","","","","","canvas-keyboard-response","83","789112","0.0-12.0-1.14","2d_cat_multi_stim_exp1","2022-4-7","12:40:4","25","75","3","9","10","40","30","120","19","20","[""Asian""]","No","Female","2338952","null","null","","","","clear_screen","","","","","","","","","","","","","","","","","","","","","","","","","",""
"","","","","","canvas-keyboard-response","84","790154","0.0-12.0-2.14","2d_cat_multi_stim_exp1","2022-4-7","12:40:4","25","75","3","9","10","40","30","120","19","20","[""Asian""]","No","Female","2338952","1031","i","learn","","","learn_trial","13.3333","90","out","0","1","","","","","","","","","","","","","","","","","","","","",""
"","","","","","canvas-keyboard-response","85","790667","0.0-12.0-3.14","2d_cat_multi_stim_exp1","2022-4-7","12:40:4","25","75","3","9","10","40","30","120","19","20","[""Asian""]","No","Female","2338952","null","null","learn_feedback","","","learn_feedback","13.3333","90","out","","","","","","","","","","","","","","","","","","","","","","",""
"","","","","","canvas-keyboard-response","86","790725","0.0-12.0-4.14","2d_cat_multi_stim_exp1","2022-4-7","12:40:4","25","75","3","9","10","40","30","120","19","20","[""Asian""]","No","Female","2338952","null","null","","","","clear_screen","","","","","","","","","","","","","","","","","","","","","","","","","",""
"","","","","","canvas-keyboard-response","87","791234","0.0-12.0-0.15","2d_cat_multi_stim_exp1","2022-4-7","12:40:4","25","75","3","9","10","40","30","120","19","20","[""Asian""]","No","Female","2338952","null","null","","","","fixation","","","","","","","","","","","","","","","","","","","","","","","","","",""
"","","","","","canvas-keyboard-response","88","791744","0.0-12.0-1.15","2d_cat_multi_stim_exp1","2022-4-7","12:40:4","25","75","3","9","10","40","30","120","19","20","[""Asian""]","No","Female","2338952","null","null","","","","clear_screen","","","","","","","","","","","","","","","","","","","","","","","","","",""
"","","","","","canvas-keyboard-response","89","792610","0.0-12.0-2.15","2d_cat_multi_stim_exp1","2022-4-7","12:40:4","25","75","3","9","10","40","30","120","19","20","[""Asian""]","No","Female","2338952","857","u","learn","","","learn_trial","25","75","in","1","1","","","","","","","","","","","","","","","","","","","","",""
"","","","","","canvas-keyboard-response","90","793121","0.0-12.0-3.15","2d_cat_multi_stim_exp1","2022-4-7","12:40:4","25","75","3","9","10","40","30","120","19","20","[""Asian""]","No","Female","2338952","null","null","learn_feedback","","","learn_feedback","25","75","in","","","","","","","","","","","","","","","","","","","","","","",""
"","","","","","canvas-keyboard-response","91","793182","0.0-12.0-4.15","2d_cat_multi_stim_exp1","2022-4-7","12:40:4","25","75","3","9","10","40","30","120","19","20","[""Asian""]","No","Female","2338952","null","null","","","","clear_screen","","","","","","","","","","","","","","","","","","","","","","","","","",""
"","","","","","canvas-keyboard-response","92","793693","0.0-12.0-0.16","2d_cat_multi_stim_exp1","2022-4-7","12:40:4","25","75","3","9","10","40","30","120","19","20","[""Asian""]","No","Female","2338952","null","null","","","","fixation","","","","","","","","","","","","","","","","","","","","","","","","","",""
"","","","","","canvas-keyboard-response","93","794204","0.0-12.0-1.16","2d_cat_multi_stim_exp1","2022-4-7","12:40:4","25","75","3","9","10","40","30","120","19","20","[""Asian""]","No","Female","2338952","null","null","","","","clear_screen","","","","","","","","","","","","","","","","","","","","","","","","","",""
"","","","","","canvas-keyboard-response","94","794866","0.0-12.0-2.16","2d_cat_multi_stim_exp1","2022-4-7","12:40:4","25","75","3","9","10","40","30","120","19","20","[""Asian""]","No","Female","2338952","651","u","learn","","","learn_trial","25","75","in","1","1","","","","","","","","","","","","","","","","","","","","",""
"","","","","","canvas-keyboard-response","95","795378","0.0-12.0-3.16","2d_cat_multi_stim_exp1","2022-4-7","12:40:4","25","75","3","9","10","40","30","120","19","20","[""Asian""]","No","Female","2338952","null","null","learn_feedback","","","learn_feedback","25","75","in","","","","","","","","","","","","","","","","","","","","","","",""
"","","","","","canvas-keyboard-response","96","795440","0.0-12.0-4.16","2d_cat_multi_stim_exp1","2022-4-7","12:40:4","25","75","3","9","10","40","30","120","19","20","[""Asian""]","No","Female","2338952","null","null","","","","clear_screen","","","","","","","","","","","","","","","","","","","","","","","","","",""
"","","","","","canvas-keyboard-response","97","795948","0.0-12.0-0.17","2d_cat_multi_stim_exp1","2022-4-7","12:40:4","25","75","3","9","10","40","30","120","19","20","[""Asian""]","No","Female","2338952","null","null","","","","fixation","","","","","","","","","","","","","","","","","","","","","","","","","",""
"","","","","","canvas-keyboard-response","98","796459","0.0-12.0-1.17","2d_cat_multi_stim_exp1","2022-4-7","12:40:4","25","75","3","9","10","40","30","120","19","20","[""Asian""]","No","Female","2338952","null","null","","","","clear_screen","","","","","","","","","","","","","","","","","","","","","","","","","",""
"","","","","","canvas-keyboard-response","99","797138","0.0-12.0-2.17","2d_cat_multi_stim_exp1","2022-4-7","12:40:4","25","75","3","9","10","40","30","120","19","20","[""Asian""]","No","Female","2338952","669","u","learn","","","learn_trial","25","75","in","1","1","","","","","","","","","","","","","","","","","","","","",""
"","","","","","canvas-keyboard-response","100","797645","0.0-12.0-3.17","2d_cat_multi_stim_exp1","2022-4-7","12:40:4","25","75","3","9","10","40","30","120","19","20","[""Asian""]","No","Female","2338952","null","null","learn_feedback","","","learn_feedback","25","75","in","","","","","","","","","","","","","","","","","","","","","","",""
"","","","","","canvas-keyboard-response","101","797709","0.0-12.0-4.17","2d_cat_multi_stim_exp1","2022-4-7","12:40:4","25","75","3","9","10","40","30","120","19","20","[""Asian""]","No","Female","2338952","null","null","","","","clear_screen","","","","","","","","","","","","","","","","","","","","","","","","","",""
"","","","","","canvas-keyboard-response","102","798219","0.0-12.0-0.18","2d_cat_multi_stim_exp1","2022-4-7","12:40:4","25","75","3","9","10","40","30","120","19","20","[""Asian""]","No","Female","2338952","null","null","","","","fixation","","","","","","","","","","","","","","","","","","","","","","","","","",""
"","","","","","canvas-keyboard-response","103","798733","0.0-12.0-1.18","2d_cat_multi_stim_exp1","2022-4-7","12:40:4","25","75","3","9","10","40","30","120","19","20","[""Asian""]","No","Female","2338952","null","null","","","","clear_screen","","","","","","","","","","","","","","","","","","","","","","","","","",""
"","","","","","canvas-keyboard-response","104","799417","0.0-12.0-2.18","2d_cat_multi_stim_exp1","2022-4-7","12:40:4","25","75","3","9","10","40","30","120","19","20","[""Asian""]","No","Female","2338952","674","i","learn","","","learn_trial","20","50","out","0","1","","","","","","","","","","","","","","","","","","","","",""
"","","","","","canvas-keyboard-response","105","799928","0.0-12.0-3.18","2d_cat_multi_stim_exp1","2022-4-7","12:40:4","25","75","3","9","10","40","30","120","19","20","[""Asian""]","No","Female","2338952","null","null","learn_feedback","","","learn_feedback","20","50","out","","","","","","","","","","","","","","","","","","","","","","",""
"","","","","","canvas-keyboard-response","106","799990","0.0-12.0-4.18","2d_cat_multi_stim_exp1","2022-4-7","12:40:4","25","75","3","9","10","40","30","120","19","20","[""Asian""]","No","Female","2338952","null","null","","","","clear_screen","","","","","","","","","","","","","","","","","","","","","","","","","",""
"","","","","","canvas-keyboard-response","107","800500","0.0-12.0-0.19","2d_cat_multi_stim_exp1","2022-4-7","12:40:4","25","75","3","9","10","40","30","120","19","20","[""Asian""]","No","Female","2338952","null","null","","","","fixation","","","","","","","","","","","","","","","","","","","","","","","","","",""
"","","","","","canvas-keyboard-response","108","801014","0.0-12.0-1.19","2d_cat_multi_stim_exp1","2022-4-7","12:40:4","25","75","3","9","10","40","30","120","19","20","[""Asian""]","No","Female","2338952","null","null","","","","clear_screen","","","","","","","","","","","","","","","","","","","","","","","","","",""
"","","","","","canvas-keyboard-response","109","801969","0.0-12.0-2.19","2d_cat_multi_stim_exp1","2022-4-7","12:40:4","25","75","3","9","10","40","30","120","19","20","[""Asian""]","No","Female","2338952","944","u","learn","","","learn_trial","25","75","in","1","1","","","","","","","","","","","","","","","","","","","","",""
"","","","","","canvas-keyboard-response","110","802478","0.0-12.0-3.19","2d_cat_multi_stim_exp1","2022-4-7","12:40:4","25","75","3","9","10","40","30","120","19","20","[""Asian""]","No","Female","2338952","null","null","learn_feedback","","","learn_feedback","25","75","in","","","","","","","","","","","","","","","","","","","","","","",""
"","","","","","canvas-keyboard-response","111","802536","0.0-12.0-4.19","2d_cat_multi_stim_exp1","2022-4-7","12:40:4","25","75","3","9","10","40","30","120","19","20","[""Asian""]","No","Female","2338952","null","null","","","","clear_screen","","","","","","","","","","","","","","","","","","","","","","","","","",""
"","","","","","canvas-keyboard-response","112","803046","0.0-12.0-0.20","2d_cat_multi_stim_exp1","2022-4-7","12:40:4","25","75","3","9","10","40","30","120","19","20","[""Asian""]","No","Female","2338952","null","null","","","","fixation","","","","","","","","","","","","","","","","","","","","","","","","","",""
"","","","","","canvas-keyboard-response","113","803558","0.0-12.0-1.20","2d_cat_multi_stim_exp1","2022-4-7","12:40:4","25","75","3","9","10","40","30","120","19","20","[""Asian""]","No","Female","2338952","null","null","","","","clear_screen","","","","","","","","","","","","","","","","","","","","","","","","","",""
"","","","","","canvas-keyboard-response","114","804153","0.0-12.0-2.20","2d_cat_multi_stim_exp1","2022-4-7","12:40:4","25","75","3","9","10","40","30","120","19","20","[""Asian""]","No","Female","2338952","586","u","learn","","","learn_trial","25","75","in","1","1","","","","","","","","","","","","","","","","","","","","",""
"","","","","","canvas-keyboard-response","115","804662","0.0-12.0-3.20","2d_cat_multi_stim_exp1","2022-4-7","12:40:4","25","75","3","9","10","40","30","120","19","20","[""Asian""]","No","Female","2338952","null","null","learn_feedback","","","learn_feedback","25","75","in","","","","","","","","","","","","","","","","","","","","","","",""
"","","","","","canvas-keyboard-response","116","804725","0.0-12.0-4.20","2d_cat_multi_stim_exp1","2022-4-7","12:40:4","25","75","3","9","10","40","30","120","19","20","[""Asian""]","No","Female","2338952","null","null","","","","clear_screen","","","","","","","","","","","","","","","","","","","","","","","","","",""
"","","","","","canvas-keyboard-response","117","805234","0.0-12.0-0.21","2d_cat_multi_stim_exp1","2022-4-7","12:40:4","25","75","3","9","10","40","30","120","19","20","[""Asian""]","No","Female","2338952","null","null","","","","fixation","","","","","","","","","","","","","","","","","","","","","","","","","",""
"","","","","","canvas-keyboard-response","118","805748","0.0-12.0-1.21","2d_cat_multi_stim_exp1","2022-4-7","12:40:4","25","75","3","9","10","40","30","120","19","20","[""Asian""]","No","Female","2338952","null","null","","","","clear_screen","","","","","","","","","","","","","","","","","","","","","","","","","",""
"","","","","","canvas-keyboard-response","119","806610","0.0-12.0-2.21","2d_cat_multi_stim_exp1","2022-4-7","12:40:4","25","75","3","9","10","40","30","120","19","20","[""Asian""]","No","Female","2338952","853","u","learn","","","learn_trial","22.5729","80.2901","in","1","1","","","","","","","","","","","","","","","","","","","","",""
"","","","","","canvas-keyboard-response","120","807119","0.0-12.0-3.21","2d_cat_multi_stim_exp1","2022-4-7","12:40:4","25","75","3","9","10","40","30","120","19","20","[""Asian""]","No","Female","2338952","null","null","learn_feedback","","","learn_feedback","22.5729","80.2901","in","","","","","","","","","","","","","","","","","","","","","","",""
"","","","","","canvas-keyboard-response","121","807182","0.0-12.0-4.21","2d_cat_multi_stim_exp1","2022-4-7","12:40:4","25","75","3","9","10","40","30","120","19","20","[""Asian""]","No","Female","2338952","null","null","","","","clear_screen","","","","","","","","","","","","","","","","","","","","","","","","","",""
"","","","","","canvas-keyboard-response","122","807690","0.0-12.0-0.22","2d_cat_multi_stim_exp1","2022-4-7","12:40:4","25","75","3","9","10","40","30","120","19","20","[""Asian""]","No","Female","2338952","null","null","","","","fixation","","","","","","","","","","","","","","","","","","","","","","","","","",""
"","","","","","canvas-keyboard-response","123","808200","0.0-12.0-1.22","2d_cat_multi_stim_exp1","2022-4-7","12:40:4","25","75","3","9","10","40","30","120","19","20","[""Asian""]","No","Female","2338952","null","null","","","","clear_screen","","","","","","","","","","","","","","","","","","","","","","","","","",""
"","","","","","canvas-keyboard-response","124","808945","0.0-12.0-2.22","2d_cat_multi_stim_exp1","2022-4-7","12:40:4","25","75","3","9","10","40","30","120","19","20","[""Asian""]","No","Female","2338952","736","u","learn","","","learn_trial","25","75","in","1","1","","","","","","","","","","","","","","","","","","","","",""
"","","","","","canvas-keyboard-response","125","809454","0.0-12.0-3.22","2d_cat_multi_stim_exp1","2022-4-7","12:40:4","25","75","3","9","10","40","30","120","19","20","[""Asian""]","No","Female","2338952","null","null","learn_feedback","","","learn_feedback","25","75","in","","","","","","","","","","","","","","","","","","","","","","",""
"","","","","","canvas-keyboard-response","126","809517","0.0-12.0-4.22","2d_cat_multi_stim_exp1","2022-4-7","12:40:4","25","75","3","9","10","40","30","120","19","20","[""Asian""]","No","Female","2338952","null","null","","","","clear_screen","","","","","","","","","","","","","","","","","","","","","","","","","",""
"","","","","","canvas-keyboard-response","127","810026","0.0-12.0-0.23","2d_cat_multi_stim_exp1","2022-4-7","12:40:4","25","75","3","9","10","40","30","120","19","20","[""Asian""]","No","Female","2338952","null","null","","","","fixation","","","","","","","","","","","","","","","","","","","","","","","","","",""
"","","","","","canvas-keyboard-response","128","810534","0.0-12.0-1.23","2d_cat_multi_stim_exp1","2022-4-7","12:40:4","25","75","3","9","10","40","30","120","19","20","[""Asian""]","No","Female","2338952","null","null","","","","clear_screen","","","","","","","","","","","","","","","","","","","","","","","","","",""
"","","","","","canvas-keyboard-response","129","811322","0.0-12.0-2.23","2d_cat_multi_stim_exp1","2022-4-7","12:40:4","25","75","3","9","10","40","30","120","19","20","[""Asian""]","No","Female","2338952","777","i","learn","","","learn_trial","27.2592","69.0786","in","0","0","","","","","","","","","","","","","","","","","","","","",""
"","","","","","canvas-keyboard-response","130","812330","0.0-12.0-3.23","2d_cat_multi_stim_exp1","2022-4-7","12:40:4","25","75","3","9","10","40","30","120","19","20","[""Asian""]","No","Female","2338952","null","null","learn_feedback","","","learn_feedback","27.2592","69.0786","in","","","","","","","","","","","","","","","","","","","","","","",""
"","","","","","canvas-keyboard-response","131","812396","0.0-12.0-4.23","2d_cat_multi_stim_exp1","2022-4-7","12:40:4","25","75","3","9","10","40","30","120","19","20","[""Asian""]","No","Female","2338952","null","null","","","","clear_screen","","","","","","","","","","","","","","","","","","","","","","","","","",""
"","","","","","canvas-keyboard-response","132","812904","0.0-12.0-0.24","2d_cat_multi_stim_exp1","2022-4-7","12:40:4","25","75","3","9","10","40","30","120","19","20","[""Asian""]","No","Female","2338952","null","null","","","","fixation","","","","","","","","","","","","","","","","","","","","","","","","","",""
"","","","","","canvas-keyboard-response","133","813418","0.0-12.0-1.24","2d_cat_multi_stim_exp1","2022-4-7","12:40:4","25","75","3","9","10","40","30","120","19","20","[""Asian""]","No","Female","2338952","null","null","","","","clear_screen","","","","","","","","","","","","","","","","","","","","","","","","","",""
"","","","","","canvas-keyboard-response","134","814081","0.0-12.0-2.24","2d_cat_multi_stim_exp1","2022-4-7","12:40:4","25","75","3","9","10","40","30","120","19","20","[""Asian""]","No","Female","2338952","653","u","learn","","","learn_trial","25","75","in","1","1","","","","","","","","","","","","","","","","","","","","",""
"","","","","","canvas-keyboard-response","135","814593","0.0-12.0-3.24","2d_cat_multi_stim_exp1","2022-4-7","12:40:4","25","75","3","9","10","40","30","120","19","20","[""Asian""]","No","Female","2338952","null","null","learn_feedback","","","learn_feedback","25","75","in","","","","","","","","","","","","","","","","","","","","","","",""
"","","","","","canvas-keyboard-response","136","814653","0.0-12.0-4.24","2d_cat_multi_stim_exp1","2022-4-7","12:40:4","25","75","3","9","10","40","30","120","19","20","[""Asian""]","No","Female","2338952","null","null","","","","clear_screen","","","","","","","","","","","","","","","","","","","","","","","","","",""
"","","","","","canvas-keyboard-response","137","815162","0.0-12.0-0.25","2d_cat_multi_stim_exp1","2022-4-7","12:40:4","25","75","3","9","10","40","30","120","19","20","[""Asian""]","No","Female","2338952","null","null","","","","fixation","","","","","","","","","","","","","","","","","","","","","","","","","",""
"","","","","","canvas-keyboard-response","138","815672","0.0-12.0-1.25","2d_cat_multi_stim_exp1","2022-4-7","12:40:4","25","75","3","9","10","40","30","120","19","20","[""Asian""]","No","Female","2338952","null","null","","","","clear_screen","","","","","","","","","","","","","","","","","","","","","","","","","",""
"","","","","","canvas-keyboard-response","139","816418","0.0-12.0-2.25","2d_cat_multi_stim_exp1","2022-4-7","12:40:4","25","75","3","9","10","40","30","120","19","20","[""Asian""]","No","Female","2338952","736","u","learn","","","learn_trial","25","75","in","1","1","","","","","","","","","","","","","","","","","","","","",""
"","","","","","canvas-keyboard-response","140","816930","0.0-12.0-3.25","2d_cat_multi_stim_exp1","2022-4-7","12:40:4","25","75","3","9","10","40","30","120","19","20","[""Asian""]","No","Female","2338952","null","null","learn_feedback","","","learn_feedback","25","75","in","","","","","","","","","","","","","","","","","","","","","","",""
"","","","","","canvas-keyboard-response","141","816988","0.0-12.0-4.25","2d_cat_multi_stim_exp1","2022-4-7","12:40:4","25","75","3","9","10","40","30","120","19","20","[""Asian""]","No","Female","2338952","null","null","","","","clear_screen","","","","","","","","","","","","","","","","","","","","","","","","","",""
"","","","","","canvas-keyboard-response","142","817497","0.0-12.0-0.26","2d_cat_multi_stim_exp1","2022-4-7","12:40:4","25","75","3","9","10","40","30","120","19","20","[""Asian""]","No","Female","2338952","null","null","","","","fixation","","","","","","","","","","","","","","","","","","","","","","","","","",""
"","","","","","canvas-keyboard-response","143","818007","0.0-12.0-1.26","2d_cat_multi_stim_exp1","2022-4-7","12:40:4","25","75","3","9","10","40","30","120","19","20","[""Asian""]","No","Female","2338952","null","null","","","","clear_screen","","","","","","","","","","","","","","","","","","","","","","","","","",""
"","","","","","canvas-keyboard-response","144","818682","0.0-12.0-2.26","2d_cat_multi_stim_exp1","2022-4-7","12:40:4","25","75","3","9","10","40","30","120","19","20","[""Asian""]","No","Female","2338952","666","i","learn","","","learn_trial","33.3333","70","out","0","1","","","","","","","","","","","","","","","","","","","","",""
"","","","","","canvas-keyboard-response","145","819192","0.0-12.0-3.26","2d_cat_multi_stim_exp1","2022-4-7","12:40:4","25","75","3","9","10","40","30","120","19","20","[""Asian""]","No","Female","2338952","null","null","learn_feedback","","","learn_feedback","33.3333","70","out","","","","","","","","","","","","","","","","","","","","","","",""
"","","","","","canvas-keyboard-response","146","819253","0.0-12.0-4.26","2d_cat_multi_stim_exp1","2022-4-7","12:40:4","25","75","3","9","10","40","30","120","19","20","[""Asian""]","No","Female","2338952","null","null","","","","clear_screen","","","","","","","","","","","","","","","","","","","","","","","","","",""
"","","","","","canvas-keyboard-response","147","819762","0.0-12.0-0.27","2d_cat_multi_stim_exp1","2022-4-7","12:40:4","25","75","3","9","10","40","30","120","19","20","[""Asian""]","No","Female","2338952","null","null","","","","fixation","","","","","","","","","","","","","","","","","","","","","","","","","",""
"","","","","","canvas-keyboard-response","148","820278","0.0-12.0-1.27","2d_cat_multi_stim_exp1","2022-4-7","12:40:4","25","75","3","9","10","40","30","120","19","20","[""Asian""]","No","Female","2338952","null","null","","","","clear_screen","","","","","","","","","","","","","","","","","","","","","","","","","",""
"","","","","","canvas-keyboard-response","149","821002","0.0-12.0-2.27","2d_cat_multi_stim_exp1","2022-4-7","12:40:4","25","75","3","9","10","40","30","120","19","20","[""Asian""]","No","Female","2338952","711","i","learn","","","learn_trial","24.8654","66.0091","in","0","0","","","","","","","","","","","","","","","","","","","","",""
"","","","","","canvas-keyboard-response","150","822014","0.0-12.0-3.27","2d_cat_multi_stim_exp1","2022-4-7","12:40:4","25","75","3","9","10","40","30","120","19","20","[""Asian""]","No","Female","2338952","null","null","learn_feedback","","","learn_feedback","24.8654","66.0091","in","","","","","","","","","","","","","","","","","","","","","","",""
"","","","","","canvas-keyboard-response","151","822077","0.0-12.0-4.27","2d_cat_multi_stim_exp1","2022-4-7","12:40:4","25","75","3","9","10","40","30","120","19","20","[""Asian""]","No","Female","2338952","null","null","","","","clear_screen","","","","","","","","","","","","","","","","","","","","","","","","","",""
"","","","","","canvas-keyboard-response","152","822588","0.0-12.0-0.28","2d_cat_multi_stim_exp1","2022-4-7","12:40:4","25","75","3","9","10","40","30","120","19","20","[""Asian""]","No","Female","2338952","null","null","","","","fixation","","","","","","","","","","","","","","","","","","","","","","","","","",""
"","","","","","canvas-keyboard-response","153","823102","0.0-12.0-1.28","2d_cat_multi_stim_exp1","2022-4-7","12:40:4","25","75","3","9","10","40","30","120","19","20","[""Asian""]","No","Female","2338952","null","null","","","","clear_screen","","","","","","","","","","","","","","","","","","","","","","","","","",""
"","","","","","canvas-keyboard-response","154","823890","0.0-12.0-2.28","2d_cat_multi_stim_exp1","2022-4-7","12:40:4","25","75","3","9","10","40","30","120","19","20","[""Asian""]","No","Female","2338952","778","i","learn","","","learn_trial","40","50","out","0","1","","","","","","","","","","","","","","","","","","","","",""
"","","","","","canvas-keyboard-response","155","824399","0.0-12.0-3.28","2d_cat_multi_stim_exp1","2022-4-7","12:40:4","25","75","3","9","10","40","30","120","19","20","[""Asian""]","No","Female","2338952","null","null","learn_feedback","","","learn_feedback","40","50","out","","","","","","","","","","","","","","","","","","","","","","",""
"","","","","","canvas-keyboard-response","156","824459","0.0-12.0-4.28","2d_cat_multi_stim_exp1","2022-4-7","12:40:4","25","75","3","9","10","40","30","120","19","20","[""Asian""]","No","Female","2338952","null","null","","","","clear_screen","","","","","","","","","","","","","","","","","","","","","","","","","",""
"","","","","","canvas-keyboard-response","157","824970","0.0-12.0-0.29","2d_cat_multi_stim_exp1","2022-4-7","12:40:4","25","75","3","9","10","40","30","120","19","20","[""Asian""]","No","Female","2338952","null","null","","","","fixation","","","","","","","","","","","","","","","","","","","","","","","","","",""
"","","","","","canvas-keyboard-response","158","825481","0.0-12.0-1.29","2d_cat_multi_stim_exp1","2022-4-7","12:40:4","25","75","3","9","10","40","30","120","19","20","[""Asian""]","No","Female","2338952","null","null","","","","clear_screen","","","","","","","","","","","","","","","","","","","","","","","","","",""
"","","","","","canvas-keyboard-response","159","826210","0.0-12.0-2.29","2d_cat_multi_stim_exp1","2022-4-7","12:40:4","25","75","3","9","10","40","30","120","19","20","[""Asian""]","No","Female","2338952","718","i","learn","","","learn_trial","40","80","out","0","1","","","","","","","","","","","","","","","","","","","","",""
"","","","","","canvas-keyboard-response","160","826718","0.0-12.0-3.29","2d_cat_multi_stim_exp1","2022-4-7","12:40:4","25","75","3","9","10","40","30","120","19","20","[""Asian""]","No","Female","2338952","null","null","learn_feedback","","","learn_feedback","40","80","out","","","","","","","","","","","","","","","","","","","","","","",""
"","","","","","canvas-keyboard-response","161","826779","0.0-12.0-4.29","2d_cat_multi_stim_exp1","2022-4-7","12:40:4","25","75","3","9","10","40","30","120","19","20","[""Asian""]","No","Female","2338952","null","null","","","","clear_screen","","","","","","","","","","","","","","","","","","","","","","","","","",""
"","","","","","canvas-keyboard-response","162","827287","0.0-12.0-0.30","2d_cat_multi_stim_exp1","2022-4-7","12:40:4","25","75","3","9","10","40","30","120","19","20","[""Asian""]","No","Female","2338952","null","null","","","","fixation","","","","","","","","","","","","","","","","","","","","","","","","","",""
"","","","","","canvas-keyboard-response","163","827799","0.0-12.0-1.30","2d_cat_multi_stim_exp1","2022-4-7","12:40:4","25","75","3","9","10","40","30","120","19","20","[""Asian""]","No","Female","2338952","null","null","","","","clear_screen","","","","","","","","","","","","","","","","","","","","","","","","","",""
"","","","","","canvas-keyboard-response","164","828450","0.0-12.0-2.30","2d_cat_multi_stim_exp1","2022-4-7","12:40:4","25","75","3","9","10","40","30","120","19","20","[""Asian""]","No","Female","2338952","638","i","learn","","","learn_trial","36.6667","30","out","0","1","","","","","","","","","","","","","","","","","","","","",""
"","","","","","canvas-keyboard-response","165","828958","0.0-12.0-3.30","2d_cat_multi_stim_exp1","2022-4-7","12:40:4","25","75","3","9","10","40","30","120","19","20","[""Asian""]","No","Female","2338952","null","null","learn_feedback","","","learn_feedback","36.6667","30","out","","","","","","","","","","","","","","","","","","","","","","",""
"","","","","","canvas-keyboard-response","166","829022","0.0-12.0-4.30","2d_cat_multi_stim_exp1","2022-4-7","12:40:4","25","75","3","9","10","40","30","120","19","20","[""Asian""]","No","Female","2338952","null","null","","","","clear_screen","","","","","","","","","","","","","","","","","","","","","","","","","",""
"","","","","","canvas-keyboard-response","167","829531","0.0-12.0-0.31","2d_cat_multi_stim_exp1","2022-4-7","12:40:4","25","75","3","9","10","40","30","120","19","20","[""Asian""]","No","Female","2338952","null","null","","","","fixation","","","","","","","","","","","","","","","","","","","","","","","","","",""
"","","","","","canvas-keyboard-response","168","830041","0.0-12.0-1.31","2d_cat_multi_stim_exp1","2022-4-7","12:40:4","25","75","3","9","10","40","30","120","19","20","[""Asian""]","No","Female","2338952","null","null","","","","clear_screen","","","","","","","","","","","","","","","","","","","","","","","","","",""
"","","","","","canvas-keyboard-response","169","831514","0.0-12.0-2.31","2d_cat_multi_stim_exp1","2022-4-7","12:40:4","25","75","3","9","10","40","30","120","19","20","[""Asian""]","No","Female","2338952","1464","i","learn","","","learn_trial","25","75","in","0","0","","","","","","","","","","","","","","","","","","","","",""
"","","","","","canvas-keyboard-response","170","832523","0.0-12.0-3.31","2d_cat_multi_stim_exp1","2022-4-7","12:40:4","25","75","3","9","10","40","30","120","19","20","[""Asian""]","No","Female","2338952","null","null","learn_feedback","","","learn_feedback","25","75","in","","","","","","","","","","","","","","","","","","","","","","",""
"","","","","","canvas-keyboard-response","171","832582","0.0-12.0-4.31","2d_cat_multi_stim_exp1","2022-4-7","12:40:4","25","75","3","9","10","40","30","120","19","20","[""Asian""]","No","Female","2338952","null","null","","","","clear_screen","","","","","","","","","","","","","","","","","","","","","","","","","",""
"","","","","","canvas-keyboard-response","172","833091","0.0-12.0-0.32","2d_cat_multi_stim_exp1","2022-4-7","12:40:4","25","75","3","9","10","40","30","120","19","20","[""Asian""]","No","Female","2338952","null","null","","","","fixation","","","","","","","","","","","","","","","","","","","","","","","","","",""
"","","","","","canvas-keyboard-response","173","833604","0.0-12.0-1.32","2d_cat_multi_stim_exp1","2022-4-7","12:40:4","25","75","3","9","10","40","30","120","19","20","[""Asian""]","No","Female","2338952","null","null","","","","clear_screen","","","","","","","","","","","","","","","","","","","","","","","","","",""
"","","","","","canvas-keyboard-response","174","834018","0.0-12.0-2.32","2d_cat_multi_stim_exp1","2022-4-7","12:40:4","25","75","3","9","10","40","30","120","19","20","[""Asian""]","No","Female","2338952","405","u","learn","","","learn_trial","27.8087","78.1624","in","1","1","","","","","","","","","","","","","","","","","","","","",""
"","","","","","canvas-keyboard-response","175","834528","0.0-12.0-3.32","2d_cat_multi_stim_exp1","2022-4-7","12:40:4","25","75","3","9","10","40","30","120","19","20","[""Asian""]","No","Female","2338952","null","null","learn_feedback","","","learn_feedback","27.8087","78.1624","in","","","","","","","","","","","","","","","","","","","","","","",""
"","","","","","canvas-keyboard-response","176","834587","0.0-12.0-4.32","2d_cat_multi_stim_exp1","2022-4-7","12:40:4","25","75","3","9","10","40","30","120","19","20","[""Asian""]","No","Female","2338952","null","null","","","","clear_screen","","","","","","","","","","","","","","","","","","","","","","","","","",""
"","","","","","canvas-keyboard-response","177","835097","0.0-12.0-0.33","2d_cat_multi_stim_exp1","2022-4-7","12:40:4","25","75","3","9","10","40","30","120","19","20","[""Asian""]","No","Female","2338952","null","null","","","","fixation","","","","","","","","","","","","","","","","","","","","","","","","","",""
"","","","","","canvas-keyboard-response","178","835609","0.0-12.0-1.33","2d_cat_multi_stim_exp1","2022-4-7","12:40:4","25","75","3","9","10","40","30","120","19","20","[""Asian""]","No","Female","2338952","null","null","","","","clear_screen","","","","","","","","","","","","","","","","","","","","","","","","","",""
"","","","","","canvas-keyboard-response","179","836417","0.0-12.0-2.33","2d_cat_multi_stim_exp1","2022-4-7","12:40:4","25","75","3","9","10","40","30","120","19","20","[""Asian""]","No","Female","2338952","800","i","learn","","","learn_trial","10","90","out","0","1","","","","","","","","","","","","","","","","","","","","",""
"","","","","","canvas-keyboard-response","180","836932","0.0-12.0-3.33","2d_cat_multi_stim_exp1","2022-4-7","12:40:4","25","75","3","9","10","40","30","120","19","20","[""Asian""]","No","Female","2338952","null","null","learn_feedback","","","learn_feedback","10","90","out","","","","","","","","","","","","","","","","","","","","","","",""
"","","","","","canvas-keyboard-response","181","836991","0.0-12.0-4.33","2d_cat_multi_stim_exp1","2022-4-7","12:40:4","25","75","3","9","10","40","30","120","19","20","[""Asian""]","No","Female","2338952","null","null","","","","clear_screen","","","","","","","","","","","","","","","","","","","","","","","","","",""
"","","","","","canvas-keyboard-response","182","837501","0.0-12.0-0.34","2d_cat_multi_stim_exp1","2022-4-7","12:40:4","25","75","3","9","10","40","30","120","19","20","[""Asian""]","No","Female","2338952","null","null","","","","fixation","","","","","","","","","","","","","","","","","","","","","","","","","",""
"","","","","","canvas-keyboard-response","183","838011","0.0-12.0-1.34","2d_cat_multi_stim_exp1","2022-4-7","12:40:4","25","75","3","9","10","40","30","120","19","20","[""Asian""]","No","Female","2338952","null","null","","","","clear_screen","","","","","","","","","","","","","","","","","","","","","","","","","",""
"","","","","","canvas-keyboard-response","184","838969","0.0-12.0-2.34","2d_cat_multi_stim_exp1","2022-4-7","12:40:4","25","75","3","9","10","40","30","120","19","20","[""Asian""]","No","Female","2338952","950","i","learn","","","learn_trial","23.3333","110","out","0","1","","","","","","","","","","","","","","","","","","","","",""
"","","","","","canvas-keyboard-response","185","839478","0.0-12.0-3.34","2d_cat_multi_stim_exp1","2022-4-7","12:40:4","25","75","3","9","10","40","30","120","19","20","[""Asian""]","No","Female","2338952","null","null","learn_feedback","","","learn_feedback","23.3333","110","out","","","","","","","","","","","","","","","","","","","","","","",""
"","","","","","canvas-keyboard-response","186","839539","0.0-12.0-4.34","2d_cat_multi_stim_exp1","2022-4-7","12:40:4","25","75","3","9","10","40","30","120","19","20","[""Asian""]","No","Female","2338952","null","null","","","","clear_screen","","","","","","","","","","","","","","","","","","","","","","","","","",""
"","","","","","canvas-keyboard-response","187","840049","0.0-12.0-0.35","2d_cat_multi_stim_exp1","2022-4-7","12:40:4","25","75","3","9","10","40","30","120","19","20","[""Asian""]","No","Female","2338952","null","null","","","","fixation","","","","","","","","","","","","","","","","","","","","","","","","","",""
"","","","","","canvas-keyboard-response","188","840564","0.0-12.0-1.35","2d_cat_multi_stim_exp1","2022-4-7","12:40:4","25","75","3","9","10","40","30","120","19","20","[""Asian""]","No","Female","2338952","null","null","","","","clear_screen","","","","","","","","","","","","","","","","","","","","","","","","","",""
"","","","","","canvas-keyboard-response","189","842097","0.0-12.0-2.35","2d_cat_multi_stim_exp1","2022-4-7","12:40:4","25","75","3","9","10","40","30","120","19","20","[""Asian""]","No","Female","2338952","1524","i","learn","","","learn_trial","25","75","in","0","0","","","","","","","","","","","","","","","","","","","","",""
"","","","","","canvas-keyboard-response","190","843108","0.0-12.0-3.35","2d_cat_multi_stim_exp1","2022-4-7","12:40:4","25","75","3","9","10","40","30","120","19","20","[""Asian""]","No","Female","2338952","null","null","learn_feedback","","","learn_feedback","25","75","in","","","","","","","","","","","","","","","","","","","","","","",""
"","","","","","canvas-keyboard-response","191","843167","0.0-12.0-4.35","2d_cat_multi_stim_exp1","2022-4-7","12:40:4","25","75","3","9","10","40","30","120","19","20","[""Asian""]","No","Female","2338952","null","null","","","","clear_screen","","","","","","","","","","","","","","","","","","","","","","","","","",""
"","","","","","canvas-keyboard-response","192","843678","0.0-12.0-0.36","2d_cat_multi_stim_exp1","2022-4-7","12:40:4","25","75","3","9","10","40","30","120","19","20","[""Asian""]","No","Female","2338952","null","null","","","","fixation","","","","","","","","","","","","","","","","","","","","","","","","","",""
"","","","","","canvas-keyboard-response","193","844187","0.0-12.0-1.36","2d_cat_multi_stim_exp1","2022-4-7","12:40:4","25","75","3","9","10","40","30","120","19","20","[""Asian""]","No","Female","2338952","null","null","","","","clear_screen","","","","","","","","","","","","","","","","","","","","","","","","","",""
"","","","","","canvas-keyboard-response","194","844706","0.0-12.0-2.36","2d_cat_multi_stim_exp1","2022-4-7","12:40:4","25","75","3","9","10","40","30","120","19","20","[""Asian""]","No","Female","2338952","509","u","learn","","","learn_trial","22.1081","77.3943","in","1","1","","","","","","","","","","","","","","","","","","","","",""
"","","","","","canvas-keyboard-response","195","845215","0.0-12.0-3.36","2d_cat_multi_stim_exp1","2022-4-7","12:40:4","25","75","3","9","10","40","30","120","19","20","[""Asian""]","No","Female","2338952","null","null","learn_feedback","","","learn_feedback","22.1081","77.3943","in","","","","","","","","","","","","","","","","","","","","","","",""
"","","","","","canvas-keyboard-response","196","845279","0.0-12.0-4.36","2d_cat_multi_stim_exp1","2022-4-7","12:40:4","25","75","3","9","10","40","30","120","19","20","[""Asian""]","No","Female","2338952","null","null","","","","clear_screen","","","","","","","","","","","","","","","","","","","","","","","","","",""
"","","","","","canvas-keyboard-response","197","845788","0.0-12.0-0.37","2d_cat_multi_stim_exp1","2022-4-7","12:40:4","25","75","3","9","10","40","30","120","19","20","[""Asian""]","No","Female","2338952","null","null","","","","fixation","","","","","","","","","","","","","","","","","","","","","","","","","",""
"","","","","","canvas-keyboard-response","198","846300","0.0-12.0-1.37","2d_cat_multi_stim_exp1","2022-4-7","12:40:4","25","75","3","9","10","40","30","120","19","20","[""Asian""]","No","Female","2338952","null","null","","","","clear_screen","","","","","","","","","","","","","","","","","","","","","","","","","",""
"","","","","","canvas-keyboard-response","199","847202","0.0-12.0-2.37","2d_cat_multi_stim_exp1","2022-4-7","12:40:4","25","75","3","9","10","40","30","120","19","20","[""Asian""]","No","Female","2338952","890","i","learn","","","learn_trial","26.8705","67.9635","in","0","0","","","","","","","","","","","","","","","","","","","","",""
"","","","","","canvas-keyboard-response","200","848212","0.0-12.0-3.37","2d_cat_multi_stim_exp1","2022-4-7","12:40:4","25","75","3","9","10","40","30","120","19","20","[""Asian""]","No","Female","2338952","null","null","learn_feedback","","","learn_feedback","26.8705","67.9635","in","","","","","","","","","","","","","","","","","","","","","","",""
"","","","","","canvas-keyboard-response","201","848273","0.0-12.0-4.37","2d_cat_multi_stim_exp1","2022-4-7","12:40:4","25","75","3","9","10","40","30","120","19","20","[""Asian""]","No","Female","2338952","null","null","","","","clear_screen","","","","","","","","","","","","","","","","","","","","","","","","","",""
"","","","","","canvas-keyboard-response","202","848784","0.0-12.0-0.38","2d_cat_multi_stim_exp1","2022-4-7","12:40:4","25","75","3","9","10","40","30","120","19","20","[""Asian""]","No","Female","2338952","null","null","","","","fixation","","","","","","","","","","","","","","","","","","","","","","","","","",""
"","","","","","canvas-keyboard-response","203","849298","0.0-12.0-1.38","2d_cat_multi_stim_exp1","2022-4-7","12:40:4","25","75","3","9","10","40","30","120","19","20","[""Asian""]","No","Female","2338952","null","null","","","","clear_screen","","","","","","","","","","","","","","","","","","","","","","","","","",""
"","","","","","canvas-keyboard-response","204","850033","0.0-12.0-2.38","2d_cat_multi_stim_exp1","2022-4-7","12:40:4","25","75","3","9","10","40","30","120","19","20","[""Asian""]","No","Female","2338952","728","i","learn","","","learn_trial","26.8705","82.0365","in","0","0","","","","","","","","","","","","","","","","","","","","",""
"","","","","","canvas-keyboard-response","205","851044","0.0-12.0-3.38","2d_cat_multi_stim_exp1","2022-4-7","12:40:4","25","75","3","9","10","40","30","120","19","20","[""Asian""]","No","Female","2338952","null","null","learn_feedback","","","learn_feedback","26.8705","82.0365","in","","","","","","","","","","","","","","","","","","","","","","",""
"","","","","","canvas-keyboard-response","206","851104","0.0-12.0-4.38","2d_cat_multi_stim_exp1","2022-4-7","12:40:4","25","75","3","9","10","40","30","120","19","20","[""Asian""]","No","Female","2338952","null","null","","","","clear_screen","","","","","","","","","","","","","","","","","","","","","","","","","",""
"","","","","","canvas-keyboard-response","207","851615","0.0-12.0-0.39","2d_cat_multi_stim_exp1","2022-4-7","12:40:4","25","75","3","9","10","40","30","120","19","20","[""Asian""]","No","Female","2338952","null","null","","","","fixation","","","","","","","","","","","","","","","","","","","","","","","","","",""
"","","","","","canvas-keyboard-response","208","852127","0.0-12.0-1.39","2d_cat_multi_stim_exp1","2022-4-7","12:40:4","25","75","3","9","10","40","30","120","19","20","[""Asian""]","No","Female","2338952","null","null","","","","clear_screen","","","","","","","","","","","","","","","","","","","","","","","","","",""
"","","","","","canvas-keyboard-response","209","852746","0.0-12.0-2.39","2d_cat_multi_stim_exp1","2022-4-7","12:40:4","25","75","3","9","10","40","30","120","19","20","[""Asian""]","No","Female","2338952","610","i","learn","","","learn_trial","13.3333","80","out","0","1","","","","","","","","","","","","","","","","","","","","",""
"","","","","","canvas-keyboard-response","210","853254","0.0-12.0-3.39","2d_cat_multi_stim_exp1","2022-4-7","12:40:4","25","75","3","9","10","40","30","120","19","20","[""Asian""]","No","Female","2338952","null","null","learn_feedback","","","learn_feedback","13.3333","80","out","","","","","","","","","","","","","","","","","","","","","","",""
"","","","","","canvas-keyboard-response","211","853315","0.0-12.0-4.39","2d_cat_multi_stim_exp1","2022-4-7","12:40:4","25","75","3","9","10","40","30","120","19","20","[""Asian""]","No","Female","2338952","null","null","","","","clear_screen","","","","","","","","","","","","","","","","","","","","","","","","","",""
"","","","","","canvas-keyboard-response","212","853827","0.0-12.0-0.40","2d_cat_multi_stim_exp1","2022-4-7","12:40:4","25","75","3","9","10","40","30","120","19","20","[""Asian""]","No","Female","2338952","null","null","","","","fixation","","","","","","","","","","","","","","","","","","","","","","","","","",""
"","","","","","canvas-keyboard-response","213","854342","0.0-12.0-1.40","2d_cat_multi_stim_exp1","2022-4-7","12:40:4","25","75","3","9","10","40","30","120","19","20","[""Asian""]","No","Female","2338952","null","null","","","","clear_screen","","","","","","","","","","","","","","","","","","","","","","","","","",""
"","","","","","canvas-keyboard-response","214","854874","0.0-12.0-2.40","2d_cat_multi_stim_exp1","2022-4-7","12:40:4","25","75","3","9","10","40","30","120","19","20","[""Asian""]","No","Female","2338952","519","u","learn","","","learn_trial","22.2971","78.905","in","1","1","","","","","","","","","","","","","","","","","","","","",""
"","","","","","canvas-keyboard-response","215","855386","0.0-12.0-3.40","2d_cat_multi_stim_exp1","2022-4-7","12:40:4","25","75","3","9","10","40","30","120","19","20","[""Asian""]","No","Female","2338952","null","null","learn_feedback","","","learn_feedback","22.2971","78.905","in","","","","","","","","","","","","","","","","","","","","","","",""
"","","","","","canvas-keyboard-response","216","855446","0.0-12.0-4.40","2d_cat_multi_stim_exp1","2022-4-7","12:40:4","25","75","3","9","10","40","30","120","19","20","[""Asian""]","No","Female","2338952","null","null","","","","clear_screen","","","","","","","","","","","","","","","","","","","","","","","","","",""
"","","","","","canvas-keyboard-response","217","855955","0.0-12.0-0.41","2d_cat_multi_stim_exp1","2022-4-7","12:40:4","25","75","3","9","10","40","30","120","19","20","[""Asian""]","No","Female","2338952","null","null","","","","fixation","","","","","","","","","","","","","","","","","","","","","","","","","",""
"","","","","","canvas-keyboard-response","218","856464","0.0-12.0-1.41","2d_cat_multi_stim_exp1","2022-4-7","12:40:4","25","75","3","9","10","40","30","120","19","20","[""Asian""]","No","Female","2338952","null","null","","","","clear_screen","","","","","","","","","","","","","","","","","","","","","","","","","",""
"","","","","","canvas-keyboard-response","219","857097","0.0-12.0-2.41","2d_cat_multi_stim_exp1","2022-4-7","12:40:4","25","75","3","9","10","40","30","120","19","20","[""Asian""]","No","Female","2338952","623","i","learn","","","learn_trial","10","70","out","0","1","","","","","","","","","","","","","","","","","","","","",""
"","","","","","canvas-keyboard-response","220","857609","0.0-12.0-3.41","2d_cat_multi_stim_exp1","2022-4-7","12:40:4","25","75","3","9","10","40","30","120","19","20","[""Asian""]","No","Female","2338952","null","null","learn_feedback","","","learn_feedback","10","70","out","","","","","","","","","","","","","","","","","","","","","","",""
"","","","","","canvas-keyboard-response","221","857673","0.0-12.0-4.41","2d_cat_multi_stim_exp1","2022-4-7","12:40:4","25","75","3","9","10","40","30","120","19","20","[""Asian""]","No","Female","2338952","null","null","","","","clear_screen","","","","","","","","","","","","","","","","","","","","","","","","","",""
"","","","","","canvas-keyboard-response","222","858183","0.0-12.0-0.42","2d_cat_multi_stim_exp1","2022-4-7","12:40:4","25","75","3","9","10","40","30","120","19","20","[""Asian""]","No","Female","2338952","null","null","","","","fixation","","","","","","","","","","","","","","","","","","","","","","","","","",""
"","","","","","canvas-keyboard-response","223","858692","0.0-12.0-1.42","2d_cat_multi_stim_exp1","2022-4-7","12:40:4","25","75","3","9","10","40","30","120","19","20","[""Asian""]","No","Female","2338952","null","null","","","","clear_screen","","","","","","","","","","","","","","","","","","","","","","","","","",""
"","","","","","canvas-keyboard-response","224","859530","0.0-12.0-2.42","2d_cat_multi_stim_exp1","2022-4-7","12:40:4","25","75","3","9","10","40","30","120","19","20","[""Asian""]","No","Female","2338952","828","i","learn","","","learn_trial","23.3333","30","out","0","1","","","","","","","","","","","","","","","","","","","","",""
"","","","","","canvas-keyboard-response","225","860039","0.0-12.0-3.42","2d_cat_multi_stim_exp1","2022-4-7","12:40:4","25","75","3","9","10","40","30","120","19","20","[""Asian""]","No","Female","2338952","null","null","learn_feedback","","","learn_feedback","23.3333","30","out","","","","","","","","","","","","","","","","","","","","","","",""
"","","","","","canvas-keyboard-response","226","860097","0.0-12.0-4.42","2d_cat_multi_stim_exp1","2022-4-7","12:40:4","25","75","3","9","10","40","30","120","19","20","[""Asian""]","No","Female","2338952","null","null","","","","clear_screen","","","","","","","","","","","","","","","","","","","","","","","","","",""
"","","","","","canvas-keyboard-response","227","860608","0.0-12.0-0.43","2d_cat_multi_stim_exp1","2022-4-7","12:40:4","25","75","3","9","10","40","30","120","19","20","[""Asian""]","No","Female","2338952","null","null","","","","fixation","","","","","","","","","","","","","","","","","","","","","","","","","",""
"","","","","","canvas-keyboard-response","228","861118","0.0-12.0-1.43","2d_cat_multi_stim_exp1","2022-4-7","12:40:4","25","75","3","9","10","40","30","120","19","20","[""Asian""]","No","Female","2338952","null","null","","","","clear_screen","","","","","","","","","","","","","","","","","","","","","","","","","",""
"","","","","","canvas-keyboard-response","229","861762","0.0-12.0-2.43","2d_cat_multi_stim_exp1","2022-4-7","12:40:4","25","75","3","9","10","40","30","120","19","20","[""Asian""]","No","Female","2338952","634","i","learn","","","learn_trial","26.6667","50","out","0","1","","","","","","","","","","","","","","","","","","","","",""
"","","","","","canvas-keyboard-response","230","862272","0.0-12.0-3.43","2d_cat_multi_stim_exp1","2022-4-7","12:40:4","25","75","3","9","10","40","30","120","19","20","[""Asian""]","No","Female","2338952","null","null","learn_feedback","","","learn_feedback","26.6667","50","out","","","","","","","","","","","","","","","","","","","","","","",""
"","","","","","canvas-keyboard-response","231","862336","0.0-12.0-4.43","2d_cat_multi_stim_exp1","2022-4-7","12:40:4","25","75","3","9","10","40","30","120","19","20","[""Asian""]","No","Female","2338952","null","null","","","","clear_screen","","","","","","","","","","","","","","","","","","","","","","","","","",""
"","","","","","canvas-keyboard-response","232","862846","0.0-12.0-0.44","2d_cat_multi_stim_exp1","2022-4-7","12:40:4","25","75","3","9","10","40","30","120","19","20","[""Asian""]","No","Female","2338952","null","null","","","","fixation","","","","","","","","","","","","","","","","","","","","","","","","","",""
"","","","","","canvas-keyboard-response","233","863358","0.0-12.0-1.44","2d_cat_multi_stim_exp1","2022-4-7","12:40:4","25","75","3","9","10","40","30","120","19","20","[""Asian""]","No","Female","2338952","null","null","","","","clear_screen","","","","","","","","","","","","","","","","","","","","","","","","","",""
"","","","","","canvas-keyboard-response","234","864090","0.0-12.0-2.44","2d_cat_multi_stim_exp1","2022-4-7","12:40:4","25","75","3","9","10","40","30","120","19","20","[""Asian""]","No","Female","2338952","723","u","learn","","","learn_trial","31","75","in","1","1","","","","","","","","","","","","","","","","","","","","",""
"","","","","","canvas-keyboard-response","235","864599","0.0-12.0-3.44","2d_cat_multi_stim_exp1","2022-4-7","12:40:4","25","75","3","9","10","40","30","120","19","20","[""Asian""]","No","Female","2338952","null","null","learn_feedback","","","learn_feedback","31","75","in","","","","","","","","","","","","","","","","","","","","","","",""
"","","","","","canvas-keyboard-response","236","864661","0.0-12.0-4.44","2d_cat_multi_stim_exp1","2022-4-7","12:40:4","25","75","3","9","10","40","30","120","19","20","[""Asian""]","No","Female","2338952","null","null","","","","clear_screen","","","","","","","","","","","","","","","","","","","","","","","","","",""
"","","","","","canvas-keyboard-response","237","865172","0.0-12.0-0.45","2d_cat_multi_stim_exp1","2022-4-7","12:40:4","25","75","3","9","10","40","30","120","19","20","[""Asian""]","No","Female","2338952","null","null","","","","fixation","","","","","","","","","","","","","","","","","","","","","","","","","",""
"","","","","","canvas-keyboard-response","238","865682","0.0-12.0-1.45","2d_cat_multi_stim_exp1","2022-4-7","12:40:4","25","75","3","9","10","40","30","120","19","20","[""Asian""]","No","Female","2338952","null","null","","","","clear_screen","","","","","","","","","","","","","","","","","","","","","","","","","",""
"","","","","","canvas-keyboard-response","239","866298","0.0-12.0-2.45","2d_cat_multi_stim_exp1","2022-4-7","12:40:4","25","75","3","9","10","40","30","120","19","20","[""Asian""]","No","Female","2338952","606","i","learn","","","learn_trial","13.3333","60","out","0","1","","","","","","","","","","","","","","","","","","","","",""
"","","","","","canvas-keyboard-response","240","866805","0.0-12.0-3.45","2d_cat_multi_stim_exp1","2022-4-7","12:40:4","25","75","3","9","10","40","30","120","19","20","[""Asian""]","No","Female","2338952","null","null","learn_feedback","","","learn_feedback","13.3333","60","out","","","","","","","","","","","","","","","","","","","","","","",""
"","","","","","canvas-keyboard-response","241","866864","0.0-12.0-4.45","2d_cat_multi_stim_exp1","2022-4-7","12:40:4","25","75","3","9","10","40","30","120","19","20","[""Asian""]","No","Female","2338952","null","null","","","","clear_screen","","","","","","","","","","","","","","","","","","","","","","","","","",""
"","","","","","canvas-keyboard-response","242","867374","0.0-12.0-0.46","2d_cat_multi_stim_exp1","2022-4-7","12:40:4","25","75","3","9","10","40","30","120","19","20","[""Asian""]","No","Female","2338952","null","null","","","","fixation","","","","","","","","","","","","","","","","","","","","","","","","","",""
"","","","","","canvas-keyboard-response","243","867886","0.0-12.0-1.46","2d_cat_multi_stim_exp1","2022-4-7","12:40:4","25","75","3","9","10","40","30","120","19","20","[""Asian""]","No","Female","2338952","null","null","","","","clear_screen","","","","","","","","","","","","","","","","","","","","","","","","","",""
"","","","","","canvas-keyboard-response","244","868513","0.0-12.0-2.46","2d_cat_multi_stim_exp1","2022-4-7","12:40:4","25","75","3","9","10","40","30","120","19","20","[""Asian""]","No","Female","2338952","614","i","learn","","","learn_trial","10","100","out","0","1","","","","","","","","","","","","","","","","","","","","",""
"","","","","","canvas-keyboard-response","245","869023","0.0-12.0-3.46","2d_cat_multi_stim_exp1","2022-4-7","12:40:4","25","75","3","9","10","40","30","120","19","20","[""Asian""]","No","Female","2338952","null","null","learn_feedback","","","learn_feedback","10","100","out","","","","","","","","","","","","","","","","","","","","","","",""
"","","","","","canvas-keyboard-response","246","869086","0.0-12.0-4.46","2d_cat_multi_stim_exp1","2022-4-7","12:40:4","25","75","3","9","10","40","30","120","19","20","[""Asian""]","No","Female","2338952","null","null","","","","clear_screen","","","","","","","","","","","","","","","","","","","","","","","","","",""
"","","","","","canvas-keyboard-response","247","869596","0.0-12.0-0.47","2d_cat_multi_stim_exp1","2022-4-7","12:40:4","25","75","3","9","10","40","30","120","19","20","[""Asian""]","No","Female","2338952","null","null","","","","fixation","","","","","","","","","","","","","","","","","","","","","","","","","",""
"","","","","","canvas-keyboard-response","248","870109","0.0-12.0-1.47","2d_cat_multi_stim_exp1","2022-4-7","12:40:4","25","75","3","9","10","40","30","120","19","20","[""Asian""]","No","Female","2338952","null","null","","","","clear_screen","","","","","","","","","","","","","","","","","","","","","","","","","",""
"","","","","","canvas-keyboard-response","249","870633","0.0-12.0-2.47","2d_cat_multi_stim_exp1","2022-4-7","12:40:4","25","75","3","9","10","40","30","120","19","20","[""Asian""]","No","Female","2338952","515","i","learn","","","learn_trial","25","75","in","0","0","","","","","","","","","","","","","","","","","","","","",""
"","","","","","canvas-keyboard-response","250","871645","0.0-12.0-3.47","2d_cat_multi_stim_exp1","2022-4-7","12:40:4","25","75","3","9","10","40","30","120","19","20","[""Asian""]","No","Female","2338952","null","null","learn_feedback","","","learn_feedback","25","75","in","","","","","","","","","","","","","","","","","","","","","","",""
"","","","","","canvas-keyboard-response","251","871706","0.0-12.0-4.47","2d_cat_multi_stim_exp1","2022-4-7","12:40:4","25","75","3","9","10","40","30","120","19","20","[""Asian""]","No","Female","2338952","null","null","","","","clear_screen","","","","","","","","","","","","","","","","","","","","","","","","","",""
"","","","","","canvas-keyboard-response","252","872216","0.0-12.0-0.48","2d_cat_multi_stim_exp1","2022-4-7","12:40:4","25","75","3","9","10","40","30","120","19","20","[""Asian""]","No","Female","2338952","null","null","","","","fixation","","","","","","","","","","","","","","","","","","","","","","","","","",""
"","","","","","canvas-keyboard-response","253","872726","0.0-12.0-1.48","2d_cat_multi_stim_exp1","2022-4-7","12:40:4","25","75","3","9","10","40","30","120","19","20","[""Asian""]","No","Female","2338952","null","null","","","","clear_screen","","","","","","","","","","","","","","","","","","","","","","","","","",""
"","","","","","canvas-keyboard-response","254","874297","0.0-12.0-2.48","2d_cat_multi_stim_exp1","2022-4-7","12:40:4","25","75","3","9","10","40","30","120","19","20","[""Asian""]","No","Female","2338952","1562","i","learn","","","learn_trial","22.9268","81.5052","in","0","0","","","","","","","","","","","","","","","","","","","","",""
"","","","","","canvas-keyboard-response","255","875306","0.0-12.0-3.48","2d_cat_multi_stim_exp1","2022-4-7","12:40:4","25","75","3","9","10","40","30","120","19","20","[""Asian""]","No","Female","2338952","null","null","learn_feedback","","","learn_feedback","22.9268","81.5052","in","","","","","","","","","","","","","","","","","","","","","","",""
"","","","","","canvas-keyboard-response","256","875365","0.0-12.0-4.48","2d_cat_multi_stim_exp1","2022-4-7","12:40:4","25","75","3","9","10","40","30","120","19","20","[""Asian""]","No","Female","2338952","null","null","","","","clear_screen","","","","","","","","","","","","","","","","","","","","","","","","","",""
"","","","","","canvas-keyboard-response","257","875876","0.0-12.0-0.49","2d_cat_multi_stim_exp1","2022-4-7","12:40:4","25","75","3","9","10","40","30","120","19","20","[""Asian""]","No","Female","2338952","null","null","","","","fixation","","","","","","","","","","","","","","","","","","","","","","","","","",""
"","","","","","canvas-keyboard-response","258","876385","0.0-12.0-1.49","2d_cat_multi_stim_exp1","2022-4-7","12:40:4","25","75","3","9","10","40","30","120","19","20","[""Asian""]","No","Female","2338952","null","null","","","","clear_screen","","","","","","","","","","","","","","","","","","","","","","","","","",""
"","","","","","canvas-keyboard-response","259","877402","0.0-12.0-2.49","2d_cat_multi_stim_exp1","2022-4-7","12:40:4","25","75","3","9","10","40","30","120","19","20","[""Asian""]","No","Female","2338952","1005","u","learn","","","learn_trial","40","110","out","1","0","","","","","","","","","","","","","","","","","","","","",""
"","","","","","canvas-keyboard-response","260","878410","0.0-12.0-3.49","2d_cat_multi_stim_exp1","2022-4-7","12:40:4","25","75","3","9","10","40","30","120","19","20","[""Asian""]","No","Female","2338952","null","null","learn_feedback","","","learn_feedback","40","110","out","","","","","","","","","","","","","","","","","","","","","","",""
"","","","","","canvas-keyboard-response","261","878469","0.0-12.0-4.49","2d_cat_multi_stim_exp1","2022-4-7","12:40:4","25","75","3","9","10","40","30","120","19","20","[""Asian""]","No","Female","2338952","null","null","","","","clear_screen","","","","","","","","","","","","","","","","","","","","","","","","","",""
"","","","","","canvas-keyboard-response","262","878977","0.0-12.0-0.50","2d_cat_multi_stim_exp1","2022-4-7","12:40:4","25","75","3","9","10","40","30","120","19","20","[""Asian""]","No","Female","2338952","null","null","","","","fixation","","","","","","","","","","","","","","","","","","","","","","","","","",""
"","","","","","canvas-keyboard-response","263","879490","0.0-12.0-1.50","2d_cat_multi_stim_exp1","2022-4-7","12:40:4","25","75","3","9","10","40","30","120","19","20","[""Asian""]","No","Female","2338952","null","null","","","","clear_screen","","","","","","","","","","","","","","","","","","","","","","","","","",""
"","","","","","canvas-keyboard-response","264","880282","0.0-12.0-2.50","2d_cat_multi_stim_exp1","2022-4-7","12:40:4","25","75","3","9","10","40","30","120","19","20","[""Asian""]","No","Female","2338952","784","i","learn","","","learn_trial","25","75","in","0","0","","","","","","","","","","","","","","","","","","","","",""
"","","","","","canvas-keyboard-response","265","881292","0.0-12.0-3.50","2d_cat_multi_stim_exp1","2022-4-7","12:40:4","25","75","3","9","10","40","30","120","19","20","[""Asian""]","No","Female","2338952","null","null","learn_feedback","","","learn_feedback","25","75","in","","","","","","","","","","","","","","","","","","","","","","",""
"","","","","","canvas-keyboard-response","266","881351","0.0-12.0-4.50","2d_cat_multi_stim_exp1","2022-4-7","12:40:4","25","75","3","9","10","40","30","120","19","20","[""Asian""]","No","Female","2338952","null","null","","","","clear_screen","","","","","","","","","","","","","","","","","","","","","","","","","",""
"","","","","","canvas-keyboard-response","267","881863","0.0-12.0-0.51","2d_cat_multi_stim_exp1","2022-4-7","12:40:4","25","75","3","9","10","40","30","120","19","20","[""Asian""]","No","Female","2338952","null","null","","","","fixation","","","","","","","","","","","","","","","","","","","","","","","","","",""
"","","","","","canvas-keyboard-response","268","882375","0.0-12.0-1.51","2d_cat_multi_stim_exp1","2022-4-7","12:40:4","25","75","3","9","10","40","30","120","19","20","[""Asian""]","No","Female","2338952","null","null","","","","clear_screen","","","","","","","","","","","","","","","","","","","","","","","","","",""
"","","","","","canvas-keyboard-response","269","883402","0.0-12.0-2.51","2d_cat_multi_stim_exp1","2022-4-7","12:40:4","25","75","3","9","10","40","30","120","19","20","[""Asian""]","No","Female","2338952","1016","i","learn","","","learn_trial","10","80","out","0","1","","","","","","","","","","","","","","","","","","","","",""
"","","","","","canvas-keyboard-response","270","883912","0.0-12.0-3.51","2d_cat_multi_stim_exp1","2022-4-7","12:40:4","25","75","3","9","10","40","30","120","19","20","[""Asian""]","No","Female","2338952","null","null","learn_feedback","","","learn_feedback","10","80","out","","","","","","","","","","","","","","","","","","","","","","",""
"","","","","","canvas-keyboard-response","271","883971","0.0-12.0-4.51","2d_cat_multi_stim_exp1","2022-4-7","12:40:4","25","75","3","9","10","40","30","120","19","20","[""Asian""]","No","Female","2338952","null","null","","","","clear_screen","","","","","","","","","","","","","","","","","","","","","","","","","",""
"","","","","","canvas-keyboard-response","272","884481","0.0-12.0-0.52","2d_cat_multi_stim_exp1","2022-4-7","12:40:4","25","75","3","9","10","40","30","120","19","20","[""Asian""]","No","Female","2338952","null","null","","","","fixation","","","","","","","","","","","","","","","","","","","","","","","","","",""
"","","","","","canvas-keyboard-response","273","884993","0.0-12.0-1.52","2d_cat_multi_stim_exp1","2022-4-7","12:40:4","25","75","3","9","10","40","30","120","19","20","[""Asian""]","No","Female","2338952","null","null","","","","clear_screen","","","","","","","","","","","","","","","","","","","","","","","","","",""
"","","","","","canvas-keyboard-response","274","886089","0.0-12.0-2.52","2d_cat_multi_stim_exp1","2022-4-7","12:40:4","25","75","3","9","10","40","30","120","19","20","[""Asian""]","No","Female","2338952","1085","u","learn","","","learn_trial","23.3333","80","out","1","0","","","","","","","","","","","","","","","","","","","","",""
"","","","","","canvas-keyboard-response","275","887099","0.0-12.0-3.52","2d_cat_multi_stim_exp1","2022-4-7","12:40:4","25","75","3","9","10","40","30","120","19","20","[""Asian""]","No","Female","2338952","null","null","learn_feedback","","","learn_feedback","23.3333","80","out","","","","","","","","","","","","","","","","","","","","","","",""
"","","","","","canvas-keyboard-response","276","887163","0.0-12.0-4.52","2d_cat_multi_stim_exp1","2022-4-7","12:40:4","25","75","3","9","10","40","30","120","19","20","[""Asian""]","No","Female","2338952","null","null","","","","clear_screen","","","","","","","","","","","","","","","","","","","","","","","","","",""
"","","","","","canvas-keyboard-response","277","887674","0.0-12.0-0.53","2d_cat_multi_stim_exp1","2022-4-7","12:40:4","25","75","3","9","10","40","30","120","19","20","[""Asian""]","No","Female","2338952","null","null","","","","fixation","","","","","","","","","","","","","","","","","","","","","","","","","",""
"","","","","","canvas-keyboard-response","278","888186","0.0-12.0-1.53","2d_cat_multi_stim_exp1","2022-4-7","12:40:4","25","75","3","9","10","40","30","120","19","20","[""Asian""]","No","Female","2338952","null","null","","","","clear_screen","","","","","","","","","","","","","","","","","","","","","","","","","",""
"","","","","","canvas-keyboard-response","279","888874","0.0-12.0-2.53","2d_cat_multi_stim_exp1","2022-4-7","12:40:4","25","75","3","9","10","40","30","120","19","20","[""Asian""]","No","Female","2338952","676","i","learn","","","learn_trial","13.3333","120","out","0","1","","","","","","","","","","","","","","","","","","","","",""
"","","","","","canvas-keyboard-response","280","889387","0.0-12.0-3.53","2d_cat_multi_stim_exp1","2022-4-7","12:40:4","25","75","3","9","10","40","30","120","19","20","[""Asian""]","No","Female","2338952","null","null","learn_feedback","","","learn_feedback","13.3333","120","out","","","","","","","","","","","","","","","","","","","","","","",""
"","","","","","canvas-keyboard-response","281","889446","0.0-12.0-4.53","2d_cat_multi_stim_exp1","2022-4-7","12:40:4","25","75","3","9","10","40","30","120","19","20","[""Asian""]","No","Female","2338952","null","null","","","","clear_screen","","","","","","","","","","","","","","","","","","","","","","","","","",""
"","","","","","canvas-keyboard-response","282","889958","0.0-12.0-0.54","2d_cat_multi_stim_exp1","2022-4-7","12:40:4","25","75","3","9","10","40","30","120","19","20","[""Asian""]","No","Female","2338952","null","null","","","","fixation","","","","","","","","","","","","","","","","","","","","","","","","","",""
"","","","","","canvas-keyboard-response","283","890467","0.0-12.0-1.54","2d_cat_multi_stim_exp1","2022-4-7","12:40:4","25","75","3","9","10","40","30","120","19","20","[""Asian""]","No","Female","2338952","null","null","","","","clear_screen","","","","","","","","","","","","","","","","","","","","","","","","","",""
"","","","","","canvas-keyboard-response","284","891138","0.0-12.0-2.54","2d_cat_multi_stim_exp1","2022-4-7","12:40:4","25","75","3","9","10","40","30","120","19","20","[""Asian""]","No","Female","2338952","659","u","learn","","","learn_trial","22.1081","72.6057","in","1","1","","","","","","","","","","","","","","","","","","","","",""
"","","","","","canvas-keyboard-response","285","891647","0.0-12.0-3.54","2d_cat_multi_stim_exp1","2022-4-7","12:40:4","25","75","3","9","10","40","30","120","19","20","[""Asian""]","No","Female","2338952","null","null","learn_feedback","","","learn_feedback","22.1081","72.6057","in","","","","","","","","","","","","","","","","","","","","","","",""
"","","","","","canvas-keyboard-response","286","891706","0.0-12.0-4.54","2d_cat_multi_stim_exp1","2022-4-7","12:40:4","25","75","3","9","10","40","30","120","19","20","[""Asian""]","No","Female","2338952","null","null","","","","clear_screen","","","","","","","","","","","","","","","","","","","","","","","","","",""
"","","","","","canvas-keyboard-response","287","892214","0.0-12.0-0.55","2d_cat_multi_stim_exp1","2022-4-7","12:40:4","25","75","3","9","10","40","30","120","19","20","[""Asian""]","No","Female","2338952","null","null","","","","fixation","","","","","","","","","","","","","","","","","","","","","","","","","",""
"","","","","","canvas-keyboard-response","288","892725","0.0-12.0-1.55","2d_cat_multi_stim_exp1","2022-4-7","12:40:4","25","75","3","9","10","40","30","120","19","20","[""Asian""]","No","Female","2338952","null","null","","","","clear_screen","","","","","","","","","","","","","","","","","","","","","","","","","",""
"","","","","","canvas-keyboard-response","289","893802","0.0-12.0-2.55","2d_cat_multi_stim_exp1","2022-4-7","12:40:4","25","75","3","9","10","40","30","120","19","20","[""Asian""]","No","Female","2338952","1067","i","learn","","","learn_trial","25","75","in","0","0","","","","","","","","","","","","","","","","","","","","",""
"","","","","","canvas-keyboard-response","290","894816","0.0-12.0-3.55","2d_cat_multi_stim_exp1","2022-4-7","12:40:4","25","75","3","9","10","40","30","120","19","20","[""Asian""]","No","Female","2338952","null","null","learn_feedback","","","learn_feedback","25","75","in","","","","","","","","","","","","","","","","","","","","","","",""
"","","","","","canvas-keyboard-response","291","894879","0.0-12.0-4.55","2d_cat_multi_stim_exp1","2022-4-7","12:40:4","25","75","3","9","10","40","30","120","19","20","[""Asian""]","No","Female","2338952","null","null","","","","clear_screen","","","","","","","","","","","","","","","","","","","","","","","","","",""
"","","","","","canvas-keyboard-response","292","895389","0.0-12.0-0.56","2d_cat_multi_stim_exp1","2022-4-7","12:40:4","25","75","3","9","10","40","30","120","19","20","[""Asian""]","No","Female","2338952","null","null","","","","fixation","","","","","","","","","","","","","","","","","","","","","","","","","",""
"","","","","","canvas-keyboard-response","293","895903","0.0-12.0-1.56","2d_cat_multi_stim_exp1","2022-4-7","12:40:4","25","75","3","9","10","40","30","120","19","20","[""Asian""]","No","Female","2338952","null","null","","","","clear_screen","","","","","","","","","","","","","","","","","","","","","","","","","",""
"","","","","","canvas-keyboard-response","294","896402","0.0-12.0-2.56","2d_cat_multi_stim_exp1","2022-4-7","12:40:4","25","75","3","9","10","40","30","120","19","20","[""Asian""]","No","Female","2338952","491","u","learn","","","learn_trial","25","75","in","1","1","","","","","","","","","","","","","","","","","","","","",""
"","","","","","canvas-keyboard-response","295","896913","0.0-12.0-3.56","2d_cat_multi_stim_exp1","2022-4-7","12:40:4","25","75","3","9","10","40","30","120","19","20","[""Asian""]","No","Female","2338952","null","null","learn_feedback","","","learn_feedback","25","75","in","","","","","","","","","","","","","","","","","","","","","","",""
"","","","","","canvas-keyboard-response","296","896974","0.0-12.0-4.56","2d_cat_multi_stim_exp1","2022-4-7","12:40:4","25","75","3","9","10","40","30","120","19","20","[""Asian""]","No","Female","2338952","null","null","","","","clear_screen","","","","","","","","","","","","","","","","","","","","","","","","","",""
"","","","","","canvas-keyboard-response","297","897482","0.0-12.0-0.57","2d_cat_multi_stim_exp1","2022-4-7","12:40:4","25","75","3","9","10","40","30","120","19","20","[""Asian""]","No","Female","2338952","null","null","","","","fixation","","","","","","","","","","","","","","","","","","","","","","","","","",""
"","","","","","canvas-keyboard-response","298","897991","0.0-12.0-1.57","2d_cat_multi_stim_exp1","2022-4-7","12:40:4","25","75","3","9","10","40","30","120","19","20","[""Asian""]","No","Female","2338952","null","null","","","","clear_screen","","","","","","","","","","","","","","","","","","","","","","","","","",""
