"success","timeout","failed_images","failed_audio","failed_video","trial_type","trial_index","time_elapsed","internal_node_id","exp_name","date","time","angle_mean_in","radius_mean_in","angle_sd_in","radius_sd_in","angle_min_out","angle_max_out","radius_min_out","radius_max_out","sub_n","age","race","ethnicity","gender","exp_duration","rt","response","exp_trial_type","stimulus","view_history","screen_id","angle","radius","distribution","choice","correct","order","angle_a","radius_a","angle_b","radius_b","angle_c","radius_c","jkl_correct","transfer_trial_type","choice_set","abc_correct","tc_correct","tc_angle","tdc_a","tdc_b","tdc_c","pair","category_a","category_b","category_c","question_order"
"true","false","[]","[]","[]","preload","0","25","0.0-0.0","2d_cat_multi_stim_exp1","2022-5-3","16:23:33","25","75","3","9","10","40","30","120","84","21","[""White""]","No","Male","2398764","","","","","","","","","","","","","","","","","","","","","","","","","","","","","","","",""
"","","","","","survey-html-form","1","4533","0.0-1.0","2d_cat_multi_stim_exp1","2022-5-3","16:23:33","25","75","3","9","10","40","30","120","84","21","[""White""]","No","Male","2398764","4484","{""response"":""84""}","enter-sub-number","","","","","","","","","","","","","","","","","","","","","","","","","","","","",""
"true","","","","","fullscreen","2","7615","0.0-2.0","2d_cat_multi_stim_exp1","2022-5-3","16:23:33","25","75","3","9","10","40","30","120","84","21","[""White""]","No","Male","2398764","","","","","","","","","","","","","","","","","","","","","","","","","","","","","","","",""
"","","","","","image-button-response","3","649211","0.0-3.0","2d_cat_multi_stim_exp1","2022-5-3","16:23:33","25","75","3","9","10","40","30","120","84","21","[""White""]","No","Male","2398764","641589","0","","consent.png","","","","","","","","","","","","","","","","","","","","","","","","","","","",""
"","","","","","html-button-response","4","655267","0.0-4.0","2d_cat_multi_stim_exp1","2022-5-3","16:23:33","25","75","3","9","10","40","30","120","84","21","[""White""]","No","Male","2398764","6051","0","","<div style= ""font-size:25px;"" <p> <strong> Welcome to the experiment! </strong><br> <p style=""color:#8B0000; font-size:25px;""><strong> Please do NOT exit full screen until you are done with the experiment. </strong> </p><p style=""font-size:25px;color:#8B0000;""> <strong> The experiment will be canceled and your data will be lost <br> if you try to go back or refresh the page at any point during the experiment.</strong> </p><br><p> <strong> Thanks in advance for your contribution to our research! </strong></p>","","","","","","","","","","","","","","","","","","","","","","","","","","","",""
"","","","","","instructions","5","715163","0.0-5.0","2d_cat_multi_stim_exp1","2022-5-3","16:23:33","25","75","3","9","10","40","30","120","84","21","[""White""]","No","Male","2398764","59892","","","","[{""page_index"":0,""viewing_time"":15900},{""page_index"":1,""viewing_time"":5062},{""page_index"":2,""viewing_time"":9666},{""page_index"":3,""viewing_time"":29264}]","instructions_1","","","","","","","","","","","","","","","","","","","","","","","","","",""
"","","","","","instructions","6","718323","0.0-6.0","2d_cat_multi_stim_exp1","2022-5-3","16:23:33","25","75","3","9","10","40","30","120","84","21","[""White""]","No","Male","2398764","3158","","","","[{""page_index"":0,""viewing_time"":3158}]","Click to see the kinds of turtles that will appear in the study.","","","","","","","","","","","","","","","","","","","","","","","","","",""
"","","","","","canvas-keyboard-response","7","733339","0.0-7.0","2d_cat_multi_stim_exp1","2022-5-3","16:23:33","25","75","3","9","10","40","30","120","84","21","[""White""]","No","Male","2398764","null","null","","","","demo_range","","","","","","","","","","","","","","","","","","","","","","","","","",""
"","","","","","instructions","8","737691","0.0-8.0","2d_cat_multi_stim_exp1","2022-5-3","16:23:33","25","75","3","9","10","40","30","120","84","21","[""White""]","No","Male","2398764","3852","","","","[{""page_index"":0,""viewing_time"":3852}]","Click to see some turtles in the subspecies.","","","","","","","","","","","","","","","","","","","","","","","","","",""
"","","","","","canvas-keyboard-response","9","752706","0.0-9.0","2d_cat_multi_stim_exp1","2022-5-3","16:23:33","25","75","3","9","10","40","30","120","84","21","[""White""]","No","Male","2398764","null","null","","","","demo_in","","","","","","","","","","","","","","","","","","","","","","","","","",""
"","","","","","instructions","10","783323","0.0-10.0","2d_cat_multi_stim_exp1","2022-5-3","16:23:33","25","75","3","9","10","40","30","120","84","21","[""White""]","No","Male","2398764","30114","","","","[{""page_index"":0,""viewing_time"":6602},{""page_index"":1,""viewing_time"":15512},{""page_index"":2,""viewing_time"":8000}]","instructions_2","","","","","","","","","","","","","","","","","","","","","","","","","",""
"","","","","","instructions","11","786043","0.0-11.0","2d_cat_multi_stim_exp1","2022-5-3","16:23:33","25","75","3","9","10","40","30","120","84","21","[""White""]","No","Male","2398764","2716","","","","[{""page_index"":0,""viewing_time"":2716}]","Click to begin the first phase of the experiment.","","","","","","","","","","","","","","","","","","","","","","","","","",""
"","","","","","canvas-keyboard-response","12","786554","0.0-12.0-0.0","2d_cat_multi_stim_exp1","2022-5-3","16:23:33","25","75","3","9","10","40","30","120","84","21","[""White""]","No","Male","2398764","null","null","","","","fixation","","","","","","","","","","","","","","","","","","","","","","","","","",""
"","","","","","canvas-keyboard-response","13","787062","0.0-12.0-1.0","2d_cat_multi_stim_exp1","2022-5-3","16:23:33","25","75","3","9","10","40","30","120","84","21","[""White""]","No","Male","2398764","null","null","","","","clear_screen","","","","","","","","","","","","","","","","","","","","","","","","","",""
"","","","","","canvas-keyboard-response","14","790561","0.0-12.0-2.0","2d_cat_multi_stim_exp1","2022-5-3","16:23:33","25","75","3","9","10","40","30","120","84","21","[""White""]","No","Male","2398764","3486","u","learn","","","learn_trial","25","75","in","1","1","","","","","","","","","","","","","","","","","","","","",""
"","","","","","canvas-keyboard-response","15","791069","0.0-12.0-3.0","2d_cat_multi_stim_exp1","2022-5-3","16:23:33","25","75","3","9","10","40","30","120","84","21","[""White""]","No","Male","2398764","null","null","learn_feedback","","","learn_feedback","25","75","in","","","","","","","","","","","","","","","","","","","","","","",""
"","","","","","canvas-keyboard-response","16","791130","0.0-12.0-4.0","2d_cat_multi_stim_exp1","2022-5-3","16:23:33","25","75","3","9","10","40","30","120","84","21","[""White""]","No","Male","2398764","null","null","","","","clear_screen","","","","","","","","","","","","","","","","","","","","","","","","","",""
"","","","","","canvas-keyboard-response","17","791640","0.0-12.0-0.1","2d_cat_multi_stim_exp1","2022-5-3","16:23:33","25","75","3","9","10","40","30","120","84","21","[""White""]","No","Male","2398764","null","null","","","","fixation","","","","","","","","","","","","","","","","","","","","","","","","","",""
"","","","","","canvas-keyboard-response","18","792151","0.0-12.0-1.1","2d_cat_multi_stim_exp1","2022-5-3","16:23:33","25","75","3","9","10","40","30","120","84","21","[""White""]","No","Male","2398764","null","null","","","","clear_screen","","","","","","","","","","","","","","","","","","","","","","","","","",""
"","","","","","canvas-keyboard-response","19","793154","0.0-12.0-2.1","2d_cat_multi_stim_exp1","2022-5-3","16:23:33","25","75","3","9","10","40","30","120","84","21","[""White""]","No","Male","2398764","995","u","learn","","","learn_trial","20","90","out","1","0","","","","","","","","","","","","","","","","","","","","",""
"","","","","","canvas-keyboard-response","20","794165","0.0-12.0-3.1","2d_cat_multi_stim_exp1","2022-5-3","16:23:33","25","75","3","9","10","40","30","120","84","21","[""White""]","No","Male","2398764","null","null","learn_feedback","","","learn_feedback","20","90","out","","","","","","","","","","","","","","","","","","","","","","",""
"","","","","","canvas-keyboard-response","21","794228","0.0-12.0-4.1","2d_cat_multi_stim_exp1","2022-5-3","16:23:33","25","75","3","9","10","40","30","120","84","21","[""White""]","No","Male","2398764","null","null","","","","clear_screen","","","","","","","","","","","","","","","","","","","","","","","","","",""
"","","","","","canvas-keyboard-response","22","794737","0.0-12.0-0.2","2d_cat_multi_stim_exp1","2022-5-3","16:23:33","25","75","3","9","10","40","30","120","84","21","[""White""]","No","Male","2398764","null","null","","","","fixation","","","","","","","","","","","","","","","","","","","","","","","","","",""
"","","","","","canvas-keyboard-response","23","795249","0.0-12.0-1.2","2d_cat_multi_stim_exp1","2022-5-3","16:23:33","25","75","3","9","10","40","30","120","84","21","[""White""]","No","Male","2398764","null","null","","","","clear_screen","","","","","","","","","","","","","","","","","","","","","","","","","",""
"","","","","","canvas-keyboard-response","24","796427","0.0-12.0-2.2","2d_cat_multi_stim_exp1","2022-5-3","16:23:33","25","75","3","9","10","40","30","120","84","21","[""White""]","No","Male","2398764","1170","i","learn","","","learn_trial","20","30","out","0","1","","","","","","","","","","","","","","","","","","","","",""
"","","","","","canvas-keyboard-response","25","796938","0.0-12.0-3.2","2d_cat_multi_stim_exp1","2022-5-3","16:23:33","25","75","3","9","10","40","30","120","84","21","[""White""]","No","Male","2398764","null","null","learn_feedback","","","learn_feedback","20","30","out","","","","","","","","","","","","","","","","","","","","","","",""
"","","","","","canvas-keyboard-response","26","797001","0.0-12.0-4.2","2d_cat_multi_stim_exp1","2022-5-3","16:23:33","25","75","3","9","10","40","30","120","84","21","[""White""]","No","Male","2398764","null","null","","","","clear_screen","","","","","","","","","","","","","","","","","","","","","","","","","",""
"","","","","","canvas-keyboard-response","27","797511","0.0-12.0-0.3","2d_cat_multi_stim_exp1","2022-5-3","16:23:33","25","75","3","9","10","40","30","120","84","21","[""White""]","No","Male","2398764","null","null","","","","fixation","","","","","","","","","","","","","","","","","","","","","","","","","",""
"","","","","","canvas-keyboard-response","28","798025","0.0-12.0-1.3","2d_cat_multi_stim_exp1","2022-5-3","16:23:33","25","75","3","9","10","40","30","120","84","21","[""White""]","No","Male","2398764","null","null","","","","clear_screen","","","","","","","","","","","","","","","","","","","","","","","","","",""
"","","","","","canvas-keyboard-response","29","798906","0.0-12.0-2.3","2d_cat_multi_stim_exp1","2022-5-3","16:23:33","25","75","3","9","10","40","30","120","84","21","[""White""]","No","Male","2398764","870","i","learn","","","learn_trial","33.3333","50","out","0","1","","","","","","","","","","","","","","","","","","","","",""
"","","","","","canvas-keyboard-response","30","799415","0.0-12.0-3.3","2d_cat_multi_stim_exp1","2022-5-3","16:23:33","25","75","3","9","10","40","30","120","84","21","[""White""]","No","Male","2398764","null","null","learn_feedback","","","learn_feedback","33.3333","50","out","","","","","","","","","","","","","","","","","","","","","","",""
"","","","","","canvas-keyboard-response","31","799476","0.0-12.0-4.3","2d_cat_multi_stim_exp1","2022-5-3","16:23:33","25","75","3","9","10","40","30","120","84","21","[""White""]","No","Male","2398764","null","null","","","","clear_screen","","","","","","","","","","","","","","","","","","","","","","","","","",""
"","","","","","canvas-keyboard-response","32","799987","0.0-12.0-0.4","2d_cat_multi_stim_exp1","2022-5-3","16:23:33","25","75","3","9","10","40","30","120","84","21","[""White""]","No","Male","2398764","null","null","","","","fixation","","","","","","","","","","","","","","","","","","","","","","","","","",""
"","","","","","canvas-keyboard-response","33","800498","0.0-12.0-1.4","2d_cat_multi_stim_exp1","2022-5-3","16:23:33","25","75","3","9","10","40","30","120","84","21","[""White""]","No","Male","2398764","null","null","","","","clear_screen","","","","","","","","","","","","","","","","","","","","","","","","","",""
"","","","","","canvas-keyboard-response","34","801491","0.0-12.0-2.4","2d_cat_multi_stim_exp1","2022-5-3","16:23:33","25","75","3","9","10","40","30","120","84","21","[""White""]","No","Male","2398764","983","i","learn","","","learn_trial","36.6667","110","out","0","1","","","","","","","","","","","","","","","","","","","","",""
"","","","","","canvas-keyboard-response","35","802000","0.0-12.0-3.4","2d_cat_multi_stim_exp1","2022-5-3","16:23:33","25","75","3","9","10","40","30","120","84","21","[""White""]","No","Male","2398764","null","null","learn_feedback","","","learn_feedback","36.6667","110","out","","","","","","","","","","","","","","","","","","","","","","",""
"","","","","","canvas-keyboard-response","36","802063","0.0-12.0-4.4","2d_cat_multi_stim_exp1","2022-5-3","16:23:33","25","75","3","9","10","40","30","120","84","21","[""White""]","No","Male","2398764","null","null","","","","clear_screen","","","","","","","","","","","","","","","","","","","","","","","","","",""
"","","","","","canvas-keyboard-response","37","802569","0.0-12.0-0.5","2d_cat_multi_stim_exp1","2022-5-3","16:23:33","25","75","3","9","10","40","30","120","84","21","[""White""]","No","Male","2398764","null","null","","","","fixation","","","","","","","","","","","","","","","","","","","","","","","","","",""
"","","","","","canvas-keyboard-response","38","803082","0.0-12.0-1.5","2d_cat_multi_stim_exp1","2022-5-3","16:23:33","25","75","3","9","10","40","30","120","84","21","[""White""]","No","Male","2398764","null","null","","","","clear_screen","","","","","","","","","","","","","","","","","","","","","","","","","",""
"","","","","","canvas-keyboard-response","39","804218","0.0-12.0-2.5","2d_cat_multi_stim_exp1","2022-5-3","16:23:33","25","75","3","9","10","40","30","120","84","21","[""White""]","No","Male","2398764","1130","i","learn","","","learn_trial","27.5753","70.3839","in","0","0","","","","","","","","","","","","","","","","","","","","",""
"","","","","","canvas-keyboard-response","40","805228","0.0-12.0-3.5","2d_cat_multi_stim_exp1","2022-5-3","16:23:33","25","75","3","9","10","40","30","120","84","21","[""White""]","No","Male","2398764","null","null","learn_feedback","","","learn_feedback","27.5753","70.3839","in","","","","","","","","","","","","","","","","","","","","","","",""
"","","","","","canvas-keyboard-response","41","805291","0.0-12.0-4.5","2d_cat_multi_stim_exp1","2022-5-3","16:23:33","25","75","3","9","10","40","30","120","84","21","[""White""]","No","Male","2398764","null","null","","","","clear_screen","","","","","","","","","","","","","","","","","","","","","","","","","",""
"","","","","","canvas-keyboard-response","42","805800","0.0-12.0-0.6","2d_cat_multi_stim_exp1","2022-5-3","16:23:33","25","75","3","9","10","40","30","120","84","21","[""White""]","No","Male","2398764","null","null","","","","fixation","","","","","","","","","","","","","","","","","","","","","","","","","",""
"","","","","","canvas-keyboard-response","43","806312","0.0-12.0-1.6","2d_cat_multi_stim_exp1","2022-5-3","16:23:33","25","75","3","9","10","40","30","120","84","21","[""White""]","No","Male","2398764","null","null","","","","clear_screen","","","","","","","","","","","","","","","","","","","","","","","","","",""
"","","","","","canvas-keyboard-response","44","807641","0.0-12.0-2.6","2d_cat_multi_stim_exp1","2022-5-3","16:23:33","25","75","3","9","10","40","30","120","84","21","[""White""]","No","Male","2398764","1324","u","learn","","","learn_trial","25","75","in","1","1","","","","","","","","","","","","","","","","","","","","",""
"","","","","","canvas-keyboard-response","45","808152","0.0-12.0-3.6","2d_cat_multi_stim_exp1","2022-5-3","16:23:33","25","75","3","9","10","40","30","120","84","21","[""White""]","No","Male","2398764","null","null","learn_feedback","","","learn_feedback","25","75","in","","","","","","","","","","","","","","","","","","","","","","",""
"","","","","","canvas-keyboard-response","46","808214","0.0-12.0-4.6","2d_cat_multi_stim_exp1","2022-5-3","16:23:33","25","75","3","9","10","40","30","120","84","21","[""White""]","No","Male","2398764","null","null","","","","clear_screen","","","","","","","","","","","","","","","","","","","","","","","","","",""
"","","","","","canvas-keyboard-response","47","808723","0.0-12.0-0.7","2d_cat_multi_stim_exp1","2022-5-3","16:23:33","25","75","3","9","10","40","30","120","84","21","[""White""]","No","Male","2398764","null","null","","","","fixation","","","","","","","","","","","","","","","","","","","","","","","","","",""
"","","","","","canvas-keyboard-response","48","809229","0.0-12.0-1.7","2d_cat_multi_stim_exp1","2022-5-3","16:23:33","25","75","3","9","10","40","30","120","84","21","[""White""]","No","Male","2398764","null","null","","","","clear_screen","","","","","","","","","","","","","","","","","","","","","","","","","",""
"","","","","","canvas-keyboard-response","49","810073","0.0-12.0-2.7","2d_cat_multi_stim_exp1","2022-5-3","16:23:33","25","75","3","9","10","40","30","120","84","21","[""White""]","No","Male","2398764","835","u","learn","","","learn_trial","25","75","in","1","1","","","","","","","","","","","","","","","","","","","","",""
"","","","","","canvas-keyboard-response","50","810584","0.0-12.0-3.7","2d_cat_multi_stim_exp1","2022-5-3","16:23:33","25","75","3","9","10","40","30","120","84","21","[""White""]","No","Male","2398764","null","null","learn_feedback","","","learn_feedback","25","75","in","","","","","","","","","","","","","","","","","","","","","","",""
"","","","","","canvas-keyboard-response","51","810645","0.0-12.0-4.7","2d_cat_multi_stim_exp1","2022-5-3","16:23:33","25","75","3","9","10","40","30","120","84","21","[""White""]","No","Male","2398764","null","null","","","","clear_screen","","","","","","","","","","","","","","","","","","","","","","","","","",""
"","","","","","canvas-keyboard-response","52","811153","0.0-12.0-0.8","2d_cat_multi_stim_exp1","2022-5-3","16:23:33","25","75","3","9","10","40","30","120","84","21","[""White""]","No","Male","2398764","null","null","","","","fixation","","","","","","","","","","","","","","","","","","","","","","","","","",""
"","","","","","canvas-keyboard-response","53","811667","0.0-12.0-1.8","2d_cat_multi_stim_exp1","2022-5-3","16:23:33","25","75","3","9","10","40","30","120","84","21","[""White""]","No","Male","2398764","null","null","","","","clear_screen","","","","","","","","","","","","","","","","","","","","","","","","","",""
"","","","","","canvas-keyboard-response","54","812818","0.0-12.0-2.8","2d_cat_multi_stim_exp1","2022-5-3","16:23:33","25","75","3","9","10","40","30","120","84","21","[""White""]","No","Male","2398764","1141","i","learn","","","learn_trial","16.6667","80","out","0","1","","","","","","","","","","","","","","","","","","","","",""
"","","","","","canvas-keyboard-response","55","813331","0.0-12.0-3.8","2d_cat_multi_stim_exp1","2022-5-3","16:23:33","25","75","3","9","10","40","30","120","84","21","[""White""]","No","Male","2398764","null","null","learn_feedback","","","learn_feedback","16.6667","80","out","","","","","","","","","","","","","","","","","","","","","","",""
"","","","","","canvas-keyboard-response","56","813391","0.0-12.0-4.8","2d_cat_multi_stim_exp1","2022-5-3","16:23:33","25","75","3","9","10","40","30","120","84","21","[""White""]","No","Male","2398764","null","null","","","","clear_screen","","","","","","","","","","","","","","","","","","","","","","","","","",""
"","","","","","canvas-keyboard-response","57","813899","0.0-12.0-0.9","2d_cat_multi_stim_exp1","2022-5-3","16:23:33","25","75","3","9","10","40","30","120","84","21","[""White""]","No","Male","2398764","null","null","","","","fixation","","","","","","","","","","","","","","","","","","","","","","","","","",""
"","","","","","canvas-keyboard-response","58","814410","0.0-12.0-1.9","2d_cat_multi_stim_exp1","2022-5-3","16:23:33","25","75","3","9","10","40","30","120","84","21","[""White""]","No","Male","2398764","null","null","","","","clear_screen","","","","","","","","","","","","","","","","","","","","","","","","","",""
"","","","","","canvas-keyboard-response","59","815882","0.0-12.0-2.9","2d_cat_multi_stim_exp1","2022-5-3","16:23:33","25","75","3","9","10","40","30","120","84","21","[""White""]","No","Male","2398764","1463","i","learn","","","learn_trial","23.8209","66.7243","in","0","0","","","","","","","","","","","","","","","","","","","","",""
"","","","","","canvas-keyboard-response","60","816890","0.0-12.0-3.9","2d_cat_multi_stim_exp1","2022-5-3","16:23:33","25","75","3","9","10","40","30","120","84","21","[""White""]","No","Male","2398764","null","null","learn_feedback","","","learn_feedback","23.8209","66.7243","in","","","","","","","","","","","","","","","","","","","","","","",""
"","","","","","canvas-keyboard-response","61","816946","0.0-12.0-4.9","2d_cat_multi_stim_exp1","2022-5-3","16:23:33","25","75","3","9","10","40","30","120","84","21","[""White""]","No","Male","2398764","null","null","","","","clear_screen","","","","","","","","","","","","","","","","","","","","","","","","","",""
"","","","","","canvas-keyboard-response","62","817454","0.0-12.0-0.10","2d_cat_multi_stim_exp1","2022-5-3","16:23:33","25","75","3","9","10","40","30","120","84","21","[""White""]","No","Male","2398764","null","null","","","","fixation","","","","","","","","","","","","","","","","","","","","","","","","","",""
"","","","","","canvas-keyboard-response","63","817965","0.0-12.0-1.10","2d_cat_multi_stim_exp1","2022-5-3","16:23:33","25","75","3","9","10","40","30","120","84","21","[""White""]","No","Male","2398764","null","null","","","","clear_screen","","","","","","","","","","","","","","","","","","","","","","","","","",""
"","","","","","canvas-keyboard-response","64","818802","0.0-12.0-2.10","2d_cat_multi_stim_exp1","2022-5-3","16:23:33","25","75","3","9","10","40","30","120","84","21","[""White""]","No","Male","2398764","828","i","learn","","","learn_trial","23.3333","40","out","0","1","","","","","","","","","","","","","","","","","","","","",""
"","","","","","canvas-keyboard-response","65","819311","0.0-12.0-3.10","2d_cat_multi_stim_exp1","2022-5-3","16:23:33","25","75","3","9","10","40","30","120","84","21","[""White""]","No","Male","2398764","null","null","learn_feedback","","","learn_feedback","23.3333","40","out","","","","","","","","","","","","","","","","","","","","","","",""
"","","","","","canvas-keyboard-response","66","819373","0.0-12.0-4.10","2d_cat_multi_stim_exp1","2022-5-3","16:23:33","25","75","3","9","10","40","30","120","84","21","[""White""]","No","Male","2398764","null","null","","","","clear_screen","","","","","","","","","","","","","","","","","","","","","","","","","",""
"","","","","","canvas-keyboard-response","67","819881","0.0-12.0-0.11","2d_cat_multi_stim_exp1","2022-5-3","16:23:33","25","75","3","9","10","40","30","120","84","21","[""White""]","No","Male","2398764","null","null","","","","fixation","","","","","","","","","","","","","","","","","","","","","","","","","",""
"","","","","","canvas-keyboard-response","68","820390","0.0-12.0-1.11","2d_cat_multi_stim_exp1","2022-5-3","16:23:33","25","75","3","9","10","40","30","120","84","21","[""White""]","No","Male","2398764","null","null","","","","clear_screen","","","","","","","","","","","","","","","","","","","","","","","","","",""
"","","","","","canvas-keyboard-response","69","821273","0.0-12.0-2.11","2d_cat_multi_stim_exp1","2022-5-3","16:23:33","25","75","3","9","10","40","30","120","84","21","[""White""]","No","Male","2398764","875","u","learn","","","learn_trial","20","70","out","1","0","","","","","","","","","","","","","","","","","","","","",""
"","","","","","canvas-keyboard-response","70","822284","0.0-12.0-3.11","2d_cat_multi_stim_exp1","2022-5-3","16:23:33","25","75","3","9","10","40","30","120","84","21","[""White""]","No","Male","2398764","null","null","learn_feedback","","","learn_feedback","20","70","out","","","","","","","","","","","","","","","","","","","","","","",""
"","","","","","canvas-keyboard-response","71","822345","0.0-12.0-4.11","2d_cat_multi_stim_exp1","2022-5-3","16:23:33","25","75","3","9","10","40","30","120","84","21","[""White""]","No","Male","2398764","null","null","","","","clear_screen","","","","","","","","","","","","","","","","","","","","","","","","","",""
"","","","","","canvas-keyboard-response","72","822855","0.0-12.0-0.12","2d_cat_multi_stim_exp1","2022-5-3","16:23:33","25","75","3","9","10","40","30","120","84","21","[""White""]","No","Male","2398764","null","null","","","","fixation","","","","","","","","","","","","","","","","","","","","","","","","","",""
"","","","","","canvas-keyboard-response","73","823367","0.0-12.0-1.12","2d_cat_multi_stim_exp1","2022-5-3","16:23:33","25","75","3","9","10","40","30","120","84","21","[""White""]","No","Male","2398764","null","null","","","","clear_screen","","","","","","","","","","","","","","","","","","","","","","","","","",""
"","","","","","canvas-keyboard-response","74","824171","0.0-12.0-2.12","2d_cat_multi_stim_exp1","2022-5-3","16:23:33","25","75","3","9","10","40","30","120","84","21","[""White""]","No","Male","2398764","794","u","learn","","","learn_trial","28","75","in","1","1","","","","","","","","","","","","","","","","","","","","",""
"","","","","","canvas-keyboard-response","75","824679","0.0-12.0-3.12","2d_cat_multi_stim_exp1","2022-5-3","16:23:33","25","75","3","9","10","40","30","120","84","21","[""White""]","No","Male","2398764","null","null","learn_feedback","","","learn_feedback","28","75","in","","","","","","","","","","","","","","","","","","","","","","",""
"","","","","","canvas-keyboard-response","76","824740","0.0-12.0-4.12","2d_cat_multi_stim_exp1","2022-5-3","16:23:33","25","75","3","9","10","40","30","120","84","21","[""White""]","No","Male","2398764","null","null","","","","clear_screen","","","","","","","","","","","","","","","","","","","","","","","","","",""
"","","","","","canvas-keyboard-response","77","825249","0.0-12.0-0.13","2d_cat_multi_stim_exp1","2022-5-3","16:23:33","25","75","3","9","10","40","30","120","84","21","[""White""]","No","Male","2398764","null","null","","","","fixation","","","","","","","","","","","","","","","","","","","","","","","","","",""
"","","","","","canvas-keyboard-response","78","825756","0.0-12.0-1.13","2d_cat_multi_stim_exp1","2022-5-3","16:23:33","25","75","3","9","10","40","30","120","84","21","[""White""]","No","Male","2398764","null","null","","","","clear_screen","","","","","","","","","","","","","","","","","","","","","","","","","",""
"","","","","","canvas-keyboard-response","79","826354","0.0-12.0-2.13","2d_cat_multi_stim_exp1","2022-5-3","16:23:33","25","75","3","9","10","40","30","120","84","21","[""White""]","No","Male","2398764","588","u","learn","","","learn_trial","25","75","in","1","1","","","","","","","","","","","","","","","","","","","","",""
"","","","","","canvas-keyboard-response","80","826863","0.0-12.0-3.13","2d_cat_multi_stim_exp1","2022-5-3","16:23:33","25","75","3","9","10","40","30","120","84","21","[""White""]","No","Male","2398764","null","null","learn_feedback","","","learn_feedback","25","75","in","","","","","","","","","","","","","","","","","","","","","","",""
"","","","","","canvas-keyboard-response","81","826918","0.0-12.0-4.13","2d_cat_multi_stim_exp1","2022-5-3","16:23:33","25","75","3","9","10","40","30","120","84","21","[""White""]","No","Male","2398764","null","null","","","","clear_screen","","","","","","","","","","","","","","","","","","","","","","","","","",""
"","","","","","canvas-keyboard-response","82","827430","0.0-12.0-0.14","2d_cat_multi_stim_exp1","2022-5-3","16:23:33","25","75","3","9","10","40","30","120","84","21","[""White""]","No","Male","2398764","null","null","","","","fixation","","","","","","","","","","","","","","","","","","","","","","","","","",""
"","","","","","canvas-keyboard-response","83","827941","0.0-12.0-1.14","2d_cat_multi_stim_exp1","2022-5-3","16:23:33","25","75","3","9","10","40","30","120","84","21","[""White""]","No","Male","2398764","null","null","","","","clear_screen","","","","","","","","","","","","","","","","","","","","","","","","","",""
"","","","","","canvas-keyboard-response","84","829475","0.0-12.0-2.14","2d_cat_multi_stim_exp1","2022-5-3","16:23:33","25","75","3","9","10","40","30","120","84","21","[""White""]","No","Male","2398764","1525","u","learn","","","learn_trial","25","75","in","1","1","","","","","","","","","","","","","","","","","","","","",""
"","","","","","canvas-keyboard-response","85","829986","0.0-12.0-3.14","2d_cat_multi_stim_exp1","2022-5-3","16:23:33","25","75","3","9","10","40","30","120","84","21","[""White""]","No","Male","2398764","null","null","learn_feedback","","","learn_feedback","25","75","in","","","","","","","","","","","","","","","","","","","","","","",""
"","","","","","canvas-keyboard-response","86","830048","0.0-12.0-4.14","2d_cat_multi_stim_exp1","2022-5-3","16:23:33","25","75","3","9","10","40","30","120","84","21","[""White""]","No","Male","2398764","null","null","","","","clear_screen","","","","","","","","","","","","","","","","","","","","","","","","","",""
"","","","","","canvas-keyboard-response","87","830558","0.0-12.0-0.15","2d_cat_multi_stim_exp1","2022-5-3","16:23:33","25","75","3","9","10","40","30","120","84","21","[""White""]","No","Male","2398764","null","null","","","","fixation","","","","","","","","","","","","","","","","","","","","","","","","","",""
"","","","","","canvas-keyboard-response","88","831069","0.0-12.0-1.15","2d_cat_multi_stim_exp1","2022-5-3","16:23:33","25","75","3","9","10","40","30","120","84","21","[""White""]","No","Male","2398764","null","null","","","","clear_screen","","","","","","","","","","","","","","","","","","","","","","","","","",""
"","","","","","canvas-keyboard-response","89","831770","0.0-12.0-2.15","2d_cat_multi_stim_exp1","2022-5-3","16:23:33","25","75","3","9","10","40","30","120","84","21","[""White""]","No","Male","2398764","689","u","learn","","","learn_trial","27.5753","79.6161","in","1","1","","","","","","","","","","","","","","","","","","","","",""
"","","","","","canvas-keyboard-response","90","832277","0.0-12.0-3.15","2d_cat_multi_stim_exp1","2022-5-3","16:23:33","25","75","3","9","10","40","30","120","84","21","[""White""]","No","Male","2398764","null","null","learn_feedback","","","learn_feedback","27.5753","79.6161","in","","","","","","","","","","","","","","","","","","","","","","",""
"","","","","","canvas-keyboard-response","91","832335","0.0-12.0-4.15","2d_cat_multi_stim_exp1","2022-5-3","16:23:33","25","75","3","9","10","40","30","120","84","21","[""White""]","No","Male","2398764","null","null","","","","clear_screen","","","","","","","","","","","","","","","","","","","","","","","","","",""
"","","","","","canvas-keyboard-response","92","832840","0.0-12.0-0.16","2d_cat_multi_stim_exp1","2022-5-3","16:23:33","25","75","3","9","10","40","30","120","84","21","[""White""]","No","Male","2398764","null","null","","","","fixation","","","","","","","","","","","","","","","","","","","","","","","","","",""
"","","","","","canvas-keyboard-response","93","833353","0.0-12.0-1.16","2d_cat_multi_stim_exp1","2022-5-3","16:23:33","25","75","3","9","10","40","30","120","84","21","[""White""]","No","Male","2398764","null","null","","","","clear_screen","","","","","","","","","","","","","","","","","","","","","","","","","",""
"","","","","","canvas-keyboard-response","94","834202","0.0-12.0-2.16","2d_cat_multi_stim_exp1","2022-5-3","16:23:33","25","75","3","9","10","40","30","120","84","21","[""White""]","No","Male","2398764","840","u","learn","","","learn_trial","22.2971","78.905","in","1","1","","","","","","","","","","","","","","","","","","","","",""
"","","","","","canvas-keyboard-response","95","834715","0.0-12.0-3.16","2d_cat_multi_stim_exp1","2022-5-3","16:23:33","25","75","3","9","10","40","30","120","84","21","[""White""]","No","Male","2398764","null","null","learn_feedback","","","learn_feedback","22.2971","78.905","in","","","","","","","","","","","","","","","","","","","","","","",""
"","","","","","canvas-keyboard-response","96","834776","0.0-12.0-4.16","2d_cat_multi_stim_exp1","2022-5-3","16:23:33","25","75","3","9","10","40","30","120","84","21","[""White""]","No","Male","2398764","null","null","","","","clear_screen","","","","","","","","","","","","","","","","","","","","","","","","","",""
"","","","","","canvas-keyboard-response","97","835287","0.0-12.0-0.17","2d_cat_multi_stim_exp1","2022-5-3","16:23:33","25","75","3","9","10","40","30","120","84","21","[""White""]","No","Male","2398764","null","null","","","","fixation","","","","","","","","","","","","","","","","","","","","","","","","","",""
"","","","","","canvas-keyboard-response","98","835794","0.0-12.0-1.17","2d_cat_multi_stim_exp1","2022-5-3","16:23:33","25","75","3","9","10","40","30","120","84","21","[""White""]","No","Male","2398764","null","null","","","","clear_screen","","","","","","","","","","","","","","","","","","","","","","","","","",""
"","","","","","canvas-keyboard-response","99","836427","0.0-12.0-2.17","2d_cat_multi_stim_exp1","2022-5-3","16:23:33","25","75","3","9","10","40","30","120","84","21","[""White""]","No","Male","2398764","621","u","learn","","","learn_trial","25","75","in","1","1","","","","","","","","","","","","","","","","","","","","",""
"","","","","","canvas-keyboard-response","100","836935","0.0-12.0-3.17","2d_cat_multi_stim_exp1","2022-5-3","16:23:33","25","75","3","9","10","40","30","120","84","21","[""White""]","No","Male","2398764","null","null","learn_feedback","","","learn_feedback","25","75","in","","","","","","","","","","","","","","","","","","","","","","",""
"","","","","","canvas-keyboard-response","101","836993","0.0-12.0-4.17","2d_cat_multi_stim_exp1","2022-5-3","16:23:33","25","75","3","9","10","40","30","120","84","21","[""White""]","No","Male","2398764","null","null","","","","clear_screen","","","","","","","","","","","","","","","","","","","","","","","","","",""
"","","","","","canvas-keyboard-response","102","837504","0.0-12.0-0.18","2d_cat_multi_stim_exp1","2022-5-3","16:23:33","25","75","3","9","10","40","30","120","84","21","[""White""]","No","Male","2398764","null","null","","","","fixation","","","","","","","","","","","","","","","","","","","","","","","","","",""
"","","","","","canvas-keyboard-response","103","838014","0.0-12.0-1.18","2d_cat_multi_stim_exp1","2022-5-3","16:23:33","25","75","3","9","10","40","30","120","84","21","[""White""]","No","Male","2398764","null","null","","","","clear_screen","","","","","","","","","","","","","","","","","","","","","","","","","",""
"","","","","","canvas-keyboard-response","104","838691","0.0-12.0-2.18","2d_cat_multi_stim_exp1","2022-5-3","16:23:33","25","75","3","9","10","40","30","120","84","21","[""White""]","No","Male","2398764","665","u","learn","","","learn_trial","20","80","out","1","0","","","","","","","","","","","","","","","","","","","","",""
"","","","","","canvas-keyboard-response","105","839701","0.0-12.0-3.18","2d_cat_multi_stim_exp1","2022-5-3","16:23:33","25","75","3","9","10","40","30","120","84","21","[""White""]","No","Male","2398764","null","null","learn_feedback","","","learn_feedback","20","80","out","","","","","","","","","","","","","","","","","","","","","","",""
"","","","","","canvas-keyboard-response","106","839761","0.0-12.0-4.18","2d_cat_multi_stim_exp1","2022-5-3","16:23:33","25","75","3","9","10","40","30","120","84","21","[""White""]","No","Male","2398764","null","null","","","","clear_screen","","","","","","","","","","","","","","","","","","","","","","","","","",""
"","","","","","canvas-keyboard-response","107","840269","0.0-12.0-0.19","2d_cat_multi_stim_exp1","2022-5-3","16:23:33","25","75","3","9","10","40","30","120","84","21","[""White""]","No","Male","2398764","null","null","","","","fixation","","","","","","","","","","","","","","","","","","","","","","","","","",""
"","","","","","canvas-keyboard-response","108","840782","0.0-12.0-1.19","2d_cat_multi_stim_exp1","2022-5-3","16:23:33","25","75","3","9","10","40","30","120","84","21","[""White""]","No","Male","2398764","null","null","","","","clear_screen","","","","","","","","","","","","","","","","","","","","","","","","","",""
"","","","","","canvas-keyboard-response","109","841570","0.0-12.0-2.19","2d_cat_multi_stim_exp1","2022-5-3","16:23:33","25","75","3","9","10","40","30","120","84","21","[""White""]","No","Male","2398764","780","i","learn","","","learn_trial","20","120","out","0","1","","","","","","","","","","","","","","","","","","","","",""
"","","","","","canvas-keyboard-response","110","842080","0.0-12.0-3.19","2d_cat_multi_stim_exp1","2022-5-3","16:23:33","25","75","3","9","10","40","30","120","84","21","[""White""]","No","Male","2398764","null","null","learn_feedback","","","learn_feedback","20","120","out","","","","","","","","","","","","","","","","","","","","","","",""
"","","","","","canvas-keyboard-response","111","842139","0.0-12.0-4.19","2d_cat_multi_stim_exp1","2022-5-3","16:23:33","25","75","3","9","10","40","30","120","84","21","[""White""]","No","Male","2398764","null","null","","","","clear_screen","","","","","","","","","","","","","","","","","","","","","","","","","",""
"","","","","","canvas-keyboard-response","112","842648","0.0-12.0-0.20","2d_cat_multi_stim_exp1","2022-5-3","16:23:33","25","75","3","9","10","40","30","120","84","21","[""White""]","No","Male","2398764","null","null","","","","fixation","","","","","","","","","","","","","","","","","","","","","","","","","",""
"","","","","","canvas-keyboard-response","113","843159","0.0-12.0-1.20","2d_cat_multi_stim_exp1","2022-5-3","16:23:33","25","75","3","9","10","40","30","120","84","21","[""White""]","No","Male","2398764","null","null","","","","clear_screen","","","","","","","","","","","","","","","","","","","","","","","","","",""
"","","","","","canvas-keyboard-response","114","843898","0.0-12.0-2.20","2d_cat_multi_stim_exp1","2022-5-3","16:23:33","25","75","3","9","10","40","30","120","84","21","[""White""]","No","Male","2398764","728","i","learn","","","learn_trial","25","75","in","0","0","","","","","","","","","","","","","","","","","","","","",""
"","","","","","canvas-keyboard-response","115","844906","0.0-12.0-3.20","2d_cat_multi_stim_exp1","2022-5-3","16:23:33","25","75","3","9","10","40","30","120","84","21","[""White""]","No","Male","2398764","null","null","learn_feedback","","","learn_feedback","25","75","in","","","","","","","","","","","","","","","","","","","","","","",""
"","","","","","canvas-keyboard-response","116","844968","0.0-12.0-4.20","2d_cat_multi_stim_exp1","2022-5-3","16:23:33","25","75","3","9","10","40","30","120","84","21","[""White""]","No","Male","2398764","null","null","","","","clear_screen","","","","","","","","","","","","","","","","","","","","","","","","","",""
"","","","","","canvas-keyboard-response","117","845475","0.0-12.0-0.21","2d_cat_multi_stim_exp1","2022-5-3","16:23:33","25","75","3","9","10","40","30","120","84","21","[""White""]","No","Male","2398764","null","null","","","","fixation","","","","","","","","","","","","","","","","","","","","","","","","","",""
"","","","","","canvas-keyboard-response","118","845984","0.0-12.0-1.21","2d_cat_multi_stim_exp1","2022-5-3","16:23:33","25","75","3","9","10","40","30","120","84","21","[""White""]","No","Male","2398764","null","null","","","","clear_screen","","","","","","","","","","","","","","","","","","","","","","","","","",""
"","","","","","canvas-keyboard-response","119","846698","0.0-12.0-2.21","2d_cat_multi_stim_exp1","2022-5-3","16:23:33","25","75","3","9","10","40","30","120","84","21","[""White""]","No","Male","2398764","702","i","learn","","","learn_trial","33.3333","110","out","0","1","","","","","","","","","","","","","","","","","","","","",""
"","","","","","canvas-keyboard-response","120","847208","0.0-12.0-3.21","2d_cat_multi_stim_exp1","2022-5-3","16:23:33","25","75","3","9","10","40","30","120","84","21","[""White""]","No","Male","2398764","null","null","learn_feedback","","","learn_feedback","33.3333","110","out","","","","","","","","","","","","","","","","","","","","","","",""
"","","","","","canvas-keyboard-response","121","847270","0.0-12.0-4.21","2d_cat_multi_stim_exp1","2022-5-3","16:23:33","25","75","3","9","10","40","30","120","84","21","[""White""]","No","Male","2398764","null","null","","","","clear_screen","","","","","","","","","","","","","","","","","","","","","","","","","",""
"","","","","","canvas-keyboard-response","122","847779","0.0-12.0-0.22","2d_cat_multi_stim_exp1","2022-5-3","16:23:33","25","75","3","9","10","40","30","120","84","21","[""White""]","No","Male","2398764","null","null","","","","fixation","","","","","","","","","","","","","","","","","","","","","","","","","",""
"","","","","","canvas-keyboard-response","123","848287","0.0-12.0-1.22","2d_cat_multi_stim_exp1","2022-5-3","16:23:33","25","75","3","9","10","40","30","120","84","21","[""White""]","No","Male","2398764","null","null","","","","clear_screen","","","","","","","","","","","","","","","","","","","","","","","","","",""
"","","","","","canvas-keyboard-response","124","849018","0.0-12.0-2.22","2d_cat_multi_stim_exp1","2022-5-3","16:23:33","25","75","3","9","10","40","30","120","84","21","[""White""]","No","Male","2398764","721","i","learn","","","learn_trial","40","40","out","0","1","","","","","","","","","","","","","","","","","","","","",""
"","","","","","canvas-keyboard-response","125","849527","0.0-12.0-3.22","2d_cat_multi_stim_exp1","2022-5-3","16:23:33","25","75","3","9","10","40","30","120","84","21","[""White""]","No","Male","2398764","null","null","learn_feedback","","","learn_feedback","40","40","out","","","","","","","","","","","","","","","","","","","","","","",""
"","","","","","canvas-keyboard-response","126","849589","0.0-12.0-4.22","2d_cat_multi_stim_exp1","2022-5-3","16:23:33","25","75","3","9","10","40","30","120","84","21","[""White""]","No","Male","2398764","null","null","","","","clear_screen","","","","","","","","","","","","","","","","","","","","","","","","","",""
"","","","","","canvas-keyboard-response","127","850098","0.0-12.0-0.23","2d_cat_multi_stim_exp1","2022-5-3","16:23:33","25","75","3","9","10","40","30","120","84","21","[""White""]","No","Male","2398764","null","null","","","","fixation","","","","","","","","","","","","","","","","","","","","","","","","","",""
"","","","","","canvas-keyboard-response","128","850612","0.0-12.0-1.23","2d_cat_multi_stim_exp1","2022-5-3","16:23:33","25","75","3","9","10","40","30","120","84","21","[""White""]","No","Male","2398764","null","null","","","","clear_screen","","","","","","","","","","","","","","","","","","","","","","","","","",""
"","","","","","canvas-keyboard-response","129","851370","0.0-12.0-2.23","2d_cat_multi_stim_exp1","2022-5-3","16:23:33","25","75","3","9","10","40","30","120","84","21","[""White""]","No","Male","2398764","748","i","learn","","","learn_trial","26.6667","40","out","0","1","","","","","","","","","","","","","","","","","","","","",""
"","","","","","canvas-keyboard-response","130","851882","0.0-12.0-3.23","2d_cat_multi_stim_exp1","2022-5-3","16:23:33","25","75","3","9","10","40","30","120","84","21","[""White""]","No","Male","2398764","null","null","learn_feedback","","","learn_feedback","26.6667","40","out","","","","","","","","","","","","","","","","","","","","","","",""
"","","","","","canvas-keyboard-response","131","851944","0.0-12.0-4.23","2d_cat_multi_stim_exp1","2022-5-3","16:23:33","25","75","3","9","10","40","30","120","84","21","[""White""]","No","Male","2398764","null","null","","","","clear_screen","","","","","","","","","","","","","","","","","","","","","","","","","",""
"","","","","","canvas-keyboard-response","132","852453","0.0-12.0-0.24","2d_cat_multi_stim_exp1","2022-5-3","16:23:33","25","75","3","9","10","40","30","120","84","21","[""White""]","No","Male","2398764","null","null","","","","fixation","","","","","","","","","","","","","","","","","","","","","","","","","",""
"","","","","","canvas-keyboard-response","133","852962","0.0-12.0-1.24","2d_cat_multi_stim_exp1","2022-5-3","16:23:33","25","75","3","9","10","40","30","120","84","21","[""White""]","No","Male","2398764","null","null","","","","clear_screen","","","","","","","","","","","","","","","","","","","","","","","","","",""
"","","","","","canvas-keyboard-response","134","853659","0.0-12.0-2.24","2d_cat_multi_stim_exp1","2022-5-3","16:23:33","25","75","3","9","10","40","30","120","84","21","[""White""]","No","Male","2398764","686","u","learn","","","learn_trial","23.3333","80","out","1","0","","","","","","","","","","","","","","","","","","","","",""
"","","","","","canvas-keyboard-response","135","854669","0.0-12.0-3.24","2d_cat_multi_stim_exp1","2022-5-3","16:23:33","25","75","3","9","10","40","30","120","84","21","[""White""]","No","Male","2398764","null","null","learn_feedback","","","learn_feedback","23.3333","80","out","","","","","","","","","","","","","","","","","","","","","","",""
"","","","","","canvas-keyboard-response","136","854733","0.0-12.0-4.24","2d_cat_multi_stim_exp1","2022-5-3","16:23:33","25","75","3","9","10","40","30","120","84","21","[""White""]","No","Male","2398764","null","null","","","","clear_screen","","","","","","","","","","","","","","","","","","","","","","","","","",""
"","","","","","canvas-keyboard-response","137","855242","0.0-12.0-0.25","2d_cat_multi_stim_exp1","2022-5-3","16:23:33","25","75","3","9","10","40","30","120","84","21","[""White""]","No","Male","2398764","null","null","","","","fixation","","","","","","","","","","","","","","","","","","","","","","","","","",""
"","","","","","canvas-keyboard-response","138","855755","0.0-12.0-1.25","2d_cat_multi_stim_exp1","2022-5-3","16:23:33","25","75","3","9","10","40","30","120","84","21","[""White""]","No","Male","2398764","null","null","","","","clear_screen","","","","","","","","","","","","","","","","","","","","","","","","","",""
"","","","","","canvas-keyboard-response","139","856491","0.0-12.0-2.25","2d_cat_multi_stim_exp1","2022-5-3","16:23:33","25","75","3","9","10","40","30","120","84","21","[""White""]","No","Male","2398764","724","i","learn","","","learn_trial","10","100","out","0","1","","","","","","","","","","","","","","","","","","","","",""
"","","","","","canvas-keyboard-response","140","857000","0.0-12.0-3.25","2d_cat_multi_stim_exp1","2022-5-3","16:23:33","25","75","3","9","10","40","30","120","84","21","[""White""]","No","Male","2398764","null","null","learn_feedback","","","learn_feedback","10","100","out","","","","","","","","","","","","","","","","","","","","","","",""
"","","","","","canvas-keyboard-response","141","857062","0.0-12.0-4.25","2d_cat_multi_stim_exp1","2022-5-3","16:23:33","25","75","3","9","10","40","30","120","84","21","[""White""]","No","Male","2398764","null","null","","","","clear_screen","","","","","","","","","","","","","","","","","","","","","","","","","",""
"","","","","","canvas-keyboard-response","142","857568","0.0-12.0-0.26","2d_cat_multi_stim_exp1","2022-5-3","16:23:33","25","75","3","9","10","40","30","120","84","21","[""White""]","No","Male","2398764","null","null","","","","fixation","","","","","","","","","","","","","","","","","","","","","","","","","",""
"","","","","","canvas-keyboard-response","143","858078","0.0-12.0-1.26","2d_cat_multi_stim_exp1","2022-5-3","16:23:33","25","75","3","9","10","40","30","120","84","21","[""White""]","No","Male","2398764","null","null","","","","clear_screen","","","","","","","","","","","","","","","","","","","","","","","","","",""
"","","","","","canvas-keyboard-response","144","858690","0.0-12.0-2.26","2d_cat_multi_stim_exp1","2022-5-3","16:23:33","25","75","3","9","10","40","30","120","84","21","[""White""]","No","Male","2398764","605","i","learn","","","learn_trial","20","110","out","0","1","","","","","","","","","","","","","","","","","","","","",""
"","","","","","canvas-keyboard-response","145","859198","0.0-12.0-3.26","2d_cat_multi_stim_exp1","2022-5-3","16:23:33","25","75","3","9","10","40","30","120","84","21","[""White""]","No","Male","2398764","null","null","learn_feedback","","","learn_feedback","20","110","out","","","","","","","","","","","","","","","","","","","","","","",""
"","","","","","canvas-keyboard-response","146","859257","0.0-12.0-4.26","2d_cat_multi_stim_exp1","2022-5-3","16:23:33","25","75","3","9","10","40","30","120","84","21","[""White""]","No","Male","2398764","null","null","","","","clear_screen","","","","","","","","","","","","","","","","","","","","","","","","","",""
"","","","","","canvas-keyboard-response","147","859767","0.0-12.0-0.27","2d_cat_multi_stim_exp1","2022-5-3","16:23:33","25","75","3","9","10","40","30","120","84","21","[""White""]","No","Male","2398764","null","null","","","","fixation","","","","","","","","","","","","","","","","","","","","","","","","","",""
"","","","","","canvas-keyboard-response","148","860277","0.0-12.0-1.27","2d_cat_multi_stim_exp1","2022-5-3","16:23:33","25","75","3","9","10","40","30","120","84","21","[""White""]","No","Male","2398764","null","null","","","","clear_screen","","","","","","","","","","","","","","","","","","","","","","","","","",""
"","","","","","canvas-keyboard-response","149","860914","0.0-12.0-2.27","2d_cat_multi_stim_exp1","2022-5-3","16:23:33","25","75","3","9","10","40","30","120","84","21","[""White""]","No","Male","2398764","627","i","learn","","","learn_trial","13.3333","50","out","0","1","","","","","","","","","","","","","","","","","","","","",""
"","","","","","canvas-keyboard-response","150","861424","0.0-12.0-3.27","2d_cat_multi_stim_exp1","2022-5-3","16:23:33","25","75","3","9","10","40","30","120","84","21","[""White""]","No","Male","2398764","null","null","learn_feedback","","","learn_feedback","13.3333","50","out","","","","","","","","","","","","","","","","","","","","","","",""
"","","","","","canvas-keyboard-response","151","861485","0.0-12.0-4.27","2d_cat_multi_stim_exp1","2022-5-3","16:23:33","25","75","3","9","10","40","30","120","84","21","[""White""]","No","Male","2398764","null","null","","","","clear_screen","","","","","","","","","","","","","","","","","","","","","","","","","",""
"","","","","","canvas-keyboard-response","152","861996","0.0-12.0-0.28","2d_cat_multi_stim_exp1","2022-5-3","16:23:33","25","75","3","9","10","40","30","120","84","21","[""White""]","No","Male","2398764","null","null","","","","fixation","","","","","","","","","","","","","","","","","","","","","","","","","",""
"","","","","","canvas-keyboard-response","153","862513","0.0-12.0-1.28","2d_cat_multi_stim_exp1","2022-5-3","16:23:33","25","75","3","9","10","40","30","120","84","21","[""White""]","No","Male","2398764","null","null","","","","clear_screen","","","","","","","","","","","","","","","","","","","","","","","","","",""
"","","","","","canvas-keyboard-response","154","864778","0.0-12.0-2.28","2d_cat_multi_stim_exp1","2022-5-3","16:23:33","25","75","3","9","10","40","30","120","84","21","[""White""]","No","Male","2398764","2252","u","learn","","","learn_trial","16.6667","90","out","1","0","","","","","","","","","","","","","","","","","","","","",""
"","","","","","canvas-keyboard-response","155","865787","0.0-12.0-3.28","2d_cat_multi_stim_exp1","2022-5-3","16:23:33","25","75","3","9","10","40","30","120","84","21","[""White""]","No","Male","2398764","null","null","learn_feedback","","","learn_feedback","16.6667","90","out","","","","","","","","","","","","","","","","","","","","","","",""
"","","","","","canvas-keyboard-response","156","865850","0.0-12.0-4.28","2d_cat_multi_stim_exp1","2022-5-3","16:23:33","25","75","3","9","10","40","30","120","84","21","[""White""]","No","Male","2398764","null","null","","","","clear_screen","","","","","","","","","","","","","","","","","","","","","","","","","",""
"","","","","","canvas-keyboard-response","157","866359","0.0-12.0-0.29","2d_cat_multi_stim_exp1","2022-5-3","16:23:33","25","75","3","9","10","40","30","120","84","21","[""White""]","No","Male","2398764","null","null","","","","fixation","","","","","","","","","","","","","","","","","","","","","","","","","",""
"","","","","","canvas-keyboard-response","158","866870","0.0-12.0-1.29","2d_cat_multi_stim_exp1","2022-5-3","16:23:33","25","75","3","9","10","40","30","120","84","21","[""White""]","No","Male","2398764","null","null","","","","clear_screen","","","","","","","","","","","","","","","","","","","","","","","","","",""
"","","","","","canvas-keyboard-response","159","867618","0.0-12.0-2.29","2d_cat_multi_stim_exp1","2022-5-3","16:23:33","25","75","3","9","10","40","30","120","84","21","[""White""]","No","Male","2398764","741","u","learn","","","learn_trial","25","75","in","1","1","","","","","","","","","","","","","","","","","","","","",""
"","","","","","canvas-keyboard-response","160","868131","0.0-12.0-3.29","2d_cat_multi_stim_exp1","2022-5-3","16:23:33","25","75","3","9","10","40","30","120","84","21","[""White""]","No","Male","2398764","null","null","learn_feedback","","","learn_feedback","25","75","in","","","","","","","","","","","","","","","","","","","","","","",""
"","","","","","canvas-keyboard-response","161","868193","0.0-12.0-4.29","2d_cat_multi_stim_exp1","2022-5-3","16:23:33","25","75","3","9","10","40","30","120","84","21","[""White""]","No","Male","2398764","null","null","","","","clear_screen","","","","","","","","","","","","","","","","","","","","","","","","","",""
"","","","","","canvas-keyboard-response","162","868704","0.0-12.0-0.30","2d_cat_multi_stim_exp1","2022-5-3","16:23:33","25","75","3","9","10","40","30","120","84","21","[""White""]","No","Male","2398764","null","null","","","","fixation","","","","","","","","","","","","","","","","","","","","","","","","","",""
"","","","","","canvas-keyboard-response","163","869215","0.0-12.0-1.30","2d_cat_multi_stim_exp1","2022-5-3","16:23:33","25","75","3","9","10","40","30","120","84","21","[""White""]","No","Male","2398764","null","null","","","","clear_screen","","","","","","","","","","","","","","","","","","","","","","","","","",""
"","","","","","canvas-keyboard-response","164","869842","0.0-12.0-2.30","2d_cat_multi_stim_exp1","2022-5-3","16:23:33","25","75","3","9","10","40","30","120","84","21","[""White""]","No","Male","2398764","616","i","learn","","","learn_trial","40","70","out","0","1","","","","","","","","","","","","","","","","","","","","",""
"","","","","","canvas-keyboard-response","165","870353","0.0-12.0-3.30","2d_cat_multi_stim_exp1","2022-5-3","16:23:33","25","75","3","9","10","40","30","120","84","21","[""White""]","No","Male","2398764","null","null","learn_feedback","","","learn_feedback","40","70","out","","","","","","","","","","","","","","","","","","","","","","",""
"","","","","","canvas-keyboard-response","166","870413","0.0-12.0-4.30","2d_cat_multi_stim_exp1","2022-5-3","16:23:33","25","75","3","9","10","40","30","120","84","21","[""White""]","No","Male","2398764","null","null","","","","clear_screen","","","","","","","","","","","","","","","","","","","","","","","","","",""
"","","","","","canvas-keyboard-response","167","870924","0.0-12.0-0.31","2d_cat_multi_stim_exp1","2022-5-3","16:23:33","25","75","3","9","10","40","30","120","84","21","[""White""]","No","Male","2398764","null","null","","","","fixation","","","","","","","","","","","","","","","","","","","","","","","","","",""
"","","","","","canvas-keyboard-response","168","871434","0.0-12.0-1.31","2d_cat_multi_stim_exp1","2022-5-3","16:23:33","25","75","3","9","10","40","30","120","84","21","[""White""]","No","Male","2398764","null","null","","","","clear_screen","","","","","","","","","","","","","","","","","","","","","","","","","",""
"","","","","","canvas-keyboard-response","169","872009","0.0-12.0-2.31","2d_cat_multi_stim_exp1","2022-5-3","16:23:33","25","75","3","9","10","40","30","120","84","21","[""White""]","No","Male","2398764","568","u","learn","","","learn_trial","26.6667","100","out","1","0","","","","","","","","","","","","","","","","","","","","",""
"","","","","","canvas-keyboard-response","170","873016","0.0-12.0-3.31","2d_cat_multi_stim_exp1","2022-5-3","16:23:33","25","75","3","9","10","40","30","120","84","21","[""White""]","No","Male","2398764","null","null","learn_feedback","","","learn_feedback","26.6667","100","out","","","","","","","","","","","","","","","","","","","","","","",""
"","","","","","canvas-keyboard-response","171","873079","0.0-12.0-4.31","2d_cat_multi_stim_exp1","2022-5-3","16:23:33","25","75","3","9","10","40","30","120","84","21","[""White""]","No","Male","2398764","null","null","","","","clear_screen","","","","","","","","","","","","","","","","","","","","","","","","","",""
"","","","","","canvas-keyboard-response","172","873588","0.0-12.0-0.32","2d_cat_multi_stim_exp1","2022-5-3","16:23:33","25","75","3","9","10","40","30","120","84","21","[""White""]","No","Male","2398764","null","null","","","","fixation","","","","","","","","","","","","","","","","","","","","","","","","","",""
"","","","","","canvas-keyboard-response","173","874100","0.0-12.0-1.32","2d_cat_multi_stim_exp1","2022-5-3","16:23:33","25","75","3","9","10","40","30","120","84","21","[""White""]","No","Male","2398764","null","null","","","","clear_screen","","","","","","","","","","","","","","","","","","","","","","","","","",""
"","","","","","canvas-keyboard-response","174","874746","0.0-12.0-2.32","2d_cat_multi_stim_exp1","2022-5-3","16:23:33","25","75","3","9","10","40","30","120","84","21","[""White""]","No","Male","2398764","638","i","learn","","","learn_trial","16.6667","60","out","0","1","","","","","","","","","","","","","","","","","","","","",""
"","","","","","canvas-keyboard-response","175","875256","0.0-12.0-3.32","2d_cat_multi_stim_exp1","2022-5-3","16:23:33","25","75","3","9","10","40","30","120","84","21","[""White""]","No","Male","2398764","null","null","learn_feedback","","","learn_feedback","16.6667","60","out","","","","","","","","","","","","","","","","","","","","","","",""
"","","","","","canvas-keyboard-response","176","875316","0.0-12.0-4.32","2d_cat_multi_stim_exp1","2022-5-3","16:23:33","25","75","3","9","10","40","30","120","84","21","[""White""]","No","Male","2398764","null","null","","","","clear_screen","","","","","","","","","","","","","","","","","","","","","","","","","",""
"","","","","","canvas-keyboard-response","177","875824","0.0-12.0-0.33","2d_cat_multi_stim_exp1","2022-5-3","16:23:33","25","75","3","9","10","40","30","120","84","21","[""White""]","No","Male","2398764","null","null","","","","fixation","","","","","","","","","","","","","","","","","","","","","","","","","",""
"","","","","","canvas-keyboard-response","178","876334","0.0-12.0-1.33","2d_cat_multi_stim_exp1","2022-5-3","16:23:33","25","75","3","9","10","40","30","120","84","21","[""White""]","No","Male","2398764","null","null","","","","clear_screen","","","","","","","","","","","","","","","","","","","","","","","","","",""
"","","","","","canvas-keyboard-response","179","877227","0.0-12.0-2.33","2d_cat_multi_stim_exp1","2022-5-3","16:23:33","25","75","3","9","10","40","30","120","84","21","[""White""]","No","Male","2398764","883","i","learn","","","learn_trial","10","120","out","0","1","","","","","","","","","","","","","","","","","","","","",""
"","","","","","canvas-keyboard-response","180","877736","0.0-12.0-3.33","2d_cat_multi_stim_exp1","2022-5-3","16:23:33","25","75","3","9","10","40","30","120","84","21","[""White""]","No","Male","2398764","null","null","learn_feedback","","","learn_feedback","10","120","out","","","","","","","","","","","","","","","","","","","","","","",""
"","","","","","canvas-keyboard-response","181","877799","0.0-12.0-4.33","2d_cat_multi_stim_exp1","2022-5-3","16:23:33","25","75","3","9","10","40","30","120","84","21","[""White""]","No","Male","2398764","null","null","","","","clear_screen","","","","","","","","","","","","","","","","","","","","","","","","","",""
"","","","","","canvas-keyboard-response","182","878306","0.0-12.0-0.34","2d_cat_multi_stim_exp1","2022-5-3","16:23:33","25","75","3","9","10","40","30","120","84","21","[""White""]","No","Male","2398764","null","null","","","","fixation","","","","","","","","","","","","","","","","","","","","","","","","","",""
"","","","","","canvas-keyboard-response","183","878820","0.0-12.0-1.34","2d_cat_multi_stim_exp1","2022-5-3","16:23:33","25","75","3","9","10","40","30","120","84","21","[""White""]","No","Male","2398764","null","null","","","","clear_screen","","","","","","","","","","","","","","","","","","","","","","","","","",""
"","","","","","canvas-keyboard-response","184","879562","0.0-12.0-2.34","2d_cat_multi_stim_exp1","2022-5-3","16:23:33","25","75","3","9","10","40","30","120","84","21","[""White""]","No","Male","2398764","733","u","learn","","","learn_trial","25","75","in","1","1","","","","","","","","","","","","","","","","","","","","",""
"","","","","","canvas-keyboard-response","185","880072","0.0-12.0-3.34","2d_cat_multi_stim_exp1","2022-5-3","16:23:33","25","75","3","9","10","40","30","120","84","21","[""White""]","No","Male","2398764","null","null","learn_feedback","","","learn_feedback","25","75","in","","","","","","","","","","","","","","","","","","","","","","",""
"","","","","","canvas-keyboard-response","186","880130","0.0-12.0-4.34","2d_cat_multi_stim_exp1","2022-5-3","16:23:33","25","75","3","9","10","40","30","120","84","21","[""White""]","No","Male","2398764","null","null","","","","clear_screen","","","","","","","","","","","","","","","","","","","","","","","","","",""
"","","","","","canvas-keyboard-response","187","880637","0.0-12.0-0.35","2d_cat_multi_stim_exp1","2022-5-3","16:23:33","25","75","3","9","10","40","30","120","84","21","[""White""]","No","Male","2398764","null","null","","","","fixation","","","","","","","","","","","","","","","","","","","","","","","","","",""
"","","","","","canvas-keyboard-response","188","881144","0.0-12.0-1.35","2d_cat_multi_stim_exp1","2022-5-3","16:23:33","25","75","3","9","10","40","30","120","84","21","[""White""]","No","Male","2398764","null","null","","","","clear_screen","","","","","","","","","","","","","","","","","","","","","","","","","",""
"","","","","","canvas-keyboard-response","189","882218","0.0-12.0-2.35","2d_cat_multi_stim_exp1","2022-5-3","16:23:33","25","75","3","9","10","40","30","120","84","21","[""White""]","No","Male","2398764","1062","u","learn","","","learn_trial","22.5729","69.7099","in","1","1","","","","","","","","","","","","","","","","","","","","",""
"","","","","","canvas-keyboard-response","190","882726","0.0-12.0-3.35","2d_cat_multi_stim_exp1","2022-5-3","16:23:33","25","75","3","9","10","40","30","120","84","21","[""White""]","No","Male","2398764","null","null","learn_feedback","","","learn_feedback","22.5729","69.7099","in","","","","","","","","","","","","","","","","","","","","","","",""
"","","","","","canvas-keyboard-response","191","882788","0.0-12.0-4.35","2d_cat_multi_stim_exp1","2022-5-3","16:23:33","25","75","3","9","10","40","30","120","84","21","[""White""]","No","Male","2398764","null","null","","","","clear_screen","","","","","","","","","","","","","","","","","","","","","","","","","",""
"","","","","","canvas-keyboard-response","192","883296","0.0-12.0-0.36","2d_cat_multi_stim_exp1","2022-5-3","16:23:33","25","75","3","9","10","40","30","120","84","21","[""White""]","No","Male","2398764","null","null","","","","fixation","","","","","","","","","","","","","","","","","","","","","","","","","",""
"","","","","","canvas-keyboard-response","193","883806","0.0-12.0-1.36","2d_cat_multi_stim_exp1","2022-5-3","16:23:33","25","75","3","9","10","40","30","120","84","21","[""White""]","No","Male","2398764","null","null","","","","clear_screen","","","","","","","","","","","","","","","","","","","","","","","","","",""
"","","","","","canvas-keyboard-response","194","884394","0.0-12.0-2.36","2d_cat_multi_stim_exp1","2022-5-3","16:23:33","25","75","3","9","10","40","30","120","84","21","[""White""]","No","Male","2398764","578","u","learn","","","learn_trial","25","75","in","1","1","","","","","","","","","","","","","","","","","","","","",""
"","","","","","canvas-keyboard-response","195","884902","0.0-12.0-3.36","2d_cat_multi_stim_exp1","2022-5-3","16:23:33","25","75","3","9","10","40","30","120","84","21","[""White""]","No","Male","2398764","null","null","learn_feedback","","","learn_feedback","25","75","in","","","","","","","","","","","","","","","","","","","","","","",""
"","","","","","canvas-keyboard-response","196","884965","0.0-12.0-4.36","2d_cat_multi_stim_exp1","2022-5-3","16:23:33","25","75","3","9","10","40","30","120","84","21","[""White""]","No","Male","2398764","null","null","","","","clear_screen","","","","","","","","","","","","","","","","","","","","","","","","","",""
"","","","","","canvas-keyboard-response","197","885474","0.0-12.0-0.37","2d_cat_multi_stim_exp1","2022-5-3","16:23:33","25","75","3","9","10","40","30","120","84","21","[""White""]","No","Male","2398764","null","null","","","","fixation","","","","","","","","","","","","","","","","","","","","","","","","","",""
"","","","","","canvas-keyboard-response","198","885982","0.0-12.0-1.37","2d_cat_multi_stim_exp1","2022-5-3","16:23:33","25","75","3","9","10","40","30","120","84","21","[""White""]","No","Male","2398764","null","null","","","","clear_screen","","","","","","","","","","","","","","","","","","","","","","","","","",""
"","","","","","canvas-keyboard-response","199","886538","0.0-12.0-2.37","2d_cat_multi_stim_exp1","2022-5-3","16:23:33","25","75","3","9","10","40","30","120","84","21","[""White""]","No","Male","2398764","547","u","learn","","","learn_trial","25","75","in","1","1","","","","","","","","","","","","","","","","","","","","",""
"","","","","","canvas-keyboard-response","200","887047","0.0-12.0-3.37","2d_cat_multi_stim_exp1","2022-5-3","16:23:33","25","75","3","9","10","40","30","120","84","21","[""White""]","No","Male","2398764","null","null","learn_feedback","","","learn_feedback","25","75","in","","","","","","","","","","","","","","","","","","","","","","",""
"","","","","","canvas-keyboard-response","201","887111","0.0-12.0-4.37","2d_cat_multi_stim_exp1","2022-5-3","16:23:33","25","75","3","9","10","40","30","120","84","21","[""White""]","No","Male","2398764","null","null","","","","clear_screen","","","","","","","","","","","","","","","","","","","","","","","","","",""
"","","","","","canvas-keyboard-response","202","887617","0.0-12.0-0.38","2d_cat_multi_stim_exp1","2022-5-3","16:23:33","25","75","3","9","10","40","30","120","84","21","[""White""]","No","Male","2398764","null","null","","","","fixation","","","","","","","","","","","","","","","","","","","","","","","","","",""
"","","","","","canvas-keyboard-response","203","888128","0.0-12.0-1.38","2d_cat_multi_stim_exp1","2022-5-3","16:23:33","25","75","3","9","10","40","30","120","84","21","[""White""]","No","Male","2398764","null","null","","","","clear_screen","","","","","","","","","","","","","","","","","","","","","","","","","",""
"","","","","","canvas-keyboard-response","204","890427","0.0-12.0-2.38","2d_cat_multi_stim_exp1","2022-5-3","16:23:33","25","75","3","9","10","40","30","120","84","21","[""White""]","No","Male","2398764","2290","u","learn","","","learn_trial","29.2426","87.7279","in","1","1","","","","","","","","","","","","","","","","","","","","",""
"","","","","","canvas-keyboard-response","205","890936","0.0-12.0-3.38","2d_cat_multi_stim_exp1","2022-5-3","16:23:33","25","75","3","9","10","40","30","120","84","21","[""White""]","No","Male","2398764","null","null","learn_feedback","","","learn_feedback","29.2426","87.7279","in","","","","","","","","","","","","","","","","","","","","","","",""
"","","","","","canvas-keyboard-response","206","890998","0.0-12.0-4.38","2d_cat_multi_stim_exp1","2022-5-3","16:23:33","25","75","3","9","10","40","30","120","84","21","[""White""]","No","Male","2398764","null","null","","","","clear_screen","","","","","","","","","","","","","","","","","","","","","","","","","",""
"","","","","","canvas-keyboard-response","207","891507","0.0-12.0-0.39","2d_cat_multi_stim_exp1","2022-5-3","16:23:33","25","75","3","9","10","40","30","120","84","21","[""White""]","No","Male","2398764","null","null","","","","fixation","","","","","","","","","","","","","","","","","","","","","","","","","",""
"","","","","","canvas-keyboard-response","208","892019","0.0-12.0-1.39","2d_cat_multi_stim_exp1","2022-5-3","16:23:33","25","75","3","9","10","40","30","120","84","21","[""White""]","No","Male","2398764","null","null","","","","clear_screen","","","","","","","","","","","","","","","","","","","","","","","","","",""
"","","","","","canvas-keyboard-response","209","892618","0.0-12.0-2.39","2d_cat_multi_stim_exp1","2022-5-3","16:23:33","25","75","3","9","10","40","30","120","84","21","[""White""]","No","Male","2398764","592","u","learn","","","learn_trial","23.3473","82.5112","in","1","1","","","","","","","","","","","","","","","","","","","","",""
"","","","","","canvas-keyboard-response","210","893127","0.0-12.0-3.39","2d_cat_multi_stim_exp1","2022-5-3","16:23:33","25","75","3","9","10","40","30","120","84","21","[""White""]","No","Male","2398764","null","null","learn_feedback","","","learn_feedback","23.3473","82.5112","in","","","","","","","","","","","","","","","","","","","","","","",""
"","","","","","canvas-keyboard-response","211","893187","0.0-12.0-4.39","2d_cat_multi_stim_exp1","2022-5-3","16:23:33","25","75","3","9","10","40","30","120","84","21","[""White""]","No","Male","2398764","null","null","","","","clear_screen","","","","","","","","","","","","","","","","","","","","","","","","","",""
"","","","","","canvas-keyboard-response","212","893696","0.0-12.0-0.40","2d_cat_multi_stim_exp1","2022-5-3","16:23:33","25","75","3","9","10","40","30","120","84","21","[""White""]","No","Male","2398764","null","null","","","","fixation","","","","","","","","","","","","","","","","","","","","","","","","","",""
"","","","","","canvas-keyboard-response","213","894205","0.0-12.0-1.40","2d_cat_multi_stim_exp1","2022-5-3","16:23:33","25","75","3","9","10","40","30","120","84","21","[""White""]","No","Male","2398764","null","null","","","","clear_screen","","","","","","","","","","","","","","","","","","","","","","","","","",""
"","","","","","canvas-keyboard-response","214","894882","0.0-12.0-2.40","2d_cat_multi_stim_exp1","2022-5-3","16:23:33","25","75","3","9","10","40","30","120","84","21","[""White""]","No","Male","2398764","669","i","learn","","","learn_trial","30","110","out","0","1","","","","","","","","","","","","","","","","","","","","",""
"","","","","","canvas-keyboard-response","215","895393","0.0-12.0-3.40","2d_cat_multi_stim_exp1","2022-5-3","16:23:33","25","75","3","9","10","40","30","120","84","21","[""White""]","No","Male","2398764","null","null","learn_feedback","","","learn_feedback","30","110","out","","","","","","","","","","","","","","","","","","","","","","",""
"","","","","","canvas-keyboard-response","216","895455","0.0-12.0-4.40","2d_cat_multi_stim_exp1","2022-5-3","16:23:33","25","75","3","9","10","40","30","120","84","21","[""White""]","No","Male","2398764","null","null","","","","clear_screen","","","","","","","","","","","","","","","","","","","","","","","","","",""
"","","","","","canvas-keyboard-response","217","895964","0.0-12.0-0.41","2d_cat_multi_stim_exp1","2022-5-3","16:23:33","25","75","3","9","10","40","30","120","84","21","[""White""]","No","Male","2398764","null","null","","","","fixation","","","","","","","","","","","","","","","","","","","","","","","","","",""
"","","","","","canvas-keyboard-response","218","896478","0.0-12.0-1.41","2d_cat_multi_stim_exp1","2022-5-3","16:23:33","25","75","3","9","10","40","30","120","84","21","[""White""]","No","Male","2398764","null","null","","","","clear_screen","","","","","","","","","","","","","","","","","","","","","","","","","",""
"","","","","","canvas-keyboard-response","219","897387","0.0-12.0-2.41","2d_cat_multi_stim_exp1","2022-5-3","16:23:33","25","75","3","9","10","40","30","120","84","21","[""White""]","No","Male","2398764","896","u","learn","","","learn_trial","23.3333","100","out","1","0","","","","","","","","","","","","","","","","","","","","",""
"","","","","","canvas-keyboard-response","220","898401","0.0-12.0-3.41","2d_cat_multi_stim_exp1","2022-5-3","16:23:33","25","75","3","9","10","40","30","120","84","21","[""White""]","No","Male","2398764","null","null","learn_feedback","","","learn_feedback","23.3333","100","out","","","","","","","","","","","","","","","","","","","","","","",""
"","","","","","canvas-keyboard-response","221","898462","0.0-12.0-4.41","2d_cat_multi_stim_exp1","2022-5-3","16:23:33","25","75","3","9","10","40","30","120","84","21","[""White""]","No","Male","2398764","null","null","","","","clear_screen","","","","","","","","","","","","","","","","","","","","","","","","","",""
"","","","","","canvas-keyboard-response","222","898971","0.0-12.0-0.42","2d_cat_multi_stim_exp1","2022-5-3","16:23:33","25","75","3","9","10","40","30","120","84","21","[""White""]","No","Male","2398764","null","null","","","","fixation","","","","","","","","","","","","","","","","","","","","","","","","","",""
"","","","","","canvas-keyboard-response","223","899481","0.0-12.0-1.42","2d_cat_multi_stim_exp1","2022-5-3","16:23:33","25","75","3","9","10","40","30","120","84","21","[""White""]","No","Male","2398764","null","null","","","","clear_screen","","","","","","","","","","","","","","","","","","","","","","","","","",""
"","","","","","canvas-keyboard-response","224","900056","0.0-12.0-2.42","2d_cat_multi_stim_exp1","2022-5-3","16:23:33","25","75","3","9","10","40","30","120","84","21","[""White""]","No","Male","2398764","566","u","learn","","","learn_trial","25","75","in","1","1","","","","","","","","","","","","","","","","","","","","",""
"","","","","","canvas-keyboard-response","225","900561","0.0-12.0-3.42","2d_cat_multi_stim_exp1","2022-5-3","16:23:33","25","75","3","9","10","40","30","120","84","21","[""White""]","No","Male","2398764","null","null","learn_feedback","","","learn_feedback","25","75","in","","","","","","","","","","","","","","","","","","","","","","",""
"","","","","","canvas-keyboard-response","226","900620","0.0-12.0-4.42","2d_cat_multi_stim_exp1","2022-5-3","16:23:33","25","75","3","9","10","40","30","120","84","21","[""White""]","No","Male","2398764","null","null","","","","clear_screen","","","","","","","","","","","","","","","","","","","","","","","","","",""
"","","","","","canvas-keyboard-response","227","901129","0.0-12.0-0.43","2d_cat_multi_stim_exp1","2022-5-3","16:23:33","25","75","3","9","10","40","30","120","84","21","[""White""]","No","Male","2398764","null","null","","","","fixation","","","","","","","","","","","","","","","","","","","","","","","","","",""
"","","","","","canvas-keyboard-response","228","901641","0.0-12.0-1.43","2d_cat_multi_stim_exp1","2022-5-3","16:23:33","25","75","3","9","10","40","30","120","84","21","[""White""]","No","Male","2398764","null","null","","","","clear_screen","","","","","","","","","","","","","","","","","","","","","","","","","",""
"","","","","","canvas-keyboard-response","229","902266","0.0-12.0-2.43","2d_cat_multi_stim_exp1","2022-5-3","16:23:33","25","75","3","9","10","40","30","120","84","21","[""White""]","No","Male","2398764","616","u","learn","","","learn_trial","25","75","in","1","1","","","","","","","","","","","","","","","","","","","","",""
"","","","","","canvas-keyboard-response","230","902776","0.0-12.0-3.43","2d_cat_multi_stim_exp1","2022-5-3","16:23:33","25","75","3","9","10","40","30","120","84","21","[""White""]","No","Male","2398764","null","null","learn_feedback","","","learn_feedback","25","75","in","","","","","","","","","","","","","","","","","","","","","","",""
"","","","","","canvas-keyboard-response","231","902837","0.0-12.0-4.43","2d_cat_multi_stim_exp1","2022-5-3","16:23:33","25","75","3","9","10","40","30","120","84","21","[""White""]","No","Male","2398764","null","null","","","","clear_screen","","","","","","","","","","","","","","","","","","","","","","","","","",""
"","","","","","canvas-keyboard-response","232","903346","0.0-12.0-0.44","2d_cat_multi_stim_exp1","2022-5-3","16:23:33","25","75","3","9","10","40","30","120","84","21","[""White""]","No","Male","2398764","null","null","","","","fixation","","","","","","","","","","","","","","","","","","","","","","","","","",""
"","","","","","canvas-keyboard-response","233","903859","0.0-12.0-1.44","2d_cat_multi_stim_exp1","2022-5-3","16:23:33","25","75","3","9","10","40","30","120","84","21","[""White""]","No","Male","2398764","null","null","","","","clear_screen","","","","","","","","","","","","","","","","","","","","","","","","","",""
"","","","","","canvas-keyboard-response","234","904450","0.0-12.0-2.44","2d_cat_multi_stim_exp1","2022-5-3","16:23:33","25","75","3","9","10","40","30","120","84","21","[""White""]","No","Male","2398764","580","u","learn","","","learn_trial","25","75","in","1","1","","","","","","","","","","","","","","","","","","","","",""
"","","","","","canvas-keyboard-response","235","904960","0.0-12.0-3.44","2d_cat_multi_stim_exp1","2022-5-3","16:23:33","25","75","3","9","10","40","30","120","84","21","[""White""]","No","Male","2398764","null","null","learn_feedback","","","learn_feedback","25","75","in","","","","","","","","","","","","","","","","","","","","","","",""
"","","","","","canvas-keyboard-response","236","905018","0.0-12.0-4.44","2d_cat_multi_stim_exp1","2022-5-3","16:23:33","25","75","3","9","10","40","30","120","84","21","[""White""]","No","Male","2398764","null","null","","","","clear_screen","","","","","","","","","","","","","","","","","","","","","","","","","",""
"","","","","","canvas-keyboard-response","237","905527","0.0-12.0-0.45","2d_cat_multi_stim_exp1","2022-5-3","16:23:33","25","75","3","9","10","40","30","120","84","21","[""White""]","No","Male","2398764","null","null","","","","fixation","","","","","","","","","","","","","","","","","","","","","","","","","",""
"","","","","","canvas-keyboard-response","238","906036","0.0-12.0-1.45","2d_cat_multi_stim_exp1","2022-5-3","16:23:33","25","75","3","9","10","40","30","120","84","21","[""White""]","No","Male","2398764","null","null","","","","clear_screen","","","","","","","","","","","","","","","","","","","","","","","","","",""
"","","","","","canvas-keyboard-response","239","906995","0.0-12.0-2.45","2d_cat_multi_stim_exp1","2022-5-3","16:23:33","25","75","3","9","10","40","30","120","84","21","[""White""]","No","Male","2398764","950","u","learn","","","learn_trial","22.9268","68.4948","in","1","1","","","","","","","","","","","","","","","","","","","","",""
"","","","","","canvas-keyboard-response","240","907505","0.0-12.0-3.45","2d_cat_multi_stim_exp1","2022-5-3","16:23:33","25","75","3","9","10","40","30","120","84","21","[""White""]","No","Male","2398764","null","null","learn_feedback","","","learn_feedback","22.9268","68.4948","in","","","","","","","","","","","","","","","","","","","","","","",""
"","","","","","canvas-keyboard-response","241","907563","0.0-12.0-4.45","2d_cat_multi_stim_exp1","2022-5-3","16:23:33","25","75","3","9","10","40","30","120","84","21","[""White""]","No","Male","2398764","null","null","","","","clear_screen","","","","","","","","","","","","","","","","","","","","","","","","","",""
"","","","","","canvas-keyboard-response","242","908074","0.0-12.0-0.46","2d_cat_multi_stim_exp1","2022-5-3","16:23:33","25","75","3","9","10","40","30","120","84","21","[""White""]","No","Male","2398764","null","null","","","","fixation","","","","","","","","","","","","","","","","","","","","","","","","","",""
"","","","","","canvas-keyboard-response","243","908583","0.0-12.0-1.46","2d_cat_multi_stim_exp1","2022-5-3","16:23:33","25","75","3","9","10","40","30","120","84","21","[""White""]","No","Male","2398764","null","null","","","","clear_screen","","","","","","","","","","","","","","","","","","","","","","","","","",""
"","","","","","canvas-keyboard-response","244","910506","0.0-12.0-2.46","2d_cat_multi_stim_exp1","2022-5-3","16:23:33","25","75","3","9","10","40","30","120","84","21","[""White""]","No","Male","2398764","1911","i","learn","","","learn_trial","26.6667","60","out","0","1","","","","","","","","","","","","","","","","","","","","",""
"","","","","","canvas-keyboard-response","245","911016","0.0-12.0-3.46","2d_cat_multi_stim_exp1","2022-5-3","16:23:33","25","75","3","9","10","40","30","120","84","21","[""White""]","No","Male","2398764","null","null","learn_feedback","","","learn_feedback","26.6667","60","out","","","","","","","","","","","","","","","","","","","","","","",""
"","","","","","canvas-keyboard-response","246","911076","0.0-12.0-4.46","2d_cat_multi_stim_exp1","2022-5-3","16:23:33","25","75","3","9","10","40","30","120","84","21","[""White""]","No","Male","2398764","null","null","","","","clear_screen","","","","","","","","","","","","","","","","","","","","","","","","","",""
"","","","","","canvas-keyboard-response","247","911586","0.0-12.0-0.47","2d_cat_multi_stim_exp1","2022-5-3","16:23:33","25","75","3","9","10","40","30","120","84","21","[""White""]","No","Male","2398764","null","null","","","","fixation","","","","","","","","","","","","","","","","","","","","","","","","","",""
"","","","","","canvas-keyboard-response","248","912096","0.0-12.0-1.47","2d_cat_multi_stim_exp1","2022-5-3","16:23:33","25","75","3","9","10","40","30","120","84","21","[""White""]","No","Male","2398764","null","null","","","","clear_screen","","","","","","","","","","","","","","","","","","","","","","","","","",""
"","","","","","canvas-keyboard-response","249","912699","0.0-12.0-2.47","2d_cat_multi_stim_exp1","2022-5-3","16:23:33","25","75","3","9","10","40","30","120","84","21","[""White""]","No","Male","2398764","593","u","learn","","","learn_trial","25","75","in","1","1","","","","","","","","","","","","","","","","","","","","",""
"","","","","","canvas-keyboard-response","250","913208","0.0-12.0-3.47","2d_cat_multi_stim_exp1","2022-5-3","16:23:33","25","75","3","9","10","40","30","120","84","21","[""White""]","No","Male","2398764","null","null","learn_feedback","","","learn_feedback","25","75","in","","","","","","","","","","","","","","","","","","","","","","",""
"","","","","","canvas-keyboard-response","251","913267","0.0-12.0-4.47","2d_cat_multi_stim_exp1","2022-5-3","16:23:33","25","75","3","9","10","40","30","120","84","21","[""White""]","No","Male","2398764","null","null","","","","clear_screen","","","","","","","","","","","","","","","","","","","","","","","","","",""
"","","","","","canvas-keyboard-response","252","913778","0.0-12.0-0.48","2d_cat_multi_stim_exp1","2022-5-3","16:23:33","25","75","3","9","10","40","30","120","84","21","[""White""]","No","Male","2398764","null","null","","","","fixation","","","","","","","","","","","","","","","","","","","","","","","","","",""
"","","","","","canvas-keyboard-response","253","914284","0.0-12.0-1.48","2d_cat_multi_stim_exp1","2022-5-3","16:23:33","25","75","3","9","10","40","30","120","84","21","[""White""]","No","Male","2398764","null","null","","","","clear_screen","","","","","","","","","","","","","","","","","","","","","","","","","",""
"","","","","","canvas-keyboard-response","254","914954","0.0-12.0-2.48","2d_cat_multi_stim_exp1","2022-5-3","16:23:33","25","75","3","9","10","40","30","120","84","21","[""White""]","No","Male","2398764","660","u","learn","","","learn_trial","30","80","out","1","0","","","","","","","","","","","","","","","","","","","","",""
"","","","","","canvas-keyboard-response","255","915963","0.0-12.0-3.48","2d_cat_multi_stim_exp1","2022-5-3","16:23:33","25","75","3","9","10","40","30","120","84","21","[""White""]","No","Male","2398764","null","null","learn_feedback","","","learn_feedback","30","80","out","","","","","","","","","","","","","","","","","","","","","","",""
"","","","","","canvas-keyboard-response","256","916022","0.0-12.0-4.48","2d_cat_multi_stim_exp1","2022-5-3","16:23:33","25","75","3","9","10","40","30","120","84","21","[""White""]","No","Male","2398764","null","null","","","","clear_screen","","","","","","","","","","","","","","","","","","","","","","","","","",""
"","","","","","canvas-keyboard-response","257","916531","0.0-12.0-0.49","2d_cat_multi_stim_exp1","2022-5-3","16:23:33","25","75","3","9","10","40","30","120","84","21","[""White""]","No","Male","2398764","null","null","","","","fixation","","","","","","","","","","","","","","","","","","","","","","","","","",""
"","","","","","canvas-keyboard-response","258","917045","0.0-12.0-1.49","2d_cat_multi_stim_exp1","2022-5-3","16:23:33","25","75","3","9","10","40","30","120","84","21","[""White""]","No","Male","2398764","null","null","","","","clear_screen","","","","","","","","","","","","","","","","","","","","","","","","","",""
"","","","","","canvas-keyboard-response","259","917666","0.0-12.0-2.49","2d_cat_multi_stim_exp1","2022-5-3","16:23:33","25","75","3","9","10","40","30","120","84","21","[""White""]","No","Male","2398764","613","i","learn","","","learn_trial","13.3333","30","out","0","1","","","","","","","","","","","","","","","","","","","","",""
"","","","","","canvas-keyboard-response","260","918174","0.0-12.0-3.49","2d_cat_multi_stim_exp1","2022-5-3","16:23:33","25","75","3","9","10","40","30","120","84","21","[""White""]","No","Male","2398764","null","null","learn_feedback","","","learn_feedback","13.3333","30","out","","","","","","","","","","","","","","","","","","","","","","",""
"","","","","","canvas-keyboard-response","261","918234","0.0-12.0-4.49","2d_cat_multi_stim_exp1","2022-5-3","16:23:33","25","75","3","9","10","40","30","120","84","21","[""White""]","No","Male","2398764","null","null","","","","clear_screen","","","","","","","","","","","","","","","","","","","","","","","","","",""
"","","","","","canvas-keyboard-response","262","918742","0.0-12.0-0.50","2d_cat_multi_stim_exp1","2022-5-3","16:23:33","25","75","3","9","10","40","30","120","84","21","[""White""]","No","Male","2398764","null","null","","","","fixation","","","","","","","","","","","","","","","","","","","","","","","","","",""
"","","","","","canvas-keyboard-response","263","919256","0.0-12.0-1.50","2d_cat_multi_stim_exp1","2022-5-3","16:23:33","25","75","3","9","10","40","30","120","84","21","[""White""]","No","Male","2398764","null","null","","","","clear_screen","","","","","","","","","","","","","","","","","","","","","","","","","",""
"","","","","","canvas-keyboard-response","264","919921","0.0-12.0-2.50","2d_cat_multi_stim_exp1","2022-5-3","16:23:33","25","75","3","9","10","40","30","120","84","21","[""White""]","No","Male","2398764","657","u","learn","","","learn_trial","22.1081","72.6057","in","1","1","","","","","","","","","","","","","","","","","","","","",""
"","","","","","canvas-keyboard-response","265","920432","0.0-12.0-3.50","2d_cat_multi_stim_exp1","2022-5-3","16:23:33","25","75","3","9","10","40","30","120","84","21","[""White""]","No","Male","2398764","null","null","learn_feedback","","","learn_feedback","22.1081","72.6057","in","","","","","","","","","","","","","","","","","","","","","","",""
"","","","","","canvas-keyboard-response","266","920495","0.0-12.0-4.50","2d_cat_multi_stim_exp1","2022-5-3","16:23:33","25","75","3","9","10","40","30","120","84","21","[""White""]","No","Male","2398764","null","null","","","","clear_screen","","","","","","","","","","","","","","","","","","","","","","","","","",""
"","","","","","canvas-keyboard-response","267","921003","0.0-12.0-0.51","2d_cat_multi_stim_exp1","2022-5-3","16:23:33","25","75","3","9","10","40","30","120","84","21","[""White""]","No","Male","2398764","null","null","","","","fixation","","","","","","","","","","","","","","","","","","","","","","","","","",""
"","","","","","canvas-keyboard-response","268","921512","0.0-12.0-1.51","2d_cat_multi_stim_exp1","2022-5-3","16:23:33","25","75","3","9","10","40","30","120","84","21","[""White""]","No","Male","2398764","null","null","","","","clear_screen","","","","","","","","","","","","","","","","","","","","","","","","","",""
"","","","","","canvas-keyboard-response","269","922250","0.0-12.0-2.51","2d_cat_multi_stim_exp1","2022-5-3","16:23:33","25","75","3","9","10","40","30","120","84","21","[""White""]","No","Male","2398764","727","u","learn","","","learn_trial","25","75","in","1","1","","","","","","","","","","","","","","","","","","","","",""
"","","","","","canvas-keyboard-response","270","922760","0.0-12.0-3.51","2d_cat_multi_stim_exp1","2022-5-3","16:23:33","25","75","3","9","10","40","30","120","84","21","[""White""]","No","Male","2398764","null","null","learn_feedback","","","learn_feedback","25","75","in","","","","","","","","","","","","","","","","","","","","","","",""
"","","","","","canvas-keyboard-response","271","922820","0.0-12.0-4.51","2d_cat_multi_stim_exp1","2022-5-3","16:23:33","25","75","3","9","10","40","30","120","84","21","[""White""]","No","Male","2398764","null","null","","","","clear_screen","","","","","","","","","","","","","","","","","","","","","","","","","",""
"","","","","","canvas-keyboard-response","272","923328","0.0-12.0-0.52","2d_cat_multi_stim_exp1","2022-5-3","16:23:33","25","75","3","9","10","40","30","120","84","21","[""White""]","No","Male","2398764","null","null","","","","fixation","","","","","","","","","","","","","","","","","","","","","","","","","",""
"","","","","","canvas-keyboard-response","273","923839","0.0-12.0-1.52","2d_cat_multi_stim_exp1","2022-5-3","16:23:33","25","75","3","9","10","40","30","120","84","21","[""White""]","No","Male","2398764","null","null","","","","clear_screen","","","","","","","","","","","","","","","","","","","","","","","","","",""
"","","","","","canvas-keyboard-response","274","924578","0.0-12.0-2.52","2d_cat_multi_stim_exp1","2022-5-3","16:23:33","25","75","3","9","10","40","30","120","84","21","[""White""]","No","Male","2398764","730","u","learn","","","learn_trial","36.6667","80","out","1","0","","","","","","","","","","","","","","","","","","","","",""
"","","","","","canvas-keyboard-response","275","925586","0.0-12.0-3.52","2d_cat_multi_stim_exp1","2022-5-3","16:23:33","25","75","3","9","10","40","30","120","84","21","[""White""]","No","Male","2398764","null","null","learn_feedback","","","learn_feedback","36.6667","80","out","","","","","","","","","","","","","","","","","","","","","","",""
"","","","","","canvas-keyboard-response","276","925644","0.0-12.0-4.52","2d_cat_multi_stim_exp1","2022-5-3","16:23:33","25","75","3","9","10","40","30","120","84","21","[""White""]","No","Male","2398764","null","null","","","","clear_screen","","","","","","","","","","","","","","","","","","","","","","","","","",""
"","","","","","canvas-keyboard-response","277","926157","0.0-12.0-0.53","2d_cat_multi_stim_exp1","2022-5-3","16:23:33","25","75","3","9","10","40","30","120","84","21","[""White""]","No","Male","2398764","null","null","","","","fixation","","","","","","","","","","","","","","","","","","","","","","","","","",""
"","","","","","canvas-keyboard-response","278","926671","0.0-12.0-1.53","2d_cat_multi_stim_exp1","2022-5-3","16:23:33","25","75","3","9","10","40","30","120","84","21","[""White""]","No","Male","2398764","null","null","","","","clear_screen","","","","","","","","","","","","","","","","","","","","","","","","","",""
"","","","","","canvas-keyboard-response","279","927481","0.0-12.0-2.53","2d_cat_multi_stim_exp1","2022-5-3","16:23:33","25","75","3","9","10","40","30","120","84","21","[""White""]","No","Male","2398764","800","i","learn","","","learn_trial","29.2426","62.2721","in","0","0","","","","","","","","","","","","","","","","","","","","",""
"","","","","","canvas-keyboard-response","280","928490","0.0-12.0-3.53","2d_cat_multi_stim_exp1","2022-5-3","16:23:33","25","75","3","9","10","40","30","120","84","21","[""White""]","No","Male","2398764","null","null","learn_feedback","","","learn_feedback","29.2426","62.2721","in","","","","","","","","","","","","","","","","","","","","","","",""
"","","","","","canvas-keyboard-response","281","928549","0.0-12.0-4.53","2d_cat_multi_stim_exp1","2022-5-3","16:23:33","25","75","3","9","10","40","30","120","84","21","[""White""]","No","Male","2398764","null","null","","","","clear_screen","","","","","","","","","","","","","","","","","","","","","","","","","",""
"","","","","","canvas-keyboard-response","282","929062","0.0-12.0-0.54","2d_cat_multi_stim_exp1","2022-5-3","16:23:33","25","75","3","9","10","40","30","120","84","21","[""White""]","No","Male","2398764","null","null","","","","fixation","","","","","","","","","","","","","","","","","","","","","","","","","",""
"","","","","","canvas-keyboard-response","283","929575","0.0-12.0-1.54","2d_cat_multi_stim_exp1","2022-5-3","16:23:33","25","75","3","9","10","40","30","120","84","21","[""White""]","No","Male","2398764","null","null","","","","clear_screen","","","","","","","","","","","","","","","","","","","","","","","","","",""
"","","","","","canvas-keyboard-response","284","930395","0.0-12.0-2.54","2d_cat_multi_stim_exp1","2022-5-3","16:23:33","25","75","3","9","10","40","30","120","84","21","[""White""]","No","Male","2398764","811","u","learn","","","learn_trial","26.4216","67.0746","in","1","1","","","","","","","","","","","","","","","","","","","","",""
"","","","","","canvas-keyboard-response","285","930903","0.0-12.0-3.54","2d_cat_multi_stim_exp1","2022-5-3","16:23:33","25","75","3","9","10","40","30","120","84","21","[""White""]","No","Male","2398764","null","null","learn_feedback","","","learn_feedback","26.4216","67.0746","in","","","","","","","","","","","","","","","","","","","","","","",""
"","","","","","canvas-keyboard-response","286","930965","0.0-12.0-4.54","2d_cat_multi_stim_exp1","2022-5-3","16:23:33","25","75","3","9","10","40","30","120","84","21","[""White""]","No","Male","2398764","null","null","","","","clear_screen","","","","","","","","","","","","","","","","","","","","","","","","","",""
"","","","","","canvas-keyboard-response","287","931478","0.0-12.0-0.55","2d_cat_multi_stim_exp1","2022-5-3","16:23:33","25","75","3","9","10","40","30","120","84","21","[""White""]","No","Male","2398764","null","null","","","","fixation","","","","","","","","","","","","","","","","","","","","","","","","","",""
"","","","","","canvas-keyboard-response","288","931991","0.0-12.0-1.55","2d_cat_multi_stim_exp1","2022-5-3","16:23:33","25","75","3","9","10","40","30","120","84","21","[""White""]","No","Male","2398764","null","null","","","","clear_screen","","","","","","","","","","","","","","","","","","","","","","","","","",""
"","","","","","canvas-keyboard-response","289","932658","0.0-12.0-2.55","2d_cat_multi_stim_exp1","2022-5-3","16:23:33","25","75","3","9","10","40","30","120","84","21","[""White""]","No","Male","2398764","661","i","learn","","","learn_trial","33.3333","30","out","0","1","","","","","","","","","","","","","","","","","","","","",""
"","","","","","canvas-keyboard-response","290","933168","0.0-12.0-3.55","2d_cat_multi_stim_exp1","2022-5-3","16:23:33","25","75","3","9","10","40","30","120","84","21","[""White""]","No","Male","2398764","null","null","learn_feedback","","","learn_feedback","33.3333","30","out","","","","","","","","","","","","","","","","","","","","","","",""
"","","","","","canvas-keyboard-response","291","933232","0.0-12.0-4.55","2d_cat_multi_stim_exp1","2022-5-3","16:23:33","25","75","3","9","10","40","30","120","84","21","[""White""]","No","Male","2398764","null","null","","","","clear_screen","","","","","","","","","","","","","","","","","","","","","","","","","",""
"","","","","","canvas-keyboard-response","292","933739","0.0-12.0-0.56","2d_cat_multi_stim_exp1","2022-5-3","16:23:33","25","75","3","9","10","40","30","120","84","21","[""White""]","No","Male","2398764","null","null","","","","fixation","","","","","","","","","","","","","","","","","","","","","","","","","",""
"","","","","","canvas-keyboard-response","293","934253","0.0-12.0-1.56","2d_cat_multi_stim_exp1","2022-5-3","16:23:33","25","75","3","9","10","40","30","120","84","21","[""White""]","No","Male","2398764","null","null","","","","clear_screen","","","","","","","","","","","","","","","","","","","","","","","","","",""
"","","","","","canvas-keyboard-response","294","934907","0.0-12.0-2.56","2d_cat_multi_stim_exp1","2022-5-3","16:23:33","25","75","3","9","10","40","30","120","84","21","[""White""]","No","Male","2398764","645","u","learn","","","learn_trial","23.3333","70","out","1","0","","","","","","","","","","","","","","","","","","","","",""
"","","","","","canvas-keyboard-response","295","935915","0.0-12.0-3.56","2d_cat_multi_stim_exp1","2022-5-3","16:23:33","25","75","3","9","10","40","30","120","84","21","[""White""]","No","Male","2398764","null","null","learn_feedback","","","learn_feedback","23.3333","70","out","","","","","","","","","","","","","","","","","","","","","","",""
"","","","","","canvas-keyboard-response","296","935977","0.0-12.0-4.56","2d_cat_multi_stim_exp1","2022-5-3","16:23:33","25","75","3","9","10","40","30","120","84","21","[""White""]","No","Male","2398764","null","null","","","","clear_screen","","","","","","","","","","","","","","","","","","","","","","","","","",""
"","","","","","canvas-keyboard-response","297","936482","0.0-12.0-0.57","2d_cat_multi_stim_exp1","2022-5-3","16:23:33","25","75","3","9","10","40","30","120","84","21","[""White""]","No","Male","2398764","null","null","","","","fixation","","","","","","","","","","","","","","","","","","","","","","","","","",""
"","","","","","canvas-keyboard-response","298","936995","0.0-12.0-1.57","2d_cat_multi_stim_exp1","2022-5-3","16:23:33","25","75","3","9","10","40","30","120","84","21","[""White""]","No","Male","2398764","null","null","","","","clear_screen","","","","","","","","","","","","","","","","","","","","","","","","","",""
"","","","","","canvas-keyboard-response","299","937651","0.0-12.0-2.57","2d_cat_multi_stim_exp1","2022-5-3","16:23:33","25","75","3","9","10","40","30","120","84","21","[""White""]","No","Male","2398764","645","u","learn","","","learn_trial","22.5729","80.2901","in","1","1","","","","","","","","","","","","","","","","","","","","",""
