"success","timeout","failed_images","failed_audio","failed_video","trial_type","trial_index","time_elapsed","internal_node_id","exp_name","date","time","angle_mean_in","radius_mean_in","angle_sd_in","radius_sd_in","angle_min_out","angle_max_out","radius_min_out","radius_max_out","sub_n","age","race","ethnicity","gender","exp_duration","rt","response","exp_trial_type","stimulus","view_history","screen_id","angle","radius","distribution","choice","correct","order","angle_a","radius_a","angle_b","radius_b","angle_c","radius_c","jkl_correct","transfer_trial_type","choice_set","abc_correct","tc_correct","tc_angle","tdc_a","tdc_b","tdc_c","pair","category_a","category_b","category_c","question_order"
"true","false","[]","[]","[]","preload","0","35","0.0-0.0","2d_cat_multi_stim_exp1","2022-4-29","14:1:25","25","75","3","9","10","40","30","120","70","19","[""White""]","No","Male","2153862","","","","","","","","","","","","","","","","","","","","","","","","","","","","","","","",""
"","","","","","survey-html-form","1","2249","0.0-1.0","2d_cat_multi_stim_exp1","2022-4-29","14:1:25","25","75","3","9","10","40","30","120","70","19","[""White""]","No","Male","2153862","2165","{""response"":""70""}","enter-sub-number","","","","","","","","","","","","","","","","","","","","","","","","","","","","",""
"true","","","","","fullscreen","2","5649","0.0-2.0","2d_cat_multi_stim_exp1","2022-4-29","14:1:25","25","75","3","9","10","40","30","120","70","19","[""White""]","No","Male","2153862","","","","","","","","","","","","","","","","","","","","","","","","","","","","","","","",""
"","","","","","image-button-response","3","51393","0.0-3.0","2d_cat_multi_stim_exp1","2022-4-29","14:1:25","25","75","3","9","10","40","30","120","70","19","[""White""]","No","Male","2153862","45738","0","","consent.png","","","","","","","","","","","","","","","","","","","","","","","","","","","",""
"","","","","","html-button-response","4","61591","0.0-4.0","2d_cat_multi_stim_exp1","2022-4-29","14:1:25","25","75","3","9","10","40","30","120","70","19","[""White""]","No","Male","2153862","10194","0","","<div style= ""font-size:25px;"" <p> <strong> Welcome to the experiment! </strong><br> <p style=""color:#8B0000; font-size:25px;""><strong> Please do NOT exit full screen until you are done with the experiment. </strong> </p><p style=""font-size:25px;color:#8B0000;""> <strong> The experiment will be canceled and your data will be lost <br> if you try to go back or refresh the page at any point during the experiment.</strong> </p><br><p> <strong> Thanks in advance for your contribution to our research! </strong></p>","","","","","","","","","","","","","","","","","","","","","","","","","","","",""
"","","","","","instructions","5","118807","0.0-5.0","2d_cat_multi_stim_exp1","2022-4-29","14:1:25","25","75","3","9","10","40","30","120","70","19","[""White""]","No","Male","2153862","57211","","","","[{""page_index"":0,""viewing_time"":9946},{""page_index"":1,""viewing_time"":4881},{""page_index"":2,""viewing_time"":18287},{""page_index"":3,""viewing_time"":24096}]","instructions_1","","","","","","","","","","","","","","","","","","","","","","","","","",""
"","","","","","instructions","6","123223","0.0-6.0","2d_cat_multi_stim_exp1","2022-4-29","14:1:25","25","75","3","9","10","40","30","120","70","19","[""White""]","No","Male","2153862","4411","","","","[{""page_index"":0,""viewing_time"":4411}]","Click to see the kinds of turtles that will appear in the study.","","","","","","","","","","","","","","","","","","","","","","","","","",""
"","","","","","canvas-keyboard-response","7","138246","0.0-7.0","2d_cat_multi_stim_exp1","2022-4-29","14:1:25","25","75","3","9","10","40","30","120","70","19","[""White""]","No","Male","2153862","null","null","","","","demo_range","","","","","","","","","","","","","","","","","","","","","","","","","",""
"","","","","","instructions","8","142119","0.0-8.0","2d_cat_multi_stim_exp1","2022-4-29","14:1:25","25","75","3","9","10","40","30","120","70","19","[""White""]","No","Male","2153862","3372","","","","[{""page_index"":0,""viewing_time"":3371}]","Click to see some turtles in the subspecies.","","","","","","","","","","","","","","","","","","","","","","","","","",""
"","","","","","canvas-keyboard-response","9","157138","0.0-9.0","2d_cat_multi_stim_exp1","2022-4-29","14:1:25","25","75","3","9","10","40","30","120","70","19","[""White""]","No","Male","2153862","null","null","","","","demo_in","","","","","","","","","","","","","","","","","","","","","","","","","",""
"","","","","","instructions","10","208886","0.0-10.0","2d_cat_multi_stim_exp1","2022-4-29","14:1:25","25","75","3","9","10","40","30","120","70","19","[""White""]","No","Male","2153862","51246","","","","[{""page_index"":0,""viewing_time"":11175},{""page_index"":1,""viewing_time"":30984},{""page_index"":2,""viewing_time"":9087}]","instructions_2","","","","","","","","","","","","","","","","","","","","","","","","","",""
"","","","","","instructions","11","210167","0.0-11.0","2d_cat_multi_stim_exp1","2022-4-29","14:1:25","25","75","3","9","10","40","30","120","70","19","[""White""]","No","Male","2153862","1278","","","","[{""page_index"":0,""viewing_time"":1278}]","Click to begin the first phase of the experiment.","","","","","","","","","","","","","","","","","","","","","","","","","",""
"","","","","","canvas-keyboard-response","12","210677","0.0-12.0-0.0","2d_cat_multi_stim_exp1","2022-4-29","14:1:25","25","75","3","9","10","40","30","120","70","19","[""White""]","No","Male","2153862","null","null","","","","fixation","","","","","","","","","","","","","","","","","","","","","","","","","",""
"","","","","","canvas-keyboard-response","13","211185","0.0-12.0-1.0","2d_cat_multi_stim_exp1","2022-4-29","14:1:25","25","75","3","9","10","40","30","120","70","19","[""White""]","No","Male","2153862","null","null","","","","clear_screen","","","","","","","","","","","","","","","","","","","","","","","","","",""
"","","","","","canvas-keyboard-response","14","213911","0.0-12.0-2.0","2d_cat_multi_stim_exp1","2022-4-29","14:1:25","25","75","3","9","10","40","30","120","70","19","[""White""]","No","Male","2153862","2715","i","learn","","","learn_trial","13.3333","40","out","0","1","","","","","","","","","","","","","","","","","","","","",""
"","","","","","canvas-keyboard-response","15","214423","0.0-12.0-3.0","2d_cat_multi_stim_exp1","2022-4-29","14:1:25","25","75","3","9","10","40","30","120","70","19","[""White""]","No","Male","2153862","null","null","learn_feedback","","","learn_feedback","13.3333","40","out","","","","","","","","","","","","","","","","","","","","","","",""
"","","","","","canvas-keyboard-response","16","214484","0.0-12.0-4.0","2d_cat_multi_stim_exp1","2022-4-29","14:1:25","25","75","3","9","10","40","30","120","70","19","[""White""]","No","Male","2153862","null","null","","","","clear_screen","","","","","","","","","","","","","","","","","","","","","","","","","",""
"","","","","","canvas-keyboard-response","17","214993","0.0-12.0-0.1","2d_cat_multi_stim_exp1","2022-4-29","14:1:25","25","75","3","9","10","40","30","120","70","19","[""White""]","No","Male","2153862","null","null","","","","fixation","","","","","","","","","","","","","","","","","","","","","","","","","",""
"","","","","","canvas-keyboard-response","18","215503","0.0-12.0-1.1","2d_cat_multi_stim_exp1","2022-4-29","14:1:25","25","75","3","9","10","40","30","120","70","19","[""White""]","No","Male","2153862","null","null","","","","clear_screen","","","","","","","","","","","","","","","","","","","","","","","","","",""
"","","","","","canvas-keyboard-response","19","219439","0.0-12.0-2.1","2d_cat_multi_stim_exp1","2022-4-29","14:1:25","25","75","3","9","10","40","30","120","70","19","[""White""]","No","Male","2153862","3926","u","learn","","","learn_trial","16.6667","110","out","1","0","","","","","","","","","","","","","","","","","","","","",""
"","","","","","canvas-keyboard-response","20","220449","0.0-12.0-3.1","2d_cat_multi_stim_exp1","2022-4-29","14:1:25","25","75","3","9","10","40","30","120","70","19","[""White""]","No","Male","2153862","null","null","learn_feedback","","","learn_feedback","16.6667","110","out","","","","","","","","","","","","","","","","","","","","","","",""
"","","","","","canvas-keyboard-response","21","220508","0.0-12.0-4.1","2d_cat_multi_stim_exp1","2022-4-29","14:1:25","25","75","3","9","10","40","30","120","70","19","[""White""]","No","Male","2153862","null","null","","","","clear_screen","","","","","","","","","","","","","","","","","","","","","","","","","",""
"","","","","","canvas-keyboard-response","22","221016","0.0-12.0-0.2","2d_cat_multi_stim_exp1","2022-4-29","14:1:25","25","75","3","9","10","40","30","120","70","19","[""White""]","No","Male","2153862","null","null","","","","fixation","","","","","","","","","","","","","","","","","","","","","","","","","",""
"","","","","","canvas-keyboard-response","23","221525","0.0-12.0-1.2","2d_cat_multi_stim_exp1","2022-4-29","14:1:25","25","75","3","9","10","40","30","120","70","19","[""White""]","No","Male","2153862","null","null","","","","clear_screen","","","","","","","","","","","","","","","","","","","","","","","","","",""
"","","","","","canvas-keyboard-response","24","224335","0.0-12.0-2.2","2d_cat_multi_stim_exp1","2022-4-29","14:1:25","25","75","3","9","10","40","30","120","70","19","[""White""]","No","Male","2153862","2800","u","learn","","","learn_trial","31","75","in","1","1","","","","","","","","","","","","","","","","","","","","",""
"","","","","","canvas-keyboard-response","25","224846","0.0-12.0-3.2","2d_cat_multi_stim_exp1","2022-4-29","14:1:25","25","75","3","9","10","40","30","120","70","19","[""White""]","No","Male","2153862","null","null","learn_feedback","","","learn_feedback","31","75","in","","","","","","","","","","","","","","","","","","","","","","",""
"","","","","","canvas-keyboard-response","26","224904","0.0-12.0-4.2","2d_cat_multi_stim_exp1","2022-4-29","14:1:25","25","75","3","9","10","40","30","120","70","19","[""White""]","No","Male","2153862","null","null","","","","clear_screen","","","","","","","","","","","","","","","","","","","","","","","","","",""
"","","","","","canvas-keyboard-response","27","225413","0.0-12.0-0.3","2d_cat_multi_stim_exp1","2022-4-29","14:1:25","25","75","3","9","10","40","30","120","70","19","[""White""]","No","Male","2153862","null","null","","","","fixation","","","","","","","","","","","","","","","","","","","","","","","","","",""
"","","","","","canvas-keyboard-response","28","225921","0.0-12.0-1.3","2d_cat_multi_stim_exp1","2022-4-29","14:1:25","25","75","3","9","10","40","30","120","70","19","[""White""]","No","Male","2153862","null","null","","","","clear_screen","","","","","","","","","","","","","","","","","","","","","","","","","",""
"","","","","","canvas-keyboard-response","29","227311","0.0-12.0-2.3","2d_cat_multi_stim_exp1","2022-4-29","14:1:25","25","75","3","9","10","40","30","120","70","19","[""White""]","No","Male","2153862","1381","i","learn","","","learn_trial","13.3333","70","out","0","1","","","","","","","","","","","","","","","","","","","","",""
"","","","","","canvas-keyboard-response","30","227821","0.0-12.0-3.3","2d_cat_multi_stim_exp1","2022-4-29","14:1:25","25","75","3","9","10","40","30","120","70","19","[""White""]","No","Male","2153862","null","null","learn_feedback","","","learn_feedback","13.3333","70","out","","","","","","","","","","","","","","","","","","","","","","",""
"","","","","","canvas-keyboard-response","31","227881","0.0-12.0-4.3","2d_cat_multi_stim_exp1","2022-4-29","14:1:25","25","75","3","9","10","40","30","120","70","19","[""White""]","No","Male","2153862","null","null","","","","clear_screen","","","","","","","","","","","","","","","","","","","","","","","","","",""
"","","","","","canvas-keyboard-response","32","228389","0.0-12.0-0.4","2d_cat_multi_stim_exp1","2022-4-29","14:1:25","25","75","3","9","10","40","30","120","70","19","[""White""]","No","Male","2153862","null","null","","","","fixation","","","","","","","","","","","","","","","","","","","","","","","","","",""
"","","","","","canvas-keyboard-response","33","228898","0.0-12.0-1.4","2d_cat_multi_stim_exp1","2022-4-29","14:1:25","25","75","3","9","10","40","30","120","70","19","[""White""]","No","Male","2153862","null","null","","","","clear_screen","","","","","","","","","","","","","","","","","","","","","","","","","",""
"","","","","","canvas-keyboard-response","34","232672","0.0-12.0-2.4","2d_cat_multi_stim_exp1","2022-4-29","14:1:25","25","75","3","9","10","40","30","120","70","19","[""White""]","No","Male","2153862","3765","i","learn","","","learn_trial","33.3333","50","out","0","1","","","","","","","","","","","","","","","","","","","","",""
"","","","","","canvas-keyboard-response","35","233181","0.0-12.0-3.4","2d_cat_multi_stim_exp1","2022-4-29","14:1:25","25","75","3","9","10","40","30","120","70","19","[""White""]","No","Male","2153862","null","null","learn_feedback","","","learn_feedback","33.3333","50","out","","","","","","","","","","","","","","","","","","","","","","",""
"","","","","","canvas-keyboard-response","36","233239","0.0-12.0-4.4","2d_cat_multi_stim_exp1","2022-4-29","14:1:25","25","75","3","9","10","40","30","120","70","19","[""White""]","No","Male","2153862","null","null","","","","clear_screen","","","","","","","","","","","","","","","","","","","","","","","","","",""
"","","","","","canvas-keyboard-response","37","233747","0.0-12.0-0.5","2d_cat_multi_stim_exp1","2022-4-29","14:1:25","25","75","3","9","10","40","30","120","70","19","[""White""]","No","Male","2153862","null","null","","","","fixation","","","","","","","","","","","","","","","","","","","","","","","","","",""
"","","","","","canvas-keyboard-response","38","234256","0.0-12.0-1.5","2d_cat_multi_stim_exp1","2022-4-29","14:1:25","25","75","3","9","10","40","30","120","70","19","[""White""]","No","Male","2153862","null","null","","","","clear_screen","","","","","","","","","","","","","","","","","","","","","","","","","",""
"","","","","","canvas-keyboard-response","39","237462","0.0-12.0-2.5","2d_cat_multi_stim_exp1","2022-4-29","14:1:25","25","75","3","9","10","40","30","120","70","19","[""White""]","No","Male","2153862","3200","u","learn","","","learn_trial","25","75","in","1","1","","","","","","","","","","","","","","","","","","","","",""
"","","","","","canvas-keyboard-response","40","237972","0.0-12.0-3.5","2d_cat_multi_stim_exp1","2022-4-29","14:1:25","25","75","3","9","10","40","30","120","70","19","[""White""]","No","Male","2153862","null","null","learn_feedback","","","learn_feedback","25","75","in","","","","","","","","","","","","","","","","","","","","","","",""
"","","","","","canvas-keyboard-response","41","238030","0.0-12.0-4.5","2d_cat_multi_stim_exp1","2022-4-29","14:1:25","25","75","3","9","10","40","30","120","70","19","[""White""]","No","Male","2153862","null","null","","","","clear_screen","","","","","","","","","","","","","","","","","","","","","","","","","",""
"","","","","","canvas-keyboard-response","42","238537","0.0-12.0-0.6","2d_cat_multi_stim_exp1","2022-4-29","14:1:25","25","75","3","9","10","40","30","120","70","19","[""White""]","No","Male","2153862","null","null","","","","fixation","","","","","","","","","","","","","","","","","","","","","","","","","",""
"","","","","","canvas-keyboard-response","43","239046","0.0-12.0-1.6","2d_cat_multi_stim_exp1","2022-4-29","14:1:25","25","75","3","9","10","40","30","120","70","19","[""White""]","No","Male","2153862","null","null","","","","clear_screen","","","","","","","","","","","","","","","","","","","","","","","","","",""
"","","","","","canvas-keyboard-response","44","241495","0.0-12.0-2.6","2d_cat_multi_stim_exp1","2022-4-29","14:1:25","25","75","3","9","10","40","30","120","70","19","[""White""]","No","Male","2153862","2441","u","learn","","","learn_trial","25","75","in","1","1","","","","","","","","","","","","","","","","","","","","",""
"","","","","","canvas-keyboard-response","45","242004","0.0-12.0-3.6","2d_cat_multi_stim_exp1","2022-4-29","14:1:25","25","75","3","9","10","40","30","120","70","19","[""White""]","No","Male","2153862","null","null","learn_feedback","","","learn_feedback","25","75","in","","","","","","","","","","","","","","","","","","","","","","",""
"","","","","","canvas-keyboard-response","46","242062","0.0-12.0-4.6","2d_cat_multi_stim_exp1","2022-4-29","14:1:25","25","75","3","9","10","40","30","120","70","19","[""White""]","No","Male","2153862","null","null","","","","clear_screen","","","","","","","","","","","","","","","","","","","","","","","","","",""
"","","","","","canvas-keyboard-response","47","242571","0.0-12.0-0.7","2d_cat_multi_stim_exp1","2022-4-29","14:1:25","25","75","3","9","10","40","30","120","70","19","[""White""]","No","Male","2153862","null","null","","","","fixation","","","","","","","","","","","","","","","","","","","","","","","","","",""
"","","","","","canvas-keyboard-response","48","243079","0.0-12.0-1.7","2d_cat_multi_stim_exp1","2022-4-29","14:1:25","25","75","3","9","10","40","30","120","70","19","[""White""]","No","Male","2153862","null","null","","","","clear_screen","","","","","","","","","","","","","","","","","","","","","","","","","",""
"","","","","","canvas-keyboard-response","49","245671","0.0-12.0-2.7","2d_cat_multi_stim_exp1","2022-4-29","14:1:25","25","75","3","9","10","40","30","120","70","19","[""White""]","No","Male","2153862","2581","u","learn","","","learn_trial","27.5753","70.3839","in","1","1","","","","","","","","","","","","","","","","","","","","",""
"","","","","","canvas-keyboard-response","50","246180","0.0-12.0-3.7","2d_cat_multi_stim_exp1","2022-4-29","14:1:25","25","75","3","9","10","40","30","120","70","19","[""White""]","No","Male","2153862","null","null","learn_feedback","","","learn_feedback","27.5753","70.3839","in","","","","","","","","","","","","","","","","","","","","","","",""
"","","","","","canvas-keyboard-response","51","246238","0.0-12.0-4.7","2d_cat_multi_stim_exp1","2022-4-29","14:1:25","25","75","3","9","10","40","30","120","70","19","[""White""]","No","Male","2153862","null","null","","","","clear_screen","","","","","","","","","","","","","","","","","","","","","","","","","",""
"","","","","","canvas-keyboard-response","52","246746","0.0-12.0-0.8","2d_cat_multi_stim_exp1","2022-4-29","14:1:25","25","75","3","9","10","40","30","120","70","19","[""White""]","No","Male","2153862","null","null","","","","fixation","","","","","","","","","","","","","","","","","","","","","","","","","",""
"","","","","","canvas-keyboard-response","53","247255","0.0-12.0-1.8","2d_cat_multi_stim_exp1","2022-4-29","14:1:25","25","75","3","9","10","40","30","120","70","19","[""White""]","No","Male","2153862","null","null","","","","clear_screen","","","","","","","","","","","","","","","","","","","","","","","","","",""
"","","","","","canvas-keyboard-response","54","249014","0.0-12.0-2.8","2d_cat_multi_stim_exp1","2022-4-29","14:1:25","25","75","3","9","10","40","30","120","70","19","[""White""]","No","Male","2153862","1751","i","learn","","","learn_trial","36.6667","80","out","0","1","","","","","","","","","","","","","","","","","","","","",""
"","","","","","canvas-keyboard-response","55","249523","0.0-12.0-3.8","2d_cat_multi_stim_exp1","2022-4-29","14:1:25","25","75","3","9","10","40","30","120","70","19","[""White""]","No","Male","2153862","null","null","learn_feedback","","","learn_feedback","36.6667","80","out","","","","","","","","","","","","","","","","","","","","","","",""
"","","","","","canvas-keyboard-response","56","249581","0.0-12.0-4.8","2d_cat_multi_stim_exp1","2022-4-29","14:1:25","25","75","3","9","10","40","30","120","70","19","[""White""]","No","Male","2153862","null","null","","","","clear_screen","","","","","","","","","","","","","","","","","","","","","","","","","",""
"","","","","","canvas-keyboard-response","57","250089","0.0-12.0-0.9","2d_cat_multi_stim_exp1","2022-4-29","14:1:25","25","75","3","9","10","40","30","120","70","19","[""White""]","No","Male","2153862","null","null","","","","fixation","","","","","","","","","","","","","","","","","","","","","","","","","",""
"","","","","","canvas-keyboard-response","58","250598","0.0-12.0-1.9","2d_cat_multi_stim_exp1","2022-4-29","14:1:25","25","75","3","9","10","40","30","120","70","19","[""White""]","No","Male","2153862","null","null","","","","clear_screen","","","","","","","","","","","","","","","","","","","","","","","","","",""
"","","","","","canvas-keyboard-response","59","253166","0.0-12.0-2.9","2d_cat_multi_stim_exp1","2022-4-29","14:1:25","25","75","3","9","10","40","30","120","70","19","[""White""]","No","Male","2153862","2560","u","learn","","","learn_trial","19","75","in","1","1","","","","","","","","","","","","","","","","","","","","",""
"","","","","","canvas-keyboard-response","60","253675","0.0-12.0-3.9","2d_cat_multi_stim_exp1","2022-4-29","14:1:25","25","75","3","9","10","40","30","120","70","19","[""White""]","No","Male","2153862","null","null","learn_feedback","","","learn_feedback","19","75","in","","","","","","","","","","","","","","","","","","","","","","",""
"","","","","","canvas-keyboard-response","61","253733","0.0-12.0-4.9","2d_cat_multi_stim_exp1","2022-4-29","14:1:25","25","75","3","9","10","40","30","120","70","19","[""White""]","No","Male","2153862","null","null","","","","clear_screen","","","","","","","","","","","","","","","","","","","","","","","","","",""
"","","","","","canvas-keyboard-response","62","254242","0.0-12.0-0.10","2d_cat_multi_stim_exp1","2022-4-29","14:1:25","25","75","3","9","10","40","30","120","70","19","[""White""]","No","Male","2153862","null","null","","","","fixation","","","","","","","","","","","","","","","","","","","","","","","","","",""
"","","","","","canvas-keyboard-response","63","254754","0.0-12.0-1.10","2d_cat_multi_stim_exp1","2022-4-29","14:1:25","25","75","3","9","10","40","30","120","70","19","[""White""]","No","Male","2153862","null","null","","","","clear_screen","","","","","","","","","","","","","","","","","","","","","","","","","",""
"","","","","","canvas-keyboard-response","64","256047","0.0-12.0-2.10","2d_cat_multi_stim_exp1","2022-4-29","14:1:25","25","75","3","9","10","40","30","120","70","19","[""White""]","No","Male","2153862","1282","u","learn","","","learn_trial","25.4027","66.0815","in","1","1","","","","","","","","","","","","","","","","","","","","",""
"","","","","","canvas-keyboard-response","65","256556","0.0-12.0-3.10","2d_cat_multi_stim_exp1","2022-4-29","14:1:25","25","75","3","9","10","40","30","120","70","19","[""White""]","No","Male","2153862","null","null","learn_feedback","","","learn_feedback","25.4027","66.0815","in","","","","","","","","","","","","","","","","","","","","","","",""
"","","","","","canvas-keyboard-response","66","256616","0.0-12.0-4.10","2d_cat_multi_stim_exp1","2022-4-29","14:1:25","25","75","3","9","10","40","30","120","70","19","[""White""]","No","Male","2153862","null","null","","","","clear_screen","","","","","","","","","","","","","","","","","","","","","","","","","",""
"","","","","","canvas-keyboard-response","67","257123","0.0-12.0-0.11","2d_cat_multi_stim_exp1","2022-4-29","14:1:25","25","75","3","9","10","40","30","120","70","19","[""White""]","No","Male","2153862","null","null","","","","fixation","","","","","","","","","","","","","","","","","","","","","","","","","",""
"","","","","","canvas-keyboard-response","68","257633","0.0-12.0-1.11","2d_cat_multi_stim_exp1","2022-4-29","14:1:25","25","75","3","9","10","40","30","120","70","19","[""White""]","No","Male","2153862","null","null","","","","clear_screen","","","","","","","","","","","","","","","","","","","","","","","","","",""
"","","","","","canvas-keyboard-response","69","259863","0.0-12.0-2.11","2d_cat_multi_stim_exp1","2022-4-29","14:1:25","25","75","3","9","10","40","30","120","70","19","[""White""]","No","Male","2153862","2220","i","learn","","","learn_trial","26.6667","90","out","0","1","","","","","","","","","","","","","","","","","","","","",""
"","","","","","canvas-keyboard-response","70","260372","0.0-12.0-3.11","2d_cat_multi_stim_exp1","2022-4-29","14:1:25","25","75","3","9","10","40","30","120","70","19","[""White""]","No","Male","2153862","null","null","learn_feedback","","","learn_feedback","26.6667","90","out","","","","","","","","","","","","","","","","","","","","","","",""
"","","","","","canvas-keyboard-response","71","260429","0.0-12.0-4.11","2d_cat_multi_stim_exp1","2022-4-29","14:1:25","25","75","3","9","10","40","30","120","70","19","[""White""]","No","Male","2153862","null","null","","","","clear_screen","","","","","","","","","","","","","","","","","","","","","","","","","",""
"","","","","","canvas-keyboard-response","72","260939","0.0-12.0-0.12","2d_cat_multi_stim_exp1","2022-4-29","14:1:25","25","75","3","9","10","40","30","120","70","19","[""White""]","No","Male","2153862","null","null","","","","fixation","","","","","","","","","","","","","","","","","","","","","","","","","",""
"","","","","","canvas-keyboard-response","73","261448","0.0-12.0-1.12","2d_cat_multi_stim_exp1","2022-4-29","14:1:25","25","75","3","9","10","40","30","120","70","19","[""White""]","No","Male","2153862","null","null","","","","clear_screen","","","","","","","","","","","","","","","","","","","","","","","","","",""
"","","","","","canvas-keyboard-response","74","263335","0.0-12.0-2.12","2d_cat_multi_stim_exp1","2022-4-29","14:1:25","25","75","3","9","10","40","30","120","70","19","[""White""]","No","Male","2153862","1878","u","learn","","","learn_trial","33.3333","90","out","1","0","","","","","","","","","","","","","","","","","","","","",""
"","","","","","canvas-keyboard-response","75","264344","0.0-12.0-3.12","2d_cat_multi_stim_exp1","2022-4-29","14:1:25","25","75","3","9","10","40","30","120","70","19","[""White""]","No","Male","2153862","null","null","learn_feedback","","","learn_feedback","33.3333","90","out","","","","","","","","","","","","","","","","","","","","","","",""
"","","","","","canvas-keyboard-response","76","264402","0.0-12.0-4.12","2d_cat_multi_stim_exp1","2022-4-29","14:1:25","25","75","3","9","10","40","30","120","70","19","[""White""]","No","Male","2153862","null","null","","","","clear_screen","","","","","","","","","","","","","","","","","","","","","","","","","",""
"","","","","","canvas-keyboard-response","77","264910","0.0-12.0-0.13","2d_cat_multi_stim_exp1","2022-4-29","14:1:25","25","75","3","9","10","40","30","120","70","19","[""White""]","No","Male","2153862","null","null","","","","fixation","","","","","","","","","","","","","","","","","","","","","","","","","",""
"","","","","","canvas-keyboard-response","78","265419","0.0-12.0-1.13","2d_cat_multi_stim_exp1","2022-4-29","14:1:25","25","75","3","9","10","40","30","120","70","19","[""White""]","No","Male","2153862","null","null","","","","clear_screen","","","","","","","","","","","","","","","","","","","","","","","","","",""
"","","","","","canvas-keyboard-response","79","266791","0.0-12.0-2.13","2d_cat_multi_stim_exp1","2022-4-29","14:1:25","25","75","3","9","10","40","30","120","70","19","[""White""]","No","Male","2153862","1359","u","learn","","","learn_trial","25","75","in","1","1","","","","","","","","","","","","","","","","","","","","",""
"","","","","","canvas-keyboard-response","80","267300","0.0-12.0-3.13","2d_cat_multi_stim_exp1","2022-4-29","14:1:25","25","75","3","9","10","40","30","120","70","19","[""White""]","No","Male","2153862","null","null","learn_feedback","","","learn_feedback","25","75","in","","","","","","","","","","","","","","","","","","","","","","",""
"","","","","","canvas-keyboard-response","81","267358","0.0-12.0-4.13","2d_cat_multi_stim_exp1","2022-4-29","14:1:25","25","75","3","9","10","40","30","120","70","19","[""White""]","No","Male","2153862","null","null","","","","clear_screen","","","","","","","","","","","","","","","","","","","","","","","","","",""
"","","","","","canvas-keyboard-response","82","267867","0.0-12.0-0.14","2d_cat_multi_stim_exp1","2022-4-29","14:1:25","25","75","3","9","10","40","30","120","70","19","[""White""]","No","Male","2153862","null","null","","","","fixation","","","","","","","","","","","","","","","","","","","","","","","","","",""
"","","","","","canvas-keyboard-response","83","268375","0.0-12.0-1.14","2d_cat_multi_stim_exp1","2022-4-29","14:1:25","25","75","3","9","10","40","30","120","70","19","[""White""]","No","Male","2153862","null","null","","","","clear_screen","","","","","","","","","","","","","","","","","","","","","","","","","",""
"","","","","","canvas-keyboard-response","84","271128","0.0-12.0-2.14","2d_cat_multi_stim_exp1","2022-4-29","14:1:25","25","75","3","9","10","40","30","120","70","19","[""White""]","No","Male","2153862","2744","u","learn","","","learn_trial","25","75","in","1","1","","","","","","","","","","","","","","","","","","","","",""
"","","","","","canvas-keyboard-response","85","271636","0.0-12.0-3.14","2d_cat_multi_stim_exp1","2022-4-29","14:1:25","25","75","3","9","10","40","30","120","70","19","[""White""]","No","Male","2153862","null","null","learn_feedback","","","learn_feedback","25","75","in","","","","","","","","","","","","","","","","","","","","","","",""
"","","","","","canvas-keyboard-response","86","271695","0.0-12.0-4.14","2d_cat_multi_stim_exp1","2022-4-29","14:1:25","25","75","3","9","10","40","30","120","70","19","[""White""]","No","Male","2153862","null","null","","","","clear_screen","","","","","","","","","","","","","","","","","","","","","","","","","",""
"","","","","","canvas-keyboard-response","87","272203","0.0-12.0-0.15","2d_cat_multi_stim_exp1","2022-4-29","14:1:25","25","75","3","9","10","40","30","120","70","19","[""White""]","No","Male","2153862","null","null","","","","fixation","","","","","","","","","","","","","","","","","","","","","","","","","",""
"","","","","","canvas-keyboard-response","88","272711","0.0-12.0-1.15","2d_cat_multi_stim_exp1","2022-4-29","14:1:25","25","75","3","9","10","40","30","120","70","19","[""White""]","No","Male","2153862","null","null","","","","clear_screen","","","","","","","","","","","","","","","","","","","","","","","","","",""
"","","","","","canvas-keyboard-response","89","274344","0.0-12.0-2.15","2d_cat_multi_stim_exp1","2022-4-29","14:1:25","25","75","3","9","10","40","30","120","70","19","[""White""]","No","Male","2153862","1622","i","learn","","","learn_trial","36.6667","90","out","0","1","","","","","","","","","","","","","","","","","","","","",""
"","","","","","canvas-keyboard-response","90","274856","0.0-12.0-3.15","2d_cat_multi_stim_exp1","2022-4-29","14:1:25","25","75","3","9","10","40","30","120","70","19","[""White""]","No","Male","2153862","null","null","learn_feedback","","","learn_feedback","36.6667","90","out","","","","","","","","","","","","","","","","","","","","","","",""
"","","","","","canvas-keyboard-response","91","274916","0.0-12.0-4.15","2d_cat_multi_stim_exp1","2022-4-29","14:1:25","25","75","3","9","10","40","30","120","70","19","[""White""]","No","Male","2153862","null","null","","","","clear_screen","","","","","","","","","","","","","","","","","","","","","","","","","",""
"","","","","","canvas-keyboard-response","92","275426","0.0-12.0-0.16","2d_cat_multi_stim_exp1","2022-4-29","14:1:25","25","75","3","9","10","40","30","120","70","19","[""White""]","No","Male","2153862","null","null","","","","fixation","","","","","","","","","","","","","","","","","","","","","","","","","",""
"","","","","","canvas-keyboard-response","93","275936","0.0-12.0-1.16","2d_cat_multi_stim_exp1","2022-4-29","14:1:25","25","75","3","9","10","40","30","120","70","19","[""White""]","No","Male","2153862","null","null","","","","clear_screen","","","","","","","","","","","","","","","","","","","","","","","","","",""
"","","","","","canvas-keyboard-response","94","278695","0.0-12.0-2.16","2d_cat_multi_stim_exp1","2022-4-29","14:1:25","25","75","3","9","10","40","30","120","70","19","[""White""]","No","Male","2153862","2749","u","learn","","","learn_trial","25","75","in","1","1","","","","","","","","","","","","","","","","","","","","",""
"","","","","","canvas-keyboard-response","95","279207","0.0-12.0-3.16","2d_cat_multi_stim_exp1","2022-4-29","14:1:25","25","75","3","9","10","40","30","120","70","19","[""White""]","No","Male","2153862","null","null","learn_feedback","","","learn_feedback","25","75","in","","","","","","","","","","","","","","","","","","","","","","",""
"","","","","","canvas-keyboard-response","96","279268","0.0-12.0-4.16","2d_cat_multi_stim_exp1","2022-4-29","14:1:25","25","75","3","9","10","40","30","120","70","19","[""White""]","No","Male","2153862","null","null","","","","clear_screen","","","","","","","","","","","","","","","","","","","","","","","","","",""
"","","","","","canvas-keyboard-response","97","279777","0.0-12.0-0.17","2d_cat_multi_stim_exp1","2022-4-29","14:1:25","25","75","3","9","10","40","30","120","70","19","[""White""]","No","Male","2153862","null","null","","","","fixation","","","","","","","","","","","","","","","","","","","","","","","","","",""
"","","","","","canvas-keyboard-response","98","280287","0.0-12.0-1.17","2d_cat_multi_stim_exp1","2022-4-29","14:1:25","25","75","3","9","10","40","30","120","70","19","[""White""]","No","Male","2153862","null","null","","","","clear_screen","","","","","","","","","","","","","","","","","","","","","","","","","",""
"","","","","","canvas-keyboard-response","99","281303","0.0-12.0-2.17","2d_cat_multi_stim_exp1","2022-4-29","14:1:25","25","75","3","9","10","40","30","120","70","19","[""White""]","No","Male","2153862","1006","i","learn","","","learn_trial","13.3333","110","out","0","1","","","","","","","","","","","","","","","","","","","","",""
"","","","","","canvas-keyboard-response","100","281814","0.0-12.0-3.17","2d_cat_multi_stim_exp1","2022-4-29","14:1:25","25","75","3","9","10","40","30","120","70","19","[""White""]","No","Male","2153862","null","null","learn_feedback","","","learn_feedback","13.3333","110","out","","","","","","","","","","","","","","","","","","","","","","",""
"","","","","","canvas-keyboard-response","101","281872","0.0-12.0-4.17","2d_cat_multi_stim_exp1","2022-4-29","14:1:25","25","75","3","9","10","40","30","120","70","19","[""White""]","No","Male","2153862","null","null","","","","clear_screen","","","","","","","","","","","","","","","","","","","","","","","","","",""
"","","","","","canvas-keyboard-response","102","282381","0.0-12.0-0.18","2d_cat_multi_stim_exp1","2022-4-29","14:1:25","25","75","3","9","10","40","30","120","70","19","[""White""]","No","Male","2153862","null","null","","","","fixation","","","","","","","","","","","","","","","","","","","","","","","","","",""
"","","","","","canvas-keyboard-response","103","282890","0.0-12.0-1.18","2d_cat_multi_stim_exp1","2022-4-29","14:1:25","25","75","3","9","10","40","30","120","70","19","[""White""]","No","Male","2153862","null","null","","","","clear_screen","","","","","","","","","","","","","","","","","","","","","","","","","",""
"","","","","","canvas-keyboard-response","104","284928","0.0-12.0-2.18","2d_cat_multi_stim_exp1","2022-4-29","14:1:25","25","75","3","9","10","40","30","120","70","19","[""White""]","No","Male","2153862","2030","i","learn","","","learn_trial","20","90","out","0","1","","","","","","","","","","","","","","","","","","","","",""
"","","","","","canvas-keyboard-response","105","285436","0.0-12.0-3.18","2d_cat_multi_stim_exp1","2022-4-29","14:1:25","25","75","3","9","10","40","30","120","70","19","[""White""]","No","Male","2153862","null","null","learn_feedback","","","learn_feedback","20","90","out","","","","","","","","","","","","","","","","","","","","","","",""
"","","","","","canvas-keyboard-response","106","285495","0.0-12.0-4.18","2d_cat_multi_stim_exp1","2022-4-29","14:1:25","25","75","3","9","10","40","30","120","70","19","[""White""]","No","Male","2153862","null","null","","","","clear_screen","","","","","","","","","","","","","","","","","","","","","","","","","",""
"","","","","","canvas-keyboard-response","107","286003","0.0-12.0-0.19","2d_cat_multi_stim_exp1","2022-4-29","14:1:25","25","75","3","9","10","40","30","120","70","19","[""White""]","No","Male","2153862","null","null","","","","fixation","","","","","","","","","","","","","","","","","","","","","","","","","",""
"","","","","","canvas-keyboard-response","108","286512","0.0-12.0-1.19","2d_cat_multi_stim_exp1","2022-4-29","14:1:25","25","75","3","9","10","40","30","120","70","19","[""White""]","No","Male","2153862","null","null","","","","clear_screen","","","","","","","","","","","","","","","","","","","","","","","","","",""
"","","","","","canvas-keyboard-response","109","288023","0.0-12.0-2.19","2d_cat_multi_stim_exp1","2022-4-29","14:1:25","25","75","3","9","10","40","30","120","70","19","[""White""]","No","Male","2153862","1502","i","learn","","","learn_trial","10","120","out","0","1","","","","","","","","","","","","","","","","","","","","",""
"","","","","","canvas-keyboard-response","110","288532","0.0-12.0-3.19","2d_cat_multi_stim_exp1","2022-4-29","14:1:25","25","75","3","9","10","40","30","120","70","19","[""White""]","No","Male","2153862","null","null","learn_feedback","","","learn_feedback","10","120","out","","","","","","","","","","","","","","","","","","","","","","",""
"","","","","","canvas-keyboard-response","111","288589","0.0-12.0-4.19","2d_cat_multi_stim_exp1","2022-4-29","14:1:25","25","75","3","9","10","40","30","120","70","19","[""White""]","No","Male","2153862","null","null","","","","clear_screen","","","","","","","","","","","","","","","","","","","","","","","","","",""
"","","","","","canvas-keyboard-response","112","289098","0.0-12.0-0.20","2d_cat_multi_stim_exp1","2022-4-29","14:1:25","25","75","3","9","10","40","30","120","70","19","[""White""]","No","Male","2153862","null","null","","","","fixation","","","","","","","","","","","","","","","","","","","","","","","","","",""
"","","","","","canvas-keyboard-response","113","289606","0.0-12.0-1.20","2d_cat_multi_stim_exp1","2022-4-29","14:1:25","25","75","3","9","10","40","30","120","70","19","[""White""]","No","Male","2153862","null","null","","","","clear_screen","","","","","","","","","","","","","","","","","","","","","","","","","",""
"","","","","","canvas-keyboard-response","114","291167","0.0-12.0-2.20","2d_cat_multi_stim_exp1","2022-4-29","14:1:25","25","75","3","9","10","40","30","120","70","19","[""White""]","No","Male","2153862","1551","i","learn","","","learn_trial","10","110","out","0","1","","","","","","","","","","","","","","","","","","","","",""
"","","","","","canvas-keyboard-response","115","291676","0.0-12.0-3.20","2d_cat_multi_stim_exp1","2022-4-29","14:1:25","25","75","3","9","10","40","30","120","70","19","[""White""]","No","Male","2153862","null","null","learn_feedback","","","learn_feedback","10","110","out","","","","","","","","","","","","","","","","","","","","","","",""
"","","","","","canvas-keyboard-response","116","291734","0.0-12.0-4.20","2d_cat_multi_stim_exp1","2022-4-29","14:1:25","25","75","3","9","10","40","30","120","70","19","[""White""]","No","Male","2153862","null","null","","","","clear_screen","","","","","","","","","","","","","","","","","","","","","","","","","",""
"","","","","","canvas-keyboard-response","117","292244","0.0-12.0-0.21","2d_cat_multi_stim_exp1","2022-4-29","14:1:25","25","75","3","9","10","40","30","120","70","19","[""White""]","No","Male","2153862","null","null","","","","fixation","","","","","","","","","","","","","","","","","","","","","","","","","",""
"","","","","","canvas-keyboard-response","118","292753","0.0-12.0-1.21","2d_cat_multi_stim_exp1","2022-4-29","14:1:25","25","75","3","9","10","40","30","120","70","19","[""White""]","No","Male","2153862","null","null","","","","clear_screen","","","","","","","","","","","","","","","","","","","","","","","","","",""
"","","","","","canvas-keyboard-response","119","294711","0.0-12.0-2.21","2d_cat_multi_stim_exp1","2022-4-29","14:1:25","25","75","3","9","10","40","30","120","70","19","[""White""]","No","Male","2153862","1950","i","learn","","","learn_trial","33.3333","100","out","0","1","","","","","","","","","","","","","","","","","","","","",""
"","","","","","canvas-keyboard-response","120","295219","0.0-12.0-3.21","2d_cat_multi_stim_exp1","2022-4-29","14:1:25","25","75","3","9","10","40","30","120","70","19","[""White""]","No","Male","2153862","null","null","learn_feedback","","","learn_feedback","33.3333","100","out","","","","","","","","","","","","","","","","","","","","","","",""
"","","","","","canvas-keyboard-response","121","295277","0.0-12.0-4.21","2d_cat_multi_stim_exp1","2022-4-29","14:1:25","25","75","3","9","10","40","30","120","70","19","[""White""]","No","Male","2153862","null","null","","","","clear_screen","","","","","","","","","","","","","","","","","","","","","","","","","",""
"","","","","","canvas-keyboard-response","122","295786","0.0-12.0-0.22","2d_cat_multi_stim_exp1","2022-4-29","14:1:25","25","75","3","9","10","40","30","120","70","19","[""White""]","No","Male","2153862","null","null","","","","fixation","","","","","","","","","","","","","","","","","","","","","","","","","",""
"","","","","","canvas-keyboard-response","123","296294","0.0-12.0-1.22","2d_cat_multi_stim_exp1","2022-4-29","14:1:25","25","75","3","9","10","40","30","120","70","19","[""White""]","No","Male","2153862","null","null","","","","clear_screen","","","","","","","","","","","","","","","","","","","","","","","","","",""
"","","","","","canvas-keyboard-response","124","298103","0.0-12.0-2.22","2d_cat_multi_stim_exp1","2022-4-29","14:1:25","25","75","3","9","10","40","30","120","70","19","[""White""]","No","Male","2153862","1800","u","learn","","","learn_trial","25","75","in","1","1","","","","","","","","","","","","","","","","","","","","",""
"","","","","","canvas-keyboard-response","125","298612","0.0-12.0-3.22","2d_cat_multi_stim_exp1","2022-4-29","14:1:25","25","75","3","9","10","40","30","120","70","19","[""White""]","No","Male","2153862","null","null","learn_feedback","","","learn_feedback","25","75","in","","","","","","","","","","","","","","","","","","","","","","",""
"","","","","","canvas-keyboard-response","126","298670","0.0-12.0-4.22","2d_cat_multi_stim_exp1","2022-4-29","14:1:25","25","75","3","9","10","40","30","120","70","19","[""White""]","No","Male","2153862","null","null","","","","clear_screen","","","","","","","","","","","","","","","","","","","","","","","","","",""
"","","","","","canvas-keyboard-response","127","299178","0.0-12.0-0.23","2d_cat_multi_stim_exp1","2022-4-29","14:1:25","25","75","3","9","10","40","30","120","70","19","[""White""]","No","Male","2153862","null","null","","","","fixation","","","","","","","","","","","","","","","","","","","","","","","","","",""
"","","","","","canvas-keyboard-response","128","299684","0.0-12.0-1.23","2d_cat_multi_stim_exp1","2022-4-29","14:1:25","25","75","3","9","10","40","30","120","70","19","[""White""]","No","Male","2153862","null","null","","","","clear_screen","","","","","","","","","","","","","","","","","","","","","","","","","",""
"","","","","","canvas-keyboard-response","129","300991","0.0-12.0-2.23","2d_cat_multi_stim_exp1","2022-4-29","14:1:25","25","75","3","9","10","40","30","120","70","19","[""White""]","No","Male","2153862","1298","u","learn","","","learn_trial","30","70","out","1","0","","","","","","","","","","","","","","","","","","","","",""
"","","","","","canvas-keyboard-response","130","302000","0.0-12.0-3.23","2d_cat_multi_stim_exp1","2022-4-29","14:1:25","25","75","3","9","10","40","30","120","70","19","[""White""]","No","Male","2153862","null","null","learn_feedback","","","learn_feedback","30","70","out","","","","","","","","","","","","","","","","","","","","","","",""
"","","","","","canvas-keyboard-response","131","302058","0.0-12.0-4.23","2d_cat_multi_stim_exp1","2022-4-29","14:1:25","25","75","3","9","10","40","30","120","70","19","[""White""]","No","Male","2153862","null","null","","","","clear_screen","","","","","","","","","","","","","","","","","","","","","","","","","",""
"","","","","","canvas-keyboard-response","132","302566","0.0-12.0-0.24","2d_cat_multi_stim_exp1","2022-4-29","14:1:25","25","75","3","9","10","40","30","120","70","19","[""White""]","No","Male","2153862","null","null","","","","fixation","","","","","","","","","","","","","","","","","","","","","","","","","",""
"","","","","","canvas-keyboard-response","133","303076","0.0-12.0-1.24","2d_cat_multi_stim_exp1","2022-4-29","14:1:25","25","75","3","9","10","40","30","120","70","19","[""White""]","No","Male","2153862","null","null","","","","clear_screen","","","","","","","","","","","","","","","","","","","","","","","","","",""
"","","","","","canvas-keyboard-response","134","304478","0.0-12.0-2.24","2d_cat_multi_stim_exp1","2022-4-29","14:1:25","25","75","3","9","10","40","30","120","70","19","[""White""]","No","Male","2153862","1394","i","learn","","","learn_trial","29.2426","62.2721","in","0","0","","","","","","","","","","","","","","","","","","","","",""
"","","","","","canvas-keyboard-response","135","305487","0.0-12.0-3.24","2d_cat_multi_stim_exp1","2022-4-29","14:1:25","25","75","3","9","10","40","30","120","70","19","[""White""]","No","Male","2153862","null","null","learn_feedback","","","learn_feedback","29.2426","62.2721","in","","","","","","","","","","","","","","","","","","","","","","",""
"","","","","","canvas-keyboard-response","136","305545","0.0-12.0-4.24","2d_cat_multi_stim_exp1","2022-4-29","14:1:25","25","75","3","9","10","40","30","120","70","19","[""White""]","No","Male","2153862","null","null","","","","clear_screen","","","","","","","","","","","","","","","","","","","","","","","","","",""
"","","","","","canvas-keyboard-response","137","306054","0.0-12.0-0.25","2d_cat_multi_stim_exp1","2022-4-29","14:1:25","25","75","3","9","10","40","30","120","70","19","[""White""]","No","Male","2153862","null","null","","","","fixation","","","","","","","","","","","","","","","","","","","","","","","","","",""
"","","","","","canvas-keyboard-response","138","306562","0.0-12.0-1.25","2d_cat_multi_stim_exp1","2022-4-29","14:1:25","25","75","3","9","10","40","30","120","70","19","[""White""]","No","Male","2153862","null","null","","","","clear_screen","","","","","","","","","","","","","","","","","","","","","","","","","",""
"","","","","","canvas-keyboard-response","139","308439","0.0-12.0-2.25","2d_cat_multi_stim_exp1","2022-4-29","14:1:25","25","75","3","9","10","40","30","120","70","19","[""White""]","No","Male","2153862","1867","u","learn","","","learn_trial","25","75","in","1","1","","","","","","","","","","","","","","","","","","","","",""
"","","","","","canvas-keyboard-response","140","308948","0.0-12.0-3.25","2d_cat_multi_stim_exp1","2022-4-29","14:1:25","25","75","3","9","10","40","30","120","70","19","[""White""]","No","Male","2153862","null","null","learn_feedback","","","learn_feedback","25","75","in","","","","","","","","","","","","","","","","","","","","","","",""
"","","","","","canvas-keyboard-response","141","309006","0.0-12.0-4.25","2d_cat_multi_stim_exp1","2022-4-29","14:1:25","25","75","3","9","10","40","30","120","70","19","[""White""]","No","Male","2153862","null","null","","","","clear_screen","","","","","","","","","","","","","","","","","","","","","","","","","",""
"","","","","","canvas-keyboard-response","142","309513","0.0-12.0-0.26","2d_cat_multi_stim_exp1","2022-4-29","14:1:25","25","75","3","9","10","40","30","120","70","19","[""White""]","No","Male","2153862","null","null","","","","fixation","","","","","","","","","","","","","","","","","","","","","","","","","",""
"","","","","","canvas-keyboard-response","143","310022","0.0-12.0-1.26","2d_cat_multi_stim_exp1","2022-4-29","14:1:25","25","75","3","9","10","40","30","120","70","19","[""White""]","No","Male","2153862","null","null","","","","clear_screen","","","","","","","","","","","","","","","","","","","","","","","","","",""
"","","","","","canvas-keyboard-response","144","311839","0.0-12.0-2.26","2d_cat_multi_stim_exp1","2022-4-29","14:1:25","25","75","3","9","10","40","30","120","70","19","[""White""]","No","Male","2153862","1808","i","learn","","","learn_trial","36.6667","120","out","0","1","","","","","","","","","","","","","","","","","","","","",""
"","","","","","canvas-keyboard-response","145","312348","0.0-12.0-3.26","2d_cat_multi_stim_exp1","2022-4-29","14:1:25","25","75","3","9","10","40","30","120","70","19","[""White""]","No","Male","2153862","null","null","learn_feedback","","","learn_feedback","36.6667","120","out","","","","","","","","","","","","","","","","","","","","","","",""
"","","","","","canvas-keyboard-response","146","312405","0.0-12.0-4.26","2d_cat_multi_stim_exp1","2022-4-29","14:1:25","25","75","3","9","10","40","30","120","70","19","[""White""]","No","Male","2153862","null","null","","","","clear_screen","","","","","","","","","","","","","","","","","","","","","","","","","",""
"","","","","","canvas-keyboard-response","147","312913","0.0-12.0-0.27","2d_cat_multi_stim_exp1","2022-4-29","14:1:25","25","75","3","9","10","40","30","120","70","19","[""White""]","No","Male","2153862","null","null","","","","fixation","","","","","","","","","","","","","","","","","","","","","","","","","",""
"","","","","","canvas-keyboard-response","148","313421","0.0-12.0-1.27","2d_cat_multi_stim_exp1","2022-4-29","14:1:25","25","75","3","9","10","40","30","120","70","19","[""White""]","No","Male","2153862","null","null","","","","clear_screen","","","","","","","","","","","","","","","","","","","","","","","","","",""
"","","","","","canvas-keyboard-response","149","314894","0.0-12.0-2.27","2d_cat_multi_stim_exp1","2022-4-29","14:1:25","25","75","3","9","10","40","30","120","70","19","[""White""]","No","Male","2153862","1462","u","learn","","","learn_trial","27.8087","78.1624","in","1","1","","","","","","","","","","","","","","","","","","","","",""
"","","","","","canvas-keyboard-response","150","315403","0.0-12.0-3.27","2d_cat_multi_stim_exp1","2022-4-29","14:1:25","25","75","3","9","10","40","30","120","70","19","[""White""]","No","Male","2153862","null","null","learn_feedback","","","learn_feedback","27.8087","78.1624","in","","","","","","","","","","","","","","","","","","","","","","",""
"","","","","","canvas-keyboard-response","151","315462","0.0-12.0-4.27","2d_cat_multi_stim_exp1","2022-4-29","14:1:25","25","75","3","9","10","40","30","120","70","19","[""White""]","No","Male","2153862","null","null","","","","clear_screen","","","","","","","","","","","","","","","","","","","","","","","","","",""
"","","","","","canvas-keyboard-response","152","315970","0.0-12.0-0.28","2d_cat_multi_stim_exp1","2022-4-29","14:1:25","25","75","3","9","10","40","30","120","70","19","[""White""]","No","Male","2153862","null","null","","","","fixation","","","","","","","","","","","","","","","","","","","","","","","","","",""
"","","","","","canvas-keyboard-response","153","316478","0.0-12.0-1.28","2d_cat_multi_stim_exp1","2022-4-29","14:1:25","25","75","3","9","10","40","30","120","70","19","[""White""]","No","Male","2153862","null","null","","","","clear_screen","","","","","","","","","","","","","","","","","","","","","","","","","",""
"","","","","","canvas-keyboard-response","154","317542","0.0-12.0-2.28","2d_cat_multi_stim_exp1","2022-4-29","14:1:25","25","75","3","9","10","40","30","120","70","19","[""White""]","No","Male","2153862","1055","i","learn","","","learn_trial","20","30","out","0","1","","","","","","","","","","","","","","","","","","","","",""
"","","","","","canvas-keyboard-response","155","318051","0.0-12.0-3.28","2d_cat_multi_stim_exp1","2022-4-29","14:1:25","25","75","3","9","10","40","30","120","70","19","[""White""]","No","Male","2153862","null","null","learn_feedback","","","learn_feedback","20","30","out","","","","","","","","","","","","","","","","","","","","","","",""
"","","","","","canvas-keyboard-response","156","318109","0.0-12.0-4.28","2d_cat_multi_stim_exp1","2022-4-29","14:1:25","25","75","3","9","10","40","30","120","70","19","[""White""]","No","Male","2153862","null","null","","","","clear_screen","","","","","","","","","","","","","","","","","","","","","","","","","",""
"","","","","","canvas-keyboard-response","157","318618","0.0-12.0-0.29","2d_cat_multi_stim_exp1","2022-4-29","14:1:25","25","75","3","9","10","40","30","120","70","19","[""White""]","No","Male","2153862","null","null","","","","fixation","","","","","","","","","","","","","","","","","","","","","","","","","",""
"","","","","","canvas-keyboard-response","158","319127","0.0-12.0-1.29","2d_cat_multi_stim_exp1","2022-4-29","14:1:25","25","75","3","9","10","40","30","120","70","19","[""White""]","No","Male","2153862","null","null","","","","clear_screen","","","","","","","","","","","","","","","","","","","","","","","","","",""
"","","","","","canvas-keyboard-response","159","320958","0.0-12.0-2.29","2d_cat_multi_stim_exp1","2022-4-29","14:1:25","25","75","3","9","10","40","30","120","70","19","[""White""]","No","Male","2153862","1823","i","learn","","","learn_trial","13.3333","90","out","0","1","","","","","","","","","","","","","","","","","","","","",""
"","","","","","canvas-keyboard-response","160","321467","0.0-12.0-3.29","2d_cat_multi_stim_exp1","2022-4-29","14:1:25","25","75","3","9","10","40","30","120","70","19","[""White""]","No","Male","2153862","null","null","learn_feedback","","","learn_feedback","13.3333","90","out","","","","","","","","","","","","","","","","","","","","","","",""
"","","","","","canvas-keyboard-response","161","321524","0.0-12.0-4.29","2d_cat_multi_stim_exp1","2022-4-29","14:1:25","25","75","3","9","10","40","30","120","70","19","[""White""]","No","Male","2153862","null","null","","","","clear_screen","","","","","","","","","","","","","","","","","","","","","","","","","",""
"","","","","","canvas-keyboard-response","162","322033","0.0-12.0-0.30","2d_cat_multi_stim_exp1","2022-4-29","14:1:25","25","75","3","9","10","40","30","120","70","19","[""White""]","No","Male","2153862","null","null","","","","fixation","","","","","","","","","","","","","","","","","","","","","","","","","",""
"","","","","","canvas-keyboard-response","163","322541","0.0-12.0-1.30","2d_cat_multi_stim_exp1","2022-4-29","14:1:25","25","75","3","9","10","40","30","120","70","19","[""White""]","No","Male","2153862","null","null","","","","clear_screen","","","","","","","","","","","","","","","","","","","","","","","","","",""
"","","","","","canvas-keyboard-response","164","324591","0.0-12.0-2.30","2d_cat_multi_stim_exp1","2022-4-29","14:1:25","25","75","3","9","10","40","30","120","70","19","[""White""]","No","Male","2153862","2036","i","learn","","","learn_trial","13.3333","80","out","0","1","","","","","","","","","","","","","","","","","","","","",""
"","","","","","canvas-keyboard-response","165","325099","0.0-12.0-3.30","2d_cat_multi_stim_exp1","2022-4-29","14:1:25","25","75","3","9","10","40","30","120","70","19","[""White""]","No","Male","2153862","null","null","learn_feedback","","","learn_feedback","13.3333","80","out","","","","","","","","","","","","","","","","","","","","","","",""
"","","","","","canvas-keyboard-response","166","325158","0.0-12.0-4.30","2d_cat_multi_stim_exp1","2022-4-29","14:1:25","25","75","3","9","10","40","30","120","70","19","[""White""]","No","Male","2153862","null","null","","","","clear_screen","","","","","","","","","","","","","","","","","","","","","","","","","",""
"","","","","","canvas-keyboard-response","167","325665","0.0-12.0-0.31","2d_cat_multi_stim_exp1","2022-4-29","14:1:25","25","75","3","9","10","40","30","120","70","19","[""White""]","No","Male","2153862","null","null","","","","fixation","","","","","","","","","","","","","","","","","","","","","","","","","",""
"","","","","","canvas-keyboard-response","168","326174","0.0-12.0-1.31","2d_cat_multi_stim_exp1","2022-4-29","14:1:25","25","75","3","9","10","40","30","120","70","19","[""White""]","No","Male","2153862","null","null","","","","clear_screen","","","","","","","","","","","","","","","","","","","","","","","","","",""
"","","","","","canvas-keyboard-response","169","328878","0.0-12.0-2.31","2d_cat_multi_stim_exp1","2022-4-29","14:1:25","25","75","3","9","10","40","30","120","70","19","[""White""]","No","Male","2153862","2696","u","learn","","","learn_trial","25","75","in","1","1","","","","","","","","","","","","","","","","","","","","",""
"","","","","","canvas-keyboard-response","170","329387","0.0-12.0-3.31","2d_cat_multi_stim_exp1","2022-4-29","14:1:25","25","75","3","9","10","40","30","120","70","19","[""White""]","No","Male","2153862","null","null","learn_feedback","","","learn_feedback","25","75","in","","","","","","","","","","","","","","","","","","","","","","",""
"","","","","","canvas-keyboard-response","171","329445","0.0-12.0-4.31","2d_cat_multi_stim_exp1","2022-4-29","14:1:25","25","75","3","9","10","40","30","120","70","19","[""White""]","No","Male","2153862","null","null","","","","clear_screen","","","","","","","","","","","","","","","","","","","","","","","","","",""
"","","","","","canvas-keyboard-response","172","329953","0.0-12.0-0.32","2d_cat_multi_stim_exp1","2022-4-29","14:1:25","25","75","3","9","10","40","30","120","70","19","[""White""]","No","Male","2153862","null","null","","","","fixation","","","","","","","","","","","","","","","","","","","","","","","","","",""
"","","","","","canvas-keyboard-response","173","330462","0.0-12.0-1.32","2d_cat_multi_stim_exp1","2022-4-29","14:1:25","25","75","3","9","10","40","30","120","70","19","[""White""]","No","Male","2153862","null","null","","","","clear_screen","","","","","","","","","","","","","","","","","","","","","","","","","",""
"","","","","","canvas-keyboard-response","174","332038","0.0-12.0-2.32","2d_cat_multi_stim_exp1","2022-4-29","14:1:25","25","75","3","9","10","40","30","120","70","19","[""White""]","No","Male","2153862","1568","u","learn","","","learn_trial","26.4216","82.9254","in","1","1","","","","","","","","","","","","","","","","","","","","",""
"","","","","","canvas-keyboard-response","175","332547","0.0-12.0-3.32","2d_cat_multi_stim_exp1","2022-4-29","14:1:25","25","75","3","9","10","40","30","120","70","19","[""White""]","No","Male","2153862","null","null","learn_feedback","","","learn_feedback","26.4216","82.9254","in","","","","","","","","","","","","","","","","","","","","","","",""
"","","","","","canvas-keyboard-response","176","332605","0.0-12.0-4.32","2d_cat_multi_stim_exp1","2022-4-29","14:1:25","25","75","3","9","10","40","30","120","70","19","[""White""]","No","Male","2153862","null","null","","","","clear_screen","","","","","","","","","","","","","","","","","","","","","","","","","",""
"","","","","","canvas-keyboard-response","177","333114","0.0-12.0-0.33","2d_cat_multi_stim_exp1","2022-4-29","14:1:25","25","75","3","9","10","40","30","120","70","19","[""White""]","No","Male","2153862","null","null","","","","fixation","","","","","","","","","","","","","","","","","","","","","","","","","",""
"","","","","","canvas-keyboard-response","178","333623","0.0-12.0-1.33","2d_cat_multi_stim_exp1","2022-4-29","14:1:25","25","75","3","9","10","40","30","120","70","19","[""White""]","No","Male","2153862","null","null","","","","clear_screen","","","","","","","","","","","","","","","","","","","","","","","","","",""
"","","","","","canvas-keyboard-response","179","334640","0.0-12.0-2.33","2d_cat_multi_stim_exp1","2022-4-29","14:1:25","25","75","3","9","10","40","30","120","70","19","[""White""]","No","Male","2153862","1006","u","learn","","","learn_trial","26.6667","70","out","1","0","","","","","","","","","","","","","","","","","","","","",""
"","","","","","canvas-keyboard-response","180","335652","0.0-12.0-3.33","2d_cat_multi_stim_exp1","2022-4-29","14:1:25","25","75","3","9","10","40","30","120","70","19","[""White""]","No","Male","2153862","null","null","learn_feedback","","","learn_feedback","26.6667","70","out","","","","","","","","","","","","","","","","","","","","","","",""
"","","","","","canvas-keyboard-response","181","335713","0.0-12.0-4.33","2d_cat_multi_stim_exp1","2022-4-29","14:1:25","25","75","3","9","10","40","30","120","70","19","[""White""]","No","Male","2153862","null","null","","","","clear_screen","","","","","","","","","","","","","","","","","","","","","","","","","",""
"","","","","","canvas-keyboard-response","182","336223","0.0-12.0-0.34","2d_cat_multi_stim_exp1","2022-4-29","14:1:25","25","75","3","9","10","40","30","120","70","19","[""White""]","No","Male","2153862","null","null","","","","fixation","","","","","","","","","","","","","","","","","","","","","","","","","",""
"","","","","","canvas-keyboard-response","183","336732","0.0-12.0-1.34","2d_cat_multi_stim_exp1","2022-4-29","14:1:25","25","75","3","9","10","40","30","120","70","19","[""White""]","No","Male","2153862","null","null","","","","clear_screen","","","","","","","","","","","","","","","","","","","","","","","","","",""
"","","","","","canvas-keyboard-response","184","337719","0.0-12.0-2.34","2d_cat_multi_stim_exp1","2022-4-29","14:1:25","25","75","3","9","10","40","30","120","70","19","[""White""]","No","Male","2153862","976","u","learn","","","learn_trial","25","75","in","1","1","","","","","","","","","","","","","","","","","","","","",""
"","","","","","canvas-keyboard-response","185","338228","0.0-12.0-3.34","2d_cat_multi_stim_exp1","2022-4-29","14:1:25","25","75","3","9","10","40","30","120","70","19","[""White""]","No","Male","2153862","null","null","learn_feedback","","","learn_feedback","25","75","in","","","","","","","","","","","","","","","","","","","","","","",""
"","","","","","canvas-keyboard-response","186","338286","0.0-12.0-4.34","2d_cat_multi_stim_exp1","2022-4-29","14:1:25","25","75","3","9","10","40","30","120","70","19","[""White""]","No","Male","2153862","null","null","","","","clear_screen","","","","","","","","","","","","","","","","","","","","","","","","","",""
"","","","","","canvas-keyboard-response","187","338794","0.0-12.0-0.35","2d_cat_multi_stim_exp1","2022-4-29","14:1:25","25","75","3","9","10","40","30","120","70","19","[""White""]","No","Male","2153862","null","null","","","","fixation","","","","","","","","","","","","","","","","","","","","","","","","","",""
"","","","","","canvas-keyboard-response","188","339303","0.0-12.0-1.35","2d_cat_multi_stim_exp1","2022-4-29","14:1:25","25","75","3","9","10","40","30","120","70","19","[""White""]","No","Male","2153862","null","null","","","","clear_screen","","","","","","","","","","","","","","","","","","","","","","","","","",""
"","","","","","canvas-keyboard-response","189","340255","0.0-12.0-2.35","2d_cat_multi_stim_exp1","2022-4-29","14:1:25","25","75","3","9","10","40","30","120","70","19","[""White""]","No","Male","2153862","942","u","learn","","","learn_trial","25","75","in","1","1","","","","","","","","","","","","","","","","","","","","",""
"","","","","","canvas-keyboard-response","190","340765","0.0-12.0-3.35","2d_cat_multi_stim_exp1","2022-4-29","14:1:25","25","75","3","9","10","40","30","120","70","19","[""White""]","No","Male","2153862","null","null","learn_feedback","","","learn_feedback","25","75","in","","","","","","","","","","","","","","","","","","","","","","",""
"","","","","","canvas-keyboard-response","191","340823","0.0-12.0-4.35","2d_cat_multi_stim_exp1","2022-4-29","14:1:25","25","75","3","9","10","40","30","120","70","19","[""White""]","No","Male","2153862","null","null","","","","clear_screen","","","","","","","","","","","","","","","","","","","","","","","","","",""
"","","","","","canvas-keyboard-response","192","341332","0.0-12.0-0.36","2d_cat_multi_stim_exp1","2022-4-29","14:1:25","25","75","3","9","10","40","30","120","70","19","[""White""]","No","Male","2153862","null","null","","","","fixation","","","","","","","","","","","","","","","","","","","","","","","","","",""
"","","","","","canvas-keyboard-response","193","341842","0.0-12.0-1.36","2d_cat_multi_stim_exp1","2022-4-29","14:1:25","25","75","3","9","10","40","30","120","70","19","[""White""]","No","Male","2153862","null","null","","","","clear_screen","","","","","","","","","","","","","","","","","","","","","","","","","",""
"","","","","","canvas-keyboard-response","194","344575","0.0-12.0-2.36","2d_cat_multi_stim_exp1","2022-4-29","14:1:25","25","75","3","9","10","40","30","120","70","19","[""White""]","No","Male","2153862","2724","u","learn","","","learn_trial","25","75","in","1","1","","","","","","","","","","","","","","","","","","","","",""
"","","","","","canvas-keyboard-response","195","345082","0.0-12.0-3.36","2d_cat_multi_stim_exp1","2022-4-29","14:1:25","25","75","3","9","10","40","30","120","70","19","[""White""]","No","Male","2153862","null","null","learn_feedback","","","learn_feedback","25","75","in","","","","","","","","","","","","","","","","","","","","","","",""
"","","","","","canvas-keyboard-response","196","345141","0.0-12.0-4.36","2d_cat_multi_stim_exp1","2022-4-29","14:1:25","25","75","3","9","10","40","30","120","70","19","[""White""]","No","Male","2153862","null","null","","","","clear_screen","","","","","","","","","","","","","","","","","","","","","","","","","",""
"","","","","","canvas-keyboard-response","197","345649","0.0-12.0-0.37","2d_cat_multi_stim_exp1","2022-4-29","14:1:25","25","75","3","9","10","40","30","120","70","19","[""White""]","No","Male","2153862","null","null","","","","fixation","","","","","","","","","","","","","","","","","","","","","","","","","",""
"","","","","","canvas-keyboard-response","198","346158","0.0-12.0-1.37","2d_cat_multi_stim_exp1","2022-4-29","14:1:25","25","75","3","9","10","40","30","120","70","19","[""White""]","No","Male","2153862","null","null","","","","clear_screen","","","","","","","","","","","","","","","","","","","","","","","","","",""
"","","","","","canvas-keyboard-response","199","347775","0.0-12.0-2.37","2d_cat_multi_stim_exp1","2022-4-29","14:1:25","25","75","3","9","10","40","30","120","70","19","[""White""]","No","Male","2153862","1608","i","learn","","","learn_trial","40","40","out","0","1","","","","","","","","","","","","","","","","","","","","",""
"","","","","","canvas-keyboard-response","200","348284","0.0-12.0-3.37","2d_cat_multi_stim_exp1","2022-4-29","14:1:25","25","75","3","9","10","40","30","120","70","19","[""White""]","No","Male","2153862","null","null","learn_feedback","","","learn_feedback","40","40","out","","","","","","","","","","","","","","","","","","","","","","",""
"","","","","","canvas-keyboard-response","201","348342","0.0-12.0-4.37","2d_cat_multi_stim_exp1","2022-4-29","14:1:25","25","75","3","9","10","40","30","120","70","19","[""White""]","No","Male","2153862","null","null","","","","clear_screen","","","","","","","","","","","","","","","","","","","","","","","","","",""
"","","","","","canvas-keyboard-response","202","348850","0.0-12.0-0.38","2d_cat_multi_stim_exp1","2022-4-29","14:1:25","25","75","3","9","10","40","30","120","70","19","[""White""]","No","Male","2153862","null","null","","","","fixation","","","","","","","","","","","","","","","","","","","","","","","","","",""
"","","","","","canvas-keyboard-response","203","349358","0.0-12.0-1.38","2d_cat_multi_stim_exp1","2022-4-29","14:1:25","25","75","3","9","10","40","30","120","70","19","[""White""]","No","Male","2153862","null","null","","","","clear_screen","","","","","","","","","","","","","","","","","","","","","","","","","",""
"","","","","","canvas-keyboard-response","204","351487","0.0-12.0-2.38","2d_cat_multi_stim_exp1","2022-4-29","14:1:25","25","75","3","9","10","40","30","120","70","19","[""White""]","No","Male","2153862","2119","i","learn","","","learn_trial","25","75","in","0","0","","","","","","","","","","","","","","","","","","","","",""
"","","","","","canvas-keyboard-response","205","352496","0.0-12.0-3.38","2d_cat_multi_stim_exp1","2022-4-29","14:1:25","25","75","3","9","10","40","30","120","70","19","[""White""]","No","Male","2153862","null","null","learn_feedback","","","learn_feedback","25","75","in","","","","","","","","","","","","","","","","","","","","","","",""
"","","","","","canvas-keyboard-response","206","352554","0.0-12.0-4.38","2d_cat_multi_stim_exp1","2022-4-29","14:1:25","25","75","3","9","10","40","30","120","70","19","[""White""]","No","Male","2153862","null","null","","","","clear_screen","","","","","","","","","","","","","","","","","","","","","","","","","",""
"","","","","","canvas-keyboard-response","207","353062","0.0-12.0-0.39","2d_cat_multi_stim_exp1","2022-4-29","14:1:25","25","75","3","9","10","40","30","120","70","19","[""White""]","No","Male","2153862","null","null","","","","fixation","","","","","","","","","","","","","","","","","","","","","","","","","",""
"","","","","","canvas-keyboard-response","208","353570","0.0-12.0-1.39","2d_cat_multi_stim_exp1","2022-4-29","14:1:25","25","75","3","9","10","40","30","120","70","19","[""White""]","No","Male","2153862","null","null","","","","clear_screen","","","","","","","","","","","","","","","","","","","","","","","","","",""
"","","","","","canvas-keyboard-response","209","357373","0.0-12.0-2.39","2d_cat_multi_stim_exp1","2022-4-29","14:1:25","25","75","3","9","10","40","30","120","70","19","[""White""]","No","Male","2153862","3793","i","learn","","","learn_trial","30","90","out","0","1","","","","","","","","","","","","","","","","","","","","",""
"","","","","","canvas-keyboard-response","210","357883","0.0-12.0-3.39","2d_cat_multi_stim_exp1","2022-4-29","14:1:25","25","75","3","9","10","40","30","120","70","19","[""White""]","No","Male","2153862","null","null","learn_feedback","","","learn_feedback","30","90","out","","","","","","","","","","","","","","","","","","","","","","",""
"","","","","","canvas-keyboard-response","211","357941","0.0-12.0-4.39","2d_cat_multi_stim_exp1","2022-4-29","14:1:25","25","75","3","9","10","40","30","120","70","19","[""White""]","No","Male","2153862","null","null","","","","clear_screen","","","","","","","","","","","","","","","","","","","","","","","","","",""
"","","","","","canvas-keyboard-response","212","358449","0.0-12.0-0.40","2d_cat_multi_stim_exp1","2022-4-29","14:1:25","25","75","3","9","10","40","30","120","70","19","[""White""]","No","Male","2153862","null","null","","","","fixation","","","","","","","","","","","","","","","","","","","","","","","","","",""
"","","","","","canvas-keyboard-response","213","358959","0.0-12.0-1.40","2d_cat_multi_stim_exp1","2022-4-29","14:1:25","25","75","3","9","10","40","30","120","70","19","[""White""]","No","Male","2153862","null","null","","","","clear_screen","","","","","","","","","","","","","","","","","","","","","","","","","",""
"","","","","","canvas-keyboard-response","214","361758","0.0-12.0-2.40","2d_cat_multi_stim_exp1","2022-4-29","14:1:25","25","75","3","9","10","40","30","120","70","19","[""White""]","No","Male","2153862","2791","u","learn","","","learn_trial","25","75","in","1","1","","","","","","","","","","","","","","","","","","","","",""
"","","","","","canvas-keyboard-response","215","362267","0.0-12.0-3.40","2d_cat_multi_stim_exp1","2022-4-29","14:1:25","25","75","3","9","10","40","30","120","70","19","[""White""]","No","Male","2153862","null","null","learn_feedback","","","learn_feedback","25","75","in","","","","","","","","","","","","","","","","","","","","","","",""
"","","","","","canvas-keyboard-response","216","362326","0.0-12.0-4.40","2d_cat_multi_stim_exp1","2022-4-29","14:1:25","25","75","3","9","10","40","30","120","70","19","[""White""]","No","Male","2153862","null","null","","","","clear_screen","","","","","","","","","","","","","","","","","","","","","","","","","",""
"","","","","","canvas-keyboard-response","217","362834","0.0-12.0-0.41","2d_cat_multi_stim_exp1","2022-4-29","14:1:25","25","75","3","9","10","40","30","120","70","19","[""White""]","No","Male","2153862","null","null","","","","fixation","","","","","","","","","","","","","","","","","","","","","","","","","",""
"","","","","","canvas-keyboard-response","218","363343","0.0-12.0-1.41","2d_cat_multi_stim_exp1","2022-4-29","14:1:25","25","75","3","9","10","40","30","120","70","19","[""White""]","No","Male","2153862","null","null","","","","clear_screen","","","","","","","","","","","","","","","","","","","","","","","","","",""
"","","","","","canvas-keyboard-response","219","366334","0.0-12.0-2.41","2d_cat_multi_stim_exp1","2022-4-29","14:1:25","25","75","3","9","10","40","30","120","70","19","[""White""]","No","Male","2153862","2983","u","learn","","","learn_trial","27.9518","76.607","in","1","1","","","","","","","","","","","","","","","","","","","","",""
"","","","","","canvas-keyboard-response","220","366843","0.0-12.0-3.41","2d_cat_multi_stim_exp1","2022-4-29","14:1:25","25","75","3","9","10","40","30","120","70","19","[""White""]","No","Male","2153862","null","null","learn_feedback","","","learn_feedback","27.9518","76.607","in","","","","","","","","","","","","","","","","","","","","","","",""
"","","","","","canvas-keyboard-response","221","366901","0.0-12.0-4.41","2d_cat_multi_stim_exp1","2022-4-29","14:1:25","25","75","3","9","10","40","30","120","70","19","[""White""]","No","Male","2153862","null","null","","","","clear_screen","","","","","","","","","","","","","","","","","","","","","","","","","",""
"","","","","","canvas-keyboard-response","222","367409","0.0-12.0-0.42","2d_cat_multi_stim_exp1","2022-4-29","14:1:25","25","75","3","9","10","40","30","120","70","19","[""White""]","No","Male","2153862","null","null","","","","fixation","","","","","","","","","","","","","","","","","","","","","","","","","",""
"","","","","","canvas-keyboard-response","223","367918","0.0-12.0-1.42","2d_cat_multi_stim_exp1","2022-4-29","14:1:25","25","75","3","9","10","40","30","120","70","19","[""White""]","No","Male","2153862","null","null","","","","clear_screen","","","","","","","","","","","","","","","","","","","","","","","","","",""
"","","","","","canvas-keyboard-response","224","369031","0.0-12.0-2.42","2d_cat_multi_stim_exp1","2022-4-29","14:1:25","25","75","3","9","10","40","30","120","70","19","[""White""]","No","Male","2153862","1103","u","learn","","","learn_trial","26.6667","80","out","1","0","","","","","","","","","","","","","","","","","","","","",""
"","","","","","canvas-keyboard-response","225","370041","0.0-12.0-3.42","2d_cat_multi_stim_exp1","2022-4-29","14:1:25","25","75","3","9","10","40","30","120","70","19","[""White""]","No","Male","2153862","null","null","learn_feedback","","","learn_feedback","26.6667","80","out","","","","","","","","","","","","","","","","","","","","","","",""
"","","","","","canvas-keyboard-response","226","370102","0.0-12.0-4.42","2d_cat_multi_stim_exp1","2022-4-29","14:1:25","25","75","3","9","10","40","30","120","70","19","[""White""]","No","Male","2153862","null","null","","","","clear_screen","","","","","","","","","","","","","","","","","","","","","","","","","",""
"","","","","","canvas-keyboard-response","227","370613","0.0-12.0-0.43","2d_cat_multi_stim_exp1","2022-4-29","14:1:25","25","75","3","9","10","40","30","120","70","19","[""White""]","No","Male","2153862","null","null","","","","fixation","","","","","","","","","","","","","","","","","","","","","","","","","",""
"","","","","","canvas-keyboard-response","228","371123","0.0-12.0-1.43","2d_cat_multi_stim_exp1","2022-4-29","14:1:25","25","75","3","9","10","40","30","120","70","19","[""White""]","No","Male","2153862","null","null","","","","clear_screen","","","","","","","","","","","","","","","","","","","","","","","","","",""
"","","","","","canvas-keyboard-response","229","373095","0.0-12.0-2.43","2d_cat_multi_stim_exp1","2022-4-29","14:1:25","25","75","3","9","10","40","30","120","70","19","[""White""]","No","Male","2153862","1960","i","learn","","","learn_trial","26.6667","50","out","0","1","","","","","","","","","","","","","","","","","","","","",""
"","","","","","canvas-keyboard-response","230","373604","0.0-12.0-3.43","2d_cat_multi_stim_exp1","2022-4-29","14:1:25","25","75","3","9","10","40","30","120","70","19","[""White""]","No","Male","2153862","null","null","learn_feedback","","","learn_feedback","26.6667","50","out","","","","","","","","","","","","","","","","","","","","","","",""
"","","","","","canvas-keyboard-response","231","373662","0.0-12.0-4.43","2d_cat_multi_stim_exp1","2022-4-29","14:1:25","25","75","3","9","10","40","30","120","70","19","[""White""]","No","Male","2153862","null","null","","","","clear_screen","","","","","","","","","","","","","","","","","","","","","","","","","",""
"","","","","","canvas-keyboard-response","232","374170","0.0-12.0-0.44","2d_cat_multi_stim_exp1","2022-4-29","14:1:25","25","75","3","9","10","40","30","120","70","19","[""White""]","No","Male","2153862","null","null","","","","fixation","","","","","","","","","","","","","","","","","","","","","","","","","",""
"","","","","","canvas-keyboard-response","233","374680","0.0-12.0-1.44","2d_cat_multi_stim_exp1","2022-4-29","14:1:25","25","75","3","9","10","40","30","120","70","19","[""White""]","No","Male","2153862","null","null","","","","clear_screen","","","","","","","","","","","","","","","","","","","","","","","","","",""
"","","","","","canvas-keyboard-response","234","376846","0.0-12.0-2.44","2d_cat_multi_stim_exp1","2022-4-29","14:1:25","25","75","3","9","10","40","30","120","70","19","[""White""]","No","Male","2153862","2157","u","learn","","","learn_trial","25","75","in","1","1","","","","","","","","","","","","","","","","","","","","",""
"","","","","","canvas-keyboard-response","235","377356","0.0-12.0-3.44","2d_cat_multi_stim_exp1","2022-4-29","14:1:25","25","75","3","9","10","40","30","120","70","19","[""White""]","No","Male","2153862","null","null","learn_feedback","","","learn_feedback","25","75","in","","","","","","","","","","","","","","","","","","","","","","",""
"","","","","","canvas-keyboard-response","236","377415","0.0-12.0-4.44","2d_cat_multi_stim_exp1","2022-4-29","14:1:25","25","75","3","9","10","40","30","120","70","19","[""White""]","No","Male","2153862","null","null","","","","clear_screen","","","","","","","","","","","","","","","","","","","","","","","","","",""
"","","","","","canvas-keyboard-response","237","377923","0.0-12.0-0.45","2d_cat_multi_stim_exp1","2022-4-29","14:1:25","25","75","3","9","10","40","30","120","70","19","[""White""]","No","Male","2153862","null","null","","","","fixation","","","","","","","","","","","","","","","","","","","","","","","","","",""
"","","","","","canvas-keyboard-response","238","378432","0.0-12.0-1.45","2d_cat_multi_stim_exp1","2022-4-29","14:1:25","25","75","3","9","10","40","30","120","70","19","[""White""]","No","Male","2153862","null","null","","","","clear_screen","","","","","","","","","","","","","","","","","","","","","","","","","",""
"","","","","","canvas-keyboard-response","239","380910","0.0-12.0-2.45","2d_cat_multi_stim_exp1","2022-4-29","14:1:25","25","75","3","9","10","40","30","120","70","19","[""White""]","No","Male","2153862","2468","u","learn","","","learn_trial","23.3473","67.4888","in","1","1","","","","","","","","","","","","","","","","","","","","",""
"","","","","","canvas-keyboard-response","240","381419","0.0-12.0-3.45","2d_cat_multi_stim_exp1","2022-4-29","14:1:25","25","75","3","9","10","40","30","120","70","19","[""White""]","No","Male","2153862","null","null","learn_feedback","","","learn_feedback","23.3473","67.4888","in","","","","","","","","","","","","","","","","","","","","","","",""
"","","","","","canvas-keyboard-response","241","381478","0.0-12.0-4.45","2d_cat_multi_stim_exp1","2022-4-29","14:1:25","25","75","3","9","10","40","30","120","70","19","[""White""]","No","Male","2153862","null","null","","","","clear_screen","","","","","","","","","","","","","","","","","","","","","","","","","",""
"","","","","","canvas-keyboard-response","242","381986","0.0-12.0-0.46","2d_cat_multi_stim_exp1","2022-4-29","14:1:25","25","75","3","9","10","40","30","120","70","19","[""White""]","No","Male","2153862","null","null","","","","fixation","","","","","","","","","","","","","","","","","","","","","","","","","",""
"","","","","","canvas-keyboard-response","243","382495","0.0-12.0-1.46","2d_cat_multi_stim_exp1","2022-4-29","14:1:25","25","75","3","9","10","40","30","120","70","19","[""White""]","No","Male","2153862","null","null","","","","clear_screen","","","","","","","","","","","","","","","","","","","","","","","","","",""
"","","","","","canvas-keyboard-response","244","388030","0.0-12.0-2.46","2d_cat_multi_stim_exp1","2022-4-29","14:1:25","25","75","3","9","10","40","30","120","70","19","[""White""]","No","Male","2153862","5526","u","learn","","","learn_trial","16.6667","70","out","1","0","","","","","","","","","","","","","","","","","","","","",""
"","","","","","canvas-keyboard-response","245","389040","0.0-12.0-3.46","2d_cat_multi_stim_exp1","2022-4-29","14:1:25","25","75","3","9","10","40","30","120","70","19","[""White""]","No","Male","2153862","null","null","learn_feedback","","","learn_feedback","16.6667","70","out","","","","","","","","","","","","","","","","","","","","","","",""
"","","","","","canvas-keyboard-response","246","389097","0.0-12.0-4.46","2d_cat_multi_stim_exp1","2022-4-29","14:1:25","25","75","3","9","10","40","30","120","70","19","[""White""]","No","Male","2153862","null","null","","","","clear_screen","","","","","","","","","","","","","","","","","","","","","","","","","",""
"","","","","","canvas-keyboard-response","247","389606","0.0-12.0-0.47","2d_cat_multi_stim_exp1","2022-4-29","14:1:25","25","75","3","9","10","40","30","120","70","19","[""White""]","No","Male","2153862","null","null","","","","fixation","","","","","","","","","","","","","","","","","","","","","","","","","",""
"","","","","","canvas-keyboard-response","248","390114","0.0-12.0-1.47","2d_cat_multi_stim_exp1","2022-4-29","14:1:25","25","75","3","9","10","40","30","120","70","19","[""White""]","No","Male","2153862","null","null","","","","clear_screen","","","","","","","","","","","","","","","","","","","","","","","","","",""
"","","","","","canvas-keyboard-response","249","391430","0.0-12.0-2.47","2d_cat_multi_stim_exp1","2022-4-29","14:1:25","25","75","3","9","10","40","30","120","70","19","[""White""]","No","Male","2153862","1308","u","learn","","","learn_trial","16.6667","80","out","1","0","","","","","","","","","","","","","","","","","","","","",""
"","","","","","canvas-keyboard-response","250","392439","0.0-12.0-3.47","2d_cat_multi_stim_exp1","2022-4-29","14:1:25","25","75","3","9","10","40","30","120","70","19","[""White""]","No","Male","2153862","null","null","learn_feedback","","","learn_feedback","16.6667","80","out","","","","","","","","","","","","","","","","","","","","","","",""
"","","","","","canvas-keyboard-response","251","392497","0.0-12.0-4.47","2d_cat_multi_stim_exp1","2022-4-29","14:1:25","25","75","3","9","10","40","30","120","70","19","[""White""]","No","Male","2153862","null","null","","","","clear_screen","","","","","","","","","","","","","","","","","","","","","","","","","",""
"","","","","","canvas-keyboard-response","252","393005","0.0-12.0-0.48","2d_cat_multi_stim_exp1","2022-4-29","14:1:25","25","75","3","9","10","40","30","120","70","19","[""White""]","No","Male","2153862","null","null","","","","fixation","","","","","","","","","","","","","","","","","","","","","","","","","",""
"","","","","","canvas-keyboard-response","253","393514","0.0-12.0-1.48","2d_cat_multi_stim_exp1","2022-4-29","14:1:25","25","75","3","9","10","40","30","120","70","19","[""White""]","No","Male","2153862","null","null","","","","clear_screen","","","","","","","","","","","","","","","","","","","","","","","","","",""
"","","","","","canvas-keyboard-response","254","394366","0.0-12.0-2.48","2d_cat_multi_stim_exp1","2022-4-29","14:1:25","25","75","3","9","10","40","30","120","70","19","[""White""]","No","Male","2153862","844","u","learn","","","learn_trial","23.3333","80","out","1","0","","","","","","","","","","","","","","","","","","","","",""
"","","","","","canvas-keyboard-response","255","395375","0.0-12.0-3.48","2d_cat_multi_stim_exp1","2022-4-29","14:1:25","25","75","3","9","10","40","30","120","70","19","[""White""]","No","Male","2153862","null","null","learn_feedback","","","learn_feedback","23.3333","80","out","","","","","","","","","","","","","","","","","","","","","","",""
"","","","","","canvas-keyboard-response","256","395433","0.0-12.0-4.48","2d_cat_multi_stim_exp1","2022-4-29","14:1:25","25","75","3","9","10","40","30","120","70","19","[""White""]","No","Male","2153862","null","null","","","","clear_screen","","","","","","","","","","","","","","","","","","","","","","","","","",""
"","","","","","canvas-keyboard-response","257","395943","0.0-12.0-0.49","2d_cat_multi_stim_exp1","2022-4-29","14:1:25","25","75","3","9","10","40","30","120","70","19","[""White""]","No","Male","2153862","null","null","","","","fixation","","","","","","","","","","","","","","","","","","","","","","","","","",""
"","","","","","canvas-keyboard-response","258","396452","0.0-12.0-1.49","2d_cat_multi_stim_exp1","2022-4-29","14:1:25","25","75","3","9","10","40","30","120","70","19","[""White""]","No","Male","2153862","null","null","","","","clear_screen","","","","","","","","","","","","","","","","","","","","","","","","","",""
"","","","","","canvas-keyboard-response","259","397486","0.0-12.0-2.49","2d_cat_multi_stim_exp1","2022-4-29","14:1:25","25","75","3","9","10","40","30","120","70","19","[""White""]","No","Male","2153862","1025","i","learn","","","learn_trial","40","30","out","0","1","","","","","","","","","","","","","","","","","","","","",""
"","","","","","canvas-keyboard-response","260","397995","0.0-12.0-3.49","2d_cat_multi_stim_exp1","2022-4-29","14:1:25","25","75","3","9","10","40","30","120","70","19","[""White""]","No","Male","2153862","null","null","learn_feedback","","","learn_feedback","40","30","out","","","","","","","","","","","","","","","","","","","","","","",""
"","","","","","canvas-keyboard-response","261","398054","0.0-12.0-4.49","2d_cat_multi_stim_exp1","2022-4-29","14:1:25","25","75","3","9","10","40","30","120","70","19","[""White""]","No","Male","2153862","null","null","","","","clear_screen","","","","","","","","","","","","","","","","","","","","","","","","","",""
"","","","","","canvas-keyboard-response","262","398561","0.0-12.0-0.50","2d_cat_multi_stim_exp1","2022-4-29","14:1:25","25","75","3","9","10","40","30","120","70","19","[""White""]","No","Male","2153862","null","null","","","","fixation","","","","","","","","","","","","","","","","","","","","","","","","","",""
"","","","","","canvas-keyboard-response","263","399071","0.0-12.0-1.50","2d_cat_multi_stim_exp1","2022-4-29","14:1:25","25","75","3","9","10","40","30","120","70","19","[""White""]","No","Male","2153862","null","null","","","","clear_screen","","","","","","","","","","","","","","","","","","","","","","","","","",""
"","","","","","canvas-keyboard-response","264","400166","0.0-12.0-2.50","2d_cat_multi_stim_exp1","2022-4-29","14:1:25","25","75","3","9","10","40","30","120","70","19","[""White""]","No","Male","2153862","1087","i","learn","","","learn_trial","40","50","out","0","1","","","","","","","","","","","","","","","","","","","","",""
"","","","","","canvas-keyboard-response","265","400674","0.0-12.0-3.50","2d_cat_multi_stim_exp1","2022-4-29","14:1:25","25","75","3","9","10","40","30","120","70","19","[""White""]","No","Male","2153862","null","null","learn_feedback","","","learn_feedback","40","50","out","","","","","","","","","","","","","","","","","","","","","","",""
"","","","","","canvas-keyboard-response","266","400732","0.0-12.0-4.50","2d_cat_multi_stim_exp1","2022-4-29","14:1:25","25","75","3","9","10","40","30","120","70","19","[""White""]","No","Male","2153862","null","null","","","","clear_screen","","","","","","","","","","","","","","","","","","","","","","","","","",""
"","","","","","canvas-keyboard-response","267","401241","0.0-12.0-0.51","2d_cat_multi_stim_exp1","2022-4-29","14:1:25","25","75","3","9","10","40","30","120","70","19","[""White""]","No","Male","2153862","null","null","","","","fixation","","","","","","","","","","","","","","","","","","","","","","","","","",""
"","","","","","canvas-keyboard-response","268","401749","0.0-12.0-1.51","2d_cat_multi_stim_exp1","2022-4-29","14:1:25","25","75","3","9","10","40","30","120","70","19","[""White""]","No","Male","2153862","null","null","","","","clear_screen","","","","","","","","","","","","","","","","","","","","","","","","","",""
"","","","","","canvas-keyboard-response","269","403215","0.0-12.0-2.51","2d_cat_multi_stim_exp1","2022-4-29","14:1:25","25","75","3","9","10","40","30","120","70","19","[""White""]","No","Male","2153862","1456","u","learn","","","learn_trial","30","60","out","1","0","","","","","","","","","","","","","","","","","","","","",""
"","","","","","canvas-keyboard-response","270","404227","0.0-12.0-3.51","2d_cat_multi_stim_exp1","2022-4-29","14:1:25","25","75","3","9","10","40","30","120","70","19","[""White""]","No","Male","2153862","null","null","learn_feedback","","","learn_feedback","30","60","out","","","","","","","","","","","","","","","","","","","","","","",""
"","","","","","canvas-keyboard-response","271","404289","0.0-12.0-4.51","2d_cat_multi_stim_exp1","2022-4-29","14:1:25","25","75","3","9","10","40","30","120","70","19","[""White""]","No","Male","2153862","null","null","","","","clear_screen","","","","","","","","","","","","","","","","","","","","","","","","","",""
"","","","","","canvas-keyboard-response","272","404799","0.0-12.0-0.52","2d_cat_multi_stim_exp1","2022-4-29","14:1:25","25","75","3","9","10","40","30","120","70","19","[""White""]","No","Male","2153862","null","null","","","","fixation","","","","","","","","","","","","","","","","","","","","","","","","","",""
"","","","","","canvas-keyboard-response","273","405309","0.0-12.0-1.52","2d_cat_multi_stim_exp1","2022-4-29","14:1:25","25","75","3","9","10","40","30","120","70","19","[""White""]","No","Male","2153862","null","null","","","","clear_screen","","","","","","","","","","","","","","","","","","","","","","","","","",""
"","","","","","canvas-keyboard-response","274","406374","0.0-12.0-2.52","2d_cat_multi_stim_exp1","2022-4-29","14:1:25","25","75","3","9","10","40","30","120","70","19","[""White""]","No","Male","2153862","1057","u","learn","","","learn_trial","13.3333","60","out","1","0","","","","","","","","","","","","","","","","","","","","",""
"","","","","","canvas-keyboard-response","275","407383","0.0-12.0-3.52","2d_cat_multi_stim_exp1","2022-4-29","14:1:25","25","75","3","9","10","40","30","120","70","19","[""White""]","No","Male","2153862","null","null","learn_feedback","","","learn_feedback","13.3333","60","out","","","","","","","","","","","","","","","","","","","","","","",""
"","","","","","canvas-keyboard-response","276","407442","0.0-12.0-4.52","2d_cat_multi_stim_exp1","2022-4-29","14:1:25","25","75","3","9","10","40","30","120","70","19","[""White""]","No","Male","2153862","null","null","","","","clear_screen","","","","","","","","","","","","","","","","","","","","","","","","","",""
"","","","","","canvas-keyboard-response","277","407951","0.0-12.0-0.53","2d_cat_multi_stim_exp1","2022-4-29","14:1:25","25","75","3","9","10","40","30","120","70","19","[""White""]","No","Male","2153862","null","null","","","","fixation","","","","","","","","","","","","","","","","","","","","","","","","","",""
"","","","","","canvas-keyboard-response","278","408460","0.0-12.0-1.53","2d_cat_multi_stim_exp1","2022-4-29","14:1:25","25","75","3","9","10","40","30","120","70","19","[""White""]","No","Male","2153862","null","null","","","","clear_screen","","","","","","","","","","","","","","","","","","","","","","","","","",""
"","","","","","canvas-keyboard-response","279","410191","0.0-12.0-2.53","2d_cat_multi_stim_exp1","2022-4-29","14:1:25","25","75","3","9","10","40","30","120","70","19","[""White""]","No","Male","2153862","1721","u","learn","","","learn_trial","25","75","in","1","1","","","","","","","","","","","","","","","","","","","","",""
"","","","","","canvas-keyboard-response","280","410701","0.0-12.0-3.53","2d_cat_multi_stim_exp1","2022-4-29","14:1:25","25","75","3","9","10","40","30","120","70","19","[""White""]","No","Male","2153862","null","null","learn_feedback","","","learn_feedback","25","75","in","","","","","","","","","","","","","","","","","","","","","","",""
"","","","","","canvas-keyboard-response","281","410760","0.0-12.0-4.53","2d_cat_multi_stim_exp1","2022-4-29","14:1:25","25","75","3","9","10","40","30","120","70","19","[""White""]","No","Male","2153862","null","null","","","","clear_screen","","","","","","","","","","","","","","","","","","","","","","","","","",""
"","","","","","canvas-keyboard-response","282","411269","0.0-12.0-0.54","2d_cat_multi_stim_exp1","2022-4-29","14:1:25","25","75","3","9","10","40","30","120","70","19","[""White""]","No","Male","2153862","null","null","","","","fixation","","","","","","","","","","","","","","","","","","","","","","","","","",""
"","","","","","canvas-keyboard-response","283","411777","0.0-12.0-1.54","2d_cat_multi_stim_exp1","2022-4-29","14:1:25","25","75","3","9","10","40","30","120","70","19","[""White""]","No","Male","2153862","null","null","","","","clear_screen","","","","","","","","","","","","","","","","","","","","","","","","","",""
"","","","","","canvas-keyboard-response","284","413110","0.0-12.0-2.54","2d_cat_multi_stim_exp1","2022-4-29","14:1:25","25","75","3","9","10","40","30","120","70","19","[""White""]","No","Male","2153862","1324","i","learn","","","learn_trial","27.5753","79.6161","in","0","0","","","","","","","","","","","","","","","","","","","","",""
"","","","","","canvas-keyboard-response","285","414119","0.0-12.0-3.54","2d_cat_multi_stim_exp1","2022-4-29","14:1:25","25","75","3","9","10","40","30","120","70","19","[""White""]","No","Male","2153862","null","null","learn_feedback","","","learn_feedback","27.5753","79.6161","in","","","","","","","","","","","","","","","","","","","","","","",""
"","","","","","canvas-keyboard-response","286","414177","0.0-12.0-4.54","2d_cat_multi_stim_exp1","2022-4-29","14:1:25","25","75","3","9","10","40","30","120","70","19","[""White""]","No","Male","2153862","null","null","","","","clear_screen","","","","","","","","","","","","","","","","","","","","","","","","","",""
"","","","","","canvas-keyboard-response","287","414685","0.0-12.0-0.55","2d_cat_multi_stim_exp1","2022-4-29","14:1:25","25","75","3","9","10","40","30","120","70","19","[""White""]","No","Male","2153862","null","null","","","","fixation","","","","","","","","","","","","","","","","","","","","","","","","","",""
"","","","","","canvas-keyboard-response","288","415194","0.0-12.0-1.55","2d_cat_multi_stim_exp1","2022-4-29","14:1:25","25","75","3","9","10","40","30","120","70","19","[""White""]","No","Male","2153862","null","null","","","","clear_screen","","","","","","","","","","","","","","","","","","","","","","","","","",""
"","","","","","canvas-keyboard-response","289","416846","0.0-12.0-2.55","2d_cat_multi_stim_exp1","2022-4-29","14:1:25","25","75","3","9","10","40","30","120","70","19","[""White""]","No","Male","2153862","1642","u","learn","","","learn_trial","25","75","in","1","1","","","","","","","","","","","","","","","","","","","","",""
"","","","","","canvas-keyboard-response","290","417355","0.0-12.0-3.55","2d_cat_multi_stim_exp1","2022-4-29","14:1:25","25","75","3","9","10","40","30","120","70","19","[""White""]","No","Male","2153862","null","null","learn_feedback","","","learn_feedback","25","75","in","","","","","","","","","","","","","","","","","","","","","","",""
"","","","","","canvas-keyboard-response","291","417412","0.0-12.0-4.55","2d_cat_multi_stim_exp1","2022-4-29","14:1:25","25","75","3","9","10","40","30","120","70","19","[""White""]","No","Male","2153862","null","null","","","","clear_screen","","","","","","","","","","","","","","","","","","","","","","","","","",""
"","","","","","canvas-keyboard-response","292","417923","0.0-12.0-0.56","2d_cat_multi_stim_exp1","2022-4-29","14:1:25","25","75","3","9","10","40","30","120","70","19","[""White""]","No","Male","2153862","null","null","","","","fixation","","","","","","","","","","","","","","","","","","","","","","","","","",""
"","","","","","canvas-keyboard-response","293","418431","0.0-12.0-1.56","2d_cat_multi_stim_exp1","2022-4-29","14:1:25","25","75","3","9","10","40","30","120","70","19","[""White""]","No","Male","2153862","null","null","","","","clear_screen","","","","","","","","","","","","","","","","","","","","","","","","","",""
"","","","","","canvas-keyboard-response","294","420270","0.0-12.0-2.56","2d_cat_multi_stim_exp1","2022-4-29","14:1:25","25","75","3","9","10","40","30","120","70","19","[""White""]","No","Male","2153862","1830","i","learn","","","learn_trial","16.6667","60","out","0","1","","","","","","","","","","","","","","","","","","","","",""
"","","","","","canvas-keyboard-response","295","420778","0.0-12.0-3.56","2d_cat_multi_stim_exp1","2022-4-29","14:1:25","25","75","3","9","10","40","30","120","70","19","[""White""]","No","Male","2153862","null","null","learn_feedback","","","learn_feedback","16.6667","60","out","","","","","","","","","","","","","","","","","","","","","","",""
"","","","","","canvas-keyboard-response","296","420837","0.0-12.0-4.56","2d_cat_multi_stim_exp1","2022-4-29","14:1:25","25","75","3","9","10","40","30","120","70","19","[""White""]","No","Male","2153862","null","null","","","","clear_screen","","","","","","","","","","","","","","","","","","","","","","","","","",""
"","","","","","canvas-keyboard-response","297","421346","0.0-12.0-0.57","2d_cat_multi_stim_exp1","2022-4-29","14:1:25","25","75","3","9","10","40","30","120","70","19","[""White""]","No","Male","2153862","null","null","","","","fixation","","","","","","","","","","","","","","","","","","","","","","","","","",""
"","","","","","canvas-keyboard-response","298","421854","0.0-12.0-1.57","2d_cat_multi_stim_exp1","2022-4-29","14:1:25","25","75","3","9","10","40","30","120","70","19","[""White""]","No","Male","2153862","null","null","","","","clear_screen","","","","","","","","","","","","","","","","","","","","","","","","","",""
"","","","","","canvas-keyboard-response","299","423230","0.0-12.0-2.57","2d_cat_multi_stim_exp1","2022-4-29","14:1:25","25","75","3","9","10","40","30","120","70","19","[""White""]","No","Male","2153862","1366","i","learn","","","learn_trial","26.6667","100","out","0","1","","","","","","","","","","","","","","","","","","","","",""
