"success","timeout","failed_images","failed_audio","failed_video","trial_type","trial_index","time_elapsed","internal_node_id","exp_name","date","time","angle_mean_in","radius_mean_in","angle_sd_in","radius_sd_in","angle_min_out","angle_max_out","radius_min_out","radius_max_out","sub_n","age","race","ethnicity","gender","exp_duration","rt","response","exp_trial_type","stimulus","view_history","screen_id","angle","radius","distribution","correct","choice","order","angle_a","radius_a","angle_b","radius_b","jkl_correct","transfer_trial_type","choice_set","abc_correct","tc_correct","tc_angle","tdc_a","tdc_b","tdc_c","pair","category_a","category_b","category_c","angle_c","radius_c","question_order"
"true","false","[]","[]","[]","preload","0","26","0.0-0.0","2d_cat_multi_stim_exp1","2022-4-25","12:21:26","25","75","3","9","10","40","30","120","56","20","[""Asian""]","No","Female","5277986","","","","","","","","","","","","","","","","","","","","","","","","","","","","","","","",""
"","","","","","survey-html-form","1","3255377","0.0-1.0","2d_cat_multi_stim_exp1","2022-4-25","12:21:26","25","75","3","9","10","40","30","120","56","20","[""Asian""]","No","Female","5277986","3255335","{""response"":""56""}","enter-sub-number","","","","","","","","","","","","","","","","","","","","","","","","","","","","",""
"true","","","","","fullscreen","2","3258785","0.0-2.0","2d_cat_multi_stim_exp1","2022-4-25","12:21:26","25","75","3","9","10","40","30","120","56","20","[""Asian""]","No","Female","5277986","","","","","","","","","","","","","","","","","","","","","","","","","","","","","","","",""
"","","","","","image-button-response","3","3318592","0.0-3.0","2d_cat_multi_stim_exp1","2022-4-25","12:21:26","25","75","3","9","10","40","30","120","56","20","[""Asian""]","No","Female","5277986","59799","0","","consent.png","","","","","","","","","","","","","","","","","","","","","","","","","","","",""
"","","","","","html-button-response","4","3331976","0.0-4.0","2d_cat_multi_stim_exp1","2022-4-25","12:21:26","25","75","3","9","10","40","30","120","56","20","[""Asian""]","No","Female","5277986","13380","0","","<div style= ""font-size:25px;"" <p> <strong> Welcome to the experiment! </strong><br> <p style=""color:#8B0000; font-size:25px;""><strong> Please do NOT exit full screen until you are done with the experiment. </strong> </p><p style=""font-size:25px;color:#8B0000;""> <strong> The experiment will be canceled and your data will be lost <br> if you try to go back or refresh the page at any point during the experiment.</strong> </p><br><p> <strong> Thanks in advance for your contribution to our research! </strong></p>","","","","","","","","","","","","","","","","","","","","","","","","","","","",""
"","","","","","instructions","5","3394631","0.0-5.0","2d_cat_multi_stim_exp1","2022-4-25","12:21:26","25","75","3","9","10","40","30","120","56","20","[""Asian""]","No","Female","5277986","62653","","","","[{""page_index"":0,""viewing_time"":5758},{""page_index"":1,""viewing_time"":3552},{""page_index"":2,""viewing_time"":18887},{""page_index"":3,""viewing_time"":34456}]","instructions_1","","","","","","","","","","","","","","","","","","","","","","","","","",""
"","","","","","instructions","6","3396775","0.0-6.0","2d_cat_multi_stim_exp1","2022-4-25","12:21:26","25","75","3","9","10","40","30","120","56","20","[""Asian""]","No","Female","5277986","2143","","","","[{""page_index"":0,""viewing_time"":2142}]","Click to see the kinds of turtles that will appear in the study.","","","","","","","","","","","","","","","","","","","","","","","","","",""
"","","","","","canvas-keyboard-response","7","3411795","0.0-7.0","2d_cat_multi_stim_exp1","2022-4-25","12:21:26","25","75","3","9","10","40","30","120","56","20","[""Asian""]","No","Female","5277986","null","null","","","","demo_range","","","","","","","","","","","","","","","","","","","","","","","","","",""
"","","","","","instructions","8","3415439","0.0-8.0","2d_cat_multi_stim_exp1","2022-4-25","12:21:26","25","75","3","9","10","40","30","120","56","20","[""Asian""]","No","Female","5277986","3143","","","","[{""page_index"":0,""viewing_time"":3143}]","Click to see some turtles in the subspecies.","","","","","","","","","","","","","","","","","","","","","","","","","",""
"","","","","","canvas-keyboard-response","9","3430459","0.0-9.0","2d_cat_multi_stim_exp1","2022-4-25","12:21:26","25","75","3","9","10","40","30","120","56","20","[""Asian""]","No","Female","5277986","null","null","","","","demo_in","","","","","","","","","","","","","","","","","","","","","","","","","",""
"","","","","","instructions","10","3483055","0.0-10.0","2d_cat_multi_stim_exp1","2022-4-25","12:21:26","25","75","3","9","10","40","30","120","56","20","[""Asian""]","No","Female","5277986","52095","","","","[{""page_index"":0,""viewing_time"":10527},{""page_index"":1,""viewing_time"":29760},{""page_index"":2,""viewing_time"":11808}]","instructions_2","","","","","","","","","","","","","","","","","","","","","","","","","",""
"","","","","","instructions","11","3485119","0.0-11.0","2d_cat_multi_stim_exp1","2022-4-25","12:21:26","25","75","3","9","10","40","30","120","56","20","[""Asian""]","No","Female","5277986","2061","","","","[{""page_index"":0,""viewing_time"":2060}]","Click to begin the first phase of the experiment.","","","","","","","","","","","","","","","","","","","","","","","","","",""
"","","","","","canvas-keyboard-response","12","3485629","0.0-12.0-0.0","2d_cat_multi_stim_exp1","2022-4-25","12:21:26","25","75","3","9","10","40","30","120","56","20","[""Asian""]","No","Female","5277986","null","null","","","","fixation","","","","","","","","","","","","","","","","","","","","","","","","","",""
"","","","","","canvas-keyboard-response","13","3486138","0.0-12.0-1.0","2d_cat_multi_stim_exp1","2022-4-25","12:21:26","25","75","3","9","10","40","30","120","56","20","[""Asian""]","No","Female","5277986","null","null","","","","clear_screen","","","","","","","","","","","","","","","","","","","","","","","","","",""
"","","","","","canvas-keyboard-response","14","3495735","0.0-12.0-2.0","2d_cat_multi_stim_exp1","2022-4-25","12:21:26","25","75","3","9","10","40","30","120","56","20","[""Asian""]","No","Female","5277986","9587","i","learn","","","learn_trial","27.2592","69.0786","in","0","0","","","","","","","","","","","","","","","","","","","","",""
"","","","","","canvas-keyboard-response","15","3496749","0.0-12.0-3.0","2d_cat_multi_stim_exp1","2022-4-25","12:21:26","25","75","3","9","10","40","30","120","56","20","[""Asian""]","No","Female","5277986","null","null","learn_feedback","","","learn_feedback","27.2592","69.0786","in","","","","","","","","","","","","","","","","","","","","","","",""
"","","","","","canvas-keyboard-response","16","3496808","0.0-12.0-4.0","2d_cat_multi_stim_exp1","2022-4-25","12:21:26","25","75","3","9","10","40","30","120","56","20","[""Asian""]","No","Female","5277986","null","null","","","","clear_screen","","","","","","","","","","","","","","","","","","","","","","","","","",""
"","","","","","canvas-keyboard-response","17","3497316","0.0-12.0-0.1","2d_cat_multi_stim_exp1","2022-4-25","12:21:26","25","75","3","9","10","40","30","120","56","20","[""Asian""]","No","Female","5277986","null","null","","","","fixation","","","","","","","","","","","","","","","","","","","","","","","","","",""
"","","","","","canvas-keyboard-response","18","3497824","0.0-12.0-1.1","2d_cat_multi_stim_exp1","2022-4-25","12:21:26","25","75","3","9","10","40","30","120","56","20","[""Asian""]","No","Female","5277986","null","null","","","","clear_screen","","","","","","","","","","","","","","","","","","","","","","","","","",""
"","","","","","canvas-keyboard-response","19","3501128","0.0-12.0-2.1","2d_cat_multi_stim_exp1","2022-4-25","12:21:26","25","75","3","9","10","40","30","120","56","20","[""Asian""]","No","Female","5277986","3295","u","learn","","","learn_trial","23.3333","50","out","0","1","","","","","","","","","","","","","","","","","","","","",""
"","","","","","canvas-keyboard-response","20","3502137","0.0-12.0-3.1","2d_cat_multi_stim_exp1","2022-4-25","12:21:26","25","75","3","9","10","40","30","120","56","20","[""Asian""]","No","Female","5277986","null","null","learn_feedback","","","learn_feedback","23.3333","50","out","","","","","","","","","","","","","","","","","","","","","","",""
"","","","","","canvas-keyboard-response","21","3502196","0.0-12.0-4.1","2d_cat_multi_stim_exp1","2022-4-25","12:21:26","25","75","3","9","10","40","30","120","56","20","[""Asian""]","No","Female","5277986","null","null","","","","clear_screen","","","","","","","","","","","","","","","","","","","","","","","","","",""
"","","","","","canvas-keyboard-response","22","3502705","0.0-12.0-0.2","2d_cat_multi_stim_exp1","2022-4-25","12:21:26","25","75","3","9","10","40","30","120","56","20","[""Asian""]","No","Female","5277986","null","null","","","","fixation","","","","","","","","","","","","","","","","","","","","","","","","","",""
"","","","","","canvas-keyboard-response","23","3503213","0.0-12.0-1.2","2d_cat_multi_stim_exp1","2022-4-25","12:21:26","25","75","3","9","10","40","30","120","56","20","[""Asian""]","No","Female","5277986","null","null","","","","clear_screen","","","","","","","","","","","","","","","","","","","","","","","","","",""
"","","","","","canvas-keyboard-response","24","3507551","0.0-12.0-2.2","2d_cat_multi_stim_exp1","2022-4-25","12:21:26","25","75","3","9","10","40","30","120","56","20","[""Asian""]","No","Female","5277986","4329","i","learn","","","learn_trial","30","120","out","1","0","","","","","","","","","","","","","","","","","","","","",""
"","","","","","canvas-keyboard-response","25","3508061","0.0-12.0-3.2","2d_cat_multi_stim_exp1","2022-4-25","12:21:26","25","75","3","9","10","40","30","120","56","20","[""Asian""]","No","Female","5277986","null","null","learn_feedback","","","learn_feedback","30","120","out","","","","","","","","","","","","","","","","","","","","","","",""
"","","","","","canvas-keyboard-response","26","3508119","0.0-12.0-4.2","2d_cat_multi_stim_exp1","2022-4-25","12:21:26","25","75","3","9","10","40","30","120","56","20","[""Asian""]","No","Female","5277986","null","null","","","","clear_screen","","","","","","","","","","","","","","","","","","","","","","","","","",""
"","","","","","canvas-keyboard-response","27","3508627","0.0-12.0-0.3","2d_cat_multi_stim_exp1","2022-4-25","12:21:26","25","75","3","9","10","40","30","120","56","20","[""Asian""]","No","Female","5277986","null","null","","","","fixation","","","","","","","","","","","","","","","","","","","","","","","","","",""
"","","","","","canvas-keyboard-response","28","3509136","0.0-12.0-1.3","2d_cat_multi_stim_exp1","2022-4-25","12:21:26","25","75","3","9","10","40","30","120","56","20","[""Asian""]","No","Female","5277986","null","null","","","","clear_screen","","","","","","","","","","","","","","","","","","","","","","","","","",""
"","","","","","canvas-keyboard-response","29","3511440","0.0-12.0-2.3","2d_cat_multi_stim_exp1","2022-4-25","12:21:26","25","75","3","9","10","40","30","120","56","20","[""Asian""]","No","Female","5277986","2295","u","learn","","","learn_trial","22.9268","81.5052","in","1","1","","","","","","","","","","","","","","","","","","","","",""
"","","","","","canvas-keyboard-response","30","3511951","0.0-12.0-3.3","2d_cat_multi_stim_exp1","2022-4-25","12:21:26","25","75","3","9","10","40","30","120","56","20","[""Asian""]","No","Female","5277986","null","null","learn_feedback","","","learn_feedback","22.9268","81.5052","in","","","","","","","","","","","","","","","","","","","","","","",""
"","","","","","canvas-keyboard-response","31","3512011","0.0-12.0-4.3","2d_cat_multi_stim_exp1","2022-4-25","12:21:26","25","75","3","9","10","40","30","120","56","20","[""Asian""]","No","Female","5277986","null","null","","","","clear_screen","","","","","","","","","","","","","","","","","","","","","","","","","",""
"","","","","","canvas-keyboard-response","32","3512520","0.0-12.0-0.4","2d_cat_multi_stim_exp1","2022-4-25","12:21:26","25","75","3","9","10","40","30","120","56","20","[""Asian""]","No","Female","5277986","null","null","","","","fixation","","","","","","","","","","","","","","","","","","","","","","","","","",""
"","","","","","canvas-keyboard-response","33","3513029","0.0-12.0-1.4","2d_cat_multi_stim_exp1","2022-4-25","12:21:26","25","75","3","9","10","40","30","120","56","20","[""Asian""]","No","Female","5277986","null","null","","","","clear_screen","","","","","","","","","","","","","","","","","","","","","","","","","",""
"","","","","","canvas-keyboard-response","34","3517111","0.0-12.0-2.4","2d_cat_multi_stim_exp1","2022-4-25","12:21:26","25","75","3","9","10","40","30","120","56","20","[""Asian""]","No","Female","5277986","4073","i","learn","","","learn_trial","36.6667","110","out","1","0","","","","","","","","","","","","","","","","","","","","",""
"","","","","","canvas-keyboard-response","35","3517621","0.0-12.0-3.4","2d_cat_multi_stim_exp1","2022-4-25","12:21:26","25","75","3","9","10","40","30","120","56","20","[""Asian""]","No","Female","5277986","null","null","learn_feedback","","","learn_feedback","36.6667","110","out","","","","","","","","","","","","","","","","","","","","","","",""
"","","","","","canvas-keyboard-response","36","3517680","0.0-12.0-4.4","2d_cat_multi_stim_exp1","2022-4-25","12:21:26","25","75","3","9","10","40","30","120","56","20","[""Asian""]","No","Female","5277986","null","null","","","","clear_screen","","","","","","","","","","","","","","","","","","","","","","","","","",""
"","","","","","canvas-keyboard-response","37","3518188","0.0-12.0-0.5","2d_cat_multi_stim_exp1","2022-4-25","12:21:26","25","75","3","9","10","40","30","120","56","20","[""Asian""]","No","Female","5277986","null","null","","","","fixation","","","","","","","","","","","","","","","","","","","","","","","","","",""
"","","","","","canvas-keyboard-response","38","3518697","0.0-12.0-1.5","2d_cat_multi_stim_exp1","2022-4-25","12:21:26","25","75","3","9","10","40","30","120","56","20","[""Asian""]","No","Female","5277986","null","null","","","","clear_screen","","","","","","","","","","","","","","","","","","","","","","","","","",""
"","","","","","canvas-keyboard-response","39","3520737","0.0-12.0-2.5","2d_cat_multi_stim_exp1","2022-4-25","12:21:26","25","75","3","9","10","40","30","120","56","20","[""Asian""]","No","Female","5277986","2029","u","learn","","","learn_trial","22.0121","74.1932","in","1","1","","","","","","","","","","","","","","","","","","","","",""
"","","","","","canvas-keyboard-response","40","3521246","0.0-12.0-3.5","2d_cat_multi_stim_exp1","2022-4-25","12:21:26","25","75","3","9","10","40","30","120","56","20","[""Asian""]","No","Female","5277986","null","null","learn_feedback","","","learn_feedback","22.0121","74.1932","in","","","","","","","","","","","","","","","","","","","","","","",""
"","","","","","canvas-keyboard-response","41","3521305","0.0-12.0-4.5","2d_cat_multi_stim_exp1","2022-4-25","12:21:26","25","75","3","9","10","40","30","120","56","20","[""Asian""]","No","Female","5277986","null","null","","","","clear_screen","","","","","","","","","","","","","","","","","","","","","","","","","",""
"","","","","","canvas-keyboard-response","42","3521814","0.0-12.0-0.6","2d_cat_multi_stim_exp1","2022-4-25","12:21:26","25","75","3","9","10","40","30","120","56","20","[""Asian""]","No","Female","5277986","null","null","","","","fixation","","","","","","","","","","","","","","","","","","","","","","","","","",""
"","","","","","canvas-keyboard-response","43","3522322","0.0-12.0-1.6","2d_cat_multi_stim_exp1","2022-4-25","12:21:26","25","75","3","9","10","40","30","120","56","20","[""Asian""]","No","Female","5277986","null","null","","","","clear_screen","","","","","","","","","","","","","","","","","","","","","","","","","",""
"","","","","","canvas-keyboard-response","44","3526543","0.0-12.0-2.6","2d_cat_multi_stim_exp1","2022-4-25","12:21:26","25","75","3","9","10","40","30","120","56","20","[""Asian""]","No","Female","5277986","4207","u","learn","","","learn_trial","27.9518","73.393","in","1","1","","","","","","","","","","","","","","","","","","","","",""
"","","","","","canvas-keyboard-response","45","3527052","0.0-12.0-3.6","2d_cat_multi_stim_exp1","2022-4-25","12:21:26","25","75","3","9","10","40","30","120","56","20","[""Asian""]","No","Female","5277986","null","null","learn_feedback","","","learn_feedback","27.9518","73.393","in","","","","","","","","","","","","","","","","","","","","","","",""
"","","","","","canvas-keyboard-response","46","3527111","0.0-12.0-4.6","2d_cat_multi_stim_exp1","2022-4-25","12:21:26","25","75","3","9","10","40","30","120","56","20","[""Asian""]","No","Female","5277986","null","null","","","","clear_screen","","","","","","","","","","","","","","","","","","","","","","","","","",""
"","","","","","canvas-keyboard-response","47","3527618","0.0-12.0-0.7","2d_cat_multi_stim_exp1","2022-4-25","12:21:26","25","75","3","9","10","40","30","120","56","20","[""Asian""]","No","Female","5277986","null","null","","","","fixation","","","","","","","","","","","","","","","","","","","","","","","","","",""
"","","","","","canvas-keyboard-response","48","3528127","0.0-12.0-1.7","2d_cat_multi_stim_exp1","2022-4-25","12:21:26","25","75","3","9","10","40","30","120","56","20","[""Asian""]","No","Female","5277986","null","null","","","","clear_screen","","","","","","","","","","","","","","","","","","","","","","","","","",""
"","","","","","canvas-keyboard-response","49","3530535","0.0-12.0-2.7","2d_cat_multi_stim_exp1","2022-4-25","12:21:26","25","75","3","9","10","40","30","120","56","20","[""Asian""]","No","Female","5277986","2399","u","learn","","","learn_trial","25","75","in","1","1","","","","","","","","","","","","","","","","","","","","",""
"","","","","","canvas-keyboard-response","50","3531045","0.0-12.0-3.7","2d_cat_multi_stim_exp1","2022-4-25","12:21:26","25","75","3","9","10","40","30","120","56","20","[""Asian""]","No","Female","5277986","null","null","learn_feedback","","","learn_feedback","25","75","in","","","","","","","","","","","","","","","","","","","","","","",""
"","","","","","canvas-keyboard-response","51","3531102","0.0-12.0-4.7","2d_cat_multi_stim_exp1","2022-4-25","12:21:26","25","75","3","9","10","40","30","120","56","20","[""Asian""]","No","Female","5277986","null","null","","","","clear_screen","","","","","","","","","","","","","","","","","","","","","","","","","",""
"","","","","","canvas-keyboard-response","52","3531611","0.0-12.0-0.8","2d_cat_multi_stim_exp1","2022-4-25","12:21:26","25","75","3","9","10","40","30","120","56","20","[""Asian""]","No","Female","5277986","null","null","","","","fixation","","","","","","","","","","","","","","","","","","","","","","","","","",""
"","","","","","canvas-keyboard-response","53","3532120","0.0-12.0-1.8","2d_cat_multi_stim_exp1","2022-4-25","12:21:26","25","75","3","9","10","40","30","120","56","20","[""Asian""]","No","Female","5277986","null","null","","","","clear_screen","","","","","","","","","","","","","","","","","","","","","","","","","",""
"","","","","","canvas-keyboard-response","54","3536616","0.0-12.0-2.8","2d_cat_multi_stim_exp1","2022-4-25","12:21:26","25","75","3","9","10","40","30","120","56","20","[""Asian""]","No","Female","5277986","4488","i","learn","","","learn_trial","20","80","out","1","0","","","","","","","","","","","","","","","","","","","","",""
"","","","","","canvas-keyboard-response","55","3537125","0.0-12.0-3.8","2d_cat_multi_stim_exp1","2022-4-25","12:21:26","25","75","3","9","10","40","30","120","56","20","[""Asian""]","No","Female","5277986","null","null","learn_feedback","","","learn_feedback","20","80","out","","","","","","","","","","","","","","","","","","","","","","",""
"","","","","","canvas-keyboard-response","56","3537183","0.0-12.0-4.8","2d_cat_multi_stim_exp1","2022-4-25","12:21:26","25","75","3","9","10","40","30","120","56","20","[""Asian""]","No","Female","5277986","null","null","","","","clear_screen","","","","","","","","","","","","","","","","","","","","","","","","","",""
"","","","","","canvas-keyboard-response","57","3537694","0.0-12.0-0.9","2d_cat_multi_stim_exp1","2022-4-25","12:21:26","25","75","3","9","10","40","30","120","56","20","[""Asian""]","No","Female","5277986","null","null","","","","fixation","","","","","","","","","","","","","","","","","","","","","","","","","",""
"","","","","","canvas-keyboard-response","58","3538205","0.0-12.0-1.9","2d_cat_multi_stim_exp1","2022-4-25","12:21:26","25","75","3","9","10","40","30","120","56","20","[""Asian""]","No","Female","5277986","null","null","","","","clear_screen","","","","","","","","","","","","","","","","","","","","","","","","","",""
"","","","","","canvas-keyboard-response","59","3541760","0.0-12.0-2.9","2d_cat_multi_stim_exp1","2022-4-25","12:21:26","25","75","3","9","10","40","30","120","56","20","[""Asian""]","No","Female","5277986","3546","i","learn","","","learn_trial","25","75","in","0","0","","","","","","","","","","","","","","","","","","","","",""
"","","","","","canvas-keyboard-response","60","3542769","0.0-12.0-3.9","2d_cat_multi_stim_exp1","2022-4-25","12:21:26","25","75","3","9","10","40","30","120","56","20","[""Asian""]","No","Female","5277986","null","null","learn_feedback","","","learn_feedback","25","75","in","","","","","","","","","","","","","","","","","","","","","","",""
"","","","","","canvas-keyboard-response","61","3542828","0.0-12.0-4.9","2d_cat_multi_stim_exp1","2022-4-25","12:21:26","25","75","3","9","10","40","30","120","56","20","[""Asian""]","No","Female","5277986","null","null","","","","clear_screen","","","","","","","","","","","","","","","","","","","","","","","","","",""
"","","","","","canvas-keyboard-response","62","3543336","0.0-12.0-0.10","2d_cat_multi_stim_exp1","2022-4-25","12:21:26","25","75","3","9","10","40","30","120","56","20","[""Asian""]","No","Female","5277986","null","null","","","","fixation","","","","","","","","","","","","","","","","","","","","","","","","","",""
"","","","","","canvas-keyboard-response","63","3543845","0.0-12.0-1.10","2d_cat_multi_stim_exp1","2022-4-25","12:21:26","25","75","3","9","10","40","30","120","56","20","[""Asian""]","No","Female","5277986","null","null","","","","clear_screen","","","","","","","","","","","","","","","","","","","","","","","","","",""
"","","","","","canvas-keyboard-response","64","3548335","0.0-12.0-2.10","2d_cat_multi_stim_exp1","2022-4-25","12:21:26","25","75","3","9","10","40","30","120","56","20","[""Asian""]","No","Female","5277986","4482","u","learn","","","learn_trial","25","75","in","1","1","","","","","","","","","","","","","","","","","","","","",""
"","","","","","canvas-keyboard-response","65","3548846","0.0-12.0-3.10","2d_cat_multi_stim_exp1","2022-4-25","12:21:26","25","75","3","9","10","40","30","120","56","20","[""Asian""]","No","Female","5277986","null","null","learn_feedback","","","learn_feedback","25","75","in","","","","","","","","","","","","","","","","","","","","","","",""
"","","","","","canvas-keyboard-response","66","3548905","0.0-12.0-4.10","2d_cat_multi_stim_exp1","2022-4-25","12:21:26","25","75","3","9","10","40","30","120","56","20","[""Asian""]","No","Female","5277986","null","null","","","","clear_screen","","","","","","","","","","","","","","","","","","","","","","","","","",""
"","","","","","canvas-keyboard-response","67","3549412","0.0-12.0-0.11","2d_cat_multi_stim_exp1","2022-4-25","12:21:26","25","75","3","9","10","40","30","120","56","20","[""Asian""]","No","Female","5277986","null","null","","","","fixation","","","","","","","","","","","","","","","","","","","","","","","","","",""
"","","","","","canvas-keyboard-response","68","3549920","0.0-12.0-1.11","2d_cat_multi_stim_exp1","2022-4-25","12:21:26","25","75","3","9","10","40","30","120","56","20","[""Asian""]","No","Female","5277986","null","null","","","","clear_screen","","","","","","","","","","","","","","","","","","","","","","","","","",""
"","","","","","canvas-keyboard-response","69","3555455","0.0-12.0-2.11","2d_cat_multi_stim_exp1","2022-4-25","12:21:26","25","75","3","9","10","40","30","120","56","20","[""Asian""]","No","Female","5277986","5525","u","learn","","","learn_trial","25","75","in","1","1","","","","","","","","","","","","","","","","","","","","",""
"","","","","","canvas-keyboard-response","70","3555964","0.0-12.0-3.11","2d_cat_multi_stim_exp1","2022-4-25","12:21:26","25","75","3","9","10","40","30","120","56","20","[""Asian""]","No","Female","5277986","null","null","learn_feedback","","","learn_feedback","25","75","in","","","","","","","","","","","","","","","","","","","","","","",""
"","","","","","canvas-keyboard-response","71","3556025","0.0-12.0-4.11","2d_cat_multi_stim_exp1","2022-4-25","12:21:26","25","75","3","9","10","40","30","120","56","20","[""Asian""]","No","Female","5277986","null","null","","","","clear_screen","","","","","","","","","","","","","","","","","","","","","","","","","",""
"","","","","","canvas-keyboard-response","72","3556535","0.0-12.0-0.12","2d_cat_multi_stim_exp1","2022-4-25","12:21:26","25","75","3","9","10","40","30","120","56","20","[""Asian""]","No","Female","5277986","null","null","","","","fixation","","","","","","","","","","","","","","","","","","","","","","","","","",""
"","","","","","canvas-keyboard-response","73","3557045","0.0-12.0-1.12","2d_cat_multi_stim_exp1","2022-4-25","12:21:26","25","75","3","9","10","40","30","120","56","20","[""Asian""]","No","Female","5277986","null","null","","","","clear_screen","","","","","","","","","","","","","","","","","","","","","","","","","",""
"","","","","","canvas-keyboard-response","74","3558263","0.0-12.0-2.12","2d_cat_multi_stim_exp1","2022-4-25","12:21:26","25","75","3","9","10","40","30","120","56","20","[""Asian""]","No","Female","5277986","1208","u","learn","","","learn_trial","40","100","out","0","1","","","","","","","","","","","","","","","","","","","","",""
"","","","","","canvas-keyboard-response","75","3559272","0.0-12.0-3.12","2d_cat_multi_stim_exp1","2022-4-25","12:21:26","25","75","3","9","10","40","30","120","56","20","[""Asian""]","No","Female","5277986","null","null","learn_feedback","","","learn_feedback","40","100","out","","","","","","","","","","","","","","","","","","","","","","",""
"","","","","","canvas-keyboard-response","76","3559332","0.0-12.0-4.12","2d_cat_multi_stim_exp1","2022-4-25","12:21:26","25","75","3","9","10","40","30","120","56","20","[""Asian""]","No","Female","5277986","null","null","","","","clear_screen","","","","","","","","","","","","","","","","","","","","","","","","","",""
"","","","","","canvas-keyboard-response","77","3559845","0.0-12.0-0.13","2d_cat_multi_stim_exp1","2022-4-25","12:21:26","25","75","3","9","10","40","30","120","56","20","[""Asian""]","No","Female","5277986","null","null","","","","fixation","","","","","","","","","","","","","","","","","","","","","","","","","",""
"","","","","","canvas-keyboard-response","78","3560354","0.0-12.0-1.13","2d_cat_multi_stim_exp1","2022-4-25","12:21:26","25","75","3","9","10","40","30","120","56","20","[""Asian""]","No","Female","5277986","null","null","","","","clear_screen","","","","","","","","","","","","","","","","","","","","","","","","","",""
"","","","","","canvas-keyboard-response","79","3562160","0.0-12.0-2.13","2d_cat_multi_stim_exp1","2022-4-25","12:21:26","25","75","3","9","10","40","30","120","56","20","[""Asian""]","No","Female","5277986","1795","i","learn","","","learn_trial","13.3333","100","out","1","0","","","","","","","","","","","","","","","","","","","","",""
"","","","","","canvas-keyboard-response","80","3562670","0.0-12.0-3.13","2d_cat_multi_stim_exp1","2022-4-25","12:21:26","25","75","3","9","10","40","30","120","56","20","[""Asian""]","No","Female","5277986","null","null","learn_feedback","","","learn_feedback","13.3333","100","out","","","","","","","","","","","","","","","","","","","","","","",""
"","","","","","canvas-keyboard-response","81","3562729","0.0-12.0-4.13","2d_cat_multi_stim_exp1","2022-4-25","12:21:26","25","75","3","9","10","40","30","120","56","20","[""Asian""]","No","Female","5277986","null","null","","","","clear_screen","","","","","","","","","","","","","","","","","","","","","","","","","",""
"","","","","","canvas-keyboard-response","82","3563237","0.0-12.0-0.14","2d_cat_multi_stim_exp1","2022-4-25","12:21:26","25","75","3","9","10","40","30","120","56","20","[""Asian""]","No","Female","5277986","null","null","","","","fixation","","","","","","","","","","","","","","","","","","","","","","","","","",""
"","","","","","canvas-keyboard-response","83","3563745","0.0-12.0-1.14","2d_cat_multi_stim_exp1","2022-4-25","12:21:26","25","75","3","9","10","40","30","120","56","20","[""Asian""]","No","Female","5277986","null","null","","","","clear_screen","","","","","","","","","","","","","","","","","","","","","","","","","",""
"","","","","","canvas-keyboard-response","84","3565967","0.0-12.0-2.14","2d_cat_multi_stim_exp1","2022-4-25","12:21:26","25","75","3","9","10","40","30","120","56","20","[""Asian""]","No","Female","5277986","2213","u","learn","","","learn_trial","25","75","in","1","1","","","","","","","","","","","","","","","","","","","","",""
"","","","","","canvas-keyboard-response","85","3566477","0.0-12.0-3.14","2d_cat_multi_stim_exp1","2022-4-25","12:21:26","25","75","3","9","10","40","30","120","56","20","[""Asian""]","No","Female","5277986","null","null","learn_feedback","","","learn_feedback","25","75","in","","","","","","","","","","","","","","","","","","","","","","",""
"","","","","","canvas-keyboard-response","86","3566535","0.0-12.0-4.14","2d_cat_multi_stim_exp1","2022-4-25","12:21:26","25","75","3","9","10","40","30","120","56","20","[""Asian""]","No","Female","5277986","null","null","","","","clear_screen","","","","","","","","","","","","","","","","","","","","","","","","","",""
"","","","","","canvas-keyboard-response","87","3567042","0.0-12.0-0.15","2d_cat_multi_stim_exp1","2022-4-25","12:21:26","25","75","3","9","10","40","30","120","56","20","[""Asian""]","No","Female","5277986","null","null","","","","fixation","","","","","","","","","","","","","","","","","","","","","","","","","",""
"","","","","","canvas-keyboard-response","88","3567551","0.0-12.0-1.15","2d_cat_multi_stim_exp1","2022-4-25","12:21:26","25","75","3","9","10","40","30","120","56","20","[""Asian""]","No","Female","5277986","null","null","","","","clear_screen","","","","","","","","","","","","","","","","","","","","","","","","","",""
"","","","","","canvas-keyboard-response","89","3569711","0.0-12.0-2.15","2d_cat_multi_stim_exp1","2022-4-25","12:21:26","25","75","3","9","10","40","30","120","56","20","[""Asian""]","No","Female","5277986","2152","u","learn","","","learn_trial","25","75","in","1","1","","","","","","","","","","","","","","","","","","","","",""
"","","","","","canvas-keyboard-response","90","3570220","0.0-12.0-3.15","2d_cat_multi_stim_exp1","2022-4-25","12:21:26","25","75","3","9","10","40","30","120","56","20","[""Asian""]","No","Female","5277986","null","null","learn_feedback","","","learn_feedback","25","75","in","","","","","","","","","","","","","","","","","","","","","","",""
"","","","","","canvas-keyboard-response","91","3570278","0.0-12.0-4.15","2d_cat_multi_stim_exp1","2022-4-25","12:21:26","25","75","3","9","10","40","30","120","56","20","[""Asian""]","No","Female","5277986","null","null","","","","clear_screen","","","","","","","","","","","","","","","","","","","","","","","","","",""
"","","","","","canvas-keyboard-response","92","3570786","0.0-12.0-0.16","2d_cat_multi_stim_exp1","2022-4-25","12:21:26","25","75","3","9","10","40","30","120","56","20","[""Asian""]","No","Female","5277986","null","null","","","","fixation","","","","","","","","","","","","","","","","","","","","","","","","","",""
"","","","","","canvas-keyboard-response","93","3571294","0.0-12.0-1.16","2d_cat_multi_stim_exp1","2022-4-25","12:21:26","25","75","3","9","10","40","30","120","56","20","[""Asian""]","No","Female","5277986","null","null","","","","clear_screen","","","","","","","","","","","","","","","","","","","","","","","","","",""
"","","","","","canvas-keyboard-response","94","3572704","0.0-12.0-2.16","2d_cat_multi_stim_exp1","2022-4-25","12:21:26","25","75","3","9","10","40","30","120","56","20","[""Asian""]","No","Female","5277986","1400","i","learn","","","learn_trial","40","70","out","1","0","","","","","","","","","","","","","","","","","","","","",""
"","","","","","canvas-keyboard-response","95","3573212","0.0-12.0-3.16","2d_cat_multi_stim_exp1","2022-4-25","12:21:26","25","75","3","9","10","40","30","120","56","20","[""Asian""]","No","Female","5277986","null","null","learn_feedback","","","learn_feedback","40","70","out","","","","","","","","","","","","","","","","","","","","","","",""
"","","","","","canvas-keyboard-response","96","3573270","0.0-12.0-4.16","2d_cat_multi_stim_exp1","2022-4-25","12:21:26","25","75","3","9","10","40","30","120","56","20","[""Asian""]","No","Female","5277986","null","null","","","","clear_screen","","","","","","","","","","","","","","","","","","","","","","","","","",""
"","","","","","canvas-keyboard-response","97","3573778","0.0-12.0-0.17","2d_cat_multi_stim_exp1","2022-4-25","12:21:26","25","75","3","9","10","40","30","120","56","20","[""Asian""]","No","Female","5277986","null","null","","","","fixation","","","","","","","","","","","","","","","","","","","","","","","","","",""
"","","","","","canvas-keyboard-response","98","3574286","0.0-12.0-1.17","2d_cat_multi_stim_exp1","2022-4-25","12:21:26","25","75","3","9","10","40","30","120","56","20","[""Asian""]","No","Female","5277986","null","null","","","","clear_screen","","","","","","","","","","","","","","","","","","","","","","","","","",""
"","","","","","canvas-keyboard-response","99","3575351","0.0-12.0-2.17","2d_cat_multi_stim_exp1","2022-4-25","12:21:26","25","75","3","9","10","40","30","120","56","20","[""Asian""]","No","Female","5277986","1055","u","learn","","","learn_trial","25","75","in","1","1","","","","","","","","","","","","","","","","","","","","",""
"","","","","","canvas-keyboard-response","100","3575860","0.0-12.0-3.17","2d_cat_multi_stim_exp1","2022-4-25","12:21:26","25","75","3","9","10","40","30","120","56","20","[""Asian""]","No","Female","5277986","null","null","learn_feedback","","","learn_feedback","25","75","in","","","","","","","","","","","","","","","","","","","","","","",""
"","","","","","canvas-keyboard-response","101","3575918","0.0-12.0-4.17","2d_cat_multi_stim_exp1","2022-4-25","12:21:26","25","75","3","9","10","40","30","120","56","20","[""Asian""]","No","Female","5277986","null","null","","","","clear_screen","","","","","","","","","","","","","","","","","","","","","","","","","",""
"","","","","","canvas-keyboard-response","102","3576427","0.0-12.0-0.18","2d_cat_multi_stim_exp1","2022-4-25","12:21:26","25","75","3","9","10","40","30","120","56","20","[""Asian""]","No","Female","5277986","null","null","","","","fixation","","","","","","","","","","","","","","","","","","","","","","","","","",""
"","","","","","canvas-keyboard-response","103","3576935","0.0-12.0-1.18","2d_cat_multi_stim_exp1","2022-4-25","12:21:26","25","75","3","9","10","40","30","120","56","20","[""Asian""]","No","Female","5277986","null","null","","","","clear_screen","","","","","","","","","","","","","","","","","","","","","","","","","",""
"","","","","","canvas-keyboard-response","104","3578199","0.0-12.0-2.18","2d_cat_multi_stim_exp1","2022-4-25","12:21:26","25","75","3","9","10","40","30","120","56","20","[""Asian""]","No","Female","5277986","1255","i","learn","","","learn_trial","33.3333","90","out","1","0","","","","","","","","","","","","","","","","","","","","",""
"","","","","","canvas-keyboard-response","105","3578708","0.0-12.0-3.18","2d_cat_multi_stim_exp1","2022-4-25","12:21:26","25","75","3","9","10","40","30","120","56","20","[""Asian""]","No","Female","5277986","null","null","learn_feedback","","","learn_feedback","33.3333","90","out","","","","","","","","","","","","","","","","","","","","","","",""
"","","","","","canvas-keyboard-response","106","3578767","0.0-12.0-4.18","2d_cat_multi_stim_exp1","2022-4-25","12:21:26","25","75","3","9","10","40","30","120","56","20","[""Asian""]","No","Female","5277986","null","null","","","","clear_screen","","","","","","","","","","","","","","","","","","","","","","","","","",""
"","","","","","canvas-keyboard-response","107","3579275","0.0-12.0-0.19","2d_cat_multi_stim_exp1","2022-4-25","12:21:26","25","75","3","9","10","40","30","120","56","20","[""Asian""]","No","Female","5277986","null","null","","","","fixation","","","","","","","","","","","","","","","","","","","","","","","","","",""
"","","","","","canvas-keyboard-response","108","3579787","0.0-12.0-1.19","2d_cat_multi_stim_exp1","2022-4-25","12:21:26","25","75","3","9","10","40","30","120","56","20","[""Asian""]","No","Female","5277986","null","null","","","","clear_screen","","","","","","","","","","","","","","","","","","","","","","","","","",""
"","","","","","canvas-keyboard-response","109","3580862","0.0-12.0-2.19","2d_cat_multi_stim_exp1","2022-4-25","12:21:26","25","75","3","9","10","40","30","120","56","20","[""Asian""]","No","Female","5277986","1068","u","learn","","","learn_trial","25","75","in","1","1","","","","","","","","","","","","","","","","","","","","",""
"","","","","","canvas-keyboard-response","110","3581372","0.0-12.0-3.19","2d_cat_multi_stim_exp1","2022-4-25","12:21:26","25","75","3","9","10","40","30","120","56","20","[""Asian""]","No","Female","5277986","null","null","learn_feedback","","","learn_feedback","25","75","in","","","","","","","","","","","","","","","","","","","","","","",""
"","","","","","canvas-keyboard-response","111","3581430","0.0-12.0-4.19","2d_cat_multi_stim_exp1","2022-4-25","12:21:26","25","75","3","9","10","40","30","120","56","20","[""Asian""]","No","Female","5277986","null","null","","","","clear_screen","","","","","","","","","","","","","","","","","","","","","","","","","",""
"","","","","","canvas-keyboard-response","112","3581937","0.0-12.0-0.20","2d_cat_multi_stim_exp1","2022-4-25","12:21:26","25","75","3","9","10","40","30","120","56","20","[""Asian""]","No","Female","5277986","null","null","","","","fixation","","","","","","","","","","","","","","","","","","","","","","","","","",""
"","","","","","canvas-keyboard-response","113","3582447","0.0-12.0-1.20","2d_cat_multi_stim_exp1","2022-4-25","12:21:26","25","75","3","9","10","40","30","120","56","20","[""Asian""]","No","Female","5277986","null","null","","","","clear_screen","","","","","","","","","","","","","","","","","","","","","","","","","",""
"","","","","","canvas-keyboard-response","114","3583806","0.0-12.0-2.20","2d_cat_multi_stim_exp1","2022-4-25","12:21:26","25","75","3","9","10","40","30","120","56","20","[""Asian""]","No","Female","5277986","1351","u","learn","","","learn_trial","16.6667","60","out","0","1","","","","","","","","","","","","","","","","","","","","",""
"","","","","","canvas-keyboard-response","115","3584816","0.0-12.0-3.20","2d_cat_multi_stim_exp1","2022-4-25","12:21:26","25","75","3","9","10","40","30","120","56","20","[""Asian""]","No","Female","5277986","null","null","learn_feedback","","","learn_feedback","16.6667","60","out","","","","","","","","","","","","","","","","","","","","","","",""
"","","","","","canvas-keyboard-response","116","3584873","0.0-12.0-4.20","2d_cat_multi_stim_exp1","2022-4-25","12:21:26","25","75","3","9","10","40","30","120","56","20","[""Asian""]","No","Female","5277986","null","null","","","","clear_screen","","","","","","","","","","","","","","","","","","","","","","","","","",""
"","","","","","canvas-keyboard-response","117","3585381","0.0-12.0-0.21","2d_cat_multi_stim_exp1","2022-4-25","12:21:26","25","75","3","9","10","40","30","120","56","20","[""Asian""]","No","Female","5277986","null","null","","","","fixation","","","","","","","","","","","","","","","","","","","","","","","","","",""
"","","","","","canvas-keyboard-response","118","3585891","0.0-12.0-1.21","2d_cat_multi_stim_exp1","2022-4-25","12:21:26","25","75","3","9","10","40","30","120","56","20","[""Asian""]","No","Female","5277986","null","null","","","","clear_screen","","","","","","","","","","","","","","","","","","","","","","","","","",""
"","","","","","canvas-keyboard-response","119","3587983","0.0-12.0-2.21","2d_cat_multi_stim_exp1","2022-4-25","12:21:26","25","75","3","9","10","40","30","120","56","20","[""Asian""]","No","Female","5277986","2084","u","learn","","","learn_trial","40","80","out","0","1","","","","","","","","","","","","","","","","","","","","",""
"","","","","","canvas-keyboard-response","120","3588992","0.0-12.0-3.21","2d_cat_multi_stim_exp1","2022-4-25","12:21:26","25","75","3","9","10","40","30","120","56","20","[""Asian""]","No","Female","5277986","null","null","learn_feedback","","","learn_feedback","40","80","out","","","","","","","","","","","","","","","","","","","","","","",""
"","","","","","canvas-keyboard-response","121","3589050","0.0-12.0-4.21","2d_cat_multi_stim_exp1","2022-4-25","12:21:26","25","75","3","9","10","40","30","120","56","20","[""Asian""]","No","Female","5277986","null","null","","","","clear_screen","","","","","","","","","","","","","","","","","","","","","","","","","",""
"","","","","","canvas-keyboard-response","122","3589558","0.0-12.0-0.22","2d_cat_multi_stim_exp1","2022-4-25","12:21:26","25","75","3","9","10","40","30","120","56","20","[""Asian""]","No","Female","5277986","null","null","","","","fixation","","","","","","","","","","","","","","","","","","","","","","","","","",""
"","","","","","canvas-keyboard-response","123","3590066","0.0-12.0-1.22","2d_cat_multi_stim_exp1","2022-4-25","12:21:26","25","75","3","9","10","40","30","120","56","20","[""Asian""]","No","Female","5277986","null","null","","","","clear_screen","","","","","","","","","","","","","","","","","","","","","","","","","",""
"","","","","","canvas-keyboard-response","124","3592111","0.0-12.0-2.22","2d_cat_multi_stim_exp1","2022-4-25","12:21:26","25","75","3","9","10","40","30","120","56","20","[""Asian""]","No","Female","5277986","2034","i","learn","","","learn_trial","26.6667","30","out","1","0","","","","","","","","","","","","","","","","","","","","",""
"","","","","","canvas-keyboard-response","125","3592620","0.0-12.0-3.22","2d_cat_multi_stim_exp1","2022-4-25","12:21:26","25","75","3","9","10","40","30","120","56","20","[""Asian""]","No","Female","5277986","null","null","learn_feedback","","","learn_feedback","26.6667","30","out","","","","","","","","","","","","","","","","","","","","","","",""
"","","","","","canvas-keyboard-response","126","3592679","0.0-12.0-4.22","2d_cat_multi_stim_exp1","2022-4-25","12:21:26","25","75","3","9","10","40","30","120","56","20","[""Asian""]","No","Female","5277986","null","null","","","","clear_screen","","","","","","","","","","","","","","","","","","","","","","","","","",""
"","","","","","canvas-keyboard-response","127","3593187","0.0-12.0-0.23","2d_cat_multi_stim_exp1","2022-4-25","12:21:26","25","75","3","9","10","40","30","120","56","20","[""Asian""]","No","Female","5277986","null","null","","","","fixation","","","","","","","","","","","","","","","","","","","","","","","","","",""
"","","","","","canvas-keyboard-response","128","3593695","0.0-12.0-1.23","2d_cat_multi_stim_exp1","2022-4-25","12:21:26","25","75","3","9","10","40","30","120","56","20","[""Asian""]","No","Female","5277986","null","null","","","","clear_screen","","","","","","","","","","","","","","","","","","","","","","","","","",""
"","","","","","canvas-keyboard-response","129","3596463","0.0-12.0-2.23","2d_cat_multi_stim_exp1","2022-4-25","12:21:26","25","75","3","9","10","40","30","120","56","20","[""Asian""]","No","Female","5277986","2759","u","learn","","","learn_trial","20","100","out","0","1","","","","","","","","","","","","","","","","","","","","",""
"","","","","","canvas-keyboard-response","130","3597471","0.0-12.0-3.23","2d_cat_multi_stim_exp1","2022-4-25","12:21:26","25","75","3","9","10","40","30","120","56","20","[""Asian""]","No","Female","5277986","null","null","learn_feedback","","","learn_feedback","20","100","out","","","","","","","","","","","","","","","","","","","","","","",""
"","","","","","canvas-keyboard-response","131","3597530","0.0-12.0-4.23","2d_cat_multi_stim_exp1","2022-4-25","12:21:26","25","75","3","9","10","40","30","120","56","20","[""Asian""]","No","Female","5277986","null","null","","","","clear_screen","","","","","","","","","","","","","","","","","","","","","","","","","",""
"","","","","","canvas-keyboard-response","132","3598038","0.0-12.0-0.24","2d_cat_multi_stim_exp1","2022-4-25","12:21:26","25","75","3","9","10","40","30","120","56","20","[""Asian""]","No","Female","5277986","null","null","","","","fixation","","","","","","","","","","","","","","","","","","","","","","","","","",""
"","","","","","canvas-keyboard-response","133","3598548","0.0-12.0-1.24","2d_cat_multi_stim_exp1","2022-4-25","12:21:26","25","75","3","9","10","40","30","120","56","20","[""Asian""]","No","Female","5277986","null","null","","","","clear_screen","","","","","","","","","","","","","","","","","","","","","","","","","",""
"","","","","","canvas-keyboard-response","134","3600622","0.0-12.0-2.24","2d_cat_multi_stim_exp1","2022-4-25","12:21:26","25","75","3","9","10","40","30","120","56","20","[""Asian""]","No","Female","5277986","2066","u","learn","","","learn_trial","25.9271","83.5595","in","1","1","","","","","","","","","","","","","","","","","","","","",""
"","","","","","canvas-keyboard-response","135","3601132","0.0-12.0-3.24","2d_cat_multi_stim_exp1","2022-4-25","12:21:26","25","75","3","9","10","40","30","120","56","20","[""Asian""]","No","Female","5277986","null","null","learn_feedback","","","learn_feedback","25.9271","83.5595","in","","","","","","","","","","","","","","","","","","","","","","",""
"","","","","","canvas-keyboard-response","136","3601190","0.0-12.0-4.24","2d_cat_multi_stim_exp1","2022-4-25","12:21:26","25","75","3","9","10","40","30","120","56","20","[""Asian""]","No","Female","5277986","null","null","","","","clear_screen","","","","","","","","","","","","","","","","","","","","","","","","","",""
"","","","","","canvas-keyboard-response","137","3601698","0.0-12.0-0.25","2d_cat_multi_stim_exp1","2022-4-25","12:21:26","25","75","3","9","10","40","30","120","56","20","[""Asian""]","No","Female","5277986","null","null","","","","fixation","","","","","","","","","","","","","","","","","","","","","","","","","",""
"","","","","","canvas-keyboard-response","138","3602207","0.0-12.0-1.25","2d_cat_multi_stim_exp1","2022-4-25","12:21:26","25","75","3","9","10","40","30","120","56","20","[""Asian""]","No","Female","5277986","null","null","","","","clear_screen","","","","","","","","","","","","","","","","","","","","","","","","","",""
"","","","","","canvas-keyboard-response","139","3603896","0.0-12.0-2.25","2d_cat_multi_stim_exp1","2022-4-25","12:21:26","25","75","3","9","10","40","30","120","56","20","[""Asian""]","No","Female","5277986","1679","i","learn","","","learn_trial","36.6667","60","out","1","0","","","","","","","","","","","","","","","","","","","","",""
"","","","","","canvas-keyboard-response","140","3604409","0.0-12.0-3.25","2d_cat_multi_stim_exp1","2022-4-25","12:21:26","25","75","3","9","10","40","30","120","56","20","[""Asian""]","No","Female","5277986","null","null","learn_feedback","","","learn_feedback","36.6667","60","out","","","","","","","","","","","","","","","","","","","","","","",""
"","","","","","canvas-keyboard-response","141","3604469","0.0-12.0-4.25","2d_cat_multi_stim_exp1","2022-4-25","12:21:26","25","75","3","9","10","40","30","120","56","20","[""Asian""]","No","Female","5277986","null","null","","","","clear_screen","","","","","","","","","","","","","","","","","","","","","","","","","",""
"","","","","","canvas-keyboard-response","142","3604978","0.0-12.0-0.26","2d_cat_multi_stim_exp1","2022-4-25","12:21:26","25","75","3","9","10","40","30","120","56","20","[""Asian""]","No","Female","5277986","null","null","","","","fixation","","","","","","","","","","","","","","","","","","","","","","","","","",""
"","","","","","canvas-keyboard-response","143","3605487","0.0-12.0-1.26","2d_cat_multi_stim_exp1","2022-4-25","12:21:26","25","75","3","9","10","40","30","120","56","20","[""Asian""]","No","Female","5277986","null","null","","","","clear_screen","","","","","","","","","","","","","","","","","","","","","","","","","",""
"","","","","","canvas-keyboard-response","144","3607759","0.0-12.0-2.26","2d_cat_multi_stim_exp1","2022-4-25","12:21:26","25","75","3","9","10","40","30","120","56","20","[""Asian""]","No","Female","5277986","2262","u","learn","","","learn_trial","25","75","in","1","1","","","","","","","","","","","","","","","","","","","","",""
"","","","","","canvas-keyboard-response","145","3608269","0.0-12.0-3.26","2d_cat_multi_stim_exp1","2022-4-25","12:21:26","25","75","3","9","10","40","30","120","56","20","[""Asian""]","No","Female","5277986","null","null","learn_feedback","","","learn_feedback","25","75","in","","","","","","","","","","","","","","","","","","","","","","",""
"","","","","","canvas-keyboard-response","146","3608327","0.0-12.0-4.26","2d_cat_multi_stim_exp1","2022-4-25","12:21:26","25","75","3","9","10","40","30","120","56","20","[""Asian""]","No","Female","5277986","null","null","","","","clear_screen","","","","","","","","","","","","","","","","","","","","","","","","","",""
"","","","","","canvas-keyboard-response","147","3608835","0.0-12.0-0.27","2d_cat_multi_stim_exp1","2022-4-25","12:21:26","25","75","3","9","10","40","30","120","56","20","[""Asian""]","No","Female","5277986","null","null","","","","fixation","","","","","","","","","","","","","","","","","","","","","","","","","",""
"","","","","","canvas-keyboard-response","148","3609345","0.0-12.0-1.27","2d_cat_multi_stim_exp1","2022-4-25","12:21:26","25","75","3","9","10","40","30","120","56","20","[""Asian""]","No","Female","5277986","null","null","","","","clear_screen","","","","","","","","","","","","","","","","","","","","","","","","","",""
"","","","","","canvas-keyboard-response","149","3611303","0.0-12.0-2.27","2d_cat_multi_stim_exp1","2022-4-25","12:21:26","25","75","3","9","10","40","30","120","56","20","[""Asian""]","No","Female","5277986","1950","u","learn","","","learn_trial","25","75","in","1","1","","","","","","","","","","","","","","","","","","","","",""
"","","","","","canvas-keyboard-response","150","3611814","0.0-12.0-3.27","2d_cat_multi_stim_exp1","2022-4-25","12:21:26","25","75","3","9","10","40","30","120","56","20","[""Asian""]","No","Female","5277986","null","null","learn_feedback","","","learn_feedback","25","75","in","","","","","","","","","","","","","","","","","","","","","","",""
"","","","","","canvas-keyboard-response","151","3611872","0.0-12.0-4.27","2d_cat_multi_stim_exp1","2022-4-25","12:21:26","25","75","3","9","10","40","30","120","56","20","[""Asian""]","No","Female","5277986","null","null","","","","clear_screen","","","","","","","","","","","","","","","","","","","","","","","","","",""
"","","","","","canvas-keyboard-response","152","3612381","0.0-12.0-0.28","2d_cat_multi_stim_exp1","2022-4-25","12:21:26","25","75","3","9","10","40","30","120","56","20","[""Asian""]","No","Female","5277986","null","null","","","","fixation","","","","","","","","","","","","","","","","","","","","","","","","","",""
"","","","","","canvas-keyboard-response","153","3612890","0.0-12.0-1.28","2d_cat_multi_stim_exp1","2022-4-25","12:21:26","25","75","3","9","10","40","30","120","56","20","[""Asian""]","No","Female","5277986","null","null","","","","clear_screen","","","","","","","","","","","","","","","","","","","","","","","","","",""
"","","","","","canvas-keyboard-response","154","3614671","0.0-12.0-2.28","2d_cat_multi_stim_exp1","2022-4-25","12:21:26","25","75","3","9","10","40","30","120","56","20","[""Asian""]","No","Female","5277986","1771","i","learn","","","learn_trial","26.6667","50","out","1","0","","","","","","","","","","","","","","","","","","","","",""
"","","","","","canvas-keyboard-response","155","3615181","0.0-12.0-3.28","2d_cat_multi_stim_exp1","2022-4-25","12:21:26","25","75","3","9","10","40","30","120","56","20","[""Asian""]","No","Female","5277986","null","null","learn_feedback","","","learn_feedback","26.6667","50","out","","","","","","","","","","","","","","","","","","","","","","",""
"","","","","","canvas-keyboard-response","156","3615238","0.0-12.0-4.28","2d_cat_multi_stim_exp1","2022-4-25","12:21:26","25","75","3","9","10","40","30","120","56","20","[""Asian""]","No","Female","5277986","null","null","","","","clear_screen","","","","","","","","","","","","","","","","","","","","","","","","","",""
"","","","","","canvas-keyboard-response","157","3615747","0.0-12.0-0.29","2d_cat_multi_stim_exp1","2022-4-25","12:21:26","25","75","3","9","10","40","30","120","56","20","[""Asian""]","No","Female","5277986","null","null","","","","fixation","","","","","","","","","","","","","","","","","","","","","","","","","",""
"","","","","","canvas-keyboard-response","158","3616256","0.0-12.0-1.29","2d_cat_multi_stim_exp1","2022-4-25","12:21:26","25","75","3","9","10","40","30","120","56","20","[""Asian""]","No","Female","5277986","null","null","","","","clear_screen","","","","","","","","","","","","","","","","","","","","","","","","","",""
"","","","","","canvas-keyboard-response","159","3617607","0.0-12.0-2.29","2d_cat_multi_stim_exp1","2022-4-25","12:21:26","25","75","3","9","10","40","30","120","56","20","[""Asian""]","No","Female","5277986","1343","u","learn","","","learn_trial","25","75","in","1","1","","","","","","","","","","","","","","","","","","","","",""
"","","","","","canvas-keyboard-response","160","3618117","0.0-12.0-3.29","2d_cat_multi_stim_exp1","2022-4-25","12:21:26","25","75","3","9","10","40","30","120","56","20","[""Asian""]","No","Female","5277986","null","null","learn_feedback","","","learn_feedback","25","75","in","","","","","","","","","","","","","","","","","","","","","","",""
"","","","","","canvas-keyboard-response","161","3618175","0.0-12.0-4.29","2d_cat_multi_stim_exp1","2022-4-25","12:21:26","25","75","3","9","10","40","30","120","56","20","[""Asian""]","No","Female","5277986","null","null","","","","clear_screen","","","","","","","","","","","","","","","","","","","","","","","","","",""
"","","","","","canvas-keyboard-response","162","3618682","0.0-12.0-0.30","2d_cat_multi_stim_exp1","2022-4-25","12:21:26","25","75","3","9","10","40","30","120","56","20","[""Asian""]","No","Female","5277986","null","null","","","","fixation","","","","","","","","","","","","","","","","","","","","","","","","","",""
"","","","","","canvas-keyboard-response","163","3619190","0.0-12.0-1.30","2d_cat_multi_stim_exp1","2022-4-25","12:21:26","25","75","3","9","10","40","30","120","56","20","[""Asian""]","No","Female","5277986","null","null","","","","clear_screen","","","","","","","","","","","","","","","","","","","","","","","","","",""
"","","","","","canvas-keyboard-response","164","3620206","0.0-12.0-2.30","2d_cat_multi_stim_exp1","2022-4-25","12:21:26","25","75","3","9","10","40","30","120","56","20","[""Asian""]","No","Female","5277986","1008","u","learn","","","learn_trial","25","75","in","1","1","","","","","","","","","","","","","","","","","","","","",""
"","","","","","canvas-keyboard-response","165","3620716","0.0-12.0-3.30","2d_cat_multi_stim_exp1","2022-4-25","12:21:26","25","75","3","9","10","40","30","120","56","20","[""Asian""]","No","Female","5277986","null","null","learn_feedback","","","learn_feedback","25","75","in","","","","","","","","","","","","","","","","","","","","","","",""
"","","","","","canvas-keyboard-response","166","3620774","0.0-12.0-4.30","2d_cat_multi_stim_exp1","2022-4-25","12:21:26","25","75","3","9","10","40","30","120","56","20","[""Asian""]","No","Female","5277986","null","null","","","","clear_screen","","","","","","","","","","","","","","","","","","","","","","","","","",""
"","","","","","canvas-keyboard-response","167","3621282","0.0-12.0-0.31","2d_cat_multi_stim_exp1","2022-4-25","12:21:26","25","75","3","9","10","40","30","120","56","20","[""Asian""]","No","Female","5277986","null","null","","","","fixation","","","","","","","","","","","","","","","","","","","","","","","","","",""
"","","","","","canvas-keyboard-response","168","3621791","0.0-12.0-1.31","2d_cat_multi_stim_exp1","2022-4-25","12:21:26","25","75","3","9","10","40","30","120","56","20","[""Asian""]","No","Female","5277986","null","null","","","","clear_screen","","","","","","","","","","","","","","","","","","","","","","","","","",""
"","","","","","canvas-keyboard-response","169","3622919","0.0-12.0-2.31","2d_cat_multi_stim_exp1","2022-4-25","12:21:26","25","75","3","9","10","40","30","120","56","20","[""Asian""]","No","Female","5277986","1119","u","learn","","","learn_trial","25","75","in","1","1","","","","","","","","","","","","","","","","","","","","",""
"","","","","","canvas-keyboard-response","170","3623428","0.0-12.0-3.31","2d_cat_multi_stim_exp1","2022-4-25","12:21:26","25","75","3","9","10","40","30","120","56","20","[""Asian""]","No","Female","5277986","null","null","learn_feedback","","","learn_feedback","25","75","in","","","","","","","","","","","","","","","","","","","","","","",""
"","","","","","canvas-keyboard-response","171","3623491","0.0-12.0-4.31","2d_cat_multi_stim_exp1","2022-4-25","12:21:26","25","75","3","9","10","40","30","120","56","20","[""Asian""]","No","Female","5277986","null","null","","","","clear_screen","","","","","","","","","","","","","","","","","","","","","","","","","",""
"","","","","","canvas-keyboard-response","172","3623998","0.0-12.0-0.32","2d_cat_multi_stim_exp1","2022-4-25","12:21:26","25","75","3","9","10","40","30","120","56","20","[""Asian""]","No","Female","5277986","null","null","","","","fixation","","","","","","","","","","","","","","","","","","","","","","","","","",""
"","","","","","canvas-keyboard-response","173","3624507","0.0-12.0-1.32","2d_cat_multi_stim_exp1","2022-4-25","12:21:26","25","75","3","9","10","40","30","120","56","20","[""Asian""]","No","Female","5277986","null","null","","","","clear_screen","","","","","","","","","","","","","","","","","","","","","","","","","",""
"","","","","","canvas-keyboard-response","174","3625831","0.0-12.0-2.32","2d_cat_multi_stim_exp1","2022-4-25","12:21:26","25","75","3","9","10","40","30","120","56","20","[""Asian""]","No","Female","5277986","1315","u","learn","","","learn_trial","25","75","in","1","1","","","","","","","","","","","","","","","","","","","","",""
"","","","","","canvas-keyboard-response","175","3626340","0.0-12.0-3.32","2d_cat_multi_stim_exp1","2022-4-25","12:21:26","25","75","3","9","10","40","30","120","56","20","[""Asian""]","No","Female","5277986","null","null","learn_feedback","","","learn_feedback","25","75","in","","","","","","","","","","","","","","","","","","","","","","",""
"","","","","","canvas-keyboard-response","176","3626398","0.0-12.0-4.32","2d_cat_multi_stim_exp1","2022-4-25","12:21:26","25","75","3","9","10","40","30","120","56","20","[""Asian""]","No","Female","5277986","null","null","","","","clear_screen","","","","","","","","","","","","","","","","","","","","","","","","","",""
"","","","","","canvas-keyboard-response","177","3626907","0.0-12.0-0.33","2d_cat_multi_stim_exp1","2022-4-25","12:21:26","25","75","3","9","10","40","30","120","56","20","[""Asian""]","No","Female","5277986","null","null","","","","fixation","","","","","","","","","","","","","","","","","","","","","","","","","",""
"","","","","","canvas-keyboard-response","178","3627415","0.0-12.0-1.33","2d_cat_multi_stim_exp1","2022-4-25","12:21:26","25","75","3","9","10","40","30","120","56","20","[""Asian""]","No","Female","5277986","null","null","","","","clear_screen","","","","","","","","","","","","","","","","","","","","","","","","","",""
"","","","","","canvas-keyboard-response","179","3628303","0.0-12.0-2.33","2d_cat_multi_stim_exp1","2022-4-25","12:21:26","25","75","3","9","10","40","30","120","56","20","[""Asian""]","No","Female","5277986","878","u","learn","","","learn_trial","25","75","in","1","1","","","","","","","","","","","","","","","","","","","","",""
"","","","","","canvas-keyboard-response","180","3628812","0.0-12.0-3.33","2d_cat_multi_stim_exp1","2022-4-25","12:21:26","25","75","3","9","10","40","30","120","56","20","[""Asian""]","No","Female","5277986","null","null","learn_feedback","","","learn_feedback","25","75","in","","","","","","","","","","","","","","","","","","","","","","",""
"","","","","","canvas-keyboard-response","181","3628869","0.0-12.0-4.33","2d_cat_multi_stim_exp1","2022-4-25","12:21:26","25","75","3","9","10","40","30","120","56","20","[""Asian""]","No","Female","5277986","null","null","","","","clear_screen","","","","","","","","","","","","","","","","","","","","","","","","","",""
"","","","","","canvas-keyboard-response","182","3629378","0.0-12.0-0.34","2d_cat_multi_stim_exp1","2022-4-25","12:21:26","25","75","3","9","10","40","30","120","56","20","[""Asian""]","No","Female","5277986","null","null","","","","fixation","","","","","","","","","","","","","","","","","","","","","","","","","",""
"","","","","","canvas-keyboard-response","183","3629886","0.0-12.0-1.34","2d_cat_multi_stim_exp1","2022-4-25","12:21:26","25","75","3","9","10","40","30","120","56","20","[""Asian""]","No","Female","5277986","null","null","","","","clear_screen","","","","","","","","","","","","","","","","","","","","","","","","","",""
"","","","","","canvas-keyboard-response","184","3630999","0.0-12.0-2.34","2d_cat_multi_stim_exp1","2022-4-25","12:21:26","25","75","3","9","10","40","30","120","56","20","[""Asian""]","No","Female","5277986","1104","i","learn","","","learn_trial","33.3333","40","out","1","0","","","","","","","","","","","","","","","","","","","","",""
"","","","","","canvas-keyboard-response","185","3631508","0.0-12.0-3.34","2d_cat_multi_stim_exp1","2022-4-25","12:21:26","25","75","3","9","10","40","30","120","56","20","[""Asian""]","No","Female","5277986","null","null","learn_feedback","","","learn_feedback","33.3333","40","out","","","","","","","","","","","","","","","","","","","","","","",""
"","","","","","canvas-keyboard-response","186","3631566","0.0-12.0-4.34","2d_cat_multi_stim_exp1","2022-4-25","12:21:26","25","75","3","9","10","40","30","120","56","20","[""Asian""]","No","Female","5277986","null","null","","","","clear_screen","","","","","","","","","","","","","","","","","","","","","","","","","",""
"","","","","","canvas-keyboard-response","187","3632075","0.0-12.0-0.35","2d_cat_multi_stim_exp1","2022-4-25","12:21:26","25","75","3","9","10","40","30","120","56","20","[""Asian""]","No","Female","5277986","null","null","","","","fixation","","","","","","","","","","","","","","","","","","","","","","","","","",""
"","","","","","canvas-keyboard-response","188","3632583","0.0-12.0-1.35","2d_cat_multi_stim_exp1","2022-4-25","12:21:26","25","75","3","9","10","40","30","120","56","20","[""Asian""]","No","Female","5277986","null","null","","","","clear_screen","","","","","","","","","","","","","","","","","","","","","","","","","",""
"","","","","","canvas-keyboard-response","189","3633991","0.0-12.0-2.35","2d_cat_multi_stim_exp1","2022-4-25","12:21:26","25","75","3","9","10","40","30","120","56","20","[""Asian""]","No","Female","5277986","1399","i","learn","","","learn_trial","10","50","out","1","0","","","","","","","","","","","","","","","","","","","","",""
"","","","","","canvas-keyboard-response","190","3634499","0.0-12.0-3.35","2d_cat_multi_stim_exp1","2022-4-25","12:21:26","25","75","3","9","10","40","30","120","56","20","[""Asian""]","No","Female","5277986","null","null","learn_feedback","","","learn_feedback","10","50","out","","","","","","","","","","","","","","","","","","","","","","",""
"","","","","","canvas-keyboard-response","191","3634557","0.0-12.0-4.35","2d_cat_multi_stim_exp1","2022-4-25","12:21:26","25","75","3","9","10","40","30","120","56","20","[""Asian""]","No","Female","5277986","null","null","","","","clear_screen","","","","","","","","","","","","","","","","","","","","","","","","","",""
"","","","","","canvas-keyboard-response","192","3635065","0.0-12.0-0.36","2d_cat_multi_stim_exp1","2022-4-25","12:21:26","25","75","3","9","10","40","30","120","56","20","[""Asian""]","No","Female","5277986","null","null","","","","fixation","","","","","","","","","","","","","","","","","","","","","","","","","",""
"","","","","","canvas-keyboard-response","193","3635574","0.0-12.0-1.36","2d_cat_multi_stim_exp1","2022-4-25","12:21:26","25","75","3","9","10","40","30","120","56","20","[""Asian""]","No","Female","5277986","null","null","","","","clear_screen","","","","","","","","","","","","","","","","","","","","","","","","","",""
"","","","","","canvas-keyboard-response","194","3636663","0.0-12.0-2.36","2d_cat_multi_stim_exp1","2022-4-25","12:21:26","25","75","3","9","10","40","30","120","56","20","[""Asian""]","No","Female","5277986","1079","u","learn","","","learn_trial","26.6667","70","out","0","1","","","","","","","","","","","","","","","","","","","","",""
"","","","","","canvas-keyboard-response","195","3637671","0.0-12.0-3.36","2d_cat_multi_stim_exp1","2022-4-25","12:21:26","25","75","3","9","10","40","30","120","56","20","[""Asian""]","No","Female","5277986","null","null","learn_feedback","","","learn_feedback","26.6667","70","out","","","","","","","","","","","","","","","","","","","","","","",""
"","","","","","canvas-keyboard-response","196","3637729","0.0-12.0-4.36","2d_cat_multi_stim_exp1","2022-4-25","12:21:26","25","75","3","9","10","40","30","120","56","20","[""Asian""]","No","Female","5277986","null","null","","","","clear_screen","","","","","","","","","","","","","","","","","","","","","","","","","",""
"","","","","","canvas-keyboard-response","197","3638237","0.0-12.0-0.37","2d_cat_multi_stim_exp1","2022-4-25","12:21:26","25","75","3","9","10","40","30","120","56","20","[""Asian""]","No","Female","5277986","null","null","","","","fixation","","","","","","","","","","","","","","","","","","","","","","","","","",""
"","","","","","canvas-keyboard-response","198","3638746","0.0-12.0-1.37","2d_cat_multi_stim_exp1","2022-4-25","12:21:26","25","75","3","9","10","40","30","120","56","20","[""Asian""]","No","Female","5277986","null","null","","","","clear_screen","","","","","","","","","","","","","","","","","","","","","","","","","",""
"","","","","","canvas-keyboard-response","199","3640799","0.0-12.0-2.37","2d_cat_multi_stim_exp1","2022-4-25","12:21:26","25","75","3","9","10","40","30","120","56","20","[""Asian""]","No","Female","5277986","2044","i","learn","","","learn_trial","23.3333","30","out","1","0","","","","","","","","","","","","","","","","","","","","",""
"","","","","","canvas-keyboard-response","200","3641307","0.0-12.0-3.37","2d_cat_multi_stim_exp1","2022-4-25","12:21:26","25","75","3","9","10","40","30","120","56","20","[""Asian""]","No","Female","5277986","null","null","learn_feedback","","","learn_feedback","23.3333","30","out","","","","","","","","","","","","","","","","","","","","","","",""
"","","","","","canvas-keyboard-response","201","3641365","0.0-12.0-4.37","2d_cat_multi_stim_exp1","2022-4-25","12:21:26","25","75","3","9","10","40","30","120","56","20","[""Asian""]","No","Female","5277986","null","null","","","","clear_screen","","","","","","","","","","","","","","","","","","","","","","","","","",""
"","","","","","canvas-keyboard-response","202","3641873","0.0-12.0-0.38","2d_cat_multi_stim_exp1","2022-4-25","12:21:26","25","75","3","9","10","40","30","120","56","20","[""Asian""]","No","Female","5277986","null","null","","","","fixation","","","","","","","","","","","","","","","","","","","","","","","","","",""
"","","","","","canvas-keyboard-response","203","3642384","0.0-12.0-1.38","2d_cat_multi_stim_exp1","2022-4-25","12:21:26","25","75","3","9","10","40","30","120","56","20","[""Asian""]","No","Female","5277986","null","null","","","","clear_screen","","","","","","","","","","","","","","","","","","","","","","","","","",""
"","","","","","canvas-keyboard-response","204","3643062","0.0-12.0-2.38","2d_cat_multi_stim_exp1","2022-4-25","12:21:26","25","75","3","9","10","40","30","120","56","20","[""Asian""]","No","Female","5277986","667","i","learn","","","learn_trial","33.3333","30","out","1","0","","","","","","","","","","","","","","","","","","","","",""
"","","","","","canvas-keyboard-response","205","3643575","0.0-12.0-3.38","2d_cat_multi_stim_exp1","2022-4-25","12:21:26","25","75","3","9","10","40","30","120","56","20","[""Asian""]","No","Female","5277986","null","null","learn_feedback","","","learn_feedback","33.3333","30","out","","","","","","","","","","","","","","","","","","","","","","",""
"","","","","","canvas-keyboard-response","206","3643635","0.0-12.0-4.38","2d_cat_multi_stim_exp1","2022-4-25","12:21:26","25","75","3","9","10","40","30","120","56","20","[""Asian""]","No","Female","5277986","null","null","","","","clear_screen","","","","","","","","","","","","","","","","","","","","","","","","","",""
"","","","","","canvas-keyboard-response","207","3644144","0.0-12.0-0.39","2d_cat_multi_stim_exp1","2022-4-25","12:21:26","25","75","3","9","10","40","30","120","56","20","[""Asian""]","No","Female","5277986","null","null","","","","fixation","","","","","","","","","","","","","","","","","","","","","","","","","",""
"","","","","","canvas-keyboard-response","208","3644653","0.0-12.0-1.39","2d_cat_multi_stim_exp1","2022-4-25","12:21:26","25","75","3","9","10","40","30","120","56","20","[""Asian""]","No","Female","5277986","null","null","","","","clear_screen","","","","","","","","","","","","","","","","","","","","","","","","","",""
"","","","","","canvas-keyboard-response","209","3646279","0.0-12.0-2.39","2d_cat_multi_stim_exp1","2022-4-25","12:21:26","25","75","3","9","10","40","30","120","56","20","[""Asian""]","No","Female","5277986","1610","i","learn","","","learn_trial","40","110","out","1","0","","","","","","","","","","","","","","","","","","","","",""
"","","","","","canvas-keyboard-response","210","3646787","0.0-12.0-3.39","2d_cat_multi_stim_exp1","2022-4-25","12:21:26","25","75","3","9","10","40","30","120","56","20","[""Asian""]","No","Female","5277986","null","null","learn_feedback","","","learn_feedback","40","110","out","","","","","","","","","","","","","","","","","","","","","","",""
"","","","","","canvas-keyboard-response","211","3646846","0.0-12.0-4.39","2d_cat_multi_stim_exp1","2022-4-25","12:21:26","25","75","3","9","10","40","30","120","56","20","[""Asian""]","No","Female","5277986","null","null","","","","clear_screen","","","","","","","","","","","","","","","","","","","","","","","","","",""
"","","","","","canvas-keyboard-response","212","3647355","0.0-12.0-0.40","2d_cat_multi_stim_exp1","2022-4-25","12:21:26","25","75","3","9","10","40","30","120","56","20","[""Asian""]","No","Female","5277986","null","null","","","","fixation","","","","","","","","","","","","","","","","","","","","","","","","","",""
"","","","","","canvas-keyboard-response","213","3647864","0.0-12.0-1.40","2d_cat_multi_stim_exp1","2022-4-25","12:21:26","25","75","3","9","10","40","30","120","56","20","[""Asian""]","No","Female","5277986","null","null","","","","clear_screen","","","","","","","","","","","","","","","","","","","","","","","","","",""
"","","","","","canvas-keyboard-response","214","3649647","0.0-12.0-2.40","2d_cat_multi_stim_exp1","2022-4-25","12:21:26","25","75","3","9","10","40","30","120","56","20","[""Asian""]","No","Female","5277986","1773","i","learn","","","learn_trial","31","75","in","0","0","","","","","","","","","","","","","","","","","","","","",""
"","","","","","canvas-keyboard-response","215","3650656","0.0-12.0-3.40","2d_cat_multi_stim_exp1","2022-4-25","12:21:26","25","75","3","9","10","40","30","120","56","20","[""Asian""]","No","Female","5277986","null","null","learn_feedback","","","learn_feedback","31","75","in","","","","","","","","","","","","","","","","","","","","","","",""
"","","","","","canvas-keyboard-response","216","3650715","0.0-12.0-4.40","2d_cat_multi_stim_exp1","2022-4-25","12:21:26","25","75","3","9","10","40","30","120","56","20","[""Asian""]","No","Female","5277986","null","null","","","","clear_screen","","","","","","","","","","","","","","","","","","","","","","","","","",""
"","","","","","canvas-keyboard-response","217","3651222","0.0-12.0-0.41","2d_cat_multi_stim_exp1","2022-4-25","12:21:26","25","75","3","9","10","40","30","120","56","20","[""Asian""]","No","Female","5277986","null","null","","","","fixation","","","","","","","","","","","","","","","","","","","","","","","","","",""
"","","","","","canvas-keyboard-response","218","3651731","0.0-12.0-1.41","2d_cat_multi_stim_exp1","2022-4-25","12:21:26","25","75","3","9","10","40","30","120","56","20","[""Asian""]","No","Female","5277986","null","null","","","","clear_screen","","","","","","","","","","","","","","","","","","","","","","","","","",""
"","","","","","canvas-keyboard-response","219","3653454","0.0-12.0-2.41","2d_cat_multi_stim_exp1","2022-4-25","12:21:26","25","75","3","9","10","40","30","120","56","20","[""Asian""]","No","Female","5277986","1716","i","learn","","","learn_trial","13.3333","120","out","1","0","","","","","","","","","","","","","","","","","","","","",""
"","","","","","canvas-keyboard-response","220","3653964","0.0-12.0-3.41","2d_cat_multi_stim_exp1","2022-4-25","12:21:26","25","75","3","9","10","40","30","120","56","20","[""Asian""]","No","Female","5277986","null","null","learn_feedback","","","learn_feedback","13.3333","120","out","","","","","","","","","","","","","","","","","","","","","","",""
"","","","","","canvas-keyboard-response","221","3654022","0.0-12.0-4.41","2d_cat_multi_stim_exp1","2022-4-25","12:21:26","25","75","3","9","10","40","30","120","56","20","[""Asian""]","No","Female","5277986","null","null","","","","clear_screen","","","","","","","","","","","","","","","","","","","","","","","","","",""
"","","","","","canvas-keyboard-response","222","3654530","0.0-12.0-0.42","2d_cat_multi_stim_exp1","2022-4-25","12:21:26","25","75","3","9","10","40","30","120","56","20","[""Asian""]","No","Female","5277986","null","null","","","","fixation","","","","","","","","","","","","","","","","","","","","","","","","","",""
"","","","","","canvas-keyboard-response","223","3655039","0.0-12.0-1.42","2d_cat_multi_stim_exp1","2022-4-25","12:21:26","25","75","3","9","10","40","30","120","56","20","[""Asian""]","No","Female","5277986","null","null","","","","clear_screen","","","","","","","","","","","","","","","","","","","","","","","","","",""
"","","","","","canvas-keyboard-response","224","3656070","0.0-12.0-2.42","2d_cat_multi_stim_exp1","2022-4-25","12:21:26","25","75","3","9","10","40","30","120","56","20","[""Asian""]","No","Female","5277986","1023","i","learn","","","learn_trial","40","30","out","1","0","","","","","","","","","","","","","","","","","","","","",""
"","","","","","canvas-keyboard-response","225","3656580","0.0-12.0-3.42","2d_cat_multi_stim_exp1","2022-4-25","12:21:26","25","75","3","9","10","40","30","120","56","20","[""Asian""]","No","Female","5277986","null","null","learn_feedback","","","learn_feedback","40","30","out","","","","","","","","","","","","","","","","","","","","","","",""
"","","","","","canvas-keyboard-response","226","3656637","0.0-12.0-4.42","2d_cat_multi_stim_exp1","2022-4-25","12:21:26","25","75","3","9","10","40","30","120","56","20","[""Asian""]","No","Female","5277986","null","null","","","","clear_screen","","","","","","","","","","","","","","","","","","","","","","","","","",""
"","","","","","canvas-keyboard-response","227","3657145","0.0-12.0-0.43","2d_cat_multi_stim_exp1","2022-4-25","12:21:26","25","75","3","9","10","40","30","120","56","20","[""Asian""]","No","Female","5277986","null","null","","","","fixation","","","","","","","","","","","","","","","","","","","","","","","","","",""
"","","","","","canvas-keyboard-response","228","3657653","0.0-12.0-1.43","2d_cat_multi_stim_exp1","2022-4-25","12:21:26","25","75","3","9","10","40","30","120","56","20","[""Asian""]","No","Female","5277986","null","null","","","","clear_screen","","","","","","","","","","","","","","","","","","","","","","","","","",""
"","","","","","canvas-keyboard-response","229","3658552","0.0-12.0-2.43","2d_cat_multi_stim_exp1","2022-4-25","12:21:26","25","75","3","9","10","40","30","120","56","20","[""Asian""]","No","Female","5277986","888","u","learn","","","learn_trial","23.3333","60","out","0","1","","","","","","","","","","","","","","","","","","","","",""
"","","","","","canvas-keyboard-response","230","3659560","0.0-12.0-3.43","2d_cat_multi_stim_exp1","2022-4-25","12:21:26","25","75","3","9","10","40","30","120","56","20","[""Asian""]","No","Female","5277986","null","null","learn_feedback","","","learn_feedback","23.3333","60","out","","","","","","","","","","","","","","","","","","","","","","",""
"","","","","","canvas-keyboard-response","231","3659618","0.0-12.0-4.43","2d_cat_multi_stim_exp1","2022-4-25","12:21:26","25","75","3","9","10","40","30","120","56","20","[""Asian""]","No","Female","5277986","null","null","","","","clear_screen","","","","","","","","","","","","","","","","","","","","","","","","","",""
"","","","","","canvas-keyboard-response","232","3660127","0.0-12.0-0.44","2d_cat_multi_stim_exp1","2022-4-25","12:21:26","25","75","3","9","10","40","30","120","56","20","[""Asian""]","No","Female","5277986","null","null","","","","fixation","","","","","","","","","","","","","","","","","","","","","","","","","",""
"","","","","","canvas-keyboard-response","233","3660635","0.0-12.0-1.44","2d_cat_multi_stim_exp1","2022-4-25","12:21:26","25","75","3","9","10","40","30","120","56","20","[""Asian""]","No","Female","5277986","null","null","","","","clear_screen","","","","","","","","","","","","","","","","","","","","","","","","","",""
"","","","","","canvas-keyboard-response","234","3661278","0.0-12.0-2.44","2d_cat_multi_stim_exp1","2022-4-25","12:21:26","25","75","3","9","10","40","30","120","56","20","[""Asian""]","No","Female","5277986","634","i","learn","","","learn_trial","13.3333","80","out","1","0","","","","","","","","","","","","","","","","","","","","",""
"","","","","","canvas-keyboard-response","235","3661787","0.0-12.0-3.44","2d_cat_multi_stim_exp1","2022-4-25","12:21:26","25","75","3","9","10","40","30","120","56","20","[""Asian""]","No","Female","5277986","null","null","learn_feedback","","","learn_feedback","13.3333","80","out","","","","","","","","","","","","","","","","","","","","","","",""
"","","","","","canvas-keyboard-response","236","3661845","0.0-12.0-4.44","2d_cat_multi_stim_exp1","2022-4-25","12:21:26","25","75","3","9","10","40","30","120","56","20","[""Asian""]","No","Female","5277986","null","null","","","","clear_screen","","","","","","","","","","","","","","","","","","","","","","","","","",""
"","","","","","canvas-keyboard-response","237","3662354","0.0-12.0-0.45","2d_cat_multi_stim_exp1","2022-4-25","12:21:26","25","75","3","9","10","40","30","120","56","20","[""Asian""]","No","Female","5277986","null","null","","","","fixation","","","","","","","","","","","","","","","","","","","","","","","","","",""
"","","","","","canvas-keyboard-response","238","3662863","0.0-12.0-1.45","2d_cat_multi_stim_exp1","2022-4-25","12:21:26","25","75","3","9","10","40","30","120","56","20","[""Asian""]","No","Female","5277986","null","null","","","","clear_screen","","","","","","","","","","","","","","","","","","","","","","","","","",""
"","","","","","canvas-keyboard-response","239","3663326","0.0-12.0-2.45","2d_cat_multi_stim_exp1","2022-4-25","12:21:26","25","75","3","9","10","40","30","120","56","20","[""Asian""]","No","Female","5277986","455","u","learn","","","learn_trial","25.4027","66.0815","in","1","1","","","","","","","","","","","","","","","","","","","","",""
"","","","","","canvas-keyboard-response","240","3663836","0.0-12.0-3.45","2d_cat_multi_stim_exp1","2022-4-25","12:21:26","25","75","3","9","10","40","30","120","56","20","[""Asian""]","No","Female","5277986","null","null","learn_feedback","","","learn_feedback","25.4027","66.0815","in","","","","","","","","","","","","","","","","","","","","","","",""
"","","","","","canvas-keyboard-response","241","3663893","0.0-12.0-4.45","2d_cat_multi_stim_exp1","2022-4-25","12:21:26","25","75","3","9","10","40","30","120","56","20","[""Asian""]","No","Female","5277986","null","null","","","","clear_screen","","","","","","","","","","","","","","","","","","","","","","","","","",""
"","","","","","canvas-keyboard-response","242","3664402","0.0-12.0-0.46","2d_cat_multi_stim_exp1","2022-4-25","12:21:26","25","75","3","9","10","40","30","120","56","20","[""Asian""]","No","Female","5277986","null","null","","","","fixation","","","","","","","","","","","","","","","","","","","","","","","","","",""
"","","","","","canvas-keyboard-response","243","3664911","0.0-12.0-1.46","2d_cat_multi_stim_exp1","2022-4-25","12:21:26","25","75","3","9","10","40","30","120","56","20","[""Asian""]","No","Female","5277986","null","null","","","","clear_screen","","","","","","","","","","","","","","","","","","","","","","","","","",""
"","","","","","canvas-keyboard-response","244","3667198","0.0-12.0-2.46","2d_cat_multi_stim_exp1","2022-4-25","12:21:26","25","75","3","9","10","40","30","120","56","20","[""Asian""]","No","Female","5277986","2279","u","learn","","","learn_trial","25","75","in","1","1","","","","","","","","","","","","","","","","","","","","",""
"","","","","","canvas-keyboard-response","245","3667707","0.0-12.0-3.46","2d_cat_multi_stim_exp1","2022-4-25","12:21:26","25","75","3","9","10","40","30","120","56","20","[""Asian""]","No","Female","5277986","null","null","learn_feedback","","","learn_feedback","25","75","in","","","","","","","","","","","","","","","","","","","","","","",""
"","","","","","canvas-keyboard-response","246","3667766","0.0-12.0-4.46","2d_cat_multi_stim_exp1","2022-4-25","12:21:26","25","75","3","9","10","40","30","120","56","20","[""Asian""]","No","Female","5277986","null","null","","","","clear_screen","","","","","","","","","","","","","","","","","","","","","","","","","",""
"","","","","","canvas-keyboard-response","247","3668273","0.0-12.0-0.47","2d_cat_multi_stim_exp1","2022-4-25","12:21:26","25","75","3","9","10","40","30","120","56","20","[""Asian""]","No","Female","5277986","null","null","","","","fixation","","","","","","","","","","","","","","","","","","","","","","","","","",""
"","","","","","canvas-keyboard-response","248","3668782","0.0-12.0-1.47","2d_cat_multi_stim_exp1","2022-4-25","12:21:26","25","75","3","9","10","40","30","120","56","20","[""Asian""]","No","Female","5277986","null","null","","","","clear_screen","","","","","","","","","","","","","","","","","","","","","","","","","",""
"","","","","","canvas-keyboard-response","249","3670247","0.0-12.0-2.47","2d_cat_multi_stim_exp1","2022-4-25","12:21:26","25","75","3","9","10","40","30","120","56","20","[""Asian""]","No","Female","5277986","1456","u","learn","","","learn_trial","30","100","out","0","1","","","","","","","","","","","","","","","","","","","","",""
"","","","","","canvas-keyboard-response","250","3671256","0.0-12.0-3.47","2d_cat_multi_stim_exp1","2022-4-25","12:21:26","25","75","3","9","10","40","30","120","56","20","[""Asian""]","No","Female","5277986","null","null","learn_feedback","","","learn_feedback","30","100","out","","","","","","","","","","","","","","","","","","","","","","",""
"","","","","","canvas-keyboard-response","251","3671318","0.0-12.0-4.47","2d_cat_multi_stim_exp1","2022-4-25","12:21:26","25","75","3","9","10","40","30","120","56","20","[""Asian""]","No","Female","5277986","null","null","","","","clear_screen","","","","","","","","","","","","","","","","","","","","","","","","","",""
"","","","","","canvas-keyboard-response","252","3671826","0.0-12.0-0.48","2d_cat_multi_stim_exp1","2022-4-25","12:21:26","25","75","3","9","10","40","30","120","56","20","[""Asian""]","No","Female","5277986","null","null","","","","fixation","","","","","","","","","","","","","","","","","","","","","","","","","",""
"","","","","","canvas-keyboard-response","253","3672334","0.0-12.0-1.48","2d_cat_multi_stim_exp1","2022-4-25","12:21:26","25","75","3","9","10","40","30","120","56","20","[""Asian""]","No","Female","5277986","null","null","","","","clear_screen","","","","","","","","","","","","","","","","","","","","","","","","","",""
"","","","","","canvas-keyboard-response","254","3673190","0.0-12.0-2.48","2d_cat_multi_stim_exp1","2022-4-25","12:21:26","25","75","3","9","10","40","30","120","56","20","[""Asian""]","No","Female","5277986","847","u","learn","","","learn_trial","25","75","in","1","1","","","","","","","","","","","","","","","","","","","","",""
"","","","","","canvas-keyboard-response","255","3673700","0.0-12.0-3.48","2d_cat_multi_stim_exp1","2022-4-25","12:21:26","25","75","3","9","10","40","30","120","56","20","[""Asian""]","No","Female","5277986","null","null","learn_feedback","","","learn_feedback","25","75","in","","","","","","","","","","","","","","","","","","","","","","",""
"","","","","","canvas-keyboard-response","256","3673757","0.0-12.0-4.48","2d_cat_multi_stim_exp1","2022-4-25","12:21:26","25","75","3","9","10","40","30","120","56","20","[""Asian""]","No","Female","5277986","null","null","","","","clear_screen","","","","","","","","","","","","","","","","","","","","","","","","","",""
"","","","","","canvas-keyboard-response","257","3674266","0.0-12.0-0.49","2d_cat_multi_stim_exp1","2022-4-25","12:21:26","25","75","3","9","10","40","30","120","56","20","[""Asian""]","No","Female","5277986","null","null","","","","fixation","","","","","","","","","","","","","","","","","","","","","","","","","",""
"","","","","","canvas-keyboard-response","258","3674775","0.0-12.0-1.49","2d_cat_multi_stim_exp1","2022-4-25","12:21:26","25","75","3","9","10","40","30","120","56","20","[""Asian""]","No","Female","5277986","null","null","","","","clear_screen","","","","","","","","","","","","","","","","","","","","","","","","","",""
"","","","","","canvas-keyboard-response","259","3675814","0.0-12.0-2.49","2d_cat_multi_stim_exp1","2022-4-25","12:21:26","25","75","3","9","10","40","30","120","56","20","[""Asian""]","No","Female","5277986","1031","i","learn","","","learn_trial","23.3333","40","out","1","0","","","","","","","","","","","","","","","","","","","","",""
"","","","","","canvas-keyboard-response","260","3676323","0.0-12.0-3.49","2d_cat_multi_stim_exp1","2022-4-25","12:21:26","25","75","3","9","10","40","30","120","56","20","[""Asian""]","No","Female","5277986","null","null","learn_feedback","","","learn_feedback","23.3333","40","out","","","","","","","","","","","","","","","","","","","","","","",""
"","","","","","canvas-keyboard-response","261","3676381","0.0-12.0-4.49","2d_cat_multi_stim_exp1","2022-4-25","12:21:26","25","75","3","9","10","40","30","120","56","20","[""Asian""]","No","Female","5277986","null","null","","","","clear_screen","","","","","","","","","","","","","","","","","","","","","","","","","",""
"","","","","","canvas-keyboard-response","262","3676889","0.0-12.0-0.50","2d_cat_multi_stim_exp1","2022-4-25","12:21:26","25","75","3","9","10","40","30","120","56","20","[""Asian""]","No","Female","5277986","null","null","","","","fixation","","","","","","","","","","","","","","","","","","","","","","","","","",""
"","","","","","canvas-keyboard-response","263","3677398","0.0-12.0-1.50","2d_cat_multi_stim_exp1","2022-4-25","12:21:26","25","75","3","9","10","40","30","120","56","20","[""Asian""]","No","Female","5277986","null","null","","","","clear_screen","","","","","","","","","","","","","","","","","","","","","","","","","",""
"","","","","","canvas-keyboard-response","264","3678598","0.0-12.0-2.50","2d_cat_multi_stim_exp1","2022-4-25","12:21:26","25","75","3","9","10","40","30","120","56","20","[""Asian""]","No","Female","5277986","1191","u","learn","","","learn_trial","33.3333","60","out","0","1","","","","","","","","","","","","","","","","","","","","",""
"","","","","","canvas-keyboard-response","265","3679607","0.0-12.0-3.50","2d_cat_multi_stim_exp1","2022-4-25","12:21:26","25","75","3","9","10","40","30","120","56","20","[""Asian""]","No","Female","5277986","null","null","learn_feedback","","","learn_feedback","33.3333","60","out","","","","","","","","","","","","","","","","","","","","","","",""
"","","","","","canvas-keyboard-response","266","3679665","0.0-12.0-4.50","2d_cat_multi_stim_exp1","2022-4-25","12:21:26","25","75","3","9","10","40","30","120","56","20","[""Asian""]","No","Female","5277986","null","null","","","","clear_screen","","","","","","","","","","","","","","","","","","","","","","","","","",""
"","","","","","canvas-keyboard-response","267","3680176","0.0-12.0-0.51","2d_cat_multi_stim_exp1","2022-4-25","12:21:26","25","75","3","9","10","40","30","120","56","20","[""Asian""]","No","Female","5277986","null","null","","","","fixation","","","","","","","","","","","","","","","","","","","","","","","","","",""
"","","","","","canvas-keyboard-response","268","3680686","0.0-12.0-1.51","2d_cat_multi_stim_exp1","2022-4-25","12:21:26","25","75","3","9","10","40","30","120","56","20","[""Asian""]","No","Female","5277986","null","null","","","","clear_screen","","","","","","","","","","","","","","","","","","","","","","","","","",""
"","","","","","canvas-keyboard-response","269","3683632","0.0-12.0-2.51","2d_cat_multi_stim_exp1","2022-4-25","12:21:26","25","75","3","9","10","40","30","120","56","20","[""Asian""]","No","Female","5277986","2937","u","learn","","","learn_trial","25","75","in","1","1","","","","","","","","","","","","","","","","","","","","",""
"","","","","","canvas-keyboard-response","270","3684144","0.0-12.0-3.51","2d_cat_multi_stim_exp1","2022-4-25","12:21:26","25","75","3","9","10","40","30","120","56","20","[""Asian""]","No","Female","5277986","null","null","learn_feedback","","","learn_feedback","25","75","in","","","","","","","","","","","","","","","","","","","","","","",""
"","","","","","canvas-keyboard-response","271","3684205","0.0-12.0-4.51","2d_cat_multi_stim_exp1","2022-4-25","12:21:26","25","75","3","9","10","40","30","120","56","20","[""Asian""]","No","Female","5277986","null","null","","","","clear_screen","","","","","","","","","","","","","","","","","","","","","","","","","",""
"","","","","","canvas-keyboard-response","272","3684715","0.0-12.0-0.52","2d_cat_multi_stim_exp1","2022-4-25","12:21:26","25","75","3","9","10","40","30","120","56","20","[""Asian""]","No","Female","5277986","null","null","","","","fixation","","","","","","","","","","","","","","","","","","","","","","","","","",""
"","","","","","canvas-keyboard-response","273","3685225","0.0-12.0-1.52","2d_cat_multi_stim_exp1","2022-4-25","12:21:26","25","75","3","9","10","40","30","120","56","20","[""Asian""]","No","Female","5277986","null","null","","","","clear_screen","","","","","","","","","","","","","","","","","","","","","","","","","",""
"","","","","","canvas-keyboard-response","274","3687006","0.0-12.0-2.52","2d_cat_multi_stim_exp1","2022-4-25","12:21:26","25","75","3","9","10","40","30","120","56","20","[""Asian""]","No","Female","5277986","1771","u","learn","","","learn_trial","25","75","in","1","1","","","","","","","","","","","","","","","","","","","","",""
"","","","","","canvas-keyboard-response","275","3687515","0.0-12.0-3.52","2d_cat_multi_stim_exp1","2022-4-25","12:21:26","25","75","3","9","10","40","30","120","56","20","[""Asian""]","No","Female","5277986","null","null","learn_feedback","","","learn_feedback","25","75","in","","","","","","","","","","","","","","","","","","","","","","",""
"","","","","","canvas-keyboard-response","276","3687578","0.0-12.0-4.52","2d_cat_multi_stim_exp1","2022-4-25","12:21:26","25","75","3","9","10","40","30","120","56","20","[""Asian""]","No","Female","5277986","null","null","","","","clear_screen","","","","","","","","","","","","","","","","","","","","","","","","","",""
"","","","","","canvas-keyboard-response","277","3688086","0.0-12.0-0.53","2d_cat_multi_stim_exp1","2022-4-25","12:21:26","25","75","3","9","10","40","30","120","56","20","[""Asian""]","No","Female","5277986","null","null","","","","fixation","","","","","","","","","","","","","","","","","","","","","","","","","",""
"","","","","","canvas-keyboard-response","278","3688596","0.0-12.0-1.53","2d_cat_multi_stim_exp1","2022-4-25","12:21:26","25","75","3","9","10","40","30","120","56","20","[""Asian""]","No","Female","5277986","null","null","","","","clear_screen","","","","","","","","","","","","","","","","","","","","","","","","","",""
"","","","","","canvas-keyboard-response","279","3689487","0.0-12.0-2.53","2d_cat_multi_stim_exp1","2022-4-25","12:21:26","25","75","3","9","10","40","30","120","56","20","[""Asian""]","No","Female","5277986","882","u","learn","","","learn_trial","25","75","in","1","1","","","","","","","","","","","","","","","","","","","","",""
"","","","","","canvas-keyboard-response","280","3689997","0.0-12.0-3.53","2d_cat_multi_stim_exp1","2022-4-25","12:21:26","25","75","3","9","10","40","30","120","56","20","[""Asian""]","No","Female","5277986","null","null","learn_feedback","","","learn_feedback","25","75","in","","","","","","","","","","","","","","","","","","","","","","",""
"","","","","","canvas-keyboard-response","281","3690056","0.0-12.0-4.53","2d_cat_multi_stim_exp1","2022-4-25","12:21:26","25","75","3","9","10","40","30","120","56","20","[""Asian""]","No","Female","5277986","null","null","","","","clear_screen","","","","","","","","","","","","","","","","","","","","","","","","","",""
"","","","","","canvas-keyboard-response","282","3690565","0.0-12.0-0.54","2d_cat_multi_stim_exp1","2022-4-25","12:21:26","25","75","3","9","10","40","30","120","56","20","[""Asian""]","No","Female","5277986","null","null","","","","fixation","","","","","","","","","","","","","","","","","","","","","","","","","",""
"","","","","","canvas-keyboard-response","283","3691074","0.0-12.0-1.54","2d_cat_multi_stim_exp1","2022-4-25","12:21:26","25","75","3","9","10","40","30","120","56","20","[""Asian""]","No","Female","5277986","null","null","","","","clear_screen","","","","","","","","","","","","","","","","","","","","","","","","","",""
"","","","","","canvas-keyboard-response","284","3692231","0.0-12.0-2.54","2d_cat_multi_stim_exp1","2022-4-25","12:21:26","25","75","3","9","10","40","30","120","56","20","[""Asian""]","No","Female","5277986","1148","i","learn","","","learn_trial","16.6667","120","out","1","0","","","","","","","","","","","","","","","","","","","","",""
"","","","","","canvas-keyboard-response","285","3692740","0.0-12.0-3.54","2d_cat_multi_stim_exp1","2022-4-25","12:21:26","25","75","3","9","10","40","30","120","56","20","[""Asian""]","No","Female","5277986","null","null","learn_feedback","","","learn_feedback","16.6667","120","out","","","","","","","","","","","","","","","","","","","","","","",""
"","","","","","canvas-keyboard-response","286","3692798","0.0-12.0-4.54","2d_cat_multi_stim_exp1","2022-4-25","12:21:26","25","75","3","9","10","40","30","120","56","20","[""Asian""]","No","Female","5277986","null","null","","","","clear_screen","","","","","","","","","","","","","","","","","","","","","","","","","",""
"","","","","","canvas-keyboard-response","287","3693305","0.0-12.0-0.55","2d_cat_multi_stim_exp1","2022-4-25","12:21:26","25","75","3","9","10","40","30","120","56","20","[""Asian""]","No","Female","5277986","null","null","","","","fixation","","","","","","","","","","","","","","","","","","","","","","","","","",""
"","","","","","canvas-keyboard-response","288","3693814","0.0-12.0-1.55","2d_cat_multi_stim_exp1","2022-4-25","12:21:26","25","75","3","9","10","40","30","120","56","20","[""Asian""]","No","Female","5277986","null","null","","","","clear_screen","","","","","","","","","","","","","","","","","","","","","","","","","",""
"","","","","","canvas-keyboard-response","289","3694566","0.0-12.0-2.55","2d_cat_multi_stim_exp1","2022-4-25","12:21:26","25","75","3","9","10","40","30","120","56","20","[""Asian""]","No","Female","5277986","742","i","learn","","","learn_trial","16.6667","100","out","1","0","","","","","","","","","","","","","","","","","","","","",""
"","","","","","canvas-keyboard-response","290","3695075","0.0-12.0-3.55","2d_cat_multi_stim_exp1","2022-4-25","12:21:26","25","75","3","9","10","40","30","120","56","20","[""Asian""]","No","Female","5277986","null","null","learn_feedback","","","learn_feedback","16.6667","100","out","","","","","","","","","","","","","","","","","","","","","","",""
"","","","","","canvas-keyboard-response","291","3695136","0.0-12.0-4.55","2d_cat_multi_stim_exp1","2022-4-25","12:21:26","25","75","3","9","10","40","30","120","56","20","[""Asian""]","No","Female","5277986","null","null","","","","clear_screen","","","","","","","","","","","","","","","","","","","","","","","","","",""
"","","","","","canvas-keyboard-response","292","3695644","0.0-12.0-0.56","2d_cat_multi_stim_exp1","2022-4-25","12:21:26","25","75","3","9","10","40","30","120","56","20","[""Asian""]","No","Female","5277986","null","null","","","","fixation","","","","","","","","","","","","","","","","","","","","","","","","","",""
"","","","","","canvas-keyboard-response","293","3696152","0.0-12.0-1.56","2d_cat_multi_stim_exp1","2022-4-25","12:21:26","25","75","3","9","10","40","30","120","56","20","[""Asian""]","No","Female","5277986","null","null","","","","clear_screen","","","","","","","","","","","","","","","","","","","","","","","","","",""
"","","","","","canvas-keyboard-response","294","3697414","0.0-12.0-2.56","2d_cat_multi_stim_exp1","2022-4-25","12:21:26","25","75","3","9","10","40","30","120","56","20","[""Asian""]","No","Female","5277986","1252","i","learn","","","learn_trial","13.3333","70","out","1","0","","","","","","","","","","","","","","","","","","","","",""
"","","","","","canvas-keyboard-response","295","3697923","0.0-12.0-3.56","2d_cat_multi_stim_exp1","2022-4-25","12:21:26","25","75","3","9","10","40","30","120","56","20","[""Asian""]","No","Female","5277986","null","null","learn_feedback","","","learn_feedback","13.3333","70","out","","","","","","","","","","","","","","","","","","","","","","",""
