"success","timeout","failed_images","failed_audio","failed_video","trial_type","trial_index","time_elapsed","internal_node_id","exp_name","date","time","angle_mean_in","radius_mean_in","angle_sd_in","radius_sd_in","angle_min_out","angle_max_out","radius_min_out","radius_max_out","sub_n","age","race","ethnicity","gender","exp_duration","rt","response","exp_trial_type","stimulus","view_history","screen_id","angle","radius","distribution","correct","choice","order","angle_a","radius_a","angle_b","radius_b","jkl_correct","transfer_trial_type","choice_set","abc_correct","tc_correct","tc_angle","tdc_a","tdc_b","tdc_c","pair","category_a","category_b","category_c","angle_c","radius_c","question_order"
"true","false","[]","[]","[]","preload","0","22","0.0-0.0","2d_cat_multi_stim_exp1","2022-5-4","10:23:43","25","75","3","9","10","40","30","120","87","18","[""White""]","No","Female","2011329","","","","","","","","","","","","","","","","","","","","","","","","","","","","","","","",""
"","","","","","survey-html-form","1","3614","0.0-1.0","2d_cat_multi_stim_exp1","2022-5-4","10:23:43","25","75","3","9","10","40","30","120","87","18","[""White""]","No","Female","2011329","3580","{""response"":""87""}","enter-sub-number","","","","","","","","","","","","","","","","","","","","","","","","","","","","",""
"true","","","","","fullscreen","2","5785","0.0-2.0","2d_cat_multi_stim_exp1","2022-5-4","10:23:43","25","75","3","9","10","40","30","120","87","18","[""White""]","No","Female","2011329","","","","","","","","","","","","","","","","","","","","","","","","","","","","","","","",""
"","","","","","image-button-response","3","72722","0.0-3.0","2d_cat_multi_stim_exp1","2022-5-4","10:23:43","25","75","3","9","10","40","30","120","87","18","[""White""]","No","Female","2011329","66927","0","","consent.png","","","","","","","","","","","","","","","","","","","","","","","","","","","",""
"","","","","","html-button-response","4","83481","0.0-4.0","2d_cat_multi_stim_exp1","2022-5-4","10:23:43","25","75","3","9","10","40","30","120","87","18","[""White""]","No","Female","2011329","10754","0","","<div style= ""font-size:25px;"" <p> <strong> Welcome to the experiment! </strong><br> <p style=""color:#8B0000; font-size:25px;""><strong> Please do NOT exit full screen until you are done with the experiment. </strong> </p><p style=""font-size:25px;color:#8B0000;""> <strong> The experiment will be canceled and your data will be lost <br> if you try to go back or refresh the page at any point during the experiment.</strong> </p><br><p> <strong> Thanks in advance for your contribution to our research! </strong></p>","","","","","","","","","","","","","","","","","","","","","","","","","","","",""
"","","","","","instructions","5","132001","0.0-5.0","2d_cat_multi_stim_exp1","2022-5-4","10:23:43","25","75","3","9","10","40","30","120","87","18","[""White""]","No","Female","2011329","48515","","","","[{""page_index"":0,""viewing_time"":6322},{""page_index"":1,""viewing_time"":5232},{""page_index"":2,""viewing_time"":14040},{""page_index"":3,""viewing_time"":22920}]","instructions_1","","","","","","","","","","","","","","","","","","","","","","","","","",""
"","","","","","instructions","6","135569","0.0-6.0","2d_cat_multi_stim_exp1","2022-5-4","10:23:43","25","75","3","9","10","40","30","120","87","18","[""White""]","No","Female","2011329","3562","","","","[{""page_index"":0,""viewing_time"":3562}]","Click to see the kinds of turtles that will appear in the study.","","","","","","","","","","","","","","","","","","","","","","","","","",""
"","","","","","canvas-keyboard-response","7","150586","0.0-7.0","2d_cat_multi_stim_exp1","2022-5-4","10:23:43","25","75","3","9","10","40","30","120","87","18","[""White""]","No","Female","2011329","null","null","","","","demo_range","","","","","","","","","","","","","","","","","","","","","","","","","",""
"","","","","","instructions","8","154447","0.0-8.0","2d_cat_multi_stim_exp1","2022-5-4","10:23:43","25","75","3","9","10","40","30","120","87","18","[""White""]","No","Female","2011329","3359","","","","[{""page_index"":0,""viewing_time"":3359}]","Click to see some turtles in the subspecies.","","","","","","","","","","","","","","","","","","","","","","","","","",""
"","","","","","canvas-keyboard-response","9","169460","0.0-9.0","2d_cat_multi_stim_exp1","2022-5-4","10:23:43","25","75","3","9","10","40","30","120","87","18","[""White""]","No","Female","2011329","null","null","","","","demo_in","","","","","","","","","","","","","","","","","","","","","","","","","",""
"","","","","","instructions","10","207473","0.0-10.0","2d_cat_multi_stim_exp1","2022-5-4","10:23:43","25","75","3","9","10","40","30","120","87","18","[""White""]","No","Female","2011329","37510","","","","[{""page_index"":0,""viewing_time"":4718},{""page_index"":1,""viewing_time"":27608},{""page_index"":2,""viewing_time"":5184}]","instructions_2","","","","","","","","","","","","","","","","","","","","","","","","","",""
"","","","","","instructions","11","209193","0.0-11.0","2d_cat_multi_stim_exp1","2022-5-4","10:23:43","25","75","3","9","10","40","30","120","87","18","[""White""]","No","Female","2011329","1718","","","","[{""page_index"":0,""viewing_time"":1718}]","Click to begin the first phase of the experiment.","","","","","","","","","","","","","","","","","","","","","","","","","",""
"","","","","","canvas-keyboard-response","12","209703","0.0-12.0-0.0","2d_cat_multi_stim_exp1","2022-5-4","10:23:43","25","75","3","9","10","40","30","120","87","18","[""White""]","No","Female","2011329","null","null","","","","fixation","","","","","","","","","","","","","","","","","","","","","","","","","",""
"","","","","","canvas-keyboard-response","13","210216","0.0-12.0-1.0","2d_cat_multi_stim_exp1","2022-5-4","10:23:43","25","75","3","9","10","40","30","120","87","18","[""White""]","No","Female","2011329","null","null","","","","clear_screen","","","","","","","","","","","","","","","","","","","","","","","","","",""
"","","","","","canvas-keyboard-response","14","211264","0.0-12.0-2.0","2d_cat_multi_stim_exp1","2022-5-4","10:23:43","25","75","3","9","10","40","30","120","87","18","[""White""]","No","Female","2011329","1037","i","learn","","","learn_trial","22.2971","71.095","in","0","0","","","","","","","","","","","","","","","","","","","","",""
"","","","","","canvas-keyboard-response","15","212280","0.0-12.0-3.0","2d_cat_multi_stim_exp1","2022-5-4","10:23:43","25","75","3","9","10","40","30","120","87","18","[""White""]","No","Female","2011329","null","null","learn_feedback","","","learn_feedback","22.2971","71.095","in","","","","","","","","","","","","","","","","","","","","","","",""
"","","","","","canvas-keyboard-response","16","212344","0.0-12.0-4.0","2d_cat_multi_stim_exp1","2022-5-4","10:23:43","25","75","3","9","10","40","30","120","87","18","[""White""]","No","Female","2011329","null","null","","","","clear_screen","","","","","","","","","","","","","","","","","","","","","","","","","",""
"","","","","","canvas-keyboard-response","17","212855","0.0-12.0-0.1","2d_cat_multi_stim_exp1","2022-5-4","10:23:43","25","75","3","9","10","40","30","120","87","18","[""White""]","No","Female","2011329","null","null","","","","fixation","","","","","","","","","","","","","","","","","","","","","","","","","",""
"","","","","","canvas-keyboard-response","18","213365","0.0-12.0-1.1","2d_cat_multi_stim_exp1","2022-5-4","10:23:43","25","75","3","9","10","40","30","120","87","18","[""White""]","No","Female","2011329","null","null","","","","clear_screen","","","","","","","","","","","","","","","","","","","","","","","","","",""
"","","","","","canvas-keyboard-response","19","215129","0.0-12.0-2.1","2d_cat_multi_stim_exp1","2022-5-4","10:23:43","25","75","3","9","10","40","30","120","87","18","[""White""]","No","Female","2011329","1753","i","learn","","","learn_trial","27.8087","71.8376","in","0","0","","","","","","","","","","","","","","","","","","","","",""
"","","","","","canvas-keyboard-response","20","216140","0.0-12.0-3.1","2d_cat_multi_stim_exp1","2022-5-4","10:23:43","25","75","3","9","10","40","30","120","87","18","[""White""]","No","Female","2011329","null","null","learn_feedback","","","learn_feedback","27.8087","71.8376","in","","","","","","","","","","","","","","","","","","","","","","",""
"","","","","","canvas-keyboard-response","21","216203","0.0-12.0-4.1","2d_cat_multi_stim_exp1","2022-5-4","10:23:43","25","75","3","9","10","40","30","120","87","18","[""White""]","No","Female","2011329","null","null","","","","clear_screen","","","","","","","","","","","","","","","","","","","","","","","","","",""
"","","","","","canvas-keyboard-response","22","216712","0.0-12.0-0.2","2d_cat_multi_stim_exp1","2022-5-4","10:23:43","25","75","3","9","10","40","30","120","87","18","[""White""]","No","Female","2011329","null","null","","","","fixation","","","","","","","","","","","","","","","","","","","","","","","","","",""
"","","","","","canvas-keyboard-response","23","217222","0.0-12.0-1.2","2d_cat_multi_stim_exp1","2022-5-4","10:23:43","25","75","3","9","10","40","30","120","87","18","[""White""]","No","Female","2011329","null","null","","","","clear_screen","","","","","","","","","","","","","","","","","","","","","","","","","",""
"","","","","","canvas-keyboard-response","24","218816","0.0-12.0-2.2","2d_cat_multi_stim_exp1","2022-5-4","10:23:43","25","75","3","9","10","40","30","120","87","18","[""White""]","No","Female","2011329","1582","i","learn","","","learn_trial","10","60","out","1","0","","","","","","","","","","","","","","","","","","","","",""
"","","","","","canvas-keyboard-response","25","219328","0.0-12.0-3.2","2d_cat_multi_stim_exp1","2022-5-4","10:23:43","25","75","3","9","10","40","30","120","87","18","[""White""]","No","Female","2011329","null","null","learn_feedback","","","learn_feedback","10","60","out","","","","","","","","","","","","","","","","","","","","","","",""
"","","","","","canvas-keyboard-response","26","219382","0.0-12.0-4.2","2d_cat_multi_stim_exp1","2022-5-4","10:23:43","25","75","3","9","10","40","30","120","87","18","[""White""]","No","Female","2011329","null","null","","","","clear_screen","","","","","","","","","","","","","","","","","","","","","","","","","",""
"","","","","","canvas-keyboard-response","27","219891","0.0-12.0-0.3","2d_cat_multi_stim_exp1","2022-5-4","10:23:43","25","75","3","9","10","40","30","120","87","18","[""White""]","No","Female","2011329","null","null","","","","fixation","","","","","","","","","","","","","","","","","","","","","","","","","",""
"","","","","","canvas-keyboard-response","28","220401","0.0-12.0-1.3","2d_cat_multi_stim_exp1","2022-5-4","10:23:43","25","75","3","9","10","40","30","120","87","18","[""White""]","No","Female","2011329","null","null","","","","clear_screen","","","","","","","","","","","","","","","","","","","","","","","","","",""
"","","","","","canvas-keyboard-response","29","221512","0.0-12.0-2.3","2d_cat_multi_stim_exp1","2022-5-4","10:23:43","25","75","3","9","10","40","30","120","87","18","[""White""]","No","Female","2011329","1101","i","learn","","","learn_trial","13.3333","50","out","1","0","","","","","","","","","","","","","","","","","","","","",""
"","","","","","canvas-keyboard-response","30","222022","0.0-12.0-3.3","2d_cat_multi_stim_exp1","2022-5-4","10:23:43","25","75","3","9","10","40","30","120","87","18","[""White""]","No","Female","2011329","null","null","learn_feedback","","","learn_feedback","13.3333","50","out","","","","","","","","","","","","","","","","","","","","","","",""
"","","","","","canvas-keyboard-response","31","222081","0.0-12.0-4.3","2d_cat_multi_stim_exp1","2022-5-4","10:23:43","25","75","3","9","10","40","30","120","87","18","[""White""]","No","Female","2011329","null","null","","","","clear_screen","","","","","","","","","","","","","","","","","","","","","","","","","",""
"","","","","","canvas-keyboard-response","32","222589","0.0-12.0-0.4","2d_cat_multi_stim_exp1","2022-5-4","10:23:43","25","75","3","9","10","40","30","120","87","18","[""White""]","No","Female","2011329","null","null","","","","fixation","","","","","","","","","","","","","","","","","","","","","","","","","",""
"","","","","","canvas-keyboard-response","33","223104","0.0-12.0-1.4","2d_cat_multi_stim_exp1","2022-5-4","10:23:43","25","75","3","9","10","40","30","120","87","18","[""White""]","No","Female","2011329","null","null","","","","clear_screen","","","","","","","","","","","","","","","","","","","","","","","","","",""
"","","","","","canvas-keyboard-response","34","223984","0.0-12.0-2.4","2d_cat_multi_stim_exp1","2022-5-4","10:23:43","25","75","3","9","10","40","30","120","87","18","[""White""]","No","Female","2011329","871","i","learn","","","learn_trial","20.7574","87.7279","in","0","0","","","","","","","","","","","","","","","","","","","","",""
"","","","","","canvas-keyboard-response","35","224997","0.0-12.0-3.4","2d_cat_multi_stim_exp1","2022-5-4","10:23:43","25","75","3","9","10","40","30","120","87","18","[""White""]","No","Female","2011329","null","null","learn_feedback","","","learn_feedback","20.7574","87.7279","in","","","","","","","","","","","","","","","","","","","","","","",""
"","","","","","canvas-keyboard-response","36","225060","0.0-12.0-4.4","2d_cat_multi_stim_exp1","2022-5-4","10:23:43","25","75","3","9","10","40","30","120","87","18","[""White""]","No","Female","2011329","null","null","","","","clear_screen","","","","","","","","","","","","","","","","","","","","","","","","","",""
"","","","","","canvas-keyboard-response","37","225570","0.0-12.0-0.5","2d_cat_multi_stim_exp1","2022-5-4","10:23:43","25","75","3","9","10","40","30","120","87","18","[""White""]","No","Female","2011329","null","null","","","","fixation","","","","","","","","","","","","","","","","","","","","","","","","","",""
"","","","","","canvas-keyboard-response","38","226084","0.0-12.0-1.5","2d_cat_multi_stim_exp1","2022-5-4","10:23:43","25","75","3","9","10","40","30","120","87","18","[""White""]","No","Female","2011329","null","null","","","","clear_screen","","","","","","","","","","","","","","","","","","","","","","","","","",""
"","","","","","canvas-keyboard-response","39","227144","0.0-12.0-2.5","2d_cat_multi_stim_exp1","2022-5-4","10:23:43","25","75","3","9","10","40","30","120","87","18","[""White""]","No","Female","2011329","1050","i","learn","","","learn_trial","10","110","out","1","0","","","","","","","","","","","","","","","","","","","","",""
"","","","","","canvas-keyboard-response","40","227654","0.0-12.0-3.5","2d_cat_multi_stim_exp1","2022-5-4","10:23:43","25","75","3","9","10","40","30","120","87","18","[""White""]","No","Female","2011329","null","null","learn_feedback","","","learn_feedback","10","110","out","","","","","","","","","","","","","","","","","","","","","","",""
"","","","","","canvas-keyboard-response","41","227716","0.0-12.0-4.5","2d_cat_multi_stim_exp1","2022-5-4","10:23:43","25","75","3","9","10","40","30","120","87","18","[""White""]","No","Female","2011329","null","null","","","","clear_screen","","","","","","","","","","","","","","","","","","","","","","","","","",""
"","","","","","canvas-keyboard-response","42","228225","0.0-12.0-0.6","2d_cat_multi_stim_exp1","2022-5-4","10:23:43","25","75","3","9","10","40","30","120","87","18","[""White""]","No","Female","2011329","null","null","","","","fixation","","","","","","","","","","","","","","","","","","","","","","","","","",""
"","","","","","canvas-keyboard-response","43","228737","0.0-12.0-1.6","2d_cat_multi_stim_exp1","2022-5-4","10:23:43","25","75","3","9","10","40","30","120","87","18","[""White""]","No","Female","2011329","null","null","","","","clear_screen","","","","","","","","","","","","","","","","","","","","","","","","","",""
"","","","","","canvas-keyboard-response","44","229952","0.0-12.0-2.6","2d_cat_multi_stim_exp1","2022-5-4","10:23:43","25","75","3","9","10","40","30","120","87","18","[""White""]","No","Female","2011329","1206","u","learn","","","learn_trial","26.6667","80","out","0","1","","","","","","","","","","","","","","","","","","","","",""
"","","","","","canvas-keyboard-response","45","230963","0.0-12.0-3.6","2d_cat_multi_stim_exp1","2022-5-4","10:23:43","25","75","3","9","10","40","30","120","87","18","[""White""]","No","Female","2011329","null","null","learn_feedback","","","learn_feedback","26.6667","80","out","","","","","","","","","","","","","","","","","","","","","","",""
"","","","","","canvas-keyboard-response","46","231026","0.0-12.0-4.6","2d_cat_multi_stim_exp1","2022-5-4","10:23:43","25","75","3","9","10","40","30","120","87","18","[""White""]","No","Female","2011329","null","null","","","","clear_screen","","","","","","","","","","","","","","","","","","","","","","","","","",""
"","","","","","canvas-keyboard-response","47","231535","0.0-12.0-0.7","2d_cat_multi_stim_exp1","2022-5-4","10:23:43","25","75","3","9","10","40","30","120","87","18","[""White""]","No","Female","2011329","null","null","","","","fixation","","","","","","","","","","","","","","","","","","","","","","","","","",""
"","","","","","canvas-keyboard-response","48","232048","0.0-12.0-1.7","2d_cat_multi_stim_exp1","2022-5-4","10:23:43","25","75","3","9","10","40","30","120","87","18","[""White""]","No","Female","2011329","null","null","","","","clear_screen","","","","","","","","","","","","","","","","","","","","","","","","","",""
"","","","","","canvas-keyboard-response","49","233096","0.0-12.0-2.7","2d_cat_multi_stim_exp1","2022-5-4","10:23:43","25","75","3","9","10","40","30","120","87","18","[""White""]","No","Female","2011329","1036","u","learn","","","learn_trial","24.3324","83.7744","in","1","1","","","","","","","","","","","","","","","","","","","","",""
"","","","","","canvas-keyboard-response","50","233605","0.0-12.0-3.7","2d_cat_multi_stim_exp1","2022-5-4","10:23:43","25","75","3","9","10","40","30","120","87","18","[""White""]","No","Female","2011329","null","null","learn_feedback","","","learn_feedback","24.3324","83.7744","in","","","","","","","","","","","","","","","","","","","","","","",""
"","","","","","canvas-keyboard-response","51","233665","0.0-12.0-4.7","2d_cat_multi_stim_exp1","2022-5-4","10:23:43","25","75","3","9","10","40","30","120","87","18","[""White""]","No","Female","2011329","null","null","","","","clear_screen","","","","","","","","","","","","","","","","","","","","","","","","","",""
"","","","","","canvas-keyboard-response","52","234175","0.0-12.0-0.8","2d_cat_multi_stim_exp1","2022-5-4","10:23:43","25","75","3","9","10","40","30","120","87","18","[""White""]","No","Female","2011329","null","null","","","","fixation","","","","","","","","","","","","","","","","","","","","","","","","","",""
"","","","","","canvas-keyboard-response","53","234687","0.0-12.0-1.8","2d_cat_multi_stim_exp1","2022-5-4","10:23:43","25","75","3","9","10","40","30","120","87","18","[""White""]","No","Female","2011329","null","null","","","","clear_screen","","","","","","","","","","","","","","","","","","","","","","","","","",""
"","","","","","canvas-keyboard-response","54","235832","0.0-12.0-2.8","2d_cat_multi_stim_exp1","2022-5-4","10:23:43","25","75","3","9","10","40","30","120","87","18","[""White""]","No","Female","2011329","1136","i","learn","","","learn_trial","25","75","in","0","0","","","","","","","","","","","","","","","","","","","","",""
"","","","","","canvas-keyboard-response","55","236844","0.0-12.0-3.8","2d_cat_multi_stim_exp1","2022-5-4","10:23:43","25","75","3","9","10","40","30","120","87","18","[""White""]","No","Female","2011329","null","null","learn_feedback","","","learn_feedback","25","75","in","","","","","","","","","","","","","","","","","","","","","","",""
"","","","","","canvas-keyboard-response","56","236908","0.0-12.0-4.8","2d_cat_multi_stim_exp1","2022-5-4","10:23:43","25","75","3","9","10","40","30","120","87","18","[""White""]","No","Female","2011329","null","null","","","","clear_screen","","","","","","","","","","","","","","","","","","","","","","","","","",""
"","","","","","canvas-keyboard-response","57","237415","0.0-12.0-0.9","2d_cat_multi_stim_exp1","2022-5-4","10:23:43","25","75","3","9","10","40","30","120","87","18","[""White""]","No","Female","2011329","null","null","","","","fixation","","","","","","","","","","","","","","","","","","","","","","","","","",""
"","","","","","canvas-keyboard-response","58","237927","0.0-12.0-1.9","2d_cat_multi_stim_exp1","2022-5-4","10:23:43","25","75","3","9","10","40","30","120","87","18","[""White""]","No","Female","2011329","null","null","","","","clear_screen","","","","","","","","","","","","","","","","","","","","","","","","","",""
"","","","","","canvas-keyboard-response","59","238640","0.0-12.0-2.9","2d_cat_multi_stim_exp1","2022-5-4","10:23:43","25","75","3","9","10","40","30","120","87","18","[""White""]","No","Female","2011329","700","u","learn","","","learn_trial","25","75","in","1","1","","","","","","","","","","","","","","","","","","","","",""
"","","","","","canvas-keyboard-response","60","239148","0.0-12.0-3.9","2d_cat_multi_stim_exp1","2022-5-4","10:23:43","25","75","3","9","10","40","30","120","87","18","[""White""]","No","Female","2011329","null","null","learn_feedback","","","learn_feedback","25","75","in","","","","","","","","","","","","","","","","","","","","","","",""
"","","","","","canvas-keyboard-response","61","239207","0.0-12.0-4.9","2d_cat_multi_stim_exp1","2022-5-4","10:23:43","25","75","3","9","10","40","30","120","87","18","[""White""]","No","Female","2011329","null","null","","","","clear_screen","","","","","","","","","","","","","","","","","","","","","","","","","",""
"","","","","","canvas-keyboard-response","62","239715","0.0-12.0-0.10","2d_cat_multi_stim_exp1","2022-5-4","10:23:43","25","75","3","9","10","40","30","120","87","18","[""White""]","No","Female","2011329","null","null","","","","fixation","","","","","","","","","","","","","","","","","","","","","","","","","",""
"","","","","","canvas-keyboard-response","63","240226","0.0-12.0-1.10","2d_cat_multi_stim_exp1","2022-5-4","10:23:43","25","75","3","9","10","40","30","120","87","18","[""White""]","No","Female","2011329","null","null","","","","clear_screen","","","","","","","","","","","","","","","","","","","","","","","","","",""
"","","","","","canvas-keyboard-response","64","240905","0.0-12.0-2.10","2d_cat_multi_stim_exp1","2022-5-4","10:23:43","25","75","3","9","10","40","30","120","87","18","[""White""]","No","Female","2011329","670","u","learn","","","learn_trial","25","75","in","1","1","","","","","","","","","","","","","","","","","","","","",""
"","","","","","canvas-keyboard-response","65","241415","0.0-12.0-3.10","2d_cat_multi_stim_exp1","2022-5-4","10:23:43","25","75","3","9","10","40","30","120","87","18","[""White""]","No","Female","2011329","null","null","learn_feedback","","","learn_feedback","25","75","in","","","","","","","","","","","","","","","","","","","","","","",""
"","","","","","canvas-keyboard-response","66","241474","0.0-12.0-4.10","2d_cat_multi_stim_exp1","2022-5-4","10:23:43","25","75","3","9","10","40","30","120","87","18","[""White""]","No","Female","2011329","null","null","","","","clear_screen","","","","","","","","","","","","","","","","","","","","","","","","","",""
"","","","","","canvas-keyboard-response","67","241980","0.0-12.0-0.11","2d_cat_multi_stim_exp1","2022-5-4","10:23:43","25","75","3","9","10","40","30","120","87","18","[""White""]","No","Female","2011329","null","null","","","","fixation","","","","","","","","","","","","","","","","","","","","","","","","","",""
"","","","","","canvas-keyboard-response","68","242489","0.0-12.0-1.11","2d_cat_multi_stim_exp1","2022-5-4","10:23:43","25","75","3","9","10","40","30","120","87","18","[""White""]","No","Female","2011329","null","null","","","","clear_screen","","","","","","","","","","","","","","","","","","","","","","","","","",""
"","","","","","canvas-keyboard-response","69","243280","0.0-12.0-2.11","2d_cat_multi_stim_exp1","2022-5-4","10:23:43","25","75","3","9","10","40","30","120","87","18","[""White""]","No","Female","2011329","780","u","learn","","","learn_trial","25","75","in","1","1","","","","","","","","","","","","","","","","","","","","",""
"","","","","","canvas-keyboard-response","70","243791","0.0-12.0-3.11","2d_cat_multi_stim_exp1","2022-5-4","10:23:43","25","75","3","9","10","40","30","120","87","18","[""White""]","No","Female","2011329","null","null","learn_feedback","","","learn_feedback","25","75","in","","","","","","","","","","","","","","","","","","","","","","",""
"","","","","","canvas-keyboard-response","71","243853","0.0-12.0-4.11","2d_cat_multi_stim_exp1","2022-5-4","10:23:43","25","75","3","9","10","40","30","120","87","18","[""White""]","No","Female","2011329","null","null","","","","clear_screen","","","","","","","","","","","","","","","","","","","","","","","","","",""
"","","","","","canvas-keyboard-response","72","244360","0.0-12.0-0.12","2d_cat_multi_stim_exp1","2022-5-4","10:23:43","25","75","3","9","10","40","30","120","87","18","[""White""]","No","Female","2011329","null","null","","","","fixation","","","","","","","","","","","","","","","","","","","","","","","","","",""
"","","","","","canvas-keyboard-response","73","244868","0.0-12.0-1.12","2d_cat_multi_stim_exp1","2022-5-4","10:23:43","25","75","3","9","10","40","30","120","87","18","[""White""]","No","Female","2011329","null","null","","","","clear_screen","","","","","","","","","","","","","","","","","","","","","","","","","",""
"","","","","","canvas-keyboard-response","74","245983","0.0-12.0-2.12","2d_cat_multi_stim_exp1","2022-5-4","10:23:43","25","75","3","9","10","40","30","120","87","18","[""White""]","No","Female","2011329","1105","u","learn","","","learn_trial","16.6667","50","out","0","1","","","","","","","","","","","","","","","","","","","","",""
"","","","","","canvas-keyboard-response","75","246997","0.0-12.0-3.12","2d_cat_multi_stim_exp1","2022-5-4","10:23:43","25","75","3","9","10","40","30","120","87","18","[""White""]","No","Female","2011329","null","null","learn_feedback","","","learn_feedback","16.6667","50","out","","","","","","","","","","","","","","","","","","","","","","",""
"","","","","","canvas-keyboard-response","76","247057","0.0-12.0-4.12","2d_cat_multi_stim_exp1","2022-5-4","10:23:43","25","75","3","9","10","40","30","120","87","18","[""White""]","No","Female","2011329","null","null","","","","clear_screen","","","","","","","","","","","","","","","","","","","","","","","","","",""
"","","","","","canvas-keyboard-response","77","247570","0.0-12.0-0.13","2d_cat_multi_stim_exp1","2022-5-4","10:23:43","25","75","3","9","10","40","30","120","87","18","[""White""]","No","Female","2011329","null","null","","","","fixation","","","","","","","","","","","","","","","","","","","","","","","","","",""
"","","","","","canvas-keyboard-response","78","248081","0.0-12.0-1.13","2d_cat_multi_stim_exp1","2022-5-4","10:23:43","25","75","3","9","10","40","30","120","87","18","[""White""]","No","Female","2011329","null","null","","","","clear_screen","","","","","","","","","","","","","","","","","","","","","","","","","",""
"","","","","","canvas-keyboard-response","79","248921","0.0-12.0-2.13","2d_cat_multi_stim_exp1","2022-5-4","10:23:43","25","75","3","9","10","40","30","120","87","18","[""White""]","No","Female","2011329","827","u","learn","","","learn_trial","25","75","in","1","1","","","","","","","","","","","","","","","","","","","","",""
"","","","","","canvas-keyboard-response","80","249431","0.0-12.0-3.13","2d_cat_multi_stim_exp1","2022-5-4","10:23:43","25","75","3","9","10","40","30","120","87","18","[""White""]","No","Female","2011329","null","null","learn_feedback","","","learn_feedback","25","75","in","","","","","","","","","","","","","","","","","","","","","","",""
"","","","","","canvas-keyboard-response","81","249495","0.0-12.0-4.13","2d_cat_multi_stim_exp1","2022-5-4","10:23:43","25","75","3","9","10","40","30","120","87","18","[""White""]","No","Female","2011329","null","null","","","","clear_screen","","","","","","","","","","","","","","","","","","","","","","","","","",""
"","","","","","canvas-keyboard-response","82","250006","0.0-12.0-0.14","2d_cat_multi_stim_exp1","2022-5-4","10:23:43","25","75","3","9","10","40","30","120","87","18","[""White""]","No","Female","2011329","null","null","","","","fixation","","","","","","","","","","","","","","","","","","","","","","","","","",""
"","","","","","canvas-keyboard-response","83","250516","0.0-12.0-1.14","2d_cat_multi_stim_exp1","2022-5-4","10:23:43","25","75","3","9","10","40","30","120","87","18","[""White""]","No","Female","2011329","null","null","","","","clear_screen","","","","","","","","","","","","","","","","","","","","","","","","","",""
"","","","","","canvas-keyboard-response","84","251353","0.0-12.0-2.14","2d_cat_multi_stim_exp1","2022-5-4","10:23:43","25","75","3","9","10","40","30","120","87","18","[""White""]","No","Female","2011329","828","i","learn","","","learn_trial","23.3333","40","out","1","0","","","","","","","","","","","","","","","","","","","","",""
"","","","","","canvas-keyboard-response","85","251863","0.0-12.0-3.14","2d_cat_multi_stim_exp1","2022-5-4","10:23:43","25","75","3","9","10","40","30","120","87","18","[""White""]","No","Female","2011329","null","null","learn_feedback","","","learn_feedback","23.3333","40","out","","","","","","","","","","","","","","","","","","","","","","",""
"","","","","","canvas-keyboard-response","86","251921","0.0-12.0-4.14","2d_cat_multi_stim_exp1","2022-5-4","10:23:43","25","75","3","9","10","40","30","120","87","18","[""White""]","No","Female","2011329","null","null","","","","clear_screen","","","","","","","","","","","","","","","","","","","","","","","","","",""
"","","","","","canvas-keyboard-response","87","252429","0.0-12.0-0.15","2d_cat_multi_stim_exp1","2022-5-4","10:23:43","25","75","3","9","10","40","30","120","87","18","[""White""]","No","Female","2011329","null","null","","","","fixation","","","","","","","","","","","","","","","","","","","","","","","","","",""
"","","","","","canvas-keyboard-response","88","252941","0.0-12.0-1.15","2d_cat_multi_stim_exp1","2022-5-4","10:23:43","25","75","3","9","10","40","30","120","87","18","[""White""]","No","Female","2011329","null","null","","","","clear_screen","","","","","","","","","","","","","","","","","","","","","","","","","",""
"","","","","","canvas-keyboard-response","89","253600","0.0-12.0-2.15","2d_cat_multi_stim_exp1","2022-5-4","10:23:43","25","75","3","9","10","40","30","120","87","18","[""White""]","No","Female","2011329","649","i","learn","","","learn_trial","26.6667","30","out","1","0","","","","","","","","","","","","","","","","","","","","",""
"","","","","","canvas-keyboard-response","90","254106","0.0-12.0-3.15","2d_cat_multi_stim_exp1","2022-5-4","10:23:43","25","75","3","9","10","40","30","120","87","18","[""White""]","No","Female","2011329","null","null","learn_feedback","","","learn_feedback","26.6667","30","out","","","","","","","","","","","","","","","","","","","","","","",""
"","","","","","canvas-keyboard-response","91","254165","0.0-12.0-4.15","2d_cat_multi_stim_exp1","2022-5-4","10:23:43","25","75","3","9","10","40","30","120","87","18","[""White""]","No","Female","2011329","null","null","","","","clear_screen","","","","","","","","","","","","","","","","","","","","","","","","","",""
"","","","","","canvas-keyboard-response","92","254678","0.0-12.0-0.16","2d_cat_multi_stim_exp1","2022-5-4","10:23:43","25","75","3","9","10","40","30","120","87","18","[""White""]","No","Female","2011329","null","null","","","","fixation","","","","","","","","","","","","","","","","","","","","","","","","","",""
"","","","","","canvas-keyboard-response","93","255187","0.0-12.0-1.16","2d_cat_multi_stim_exp1","2022-5-4","10:23:43","25","75","3","9","10","40","30","120","87","18","[""White""]","No","Female","2011329","null","null","","","","clear_screen","","","","","","","","","","","","","","","","","","","","","","","","","",""
"","","","","","canvas-keyboard-response","94","256440","0.0-12.0-2.16","2d_cat_multi_stim_exp1","2022-5-4","10:23:43","25","75","3","9","10","40","30","120","87","18","[""White""]","No","Female","2011329","1241","i","learn","","","learn_trial","23.3333","50","out","1","0","","","","","","","","","","","","","","","","","","","","",""
"","","","","","canvas-keyboard-response","95","256951","0.0-12.0-3.16","2d_cat_multi_stim_exp1","2022-5-4","10:23:43","25","75","3","9","10","40","30","120","87","18","[""White""]","No","Female","2011329","null","null","learn_feedback","","","learn_feedback","23.3333","50","out","","","","","","","","","","","","","","","","","","","","","","",""
"","","","","","canvas-keyboard-response","96","257015","0.0-12.0-4.16","2d_cat_multi_stim_exp1","2022-5-4","10:23:43","25","75","3","9","10","40","30","120","87","18","[""White""]","No","Female","2011329","null","null","","","","clear_screen","","","","","","","","","","","","","","","","","","","","","","","","","",""
"","","","","","canvas-keyboard-response","97","257524","0.0-12.0-0.17","2d_cat_multi_stim_exp1","2022-5-4","10:23:43","25","75","3","9","10","40","30","120","87","18","[""White""]","No","Female","2011329","null","null","","","","fixation","","","","","","","","","","","","","","","","","","","","","","","","","",""
"","","","","","canvas-keyboard-response","98","258037","0.0-12.0-1.17","2d_cat_multi_stim_exp1","2022-5-4","10:23:43","25","75","3","9","10","40","30","120","87","18","[""White""]","No","Female","2011329","null","null","","","","clear_screen","","","","","","","","","","","","","","","","","","","","","","","","","",""
"","","","","","canvas-keyboard-response","99","259368","0.0-12.0-2.17","2d_cat_multi_stim_exp1","2022-5-4","10:23:43","25","75","3","9","10","40","30","120","87","18","[""White""]","No","Female","2011329","1322","i","learn","","","learn_trial","33.3333","100","out","1","0","","","","","","","","","","","","","","","","","","","","",""
"","","","","","canvas-keyboard-response","100","259879","0.0-12.0-3.17","2d_cat_multi_stim_exp1","2022-5-4","10:23:43","25","75","3","9","10","40","30","120","87","18","[""White""]","No","Female","2011329","null","null","learn_feedback","","","learn_feedback","33.3333","100","out","","","","","","","","","","","","","","","","","","","","","","",""
"","","","","","canvas-keyboard-response","101","259938","0.0-12.0-4.17","2d_cat_multi_stim_exp1","2022-5-4","10:23:43","25","75","3","9","10","40","30","120","87","18","[""White""]","No","Female","2011329","null","null","","","","clear_screen","","","","","","","","","","","","","","","","","","","","","","","","","",""
"","","","","","canvas-keyboard-response","102","260447","0.0-12.0-0.18","2d_cat_multi_stim_exp1","2022-5-4","10:23:43","25","75","3","9","10","40","30","120","87","18","[""White""]","No","Female","2011329","null","null","","","","fixation","","","","","","","","","","","","","","","","","","","","","","","","","",""
"","","","","","canvas-keyboard-response","103","260957","0.0-12.0-1.18","2d_cat_multi_stim_exp1","2022-5-4","10:23:43","25","75","3","9","10","40","30","120","87","18","[""White""]","No","Female","2011329","null","null","","","","clear_screen","","","","","","","","","","","","","","","","","","","","","","","","","",""
"","","","","","canvas-keyboard-response","104","261800","0.0-12.0-2.18","2d_cat_multi_stim_exp1","2022-5-4","10:23:43","25","75","3","9","10","40","30","120","87","18","[""White""]","No","Female","2011329","832","u","learn","","","learn_trial","22.2971","78.905","in","1","1","","","","","","","","","","","","","","","","","","","","",""
"","","","","","canvas-keyboard-response","105","262309","0.0-12.0-3.18","2d_cat_multi_stim_exp1","2022-5-4","10:23:43","25","75","3","9","10","40","30","120","87","18","[""White""]","No","Female","2011329","null","null","learn_feedback","","","learn_feedback","22.2971","78.905","in","","","","","","","","","","","","","","","","","","","","","","",""
"","","","","","canvas-keyboard-response","106","262370","0.0-12.0-4.18","2d_cat_multi_stim_exp1","2022-5-4","10:23:43","25","75","3","9","10","40","30","120","87","18","[""White""]","No","Female","2011329","null","null","","","","clear_screen","","","","","","","","","","","","","","","","","","","","","","","","","",""
"","","","","","canvas-keyboard-response","107","262878","0.0-12.0-0.19","2d_cat_multi_stim_exp1","2022-5-4","10:23:43","25","75","3","9","10","40","30","120","87","18","[""White""]","No","Female","2011329","null","null","","","","fixation","","","","","","","","","","","","","","","","","","","","","","","","","",""
"","","","","","canvas-keyboard-response","108","263389","0.0-12.0-1.19","2d_cat_multi_stim_exp1","2022-5-4","10:23:43","25","75","3","9","10","40","30","120","87","18","[""White""]","No","Female","2011329","null","null","","","","clear_screen","","","","","","","","","","","","","","","","","","","","","","","","","",""
"","","","","","canvas-keyboard-response","109","264216","0.0-12.0-2.19","2d_cat_multi_stim_exp1","2022-5-4","10:23:43","25","75","3","9","10","40","30","120","87","18","[""White""]","No","Female","2011329","819","u","learn","","","learn_trial","25","75","in","1","1","","","","","","","","","","","","","","","","","","","","",""
"","","","","","canvas-keyboard-response","110","264726","0.0-12.0-3.19","2d_cat_multi_stim_exp1","2022-5-4","10:23:43","25","75","3","9","10","40","30","120","87","18","[""White""]","No","Female","2011329","null","null","learn_feedback","","","learn_feedback","25","75","in","","","","","","","","","","","","","","","","","","","","","","",""
"","","","","","canvas-keyboard-response","111","264789","0.0-12.0-4.19","2d_cat_multi_stim_exp1","2022-5-4","10:23:43","25","75","3","9","10","40","30","120","87","18","[""White""]","No","Female","2011329","null","null","","","","clear_screen","","","","","","","","","","","","","","","","","","","","","","","","","",""
"","","","","","canvas-keyboard-response","112","265293","0.0-12.0-0.20","2d_cat_multi_stim_exp1","2022-5-4","10:23:43","25","75","3","9","10","40","30","120","87","18","[""White""]","No","Female","2011329","null","null","","","","fixation","","","","","","","","","","","","","","","","","","","","","","","","","",""
"","","","","","canvas-keyboard-response","113","265804","0.0-12.0-1.20","2d_cat_multi_stim_exp1","2022-5-4","10:23:43","25","75","3","9","10","40","30","120","87","18","[""White""]","No","Female","2011329","null","null","","","","clear_screen","","","","","","","","","","","","","","","","","","","","","","","","","",""
"","","","","","canvas-keyboard-response","114","266590","0.0-12.0-2.20","2d_cat_multi_stim_exp1","2022-5-4","10:23:43","25","75","3","9","10","40","30","120","87","18","[""White""]","No","Female","2011329","778","u","learn","","","learn_trial","27.5753","79.6161","in","1","1","","","","","","","","","","","","","","","","","","","","",""
"","","","","","canvas-keyboard-response","115","267096","0.0-12.0-3.20","2d_cat_multi_stim_exp1","2022-5-4","10:23:43","25","75","3","9","10","40","30","120","87","18","[""White""]","No","Female","2011329","null","null","learn_feedback","","","learn_feedback","27.5753","79.6161","in","","","","","","","","","","","","","","","","","","","","","","",""
"","","","","","canvas-keyboard-response","116","267155","0.0-12.0-4.20","2d_cat_multi_stim_exp1","2022-5-4","10:23:43","25","75","3","9","10","40","30","120","87","18","[""White""]","No","Female","2011329","null","null","","","","clear_screen","","","","","","","","","","","","","","","","","","","","","","","","","",""
"","","","","","canvas-keyboard-response","117","267664","0.0-12.0-0.21","2d_cat_multi_stim_exp1","2022-5-4","10:23:43","25","75","3","9","10","40","30","120","87","18","[""White""]","No","Female","2011329","null","null","","","","fixation","","","","","","","","","","","","","","","","","","","","","","","","","",""
"","","","","","canvas-keyboard-response","118","268179","0.0-12.0-1.21","2d_cat_multi_stim_exp1","2022-5-4","10:23:43","25","75","3","9","10","40","30","120","87","18","[""White""]","No","Female","2011329","null","null","","","","clear_screen","","","","","","","","","","","","","","","","","","","","","","","","","",""
"","","","","","canvas-keyboard-response","119","269207","0.0-12.0-2.21","2d_cat_multi_stim_exp1","2022-5-4","10:23:43","25","75","3","9","10","40","30","120","87","18","[""White""]","No","Female","2011329","1019","u","learn","","","learn_trial","25","75","in","1","1","","","","","","","","","","","","","","","","","","","","",""
"","","","","","canvas-keyboard-response","120","269720","0.0-12.0-3.21","2d_cat_multi_stim_exp1","2022-5-4","10:23:43","25","75","3","9","10","40","30","120","87","18","[""White""]","No","Female","2011329","null","null","learn_feedback","","","learn_feedback","25","75","in","","","","","","","","","","","","","","","","","","","","","","",""
"","","","","","canvas-keyboard-response","121","269779","0.0-12.0-4.21","2d_cat_multi_stim_exp1","2022-5-4","10:23:43","25","75","3","9","10","40","30","120","87","18","[""White""]","No","Female","2011329","null","null","","","","clear_screen","","","","","","","","","","","","","","","","","","","","","","","","","",""
"","","","","","canvas-keyboard-response","122","270289","0.0-12.0-0.22","2d_cat_multi_stim_exp1","2022-5-4","10:23:43","25","75","3","9","10","40","30","120","87","18","[""White""]","No","Female","2011329","null","null","","","","fixation","","","","","","","","","","","","","","","","","","","","","","","","","",""
"","","","","","canvas-keyboard-response","123","270801","0.0-12.0-1.22","2d_cat_multi_stim_exp1","2022-5-4","10:23:43","25","75","3","9","10","40","30","120","87","18","[""White""]","No","Female","2011329","null","null","","","","clear_screen","","","","","","","","","","","","","","","","","","","","","","","","","",""
"","","","","","canvas-keyboard-response","124","272025","0.0-12.0-2.22","2d_cat_multi_stim_exp1","2022-5-4","10:23:43","25","75","3","9","10","40","30","120","87","18","[""White""]","No","Female","2011329","1215","u","learn","","","learn_trial","25","75","in","1","1","","","","","","","","","","","","","","","","","","","","",""
"","","","","","canvas-keyboard-response","125","272533","0.0-12.0-3.22","2d_cat_multi_stim_exp1","2022-5-4","10:23:43","25","75","3","9","10","40","30","120","87","18","[""White""]","No","Female","2011329","null","null","learn_feedback","","","learn_feedback","25","75","in","","","","","","","","","","","","","","","","","","","","","","",""
"","","","","","canvas-keyboard-response","126","272593","0.0-12.0-4.22","2d_cat_multi_stim_exp1","2022-5-4","10:23:43","25","75","3","9","10","40","30","120","87","18","[""White""]","No","Female","2011329","null","null","","","","clear_screen","","","","","","","","","","","","","","","","","","","","","","","","","",""
"","","","","","canvas-keyboard-response","127","273103","0.0-12.0-0.23","2d_cat_multi_stim_exp1","2022-5-4","10:23:43","25","75","3","9","10","40","30","120","87","18","[""White""]","No","Female","2011329","null","null","","","","fixation","","","","","","","","","","","","","","","","","","","","","","","","","",""
"","","","","","canvas-keyboard-response","128","273614","0.0-12.0-1.23","2d_cat_multi_stim_exp1","2022-5-4","10:23:43","25","75","3","9","10","40","30","120","87","18","[""White""]","No","Female","2011329","null","null","","","","clear_screen","","","","","","","","","","","","","","","","","","","","","","","","","",""
"","","","","","canvas-keyboard-response","129","274449","0.0-12.0-2.23","2d_cat_multi_stim_exp1","2022-5-4","10:23:43","25","75","3","9","10","40","30","120","87","18","[""White""]","No","Female","2011329","825","i","learn","","","learn_trial","23.3333","90","out","1","0","","","","","","","","","","","","","","","","","","","","",""
"","","","","","canvas-keyboard-response","130","274958","0.0-12.0-3.23","2d_cat_multi_stim_exp1","2022-5-4","10:23:43","25","75","3","9","10","40","30","120","87","18","[""White""]","No","Female","2011329","null","null","learn_feedback","","","learn_feedback","23.3333","90","out","","","","","","","","","","","","","","","","","","","","","","",""
"","","","","","canvas-keyboard-response","131","275022","0.0-12.0-4.23","2d_cat_multi_stim_exp1","2022-5-4","10:23:43","25","75","3","9","10","40","30","120","87","18","[""White""]","No","Female","2011329","null","null","","","","clear_screen","","","","","","","","","","","","","","","","","","","","","","","","","",""
"","","","","","canvas-keyboard-response","132","275529","0.0-12.0-0.24","2d_cat_multi_stim_exp1","2022-5-4","10:23:43","25","75","3","9","10","40","30","120","87","18","[""White""]","No","Female","2011329","null","null","","","","fixation","","","","","","","","","","","","","","","","","","","","","","","","","",""
"","","","","","canvas-keyboard-response","133","276039","0.0-12.0-1.24","2d_cat_multi_stim_exp1","2022-5-4","10:23:43","25","75","3","9","10","40","30","120","87","18","[""White""]","No","Female","2011329","null","null","","","","clear_screen","","","","","","","","","","","","","","","","","","","","","","","","","",""
"","","","","","canvas-keyboard-response","134","276871","0.0-12.0-2.24","2d_cat_multi_stim_exp1","2022-5-4","10:23:43","25","75","3","9","10","40","30","120","87","18","[""White""]","No","Female","2011329","826","i","learn","","","learn_trial","13.3333","120","out","1","0","","","","","","","","","","","","","","","","","","","","",""
"","","","","","canvas-keyboard-response","135","277383","0.0-12.0-3.24","2d_cat_multi_stim_exp1","2022-5-4","10:23:43","25","75","3","9","10","40","30","120","87","18","[""White""]","No","Female","2011329","null","null","learn_feedback","","","learn_feedback","13.3333","120","out","","","","","","","","","","","","","","","","","","","","","","",""
"","","","","","canvas-keyboard-response","136","277447","0.0-12.0-4.24","2d_cat_multi_stim_exp1","2022-5-4","10:23:43","25","75","3","9","10","40","30","120","87","18","[""White""]","No","Female","2011329","null","null","","","","clear_screen","","","","","","","","","","","","","","","","","","","","","","","","","",""
"","","","","","canvas-keyboard-response","137","277954","0.0-12.0-0.25","2d_cat_multi_stim_exp1","2022-5-4","10:23:43","25","75","3","9","10","40","30","120","87","18","[""White""]","No","Female","2011329","null","null","","","","fixation","","","","","","","","","","","","","","","","","","","","","","","","","",""
"","","","","","canvas-keyboard-response","138","278466","0.0-12.0-1.25","2d_cat_multi_stim_exp1","2022-5-4","10:23:43","25","75","3","9","10","40","30","120","87","18","[""White""]","No","Female","2011329","null","null","","","","clear_screen","","","","","","","","","","","","","","","","","","","","","","","","","",""
"","","","","","canvas-keyboard-response","139","279225","0.0-12.0-2.25","2d_cat_multi_stim_exp1","2022-5-4","10:23:43","25","75","3","9","10","40","30","120","87","18","[""White""]","No","Female","2011329","751","u","learn","","","learn_trial","25","75","in","1","1","","","","","","","","","","","","","","","","","","","","",""
"","","","","","canvas-keyboard-response","140","279735","0.0-12.0-3.25","2d_cat_multi_stim_exp1","2022-5-4","10:23:43","25","75","3","9","10","40","30","120","87","18","[""White""]","No","Female","2011329","null","null","learn_feedback","","","learn_feedback","25","75","in","","","","","","","","","","","","","","","","","","","","","","",""
"","","","","","canvas-keyboard-response","141","279799","0.0-12.0-4.25","2d_cat_multi_stim_exp1","2022-5-4","10:23:43","25","75","3","9","10","40","30","120","87","18","[""White""]","No","Female","2011329","null","null","","","","clear_screen","","","","","","","","","","","","","","","","","","","","","","","","","",""
"","","","","","canvas-keyboard-response","142","280306","0.0-12.0-0.26","2d_cat_multi_stim_exp1","2022-5-4","10:23:43","25","75","3","9","10","40","30","120","87","18","[""White""]","No","Female","2011329","null","null","","","","fixation","","","","","","","","","","","","","","","","","","","","","","","","","",""
"","","","","","canvas-keyboard-response","143","280820","0.0-12.0-1.26","2d_cat_multi_stim_exp1","2022-5-4","10:23:43","25","75","3","9","10","40","30","120","87","18","[""White""]","No","Female","2011329","null","null","","","","clear_screen","","","","","","","","","","","","","","","","","","","","","","","","","",""
"","","","","","canvas-keyboard-response","144","281487","0.0-12.0-2.26","2d_cat_multi_stim_exp1","2022-5-4","10:23:43","25","75","3","9","10","40","30","120","87","18","[""White""]","No","Female","2011329","658","i","learn","","","learn_trial","20","120","out","1","0","","","","","","","","","","","","","","","","","","","","",""
"","","","","","canvas-keyboard-response","145","281999","0.0-12.0-3.26","2d_cat_multi_stim_exp1","2022-5-4","10:23:43","25","75","3","9","10","40","30","120","87","18","[""White""]","No","Female","2011329","null","null","learn_feedback","","","learn_feedback","20","120","out","","","","","","","","","","","","","","","","","","","","","","",""
"","","","","","canvas-keyboard-response","146","282059","0.0-12.0-4.26","2d_cat_multi_stim_exp1","2022-5-4","10:23:43","25","75","3","9","10","40","30","120","87","18","[""White""]","No","Female","2011329","null","null","","","","clear_screen","","","","","","","","","","","","","","","","","","","","","","","","","",""
"","","","","","canvas-keyboard-response","147","282569","0.0-12.0-0.27","2d_cat_multi_stim_exp1","2022-5-4","10:23:43","25","75","3","9","10","40","30","120","87","18","[""White""]","No","Female","2011329","null","null","","","","fixation","","","","","","","","","","","","","","","","","","","","","","","","","",""
"","","","","","canvas-keyboard-response","148","283084","0.0-12.0-1.27","2d_cat_multi_stim_exp1","2022-5-4","10:23:43","25","75","3","9","10","40","30","120","87","18","[""White""]","No","Female","2011329","null","null","","","","clear_screen","","","","","","","","","","","","","","","","","","","","","","","","","",""
"","","","","","canvas-keyboard-response","149","283982","0.0-12.0-2.27","2d_cat_multi_stim_exp1","2022-5-4","10:23:43","25","75","3","9","10","40","30","120","87","18","[""White""]","No","Female","2011329","889","u","learn","","","learn_trial","25","75","in","1","1","","","","","","","","","","","","","","","","","","","","",""
"","","","","","canvas-keyboard-response","150","284490","0.0-12.0-3.27","2d_cat_multi_stim_exp1","2022-5-4","10:23:43","25","75","3","9","10","40","30","120","87","18","[""White""]","No","Female","2011329","null","null","learn_feedback","","","learn_feedback","25","75","in","","","","","","","","","","","","","","","","","","","","","","",""
"","","","","","canvas-keyboard-response","151","284552","0.0-12.0-4.27","2d_cat_multi_stim_exp1","2022-5-4","10:23:43","25","75","3","9","10","40","30","120","87","18","[""White""]","No","Female","2011329","null","null","","","","clear_screen","","","","","","","","","","","","","","","","","","","","","","","","","",""
"","","","","","canvas-keyboard-response","152","285061","0.0-12.0-0.28","2d_cat_multi_stim_exp1","2022-5-4","10:23:43","25","75","3","9","10","40","30","120","87","18","[""White""]","No","Female","2011329","null","null","","","","fixation","","","","","","","","","","","","","","","","","","","","","","","","","",""
"","","","","","canvas-keyboard-response","153","285575","0.0-12.0-1.28","2d_cat_multi_stim_exp1","2022-5-4","10:23:43","25","75","3","9","10","40","30","120","87","18","[""White""]","No","Female","2011329","null","null","","","","clear_screen","","","","","","","","","","","","","","","","","","","","","","","","","",""
"","","","","","canvas-keyboard-response","154","286505","0.0-12.0-2.28","2d_cat_multi_stim_exp1","2022-5-4","10:23:43","25","75","3","9","10","40","30","120","87","18","[""White""]","No","Female","2011329","917","i","learn","","","learn_trial","20","80","out","1","0","","","","","","","","","","","","","","","","","","","","",""
"","","","","","canvas-keyboard-response","155","287014","0.0-12.0-3.28","2d_cat_multi_stim_exp1","2022-5-4","10:23:43","25","75","3","9","10","40","30","120","87","18","[""White""]","No","Female","2011329","null","null","learn_feedback","","","learn_feedback","20","80","out","","","","","","","","","","","","","","","","","","","","","","",""
"","","","","","canvas-keyboard-response","156","287072","0.0-12.0-4.28","2d_cat_multi_stim_exp1","2022-5-4","10:23:43","25","75","3","9","10","40","30","120","87","18","[""White""]","No","Female","2011329","null","null","","","","clear_screen","","","","","","","","","","","","","","","","","","","","","","","","","",""
"","","","","","canvas-keyboard-response","157","287584","0.0-12.0-0.29","2d_cat_multi_stim_exp1","2022-5-4","10:23:43","25","75","3","9","10","40","30","120","87","18","[""White""]","No","Female","2011329","null","null","","","","fixation","","","","","","","","","","","","","","","","","","","","","","","","","",""
"","","","","","canvas-keyboard-response","158","288096","0.0-12.0-1.29","2d_cat_multi_stim_exp1","2022-5-4","10:23:43","25","75","3","9","10","40","30","120","87","18","[""White""]","No","Female","2011329","null","null","","","","clear_screen","","","","","","","","","","","","","","","","","","","","","","","","","",""
"","","","","","canvas-keyboard-response","159","289152","0.0-12.0-2.29","2d_cat_multi_stim_exp1","2022-5-4","10:23:43","25","75","3","9","10","40","30","120","87","18","[""White""]","No","Female","2011329","1047","i","learn","","","learn_trial","10","40","out","1","0","","","","","","","","","","","","","","","","","","","","",""
"","","","","","canvas-keyboard-response","160","289662","0.0-12.0-3.29","2d_cat_multi_stim_exp1","2022-5-4","10:23:43","25","75","3","9","10","40","30","120","87","18","[""White""]","No","Female","2011329","null","null","learn_feedback","","","learn_feedback","10","40","out","","","","","","","","","","","","","","","","","","","","","","",""
"","","","","","canvas-keyboard-response","161","289723","0.0-12.0-4.29","2d_cat_multi_stim_exp1","2022-5-4","10:23:43","25","75","3","9","10","40","30","120","87","18","[""White""]","No","Female","2011329","null","null","","","","clear_screen","","","","","","","","","","","","","","","","","","","","","","","","","",""
"","","","","","canvas-keyboard-response","162","290231","0.0-12.0-0.30","2d_cat_multi_stim_exp1","2022-5-4","10:23:43","25","75","3","9","10","40","30","120","87","18","[""White""]","No","Female","2011329","null","null","","","","fixation","","","","","","","","","","","","","","","","","","","","","","","","","",""
"","","","","","canvas-keyboard-response","163","290738","0.0-12.0-1.30","2d_cat_multi_stim_exp1","2022-5-4","10:23:43","25","75","3","9","10","40","30","120","87","18","[""White""]","No","Female","2011329","null","null","","","","clear_screen","","","","","","","","","","","","","","","","","","","","","","","","","",""
"","","","","","canvas-keyboard-response","164","291616","0.0-12.0-2.30","2d_cat_multi_stim_exp1","2022-5-4","10:23:43","25","75","3","9","10","40","30","120","87","18","[""White""]","No","Female","2011329","869","i","learn","","","learn_trial","33.3333","110","out","1","0","","","","","","","","","","","","","","","","","","","","",""
"","","","","","canvas-keyboard-response","165","292124","0.0-12.0-3.30","2d_cat_multi_stim_exp1","2022-5-4","10:23:43","25","75","3","9","10","40","30","120","87","18","[""White""]","No","Female","2011329","null","null","learn_feedback","","","learn_feedback","33.3333","110","out","","","","","","","","","","","","","","","","","","","","","","",""
"","","","","","canvas-keyboard-response","166","292188","0.0-12.0-4.30","2d_cat_multi_stim_exp1","2022-5-4","10:23:43","25","75","3","9","10","40","30","120","87","18","[""White""]","No","Female","2011329","null","null","","","","clear_screen","","","","","","","","","","","","","","","","","","","","","","","","","",""
"","","","","","canvas-keyboard-response","167","292697","0.0-12.0-0.31","2d_cat_multi_stim_exp1","2022-5-4","10:23:43","25","75","3","9","10","40","30","120","87","18","[""White""]","No","Female","2011329","null","null","","","","fixation","","","","","","","","","","","","","","","","","","","","","","","","","",""
"","","","","","canvas-keyboard-response","168","293210","0.0-12.0-1.31","2d_cat_multi_stim_exp1","2022-5-4","10:23:43","25","75","3","9","10","40","30","120","87","18","[""White""]","No","Female","2011329","null","null","","","","clear_screen","","","","","","","","","","","","","","","","","","","","","","","","","",""
"","","","","","canvas-keyboard-response","169","294040","0.0-12.0-2.31","2d_cat_multi_stim_exp1","2022-5-4","10:23:43","25","75","3","9","10","40","30","120","87","18","[""White""]","No","Female","2011329","825","i","learn","","","learn_trial","30","50","out","1","0","","","","","","","","","","","","","","","","","","","","",""
"","","","","","canvas-keyboard-response","170","294550","0.0-12.0-3.31","2d_cat_multi_stim_exp1","2022-5-4","10:23:43","25","75","3","9","10","40","30","120","87","18","[""White""]","No","Female","2011329","null","null","learn_feedback","","","learn_feedback","30","50","out","","","","","","","","","","","","","","","","","","","","","","",""
"","","","","","canvas-keyboard-response","171","294611","0.0-12.0-4.31","2d_cat_multi_stim_exp1","2022-5-4","10:23:43","25","75","3","9","10","40","30","120","87","18","[""White""]","No","Female","2011329","null","null","","","","clear_screen","","","","","","","","","","","","","","","","","","","","","","","","","",""
"","","","","","canvas-keyboard-response","172","295115","0.0-12.0-0.32","2d_cat_multi_stim_exp1","2022-5-4","10:23:43","25","75","3","9","10","40","30","120","87","18","[""White""]","No","Female","2011329","null","null","","","","fixation","","","","","","","","","","","","","","","","","","","","","","","","","",""
"","","","","","canvas-keyboard-response","173","295630","0.0-12.0-1.32","2d_cat_multi_stim_exp1","2022-5-4","10:23:43","25","75","3","9","10","40","30","120","87","18","[""White""]","No","Female","2011329","null","null","","","","clear_screen","","","","","","","","","","","","","","","","","","","","","","","","","",""
"","","","","","canvas-keyboard-response","174","296520","0.0-12.0-2.32","2d_cat_multi_stim_exp1","2022-5-4","10:23:43","25","75","3","9","10","40","30","120","87","18","[""White""]","No","Female","2011329","880","i","learn","","","learn_trial","25","75","in","0","0","","","","","","","","","","","","","","","","","","","","",""
"","","","","","canvas-keyboard-response","175","297531","0.0-12.0-3.32","2d_cat_multi_stim_exp1","2022-5-4","10:23:43","25","75","3","9","10","40","30","120","87","18","[""White""]","No","Female","2011329","null","null","learn_feedback","","","learn_feedback","25","75","in","","","","","","","","","","","","","","","","","","","","","","",""
"","","","","","canvas-keyboard-response","176","297590","0.0-12.0-4.32","2d_cat_multi_stim_exp1","2022-5-4","10:23:43","25","75","3","9","10","40","30","120","87","18","[""White""]","No","Female","2011329","null","null","","","","clear_screen","","","","","","","","","","","","","","","","","","","","","","","","","",""
"","","","","","canvas-keyboard-response","177","298102","0.0-12.0-0.33","2d_cat_multi_stim_exp1","2022-5-4","10:23:43","25","75","3","9","10","40","30","120","87","18","[""White""]","No","Female","2011329","null","null","","","","fixation","","","","","","","","","","","","","","","","","","","","","","","","","",""
"","","","","","canvas-keyboard-response","178","298613","0.0-12.0-1.33","2d_cat_multi_stim_exp1","2022-5-4","10:23:43","25","75","3","9","10","40","30","120","87","18","[""White""]","No","Female","2011329","null","null","","","","clear_screen","","","","","","","","","","","","","","","","","","","","","","","","","",""
"","","","","","canvas-keyboard-response","179","299944","0.0-12.0-2.33","2d_cat_multi_stim_exp1","2022-5-4","10:23:43","25","75","3","9","10","40","30","120","87","18","[""White""]","No","Female","2011329","1321","i","learn","","","learn_trial","13.3333","60","out","1","0","","","","","","","","","","","","","","","","","","","","",""
"","","","","","canvas-keyboard-response","180","300455","0.0-12.0-3.33","2d_cat_multi_stim_exp1","2022-5-4","10:23:43","25","75","3","9","10","40","30","120","87","18","[""White""]","No","Female","2011329","null","null","learn_feedback","","","learn_feedback","13.3333","60","out","","","","","","","","","","","","","","","","","","","","","","",""
"","","","","","canvas-keyboard-response","181","300514","0.0-12.0-4.33","2d_cat_multi_stim_exp1","2022-5-4","10:23:43","25","75","3","9","10","40","30","120","87","18","[""White""]","No","Female","2011329","null","null","","","","clear_screen","","","","","","","","","","","","","","","","","","","","","","","","","",""
"","","","","","canvas-keyboard-response","182","301024","0.0-12.0-0.34","2d_cat_multi_stim_exp1","2022-5-4","10:23:43","25","75","3","9","10","40","30","120","87","18","[""White""]","No","Female","2011329","null","null","","","","fixation","","","","","","","","","","","","","","","","","","","","","","","","","",""
"","","","","","canvas-keyboard-response","183","301537","0.0-12.0-1.34","2d_cat_multi_stim_exp1","2022-5-4","10:23:43","25","75","3","9","10","40","30","120","87","18","[""White""]","No","Female","2011329","null","null","","","","clear_screen","","","","","","","","","","","","","","","","","","","","","","","","","",""
"","","","","","canvas-keyboard-response","184","302383","0.0-12.0-2.34","2d_cat_multi_stim_exp1","2022-5-4","10:23:43","25","75","3","9","10","40","30","120","87","18","[""White""]","No","Female","2011329","836","u","learn","","","learn_trial","24.8654","66.0091","in","1","1","","","","","","","","","","","","","","","","","","","","",""
"","","","","","canvas-keyboard-response","185","302895","0.0-12.0-3.34","2d_cat_multi_stim_exp1","2022-5-4","10:23:43","25","75","3","9","10","40","30","120","87","18","[""White""]","No","Female","2011329","null","null","learn_feedback","","","learn_feedback","24.8654","66.0091","in","","","","","","","","","","","","","","","","","","","","","","",""
"","","","","","canvas-keyboard-response","186","302956","0.0-12.0-4.34","2d_cat_multi_stim_exp1","2022-5-4","10:23:43","25","75","3","9","10","40","30","120","87","18","[""White""]","No","Female","2011329","null","null","","","","clear_screen","","","","","","","","","","","","","","","","","","","","","","","","","",""
"","","","","","canvas-keyboard-response","187","303466","0.0-12.0-0.35","2d_cat_multi_stim_exp1","2022-5-4","10:23:43","25","75","3","9","10","40","30","120","87","18","[""White""]","No","Female","2011329","null","null","","","","fixation","","","","","","","","","","","","","","","","","","","","","","","","","",""
"","","","","","canvas-keyboard-response","188","303977","0.0-12.0-1.35","2d_cat_multi_stim_exp1","2022-5-4","10:23:43","25","75","3","9","10","40","30","120","87","18","[""White""]","No","Female","2011329","null","null","","","","clear_screen","","","","","","","","","","","","","","","","","","","","","","","","","",""
"","","","","","canvas-keyboard-response","189","304848","0.0-12.0-2.35","2d_cat_multi_stim_exp1","2022-5-4","10:23:43","25","75","3","9","10","40","30","120","87","18","[""White""]","No","Female","2011329","861","u","learn","","","learn_trial","25","75","in","1","1","","","","","","","","","","","","","","","","","","","","",""
"","","","","","canvas-keyboard-response","190","305357","0.0-12.0-3.35","2d_cat_multi_stim_exp1","2022-5-4","10:23:43","25","75","3","9","10","40","30","120","87","18","[""White""]","No","Female","2011329","null","null","learn_feedback","","","learn_feedback","25","75","in","","","","","","","","","","","","","","","","","","","","","","",""
"","","","","","canvas-keyboard-response","191","305420","0.0-12.0-4.35","2d_cat_multi_stim_exp1","2022-5-4","10:23:43","25","75","3","9","10","40","30","120","87","18","[""White""]","No","Female","2011329","null","null","","","","clear_screen","","","","","","","","","","","","","","","","","","","","","","","","","",""
"","","","","","canvas-keyboard-response","192","305929","0.0-12.0-0.36","2d_cat_multi_stim_exp1","2022-5-4","10:23:43","25","75","3","9","10","40","30","120","87","18","[""White""]","No","Female","2011329","null","null","","","","fixation","","","","","","","","","","","","","","","","","","","","","","","","","",""
"","","","","","canvas-keyboard-response","193","306442","0.0-12.0-1.36","2d_cat_multi_stim_exp1","2022-5-4","10:23:43","25","75","3","9","10","40","30","120","87","18","[""White""]","No","Female","2011329","null","null","","","","clear_screen","","","","","","","","","","","","","","","","","","","","","","","","","",""
"","","","","","canvas-keyboard-response","194","307111","0.0-12.0-2.36","2d_cat_multi_stim_exp1","2022-5-4","10:23:43","25","75","3","9","10","40","30","120","87","18","[""White""]","No","Female","2011329","660","i","learn","","","learn_trial","26.6667","50","out","1","0","","","","","","","","","","","","","","","","","","","","",""
"","","","","","canvas-keyboard-response","195","307623","0.0-12.0-3.36","2d_cat_multi_stim_exp1","2022-5-4","10:23:43","25","75","3","9","10","40","30","120","87","18","[""White""]","No","Female","2011329","null","null","learn_feedback","","","learn_feedback","26.6667","50","out","","","","","","","","","","","","","","","","","","","","","","",""
"","","","","","canvas-keyboard-response","196","307687","0.0-12.0-4.36","2d_cat_multi_stim_exp1","2022-5-4","10:23:43","25","75","3","9","10","40","30","120","87","18","[""White""]","No","Female","2011329","null","null","","","","clear_screen","","","","","","","","","","","","","","","","","","","","","","","","","",""
"","","","","","canvas-keyboard-response","197","308195","0.0-12.0-0.37","2d_cat_multi_stim_exp1","2022-5-4","10:23:43","25","75","3","9","10","40","30","120","87","18","[""White""]","No","Female","2011329","null","null","","","","fixation","","","","","","","","","","","","","","","","","","","","","","","","","",""
"","","","","","canvas-keyboard-response","198","308710","0.0-12.0-1.37","2d_cat_multi_stim_exp1","2022-5-4","10:23:43","25","75","3","9","10","40","30","120","87","18","[""White""]","No","Female","2011329","null","null","","","","clear_screen","","","","","","","","","","","","","","","","","","","","","","","","","",""
"","","","","","canvas-keyboard-response","199","309544","0.0-12.0-2.37","2d_cat_multi_stim_exp1","2022-5-4","10:23:43","25","75","3","9","10","40","30","120","87","18","[""White""]","No","Female","2011329","824","u","learn","","","learn_trial","25","75","in","1","1","","","","","","","","","","","","","","","","","","","","",""
"","","","","","canvas-keyboard-response","200","310053","0.0-12.0-3.37","2d_cat_multi_stim_exp1","2022-5-4","10:23:43","25","75","3","9","10","40","30","120","87","18","[""White""]","No","Female","2011329","null","null","learn_feedback","","","learn_feedback","25","75","in","","","","","","","","","","","","","","","","","","","","","","",""
"","","","","","canvas-keyboard-response","201","310107","0.0-12.0-4.37","2d_cat_multi_stim_exp1","2022-5-4","10:23:43","25","75","3","9","10","40","30","120","87","18","[""White""]","No","Female","2011329","null","null","","","","clear_screen","","","","","","","","","","","","","","","","","","","","","","","","","",""
"","","","","","canvas-keyboard-response","202","310617","0.0-12.0-0.38","2d_cat_multi_stim_exp1","2022-5-4","10:23:43","25","75","3","9","10","40","30","120","87","18","[""White""]","No","Female","2011329","null","null","","","","fixation","","","","","","","","","","","","","","","","","","","","","","","","","",""
"","","","","","canvas-keyboard-response","203","311129","0.0-12.0-1.38","2d_cat_multi_stim_exp1","2022-5-4","10:23:43","25","75","3","9","10","40","30","120","87","18","[""White""]","No","Female","2011329","null","null","","","","clear_screen","","","","","","","","","","","","","","","","","","","","","","","","","",""
"","","","","","canvas-keyboard-response","204","312103","0.0-12.0-2.38","2d_cat_multi_stim_exp1","2022-5-4","10:23:43","25","75","3","9","10","40","30","120","87","18","[""White""]","No","Female","2011329","968","u","learn","","","learn_trial","25","75","in","1","1","","","","","","","","","","","","","","","","","","","","",""
"","","","","","canvas-keyboard-response","205","312612","0.0-12.0-3.38","2d_cat_multi_stim_exp1","2022-5-4","10:23:43","25","75","3","9","10","40","30","120","87","18","[""White""]","No","Female","2011329","null","null","learn_feedback","","","learn_feedback","25","75","in","","","","","","","","","","","","","","","","","","","","","","",""
"","","","","","canvas-keyboard-response","206","312673","0.0-12.0-4.38","2d_cat_multi_stim_exp1","2022-5-4","10:23:43","25","75","3","9","10","40","30","120","87","18","[""White""]","No","Female","2011329","null","null","","","","clear_screen","","","","","","","","","","","","","","","","","","","","","","","","","",""
"","","","","","canvas-keyboard-response","207","313182","0.0-12.0-0.39","2d_cat_multi_stim_exp1","2022-5-4","10:23:43","25","75","3","9","10","40","30","120","87","18","[""White""]","No","Female","2011329","null","null","","","","fixation","","","","","","","","","","","","","","","","","","","","","","","","","",""
"","","","","","canvas-keyboard-response","208","313697","0.0-12.0-1.39","2d_cat_multi_stim_exp1","2022-5-4","10:23:43","25","75","3","9","10","40","30","120","87","18","[""White""]","No","Female","2011329","null","null","","","","clear_screen","","","","","","","","","","","","","","","","","","","","","","","","","",""
"","","","","","canvas-keyboard-response","209","314520","0.0-12.0-2.39","2d_cat_multi_stim_exp1","2022-5-4","10:23:43","25","75","3","9","10","40","30","120","87","18","[""White""]","No","Female","2011329","815","i","learn","","","learn_trial","20","110","out","1","0","","","","","","","","","","","","","","","","","","","","",""
"","","","","","canvas-keyboard-response","210","315033","0.0-12.0-3.39","2d_cat_multi_stim_exp1","2022-5-4","10:23:43","25","75","3","9","10","40","30","120","87","18","[""White""]","No","Female","2011329","null","null","learn_feedback","","","learn_feedback","20","110","out","","","","","","","","","","","","","","","","","","","","","","",""
"","","","","","canvas-keyboard-response","211","315093","0.0-12.0-4.39","2d_cat_multi_stim_exp1","2022-5-4","10:23:43","25","75","3","9","10","40","30","120","87","18","[""White""]","No","Female","2011329","null","null","","","","clear_screen","","","","","","","","","","","","","","","","","","","","","","","","","",""
"","","","","","canvas-keyboard-response","212","315607","0.0-12.0-0.40","2d_cat_multi_stim_exp1","2022-5-4","10:23:43","25","75","3","9","10","40","30","120","87","18","[""White""]","No","Female","2011329","null","null","","","","fixation","","","","","","","","","","","","","","","","","","","","","","","","","",""
"","","","","","canvas-keyboard-response","213","316117","0.0-12.0-1.40","2d_cat_multi_stim_exp1","2022-5-4","10:23:43","25","75","3","9","10","40","30","120","87","18","[""White""]","No","Female","2011329","null","null","","","","clear_screen","","","","","","","","","","","","","","","","","","","","","","","","","",""
"","","","","","canvas-keyboard-response","214","317384","0.0-12.0-2.40","2d_cat_multi_stim_exp1","2022-5-4","10:23:43","25","75","3","9","10","40","30","120","87","18","[""White""]","No","Female","2011329","1262","i","learn","","","learn_trial","33.3333","70","out","1","0","","","","","","","","","","","","","","","","","","","","",""
"","","","","","canvas-keyboard-response","215","317896","0.0-12.0-3.40","2d_cat_multi_stim_exp1","2022-5-4","10:23:43","25","75","3","9","10","40","30","120","87","18","[""White""]","No","Female","2011329","null","null","learn_feedback","","","learn_feedback","33.3333","70","out","","","","","","","","","","","","","","","","","","","","","","",""
"","","","","","canvas-keyboard-response","216","317956","0.0-12.0-4.40","2d_cat_multi_stim_exp1","2022-5-4","10:23:43","25","75","3","9","10","40","30","120","87","18","[""White""]","No","Female","2011329","null","null","","","","clear_screen","","","","","","","","","","","","","","","","","","","","","","","","","",""
"","","","","","canvas-keyboard-response","217","318466","0.0-12.0-0.41","2d_cat_multi_stim_exp1","2022-5-4","10:23:43","25","75","3","9","10","40","30","120","87","18","[""White""]","No","Female","2011329","null","null","","","","fixation","","","","","","","","","","","","","","","","","","","","","","","","","",""
"","","","","","canvas-keyboard-response","218","318980","0.0-12.0-1.41","2d_cat_multi_stim_exp1","2022-5-4","10:23:43","25","75","3","9","10","40","30","120","87","18","[""White""]","No","Female","2011329","null","null","","","","clear_screen","","","","","","","","","","","","","","","","","","","","","","","","","",""
"","","","","","canvas-keyboard-response","219","320008","0.0-12.0-2.41","2d_cat_multi_stim_exp1","2022-5-4","10:23:43","25","75","3","9","10","40","30","120","87","18","[""White""]","No","Female","2011329","1018","u","learn","","","learn_trial","25","75","in","1","1","","","","","","","","","","","","","","","","","","","","",""
"","","","","","canvas-keyboard-response","220","320516","0.0-12.0-3.41","2d_cat_multi_stim_exp1","2022-5-4","10:23:43","25","75","3","9","10","40","30","120","87","18","[""White""]","No","Female","2011329","null","null","learn_feedback","","","learn_feedback","25","75","in","","","","","","","","","","","","","","","","","","","","","","",""
"","","","","","canvas-keyboard-response","221","320575","0.0-12.0-4.41","2d_cat_multi_stim_exp1","2022-5-4","10:23:43","25","75","3","9","10","40","30","120","87","18","[""White""]","No","Female","2011329","null","null","","","","clear_screen","","","","","","","","","","","","","","","","","","","","","","","","","",""
"","","","","","canvas-keyboard-response","222","321083","0.0-12.0-0.42","2d_cat_multi_stim_exp1","2022-5-4","10:23:43","25","75","3","9","10","40","30","120","87","18","[""White""]","No","Female","2011329","null","null","","","","fixation","","","","","","","","","","","","","","","","","","","","","","","","","",""
"","","","","","canvas-keyboard-response","223","321598","0.0-12.0-1.42","2d_cat_multi_stim_exp1","2022-5-4","10:23:43","25","75","3","9","10","40","30","120","87","18","[""White""]","No","Female","2011329","null","null","","","","clear_screen","","","","","","","","","","","","","","","","","","","","","","","","","",""
"","","","","","canvas-keyboard-response","224","322783","0.0-12.0-2.42","2d_cat_multi_stim_exp1","2022-5-4","10:23:43","25","75","3","9","10","40","30","120","87","18","[""White""]","No","Female","2011329","1174","u","learn","","","learn_trial","23.3333","60","out","0","1","","","","","","","","","","","","","","","","","","","","",""
"","","","","","canvas-keyboard-response","225","323794","0.0-12.0-3.42","2d_cat_multi_stim_exp1","2022-5-4","10:23:43","25","75","3","9","10","40","30","120","87","18","[""White""]","No","Female","2011329","null","null","learn_feedback","","","learn_feedback","23.3333","60","out","","","","","","","","","","","","","","","","","","","","","","",""
"","","","","","canvas-keyboard-response","226","323854","0.0-12.0-4.42","2d_cat_multi_stim_exp1","2022-5-4","10:23:43","25","75","3","9","10","40","30","120","87","18","[""White""]","No","Female","2011329","null","null","","","","clear_screen","","","","","","","","","","","","","","","","","","","","","","","","","",""
"","","","","","canvas-keyboard-response","227","324363","0.0-12.0-0.43","2d_cat_multi_stim_exp1","2022-5-4","10:23:43","25","75","3","9","10","40","30","120","87","18","[""White""]","No","Female","2011329","null","null","","","","fixation","","","","","","","","","","","","","","","","","","","","","","","","","",""
"","","","","","canvas-keyboard-response","228","324873","0.0-12.0-1.43","2d_cat_multi_stim_exp1","2022-5-4","10:23:43","25","75","3","9","10","40","30","120","87","18","[""White""]","No","Female","2011329","null","null","","","","clear_screen","","","","","","","","","","","","","","","","","","","","","","","","","",""
"","","","","","canvas-keyboard-response","229","325840","0.0-12.0-2.43","2d_cat_multi_stim_exp1","2022-5-4","10:23:43","25","75","3","9","10","40","30","120","87","18","[""White""]","No","Female","2011329","954","i","learn","","","learn_trial","30","110","out","1","0","","","","","","","","","","","","","","","","","","","","",""
"","","","","","canvas-keyboard-response","230","326349","0.0-12.0-3.43","2d_cat_multi_stim_exp1","2022-5-4","10:23:43","25","75","3","9","10","40","30","120","87","18","[""White""]","No","Female","2011329","null","null","learn_feedback","","","learn_feedback","30","110","out","","","","","","","","","","","","","","","","","","","","","","",""
"","","","","","canvas-keyboard-response","231","326412","0.0-12.0-4.43","2d_cat_multi_stim_exp1","2022-5-4","10:23:43","25","75","3","9","10","40","30","120","87","18","[""White""]","No","Female","2011329","null","null","","","","clear_screen","","","","","","","","","","","","","","","","","","","","","","","","","",""
"","","","","","canvas-keyboard-response","232","326926","0.0-12.0-0.44","2d_cat_multi_stim_exp1","2022-5-4","10:23:43","25","75","3","9","10","40","30","120","87","18","[""White""]","No","Female","2011329","null","null","","","","fixation","","","","","","","","","","","","","","","","","","","","","","","","","",""
"","","","","","canvas-keyboard-response","233","327439","0.0-12.0-1.44","2d_cat_multi_stim_exp1","2022-5-4","10:23:43","25","75","3","9","10","40","30","120","87","18","[""White""]","No","Female","2011329","null","null","","","","clear_screen","","","","","","","","","","","","","","","","","","","","","","","","","",""
"","","","","","canvas-keyboard-response","234","328040","0.0-12.0-2.44","2d_cat_multi_stim_exp1","2022-5-4","10:23:43","25","75","3","9","10","40","30","120","87","18","[""White""]","No","Female","2011329","589","i","learn","","","learn_trial","33.3333","50","out","1","0","","","","","","","","","","","","","","","","","","","","",""
"","","","","","canvas-keyboard-response","235","328549","0.0-12.0-3.44","2d_cat_multi_stim_exp1","2022-5-4","10:23:43","25","75","3","9","10","40","30","120","87","18","[""White""]","No","Female","2011329","null","null","learn_feedback","","","learn_feedback","33.3333","50","out","","","","","","","","","","","","","","","","","","","","","","",""
"","","","","","canvas-keyboard-response","236","328609","0.0-12.0-4.44","2d_cat_multi_stim_exp1","2022-5-4","10:23:43","25","75","3","9","10","40","30","120","87","18","[""White""]","No","Female","2011329","null","null","","","","clear_screen","","","","","","","","","","","","","","","","","","","","","","","","","",""
"","","","","","canvas-keyboard-response","237","329120","0.0-12.0-0.45","2d_cat_multi_stim_exp1","2022-5-4","10:23:43","25","75","3","9","10","40","30","120","87","18","[""White""]","No","Female","2011329","null","null","","","","fixation","","","","","","","","","","","","","","","","","","","","","","","","","",""
"","","","","","canvas-keyboard-response","238","329632","0.0-12.0-1.45","2d_cat_multi_stim_exp1","2022-5-4","10:23:43","25","75","3","9","10","40","30","120","87","18","[""White""]","No","Female","2011329","null","null","","","","clear_screen","","","","","","","","","","","","","","","","","","","","","","","","","",""
"","","","","","canvas-keyboard-response","239","330465","0.0-12.0-2.45","2d_cat_multi_stim_exp1","2022-5-4","10:23:43","25","75","3","9","10","40","30","120","87","18","[""White""]","No","Female","2011329","818","i","learn","","","learn_trial","10","70","out","1","0","","","","","","","","","","","","","","","","","","","","",""
"","","","","","canvas-keyboard-response","240","330973","0.0-12.0-3.45","2d_cat_multi_stim_exp1","2022-5-4","10:23:43","25","75","3","9","10","40","30","120","87","18","[""White""]","No","Female","2011329","null","null","learn_feedback","","","learn_feedback","10","70","out","","","","","","","","","","","","","","","","","","","","","","",""
"","","","","","canvas-keyboard-response","241","331034","0.0-12.0-4.45","2d_cat_multi_stim_exp1","2022-5-4","10:23:43","25","75","3","9","10","40","30","120","87","18","[""White""]","No","Female","2011329","null","null","","","","clear_screen","","","","","","","","","","","","","","","","","","","","","","","","","",""
"","","","","","canvas-keyboard-response","242","331543","0.0-12.0-0.46","2d_cat_multi_stim_exp1","2022-5-4","10:23:43","25","75","3","9","10","40","30","120","87","18","[""White""]","No","Female","2011329","null","null","","","","fixation","","","","","","","","","","","","","","","","","","","","","","","","","",""
"","","","","","canvas-keyboard-response","243","332056","0.0-12.0-1.46","2d_cat_multi_stim_exp1","2022-5-4","10:23:43","25","75","3","9","10","40","30","120","87","18","[""White""]","No","Female","2011329","null","null","","","","clear_screen","","","","","","","","","","","","","","","","","","","","","","","","","",""
"","","","","","canvas-keyboard-response","244","333017","0.0-12.0-2.46","2d_cat_multi_stim_exp1","2022-5-4","10:23:43","25","75","3","9","10","40","30","120","87","18","[""White""]","No","Female","2011329","950","u","learn","","","learn_trial","25","75","in","1","1","","","","","","","","","","","","","","","","","","","","",""
"","","","","","canvas-keyboard-response","245","333526","0.0-12.0-3.46","2d_cat_multi_stim_exp1","2022-5-4","10:23:43","25","75","3","9","10","40","30","120","87","18","[""White""]","No","Female","2011329","null","null","learn_feedback","","","learn_feedback","25","75","in","","","","","","","","","","","","","","","","","","","","","","",""
"","","","","","canvas-keyboard-response","246","333588","0.0-12.0-4.46","2d_cat_multi_stim_exp1","2022-5-4","10:23:43","25","75","3","9","10","40","30","120","87","18","[""White""]","No","Female","2011329","null","null","","","","clear_screen","","","","","","","","","","","","","","","","","","","","","","","","","",""
"","","","","","canvas-keyboard-response","247","334093","0.0-12.0-0.47","2d_cat_multi_stim_exp1","2022-5-4","10:23:43","25","75","3","9","10","40","30","120","87","18","[""White""]","No","Female","2011329","null","null","","","","fixation","","","","","","","","","","","","","","","","","","","","","","","","","",""
"","","","","","canvas-keyboard-response","248","334608","0.0-12.0-1.47","2d_cat_multi_stim_exp1","2022-5-4","10:23:43","25","75","3","9","10","40","30","120","87","18","[""White""]","No","Female","2011329","null","null","","","","clear_screen","","","","","","","","","","","","","","","","","","","","","","","","","",""
"","","","","","canvas-keyboard-response","249","335911","0.0-12.0-2.47","2d_cat_multi_stim_exp1","2022-5-4","10:23:43","25","75","3","9","10","40","30","120","87","18","[""White""]","No","Female","2011329","1294","u","learn","","","learn_trial","22.5729","80.2901","in","1","1","","","","","","","","","","","","","","","","","","","","",""
"","","","","","canvas-keyboard-response","250","336421","0.0-12.0-3.47","2d_cat_multi_stim_exp1","2022-5-4","10:23:43","25","75","3","9","10","40","30","120","87","18","[""White""]","No","Female","2011329","null","null","learn_feedback","","","learn_feedback","22.5729","80.2901","in","","","","","","","","","","","","","","","","","","","","","","",""
"","","","","","canvas-keyboard-response","251","336483","0.0-12.0-4.47","2d_cat_multi_stim_exp1","2022-5-4","10:23:43","25","75","3","9","10","40","30","120","87","18","[""White""]","No","Female","2011329","null","null","","","","clear_screen","","","","","","","","","","","","","","","","","","","","","","","","","",""
"","","","","","canvas-keyboard-response","252","336994","0.0-12.0-0.48","2d_cat_multi_stim_exp1","2022-5-4","10:23:43","25","75","3","9","10","40","30","120","87","18","[""White""]","No","Female","2011329","null","null","","","","fixation","","","","","","","","","","","","","","","","","","","","","","","","","",""
"","","","","","canvas-keyboard-response","253","337504","0.0-12.0-1.48","2d_cat_multi_stim_exp1","2022-5-4","10:23:43","25","75","3","9","10","40","30","120","87","18","[""White""]","No","Female","2011329","null","null","","","","clear_screen","","","","","","","","","","","","","","","","","","","","","","","","","",""
"","","","","","canvas-keyboard-response","254","338544","0.0-12.0-2.48","2d_cat_multi_stim_exp1","2022-5-4","10:23:43","25","75","3","9","10","40","30","120","87","18","[""White""]","No","Female","2011329","1030","u","learn","","","learn_trial","27.9518","73.393","in","1","1","","","","","","","","","","","","","","","","","","","","",""
"","","","","","canvas-keyboard-response","255","339055","0.0-12.0-3.48","2d_cat_multi_stim_exp1","2022-5-4","10:23:43","25","75","3","9","10","40","30","120","87","18","[""White""]","No","Female","2011329","null","null","learn_feedback","","","learn_feedback","27.9518","73.393","in","","","","","","","","","","","","","","","","","","","","","","",""
"","","","","","canvas-keyboard-response","256","339116","0.0-12.0-4.48","2d_cat_multi_stim_exp1","2022-5-4","10:23:43","25","75","3","9","10","40","30","120","87","18","[""White""]","No","Female","2011329","null","null","","","","clear_screen","","","","","","","","","","","","","","","","","","","","","","","","","",""
"","","","","","canvas-keyboard-response","257","339623","0.0-12.0-0.49","2d_cat_multi_stim_exp1","2022-5-4","10:23:43","25","75","3","9","10","40","30","120","87","18","[""White""]","No","Female","2011329","null","null","","","","fixation","","","","","","","","","","","","","","","","","","","","","","","","","",""
"","","","","","canvas-keyboard-response","258","340137","0.0-12.0-1.49","2d_cat_multi_stim_exp1","2022-5-4","10:23:43","25","75","3","9","10","40","30","120","87","18","[""White""]","No","Female","2011329","null","null","","","","clear_screen","","","","","","","","","","","","","","","","","","","","","","","","","",""
"","","","","","canvas-keyboard-response","259","341400","0.0-12.0-2.49","2d_cat_multi_stim_exp1","2022-5-4","10:23:43","25","75","3","9","10","40","30","120","87","18","[""White""]","No","Female","2011329","1255","i","learn","","","learn_trial","25.9271","83.5595","in","0","0","","","","","","","","","","","","","","","","","","","","",""
"","","","","","canvas-keyboard-response","260","342414","0.0-12.0-3.49","2d_cat_multi_stim_exp1","2022-5-4","10:23:43","25","75","3","9","10","40","30","120","87","18","[""White""]","No","Female","2011329","null","null","learn_feedback","","","learn_feedback","25.9271","83.5595","in","","","","","","","","","","","","","","","","","","","","","","",""
"","","","","","canvas-keyboard-response","261","342476","0.0-12.0-4.49","2d_cat_multi_stim_exp1","2022-5-4","10:23:43","25","75","3","9","10","40","30","120","87","18","[""White""]","No","Female","2011329","null","null","","","","clear_screen","","","","","","","","","","","","","","","","","","","","","","","","","",""
"","","","","","canvas-keyboard-response","262","342984","0.0-12.0-0.50","2d_cat_multi_stim_exp1","2022-5-4","10:23:43","25","75","3","9","10","40","30","120","87","18","[""White""]","No","Female","2011329","null","null","","","","fixation","","","","","","","","","","","","","","","","","","","","","","","","","",""
"","","","","","canvas-keyboard-response","263","343494","0.0-12.0-1.50","2d_cat_multi_stim_exp1","2022-5-4","10:23:43","25","75","3","9","10","40","30","120","87","18","[""White""]","No","Female","2011329","null","null","","","","clear_screen","","","","","","","","","","","","","","","","","","","","","","","","","",""
"","","","","","canvas-keyboard-response","264","344280","0.0-12.0-2.50","2d_cat_multi_stim_exp1","2022-5-4","10:23:43","25","75","3","9","10","40","30","120","87","18","[""White""]","No","Female","2011329","772","i","learn","","","learn_trial","20","30","out","1","0","","","","","","","","","","","","","","","","","","","","",""
"","","","","","canvas-keyboard-response","265","344788","0.0-12.0-3.50","2d_cat_multi_stim_exp1","2022-5-4","10:23:43","25","75","3","9","10","40","30","120","87","18","[""White""]","No","Female","2011329","null","null","learn_feedback","","","learn_feedback","20","30","out","","","","","","","","","","","","","","","","","","","","","","",""
"","","","","","canvas-keyboard-response","266","344851","0.0-12.0-4.50","2d_cat_multi_stim_exp1","2022-5-4","10:23:43","25","75","3","9","10","40","30","120","87","18","[""White""]","No","Female","2011329","null","null","","","","clear_screen","","","","","","","","","","","","","","","","","","","","","","","","","",""
"","","","","","canvas-keyboard-response","267","345357","0.0-12.0-0.51","2d_cat_multi_stim_exp1","2022-5-4","10:23:43","25","75","3","9","10","40","30","120","87","18","[""White""]","No","Female","2011329","null","null","","","","fixation","","","","","","","","","","","","","","","","","","","","","","","","","",""
"","","","","","canvas-keyboard-response","268","345866","0.0-12.0-1.51","2d_cat_multi_stim_exp1","2022-5-4","10:23:43","25","75","3","9","10","40","30","120","87","18","[""White""]","No","Female","2011329","null","null","","","","clear_screen","","","","","","","","","","","","","","","","","","","","","","","","","",""
"","","","","","canvas-keyboard-response","269","346552","0.0-12.0-2.51","2d_cat_multi_stim_exp1","2022-5-4","10:23:43","25","75","3","9","10","40","30","120","87","18","[""White""]","No","Female","2011329","677","i","learn","","","learn_trial","40","60","out","1","0","","","","","","","","","","","","","","","","","","","","",""
"","","","","","canvas-keyboard-response","270","347065","0.0-12.0-3.51","2d_cat_multi_stim_exp1","2022-5-4","10:23:43","25","75","3","9","10","40","30","120","87","18","[""White""]","No","Female","2011329","null","null","learn_feedback","","","learn_feedback","40","60","out","","","","","","","","","","","","","","","","","","","","","","",""
"","","","","","canvas-keyboard-response","271","347125","0.0-12.0-4.51","2d_cat_multi_stim_exp1","2022-5-4","10:23:43","25","75","3","9","10","40","30","120","87","18","[""White""]","No","Female","2011329","null","null","","","","clear_screen","","","","","","","","","","","","","","","","","","","","","","","","","",""
"","","","","","canvas-keyboard-response","272","347633","0.0-12.0-0.52","2d_cat_multi_stim_exp1","2022-5-4","10:23:43","25","75","3","9","10","40","30","120","87","18","[""White""]","No","Female","2011329","null","null","","","","fixation","","","","","","","","","","","","","","","","","","","","","","","","","",""
"","","","","","canvas-keyboard-response","273","348143","0.0-12.0-1.52","2d_cat_multi_stim_exp1","2022-5-4","10:23:43","25","75","3","9","10","40","30","120","87","18","[""White""]","No","Female","2011329","null","null","","","","clear_screen","","","","","","","","","","","","","","","","","","","","","","","","","",""
"","","","","","canvas-keyboard-response","274","348879","0.0-12.0-2.52","2d_cat_multi_stim_exp1","2022-5-4","10:23:43","25","75","3","9","10","40","30","120","87","18","[""White""]","No","Female","2011329","726","u","learn","","","learn_trial","25","75","in","1","1","","","","","","","","","","","","","","","","","","","","",""
"","","","","","canvas-keyboard-response","275","349394","0.0-12.0-3.52","2d_cat_multi_stim_exp1","2022-5-4","10:23:43","25","75","3","9","10","40","30","120","87","18","[""White""]","No","Female","2011329","null","null","learn_feedback","","","learn_feedback","25","75","in","","","","","","","","","","","","","","","","","","","","","","",""
"","","","","","canvas-keyboard-response","276","349454","0.0-12.0-4.52","2d_cat_multi_stim_exp1","2022-5-4","10:23:43","25","75","3","9","10","40","30","120","87","18","[""White""]","No","Female","2011329","null","null","","","","clear_screen","","","","","","","","","","","","","","","","","","","","","","","","","",""
"","","","","","canvas-keyboard-response","277","349963","0.0-12.0-0.53","2d_cat_multi_stim_exp1","2022-5-4","10:23:43","25","75","3","9","10","40","30","120","87","18","[""White""]","No","Female","2011329","null","null","","","","fixation","","","","","","","","","","","","","","","","","","","","","","","","","",""
"","","","","","canvas-keyboard-response","278","350477","0.0-12.0-1.53","2d_cat_multi_stim_exp1","2022-5-4","10:23:43","25","75","3","9","10","40","30","120","87","18","[""White""]","No","Female","2011329","null","null","","","","clear_screen","","","","","","","","","","","","","","","","","","","","","","","","","",""
"","","","","","canvas-keyboard-response","279","351153","0.0-12.0-2.53","2d_cat_multi_stim_exp1","2022-5-4","10:23:43","25","75","3","9","10","40","30","120","87","18","[""White""]","No","Female","2011329","671","u","learn","","","learn_trial","25","75","in","1","1","","","","","","","","","","","","","","","","","","","","",""
"","","","","","canvas-keyboard-response","280","351663","0.0-12.0-3.53","2d_cat_multi_stim_exp1","2022-5-4","10:23:43","25","75","3","9","10","40","30","120","87","18","[""White""]","No","Female","2011329","null","null","learn_feedback","","","learn_feedback","25","75","in","","","","","","","","","","","","","","","","","","","","","","",""
"","","","","","canvas-keyboard-response","281","351723","0.0-12.0-4.53","2d_cat_multi_stim_exp1","2022-5-4","10:23:43","25","75","3","9","10","40","30","120","87","18","[""White""]","No","Female","2011329","null","null","","","","clear_screen","","","","","","","","","","","","","","","","","","","","","","","","","",""
"","","","","","canvas-keyboard-response","282","352235","0.0-12.0-0.54","2d_cat_multi_stim_exp1","2022-5-4","10:23:43","25","75","3","9","10","40","30","120","87","18","[""White""]","No","Female","2011329","null","null","","","","fixation","","","","","","","","","","","","","","","","","","","","","","","","","",""
"","","","","","canvas-keyboard-response","283","352746","0.0-12.0-1.54","2d_cat_multi_stim_exp1","2022-5-4","10:23:43","25","75","3","9","10","40","30","120","87","18","[""White""]","No","Female","2011329","null","null","","","","clear_screen","","","","","","","","","","","","","","","","","","","","","","","","","",""
"","","","","","canvas-keyboard-response","284","353719","0.0-12.0-2.54","2d_cat_multi_stim_exp1","2022-5-4","10:23:43","25","75","3","9","10","40","30","120","87","18","[""White""]","No","Female","2011329","963","i","learn","","","learn_trial","23.3333","110","out","1","0","","","","","","","","","","","","","","","","","","","","",""
"","","","","","canvas-keyboard-response","285","354231","0.0-12.0-3.54","2d_cat_multi_stim_exp1","2022-5-4","10:23:43","25","75","3","9","10","40","30","120","87","18","[""White""]","No","Female","2011329","null","null","learn_feedback","","","learn_feedback","23.3333","110","out","","","","","","","","","","","","","","","","","","","","","","",""
"","","","","","canvas-keyboard-response","286","354294","0.0-12.0-4.54","2d_cat_multi_stim_exp1","2022-5-4","10:23:43","25","75","3","9","10","40","30","120","87","18","[""White""]","No","Female","2011329","null","null","","","","clear_screen","","","","","","","","","","","","","","","","","","","","","","","","","",""
"","","","","","canvas-keyboard-response","287","354801","0.0-12.0-0.55","2d_cat_multi_stim_exp1","2022-5-4","10:23:43","25","75","3","9","10","40","30","120","87","18","[""White""]","No","Female","2011329","null","null","","","","fixation","","","","","","","","","","","","","","","","","","","","","","","","","",""
"","","","","","canvas-keyboard-response","288","355314","0.0-12.0-1.55","2d_cat_multi_stim_exp1","2022-5-4","10:23:43","25","75","3","9","10","40","30","120","87","18","[""White""]","No","Female","2011329","null","null","","","","clear_screen","","","","","","","","","","","","","","","","","","","","","","","","","",""
"","","","","","canvas-keyboard-response","289","356184","0.0-12.0-2.55","2d_cat_multi_stim_exp1","2022-5-4","10:23:43","25","75","3","9","10","40","30","120","87","18","[""White""]","No","Female","2011329","853","u","learn","","","learn_trial","25","75","in","1","1","","","","","","","","","","","","","","","","","","","","",""
"","","","","","canvas-keyboard-response","290","356697","0.0-12.0-3.55","2d_cat_multi_stim_exp1","2022-5-4","10:23:43","25","75","3","9","10","40","30","120","87","18","[""White""]","No","Female","2011329","null","null","learn_feedback","","","learn_feedback","25","75","in","","","","","","","","","","","","","","","","","","","","","","",""
"","","","","","canvas-keyboard-response","291","356759","0.0-12.0-4.55","2d_cat_multi_stim_exp1","2022-5-4","10:23:43","25","75","3","9","10","40","30","120","87","18","[""White""]","No","Female","2011329","null","null","","","","clear_screen","","","","","","","","","","","","","","","","","","","","","","","","","",""
"","","","","","canvas-keyboard-response","292","357266","0.0-12.0-0.56","2d_cat_multi_stim_exp1","2022-5-4","10:23:43","25","75","3","9","10","40","30","120","87","18","[""White""]","No","Female","2011329","null","null","","","","fixation","","","","","","","","","","","","","","","","","","","","","","","","","",""
"","","","","","canvas-keyboard-response","293","357779","0.0-12.0-1.56","2d_cat_multi_stim_exp1","2022-5-4","10:23:43","25","75","3","9","10","40","30","120","87","18","[""White""]","No","Female","2011329","null","null","","","","clear_screen","","","","","","","","","","","","","","","","","","","","","","","","","",""
"","","","","","canvas-keyboard-response","294","358489","0.0-12.0-2.56","2d_cat_multi_stim_exp1","2022-5-4","10:23:43","25","75","3","9","10","40","30","120","87","18","[""White""]","No","Female","2011329","700","i","learn","","","learn_trial","25","75","in","0","0","","","","","","","","","","","","","","","","","","","","",""
"","","","","","canvas-keyboard-response","295","359497","0.0-12.0-3.56","2d_cat_multi_stim_exp1","2022-5-4","10:23:43","25","75","3","9","10","40","30","120","87","18","[""White""]","No","Female","2011329","null","null","learn_feedback","","","learn_feedback","25","75","in","","","","","","","","","","","","","","","","","","","","","","",""
"","","","","","canvas-keyboard-response","296","359557","0.0-12.0-4.56","2d_cat_multi_stim_exp1","2022-5-4","10:23:43","25","75","3","9","10","40","30","120","87","18","[""White""]","No","Female","2011329","null","null","","","","clear_screen","","","","","","","","","","","","","","","","","","","","","","","","","",""
"","","","","","canvas-keyboard-response","297","360068","0.0-12.0-0.57","2d_cat_multi_stim_exp1","2022-5-4","10:23:43","25","75","3","9","10","40","30","120","87","18","[""White""]","No","Female","2011329","null","null","","","","fixation","","","","","","","","","","","","","","","","","","","","","","","","","",""
