"success","timeout","failed_images","failed_audio","failed_video","trial_type","trial_index","time_elapsed","internal_node_id","exp_name","date","time","angle_mean_in","radius_mean_in","angle_sd_in","radius_sd_in","angle_min_out","angle_max_out","radius_min_out","radius_max_out","sub_n","age","race","ethnicity","gender","exp_duration","rt","response","exp_trial_type","stimulus","view_history","screen_id","angle","radius","distribution","choice","correct","order","angle_a","radius_a","angle_b","radius_b","jkl_correct","transfer_trial_type","choice_set","abc_correct","tc_correct","tc_angle","tdc_a","tdc_b","tdc_c","pair","category_a","category_b","category_c","angle_c","radius_c","question_order"
"true","false","[]","[]","[]","preload","0","23","0.0-0.0","2d_cat_multi_stim_exp1","2022-4-29","15:7:3","25","75","3","9","10","40","30","120","73","20","[""White""]","No","Male","1832472","","","","","","","","","","","","","","","","","","","","","","","","","","","","","","","",""
"","","","","","survey-html-form","1","1927","0.0-1.0","2d_cat_multi_stim_exp1","2022-4-29","15:7:3","25","75","3","9","10","40","30","120","73","20","[""White""]","No","Male","1832472","1897","{""response"":""73""}","enter-sub-number","","","","","","","","","","","","","","","","","","","","","","","","","","","","",""
"true","","","","","fullscreen","2","5107","0.0-2.0","2d_cat_multi_stim_exp1","2022-4-29","15:7:3","25","75","3","9","10","40","30","120","73","20","[""White""]","No","Male","1832472","","","","","","","","","","","","","","","","","","","","","","","","","","","","","","","",""
"","","","","","image-button-response","3","43148","0.0-3.0","2d_cat_multi_stim_exp1","2022-4-29","15:7:3","25","75","3","9","10","40","30","120","73","20","[""White""]","No","Male","1832472","38034","0","","consent.png","","","","","","","","","","","","","","","","","","","","","","","","","","","",""
"","","","","","html-button-response","4","51243","0.0-4.0","2d_cat_multi_stim_exp1","2022-4-29","15:7:3","25","75","3","9","10","40","30","120","73","20","[""White""]","No","Male","1832472","8091","0","","<div style= ""font-size:25px;"" <p> <strong> Welcome to the experiment! </strong><br> <p style=""color:#8B0000; font-size:25px;""><strong> Please do NOT exit full screen until you are done with the experiment. </strong> </p><p style=""font-size:25px;color:#8B0000;""> <strong> The experiment will be canceled and your data will be lost <br> if you try to go back or refresh the page at any point during the experiment.</strong> </p><br><p> <strong> Thanks in advance for your contribution to our research! </strong></p>","","","","","","","","","","","","","","","","","","","","","","","","","","","",""
"","","","","","instructions","5","92347","0.0-5.0","2d_cat_multi_stim_exp1","2022-4-29","15:7:3","25","75","3","9","10","40","30","120","73","20","[""White""]","No","Male","1832472","41097","","","","[{""page_index"":0,""viewing_time"":5001},{""page_index"":1,""viewing_time"":2640},{""page_index"":0,""viewing_time"":1777},{""page_index"":1,""viewing_time"":1119},{""page_index"":2,""viewing_time"":9561},{""page_index"":3,""viewing_time"":12663},{""page_index"":2,""viewing_time"":903},{""page_index"":1,""viewing_time"":930},{""page_index"":2,""viewing_time"":822},{""page_index"":3,""viewing_time"":5681}]","instructions_1","","","","","","","","","","","","","","","","","","","","","","","","","",""
"","","","","","instructions","6","95147","0.0-6.0","2d_cat_multi_stim_exp1","2022-4-29","15:7:3","25","75","3","9","10","40","30","120","73","20","[""White""]","No","Male","1832472","2795","","","","[{""page_index"":0,""viewing_time"":2795}]","Click to see the kinds of turtles that will appear in the study.","","","","","","","","","","","","","","","","","","","","","","","","","",""
"","","","","","canvas-keyboard-response","7","110164","0.0-7.0","2d_cat_multi_stim_exp1","2022-4-29","15:7:3","25","75","3","9","10","40","30","120","73","20","[""White""]","No","Male","1832472","null","null","","","","demo_range","","","","","","","","","","","","","","","","","","","","","","","","","",""
"","","","","","instructions","8","112043","0.0-8.0","2d_cat_multi_stim_exp1","2022-4-29","15:7:3","25","75","3","9","10","40","30","120","73","20","[""White""]","No","Male","1832472","1377","","","","[{""page_index"":0,""viewing_time"":1376}]","Click to see some turtles in the subspecies.","","","","","","","","","","","","","","","","","","","","","","","","","",""
"","","","","","canvas-keyboard-response","9","127059","0.0-9.0","2d_cat_multi_stim_exp1","2022-4-29","15:7:3","25","75","3","9","10","40","30","120","73","20","[""White""]","No","Male","1832472","null","null","","","","demo_in","","","","","","","","","","","","","","","","","","","","","","","","","",""
"","","","","","instructions","10","175147","0.0-10.0","2d_cat_multi_stim_exp1","2022-4-29","15:7:3","25","75","3","9","10","40","30","120","73","20","[""White""]","No","Male","1832472","47586","","","","[{""page_index"":0,""viewing_time"":7490},{""page_index"":1,""viewing_time"":14343},{""page_index"":2,""viewing_time"":9201},{""page_index"":1,""viewing_time"":15617},{""page_index"":2,""viewing_time"":935}]","instructions_2","","","","","","","","","","","","","","","","","","","","","","","","","",""
"","","","","","instructions","11","176147","0.0-11.0","2d_cat_multi_stim_exp1","2022-4-29","15:7:3","25","75","3","9","10","40","30","120","73","20","[""White""]","No","Male","1832472","999","","","","[{""page_index"":0,""viewing_time"":998}]","Click to begin the first phase of the experiment.","","","","","","","","","","","","","","","","","","","","","","","","","",""
"","","","","","canvas-keyboard-response","12","176656","0.0-12.0-0.0","2d_cat_multi_stim_exp1","2022-4-29","15:7:3","25","75","3","9","10","40","30","120","73","20","[""White""]","No","Male","1832472","null","null","","","","fixation","","","","","","","","","","","","","","","","","","","","","","","","","",""
"","","","","","canvas-keyboard-response","13","177171","0.0-12.0-1.0","2d_cat_multi_stim_exp1","2022-4-29","15:7:3","25","75","3","9","10","40","30","120","73","20","[""White""]","No","Male","1832472","null","null","","","","clear_screen","","","","","","","","","","","","","","","","","","","","","","","","","",""
"","","","","","canvas-keyboard-response","14","179225","0.0-12.0-2.0","2d_cat_multi_stim_exp1","2022-4-29","15:7:3","25","75","3","9","10","40","30","120","73","20","[""White""]","No","Male","1832472","2041","i","learn","","","learn_trial","30","40","out","0","1","","","","","","","","","","","","","","","","","","","","",""
"","","","","","canvas-keyboard-response","15","179733","0.0-12.0-3.0","2d_cat_multi_stim_exp1","2022-4-29","15:7:3","25","75","3","9","10","40","30","120","73","20","[""White""]","No","Male","1832472","null","null","learn_feedback","","","learn_feedback","30","40","out","","","","","","","","","","","","","","","","","","","","","","",""
"","","","","","canvas-keyboard-response","16","179795","0.0-12.0-4.0","2d_cat_multi_stim_exp1","2022-4-29","15:7:3","25","75","3","9","10","40","30","120","73","20","[""White""]","No","Male","1832472","null","null","","","","clear_screen","","","","","","","","","","","","","","","","","","","","","","","","","",""
"","","","","","canvas-keyboard-response","17","180305","0.0-12.0-0.1","2d_cat_multi_stim_exp1","2022-4-29","15:7:3","25","75","3","9","10","40","30","120","73","20","[""White""]","No","Male","1832472","null","null","","","","fixation","","","","","","","","","","","","","","","","","","","","","","","","","",""
"","","","","","canvas-keyboard-response","18","180817","0.0-12.0-1.1","2d_cat_multi_stim_exp1","2022-4-29","15:7:3","25","75","3","9","10","40","30","120","73","20","[""White""]","No","Male","1832472","null","null","","","","clear_screen","","","","","","","","","","","","","","","","","","","","","","","","","",""
"","","","","","canvas-keyboard-response","19","181946","0.0-12.0-2.1","2d_cat_multi_stim_exp1","2022-4-29","15:7:3","25","75","3","9","10","40","30","120","73","20","[""White""]","No","Male","1832472","1116","u","learn","","","learn_trial","28","75","in","1","1","","","","","","","","","","","","","","","","","","","","",""
"","","","","","canvas-keyboard-response","20","182458","0.0-12.0-3.1","2d_cat_multi_stim_exp1","2022-4-29","15:7:3","25","75","3","9","10","40","30","120","73","20","[""White""]","No","Male","1832472","null","null","learn_feedback","","","learn_feedback","28","75","in","","","","","","","","","","","","","","","","","","","","","","",""
"","","","","","canvas-keyboard-response","21","182522","0.0-12.0-4.1","2d_cat_multi_stim_exp1","2022-4-29","15:7:3","25","75","3","9","10","40","30","120","73","20","[""White""]","No","Male","1832472","null","null","","","","clear_screen","","","","","","","","","","","","","","","","","","","","","","","","","",""
"","","","","","canvas-keyboard-response","22","183031","0.0-12.0-0.2","2d_cat_multi_stim_exp1","2022-4-29","15:7:3","25","75","3","9","10","40","30","120","73","20","[""White""]","No","Male","1832472","null","null","","","","fixation","","","","","","","","","","","","","","","","","","","","","","","","","",""
"","","","","","canvas-keyboard-response","23","183542","0.0-12.0-1.2","2d_cat_multi_stim_exp1","2022-4-29","15:7:3","25","75","3","9","10","40","30","120","73","20","[""White""]","No","Male","1832472","null","null","","","","clear_screen","","","","","","","","","","","","","","","","","","","","","","","","","",""
"","","","","","canvas-keyboard-response","24","184803","0.0-12.0-2.2","2d_cat_multi_stim_exp1","2022-4-29","15:7:3","25","75","3","9","10","40","30","120","73","20","[""White""]","No","Male","1832472","1252","u","learn","","","learn_trial","27.2592","69.0786","in","1","1","","","","","","","","","","","","","","","","","","","","",""
"","","","","","canvas-keyboard-response","25","185312","0.0-12.0-3.2","2d_cat_multi_stim_exp1","2022-4-29","15:7:3","25","75","3","9","10","40","30","120","73","20","[""White""]","No","Male","1832472","null","null","learn_feedback","","","learn_feedback","27.2592","69.0786","in","","","","","","","","","","","","","","","","","","","","","","",""
"","","","","","canvas-keyboard-response","26","185377","0.0-12.0-4.2","2d_cat_multi_stim_exp1","2022-4-29","15:7:3","25","75","3","9","10","40","30","120","73","20","[""White""]","No","Male","1832472","null","null","","","","clear_screen","","","","","","","","","","","","","","","","","","","","","","","","","",""
"","","","","","canvas-keyboard-response","27","185890","0.0-12.0-0.3","2d_cat_multi_stim_exp1","2022-4-29","15:7:3","25","75","3","9","10","40","30","120","73","20","[""White""]","No","Male","1832472","null","null","","","","fixation","","","","","","","","","","","","","","","","","","","","","","","","","",""
"","","","","","canvas-keyboard-response","28","186400","0.0-12.0-1.3","2d_cat_multi_stim_exp1","2022-4-29","15:7:3","25","75","3","9","10","40","30","120","73","20","[""White""]","No","Male","1832472","null","null","","","","clear_screen","","","","","","","","","","","","","","","","","","","","","","","","","",""
"","","","","","canvas-keyboard-response","29","187402","0.0-12.0-2.3","2d_cat_multi_stim_exp1","2022-4-29","15:7:3","25","75","3","9","10","40","30","120","73","20","[""White""]","No","Male","1832472","994","u","learn","","","learn_trial","27.8087","71.8376","in","1","1","","","","","","","","","","","","","","","","","","","","",""
"","","","","","canvas-keyboard-response","30","187914","0.0-12.0-3.3","2d_cat_multi_stim_exp1","2022-4-29","15:7:3","25","75","3","9","10","40","30","120","73","20","[""White""]","No","Male","1832472","null","null","learn_feedback","","","learn_feedback","27.8087","71.8376","in","","","","","","","","","","","","","","","","","","","","","","",""
"","","","","","canvas-keyboard-response","31","187978","0.0-12.0-4.3","2d_cat_multi_stim_exp1","2022-4-29","15:7:3","25","75","3","9","10","40","30","120","73","20","[""White""]","No","Male","1832472","null","null","","","","clear_screen","","","","","","","","","","","","","","","","","","","","","","","","","",""
"","","","","","canvas-keyboard-response","32","188490","0.0-12.0-0.4","2d_cat_multi_stim_exp1","2022-4-29","15:7:3","25","75","3","9","10","40","30","120","73","20","[""White""]","No","Male","1832472","null","null","","","","fixation","","","","","","","","","","","","","","","","","","","","","","","","","",""
"","","","","","canvas-keyboard-response","33","189002","0.0-12.0-1.4","2d_cat_multi_stim_exp1","2022-4-29","15:7:3","25","75","3","9","10","40","30","120","73","20","[""White""]","No","Male","1832472","null","null","","","","clear_screen","","","","","","","","","","","","","","","","","","","","","","","","","",""
"","","","","","canvas-keyboard-response","34","190418","0.0-12.0-2.4","2d_cat_multi_stim_exp1","2022-4-29","15:7:3","25","75","3","9","10","40","30","120","73","20","[""White""]","No","Male","1832472","1405","u","learn","","","learn_trial","23.3333","70","out","1","0","","","","","","","","","","","","","","","","","","","","",""
"","","","","","canvas-keyboard-response","35","191429","0.0-12.0-3.4","2d_cat_multi_stim_exp1","2022-4-29","15:7:3","25","75","3","9","10","40","30","120","73","20","[""White""]","No","Male","1832472","null","null","learn_feedback","","","learn_feedback","23.3333","70","out","","","","","","","","","","","","","","","","","","","","","","",""
"","","","","","canvas-keyboard-response","36","191492","0.0-12.0-4.4","2d_cat_multi_stim_exp1","2022-4-29","15:7:3","25","75","3","9","10","40","30","120","73","20","[""White""]","No","Male","1832472","null","null","","","","clear_screen","","","","","","","","","","","","","","","","","","","","","","","","","",""
"","","","","","canvas-keyboard-response","37","192003","0.0-12.0-0.5","2d_cat_multi_stim_exp1","2022-4-29","15:7:3","25","75","3","9","10","40","30","120","73","20","[""White""]","No","Male","1832472","null","null","","","","fixation","","","","","","","","","","","","","","","","","","","","","","","","","",""
"","","","","","canvas-keyboard-response","38","192514","0.0-12.0-1.5","2d_cat_multi_stim_exp1","2022-4-29","15:7:3","25","75","3","9","10","40","30","120","73","20","[""White""]","No","Male","1832472","null","null","","","","clear_screen","","","","","","","","","","","","","","","","","","","","","","","","","",""
"","","","","","canvas-keyboard-response","39","193371","0.0-12.0-2.5","2d_cat_multi_stim_exp1","2022-4-29","15:7:3","25","75","3","9","10","40","30","120","73","20","[""White""]","No","Male","1832472","846","u","learn","","","learn_trial","26.6667","90","out","1","0","","","","","","","","","","","","","","","","","","","","",""
"","","","","","canvas-keyboard-response","40","194379","0.0-12.0-3.5","2d_cat_multi_stim_exp1","2022-4-29","15:7:3","25","75","3","9","10","40","30","120","73","20","[""White""]","No","Male","1832472","null","null","learn_feedback","","","learn_feedback","26.6667","90","out","","","","","","","","","","","","","","","","","","","","","","",""
"","","","","","canvas-keyboard-response","41","194442","0.0-12.0-4.5","2d_cat_multi_stim_exp1","2022-4-29","15:7:3","25","75","3","9","10","40","30","120","73","20","[""White""]","No","Male","1832472","null","null","","","","clear_screen","","","","","","","","","","","","","","","","","","","","","","","","","",""
"","","","","","canvas-keyboard-response","42","194951","0.0-12.0-0.6","2d_cat_multi_stim_exp1","2022-4-29","15:7:3","25","75","3","9","10","40","30","120","73","20","[""White""]","No","Male","1832472","null","null","","","","fixation","","","","","","","","","","","","","","","","","","","","","","","","","",""
"","","","","","canvas-keyboard-response","43","195465","0.0-12.0-1.6","2d_cat_multi_stim_exp1","2022-4-29","15:7:3","25","75","3","9","10","40","30","120","73","20","[""White""]","No","Male","1832472","null","null","","","","clear_screen","","","","","","","","","","","","","","","","","","","","","","","","","",""
"","","","","","canvas-keyboard-response","44","196250","0.0-12.0-2.6","2d_cat_multi_stim_exp1","2022-4-29","15:7:3","25","75","3","9","10","40","30","120","73","20","[""White""]","No","Male","1832472","776","i","learn","","","learn_trial","25","75","in","0","0","","","","","","","","","","","","","","","","","","","","",""
"","","","","","canvas-keyboard-response","45","197260","0.0-12.0-3.6","2d_cat_multi_stim_exp1","2022-4-29","15:7:3","25","75","3","9","10","40","30","120","73","20","[""White""]","No","Male","1832472","null","null","learn_feedback","","","learn_feedback","25","75","in","","","","","","","","","","","","","","","","","","","","","","",""
"","","","","","canvas-keyboard-response","46","197323","0.0-12.0-4.6","2d_cat_multi_stim_exp1","2022-4-29","15:7:3","25","75","3","9","10","40","30","120","73","20","[""White""]","No","Male","1832472","null","null","","","","clear_screen","","","","","","","","","","","","","","","","","","","","","","","","","",""
"","","","","","canvas-keyboard-response","47","197834","0.0-12.0-0.7","2d_cat_multi_stim_exp1","2022-4-29","15:7:3","25","75","3","9","10","40","30","120","73","20","[""White""]","No","Male","1832472","null","null","","","","fixation","","","","","","","","","","","","","","","","","","","","","","","","","",""
"","","","","","canvas-keyboard-response","48","198346","0.0-12.0-1.7","2d_cat_multi_stim_exp1","2022-4-29","15:7:3","25","75","3","9","10","40","30","120","73","20","[""White""]","No","Male","1832472","null","null","","","","clear_screen","","","","","","","","","","","","","","","","","","","","","","","","","",""
"","","","","","canvas-keyboard-response","49","199970","0.0-12.0-2.7","2d_cat_multi_stim_exp1","2022-4-29","15:7:3","25","75","3","9","10","40","30","120","73","20","[""White""]","No","Male","1832472","1618","i","learn","","","learn_trial","24.8654","83.9909","in","0","0","","","","","","","","","","","","","","","","","","","","",""
"","","","","","canvas-keyboard-response","50","200983","0.0-12.0-3.7","2d_cat_multi_stim_exp1","2022-4-29","15:7:3","25","75","3","9","10","40","30","120","73","20","[""White""]","No","Male","1832472","null","null","learn_feedback","","","learn_feedback","24.8654","83.9909","in","","","","","","","","","","","","","","","","","","","","","","",""
"","","","","","canvas-keyboard-response","51","201043","0.0-12.0-4.7","2d_cat_multi_stim_exp1","2022-4-29","15:7:3","25","75","3","9","10","40","30","120","73","20","[""White""]","No","Male","1832472","null","null","","","","clear_screen","","","","","","","","","","","","","","","","","","","","","","","","","",""
"","","","","","canvas-keyboard-response","52","201553","0.0-12.0-0.8","2d_cat_multi_stim_exp1","2022-4-29","15:7:3","25","75","3","9","10","40","30","120","73","20","[""White""]","No","Male","1832472","null","null","","","","fixation","","","","","","","","","","","","","","","","","","","","","","","","","",""
"","","","","","canvas-keyboard-response","53","202066","0.0-12.0-1.8","2d_cat_multi_stim_exp1","2022-4-29","15:7:3","25","75","3","9","10","40","30","120","73","20","[""White""]","No","Male","1832472","null","null","","","","clear_screen","","","","","","","","","","","","","","","","","","","","","","","","","",""
"","","","","","canvas-keyboard-response","54","202674","0.0-12.0-2.8","2d_cat_multi_stim_exp1","2022-4-29","15:7:3","25","75","3","9","10","40","30","120","73","20","[""White""]","No","Male","1832472","600","u","learn","","","learn_trial","27.9518","73.393","in","1","1","","","","","","","","","","","","","","","","","","","","",""
"","","","","","canvas-keyboard-response","55","203184","0.0-12.0-3.8","2d_cat_multi_stim_exp1","2022-4-29","15:7:3","25","75","3","9","10","40","30","120","73","20","[""White""]","No","Male","1832472","null","null","learn_feedback","","","learn_feedback","27.9518","73.393","in","","","","","","","","","","","","","","","","","","","","","","",""
"","","","","","canvas-keyboard-response","56","203243","0.0-12.0-4.8","2d_cat_multi_stim_exp1","2022-4-29","15:7:3","25","75","3","9","10","40","30","120","73","20","[""White""]","No","Male","1832472","null","null","","","","clear_screen","","","","","","","","","","","","","","","","","","","","","","","","","",""
"","","","","","canvas-keyboard-response","57","203753","0.0-12.0-0.9","2d_cat_multi_stim_exp1","2022-4-29","15:7:3","25","75","3","9","10","40","30","120","73","20","[""White""]","No","Male","1832472","null","null","","","","fixation","","","","","","","","","","","","","","","","","","","","","","","","","",""
"","","","","","canvas-keyboard-response","58","204263","0.0-12.0-1.9","2d_cat_multi_stim_exp1","2022-4-29","15:7:3","25","75","3","9","10","40","30","120","73","20","[""White""]","No","Male","1832472","null","null","","","","clear_screen","","","","","","","","","","","","","","","","","","","","","","","","","",""
"","","","","","canvas-keyboard-response","59","204818","0.0-12.0-2.9","2d_cat_multi_stim_exp1","2022-4-29","15:7:3","25","75","3","9","10","40","30","120","73","20","[""White""]","No","Male","1832472","546","i","learn","","","learn_trial","13.3333","60","out","0","1","","","","","","","","","","","","","","","","","","","","",""
"","","","","","canvas-keyboard-response","60","205328","0.0-12.0-3.9","2d_cat_multi_stim_exp1","2022-4-29","15:7:3","25","75","3","9","10","40","30","120","73","20","[""White""]","No","Male","1832472","null","null","learn_feedback","","","learn_feedback","13.3333","60","out","","","","","","","","","","","","","","","","","","","","","","",""
"","","","","","canvas-keyboard-response","61","205390","0.0-12.0-4.9","2d_cat_multi_stim_exp1","2022-4-29","15:7:3","25","75","3","9","10","40","30","120","73","20","[""White""]","No","Male","1832472","null","null","","","","clear_screen","","","","","","","","","","","","","","","","","","","","","","","","","",""
"","","","","","canvas-keyboard-response","62","205898","0.0-12.0-0.10","2d_cat_multi_stim_exp1","2022-4-29","15:7:3","25","75","3","9","10","40","30","120","73","20","[""White""]","No","Male","1832472","null","null","","","","fixation","","","","","","","","","","","","","","","","","","","","","","","","","",""
"","","","","","canvas-keyboard-response","63","206410","0.0-12.0-1.10","2d_cat_multi_stim_exp1","2022-4-29","15:7:3","25","75","3","9","10","40","30","120","73","20","[""White""]","No","Male","1832472","null","null","","","","clear_screen","","","","","","","","","","","","","","","","","","","","","","","","","",""
"","","","","","canvas-keyboard-response","64","209203","0.0-12.0-2.10","2d_cat_multi_stim_exp1","2022-4-29","15:7:3","25","75","3","9","10","40","30","120","73","20","[""White""]","No","Male","1832472","2782","u","learn","","","learn_trial","25","75","in","1","1","","","","","","","","","","","","","","","","","","","","",""
"","","","","","canvas-keyboard-response","65","209713","0.0-12.0-3.10","2d_cat_multi_stim_exp1","2022-4-29","15:7:3","25","75","3","9","10","40","30","120","73","20","[""White""]","No","Male","1832472","null","null","learn_feedback","","","learn_feedback","25","75","in","","","","","","","","","","","","","","","","","","","","","","",""
"","","","","","canvas-keyboard-response","66","209774","0.0-12.0-4.10","2d_cat_multi_stim_exp1","2022-4-29","15:7:3","25","75","3","9","10","40","30","120","73","20","[""White""]","No","Male","1832472","null","null","","","","clear_screen","","","","","","","","","","","","","","","","","","","","","","","","","",""
"","","","","","canvas-keyboard-response","67","210286","0.0-12.0-0.11","2d_cat_multi_stim_exp1","2022-4-29","15:7:3","25","75","3","9","10","40","30","120","73","20","[""White""]","No","Male","1832472","null","null","","","","fixation","","","","","","","","","","","","","","","","","","","","","","","","","",""
"","","","","","canvas-keyboard-response","68","210800","0.0-12.0-1.11","2d_cat_multi_stim_exp1","2022-4-29","15:7:3","25","75","3","9","10","40","30","120","73","20","[""White""]","No","Male","1832472","null","null","","","","clear_screen","","","","","","","","","","","","","","","","","","","","","","","","","",""
"","","","","","canvas-keyboard-response","69","211714","0.0-12.0-2.11","2d_cat_multi_stim_exp1","2022-4-29","15:7:3","25","75","3","9","10","40","30","120","73","20","[""White""]","No","Male","1832472","904","u","learn","","","learn_trial","23.3333","80","out","1","0","","","","","","","","","","","","","","","","","","","","",""
"","","","","","canvas-keyboard-response","70","212725","0.0-12.0-3.11","2d_cat_multi_stim_exp1","2022-4-29","15:7:3","25","75","3","9","10","40","30","120","73","20","[""White""]","No","Male","1832472","null","null","learn_feedback","","","learn_feedback","23.3333","80","out","","","","","","","","","","","","","","","","","","","","","","",""
"","","","","","canvas-keyboard-response","71","212786","0.0-12.0-4.11","2d_cat_multi_stim_exp1","2022-4-29","15:7:3","25","75","3","9","10","40","30","120","73","20","[""White""]","No","Male","1832472","null","null","","","","clear_screen","","","","","","","","","","","","","","","","","","","","","","","","","",""
"","","","","","canvas-keyboard-response","72","213296","0.0-12.0-0.12","2d_cat_multi_stim_exp1","2022-4-29","15:7:3","25","75","3","9","10","40","30","120","73","20","[""White""]","No","Male","1832472","null","null","","","","fixation","","","","","","","","","","","","","","","","","","","","","","","","","",""
"","","","","","canvas-keyboard-response","73","213810","0.0-12.0-1.12","2d_cat_multi_stim_exp1","2022-4-29","15:7:3","25","75","3","9","10","40","30","120","73","20","[""White""]","No","Male","1832472","null","null","","","","clear_screen","","","","","","","","","","","","","","","","","","","","","","","","","",""
"","","","","","canvas-keyboard-response","74","214754","0.0-12.0-2.12","2d_cat_multi_stim_exp1","2022-4-29","15:7:3","25","75","3","9","10","40","30","120","73","20","[""White""]","No","Male","1832472","935","u","learn","","","learn_trial","25","75","in","1","1","","","","","","","","","","","","","","","","","","","","",""
"","","","","","canvas-keyboard-response","75","215265","0.0-12.0-3.12","2d_cat_multi_stim_exp1","2022-4-29","15:7:3","25","75","3","9","10","40","30","120","73","20","[""White""]","No","Male","1832472","null","null","learn_feedback","","","learn_feedback","25","75","in","","","","","","","","","","","","","","","","","","","","","","",""
"","","","","","canvas-keyboard-response","76","215327","0.0-12.0-4.12","2d_cat_multi_stim_exp1","2022-4-29","15:7:3","25","75","3","9","10","40","30","120","73","20","[""White""]","No","Male","1832472","null","null","","","","clear_screen","","","","","","","","","","","","","","","","","","","","","","","","","",""
"","","","","","canvas-keyboard-response","77","215835","0.0-12.0-0.13","2d_cat_multi_stim_exp1","2022-4-29","15:7:3","25","75","3","9","10","40","30","120","73","20","[""White""]","No","Male","1832472","null","null","","","","fixation","","","","","","","","","","","","","","","","","","","","","","","","","",""
"","","","","","canvas-keyboard-response","78","216350","0.0-12.0-1.13","2d_cat_multi_stim_exp1","2022-4-29","15:7:3","25","75","3","9","10","40","30","120","73","20","[""White""]","No","Male","1832472","null","null","","","","clear_screen","","","","","","","","","","","","","","","","","","","","","","","","","",""
"","","","","","canvas-keyboard-response","79","217564","0.0-12.0-2.13","2d_cat_multi_stim_exp1","2022-4-29","15:7:3","25","75","3","9","10","40","30","120","73","20","[""White""]","No","Male","1832472","1199","i","learn","","","learn_trial","26.6667","110","out","0","1","","","","","","","","","","","","","","","","","","","","",""
"","","","","","canvas-keyboard-response","80","218074","0.0-12.0-3.13","2d_cat_multi_stim_exp1","2022-4-29","15:7:3","25","75","3","9","10","40","30","120","73","20","[""White""]","No","Male","1832472","null","null","learn_feedback","","","learn_feedback","26.6667","110","out","","","","","","","","","","","","","","","","","","","","","","",""
"","","","","","canvas-keyboard-response","81","218136","0.0-12.0-4.13","2d_cat_multi_stim_exp1","2022-4-29","15:7:3","25","75","3","9","10","40","30","120","73","20","[""White""]","No","Male","1832472","null","null","","","","clear_screen","","","","","","","","","","","","","","","","","","","","","","","","","",""
"","","","","","canvas-keyboard-response","82","218646","0.0-12.0-0.14","2d_cat_multi_stim_exp1","2022-4-29","15:7:3","25","75","3","9","10","40","30","120","73","20","[""White""]","No","Male","1832472","null","null","","","","fixation","","","","","","","","","","","","","","","","","","","","","","","","","",""
"","","","","","canvas-keyboard-response","83","219162","0.0-12.0-1.14","2d_cat_multi_stim_exp1","2022-4-29","15:7:3","25","75","3","9","10","40","30","120","73","20","[""White""]","No","Male","1832472","null","null","","","","clear_screen","","","","","","","","","","","","","","","","","","","","","","","","","",""
"","","","","","canvas-keyboard-response","84","219842","0.0-12.0-2.14","2d_cat_multi_stim_exp1","2022-4-29","15:7:3","25","75","3","9","10","40","30","120","73","20","[""White""]","No","Male","1832472","668","i","learn","","","learn_trial","13.3333","50","out","0","1","","","","","","","","","","","","","","","","","","","","",""
"","","","","","canvas-keyboard-response","85","220353","0.0-12.0-3.14","2d_cat_multi_stim_exp1","2022-4-29","15:7:3","25","75","3","9","10","40","30","120","73","20","[""White""]","No","Male","1832472","null","null","learn_feedback","","","learn_feedback","13.3333","50","out","","","","","","","","","","","","","","","","","","","","","","",""
"","","","","","canvas-keyboard-response","86","220418","0.0-12.0-4.14","2d_cat_multi_stim_exp1","2022-4-29","15:7:3","25","75","3","9","10","40","30","120","73","20","[""White""]","No","Male","1832472","null","null","","","","clear_screen","","","","","","","","","","","","","","","","","","","","","","","","","",""
"","","","","","canvas-keyboard-response","87","220928","0.0-12.0-0.15","2d_cat_multi_stim_exp1","2022-4-29","15:7:3","25","75","3","9","10","40","30","120","73","20","[""White""]","No","Male","1832472","null","null","","","","fixation","","","","","","","","","","","","","","","","","","","","","","","","","",""
"","","","","","canvas-keyboard-response","88","221443","0.0-12.0-1.15","2d_cat_multi_stim_exp1","2022-4-29","15:7:3","25","75","3","9","10","40","30","120","73","20","[""White""]","No","Male","1832472","null","null","","","","clear_screen","","","","","","","","","","","","","","","","","","","","","","","","","",""
"","","","","","canvas-keyboard-response","89","222579","0.0-12.0-2.15","2d_cat_multi_stim_exp1","2022-4-29","15:7:3","25","75","3","9","10","40","30","120","73","20","[""White""]","No","Male","1832472","1126","i","learn","","","learn_trial","25","75","in","0","0","","","","","","","","","","","","","","","","","","","","",""
"","","","","","canvas-keyboard-response","90","223588","0.0-12.0-3.15","2d_cat_multi_stim_exp1","2022-4-29","15:7:3","25","75","3","9","10","40","30","120","73","20","[""White""]","No","Male","1832472","null","null","learn_feedback","","","learn_feedback","25","75","in","","","","","","","","","","","","","","","","","","","","","","",""
"","","","","","canvas-keyboard-response","91","223649","0.0-12.0-4.15","2d_cat_multi_stim_exp1","2022-4-29","15:7:3","25","75","3","9","10","40","30","120","73","20","[""White""]","No","Male","1832472","null","null","","","","clear_screen","","","","","","","","","","","","","","","","","","","","","","","","","",""
"","","","","","canvas-keyboard-response","92","224160","0.0-12.0-0.16","2d_cat_multi_stim_exp1","2022-4-29","15:7:3","25","75","3","9","10","40","30","120","73","20","[""White""]","No","Male","1832472","null","null","","","","fixation","","","","","","","","","","","","","","","","","","","","","","","","","",""
"","","","","","canvas-keyboard-response","93","224673","0.0-12.0-1.16","2d_cat_multi_stim_exp1","2022-4-29","15:7:3","25","75","3","9","10","40","30","120","73","20","[""White""]","No","Male","1832472","null","null","","","","clear_screen","","","","","","","","","","","","","","","","","","","","","","","","","",""
"","","","","","canvas-keyboard-response","94","225394","0.0-12.0-2.16","2d_cat_multi_stim_exp1","2022-4-29","15:7:3","25","75","3","9","10","40","30","120","73","20","[""White""]","No","Male","1832472","712","i","learn","","","learn_trial","40","50","out","0","1","","","","","","","","","","","","","","","","","","","","",""
"","","","","","canvas-keyboard-response","95","225903","0.0-12.0-3.16","2d_cat_multi_stim_exp1","2022-4-29","15:7:3","25","75","3","9","10","40","30","120","73","20","[""White""]","No","Male","1832472","null","null","learn_feedback","","","learn_feedback","40","50","out","","","","","","","","","","","","","","","","","","","","","","",""
"","","","","","canvas-keyboard-response","96","225963","0.0-12.0-4.16","2d_cat_multi_stim_exp1","2022-4-29","15:7:3","25","75","3","9","10","40","30","120","73","20","[""White""]","No","Male","1832472","null","null","","","","clear_screen","","","","","","","","","","","","","","","","","","","","","","","","","",""
"","","","","","canvas-keyboard-response","97","226471","0.0-12.0-0.17","2d_cat_multi_stim_exp1","2022-4-29","15:7:3","25","75","3","9","10","40","30","120","73","20","[""White""]","No","Male","1832472","null","null","","","","fixation","","","","","","","","","","","","","","","","","","","","","","","","","",""
"","","","","","canvas-keyboard-response","98","226981","0.0-12.0-1.17","2d_cat_multi_stim_exp1","2022-4-29","15:7:3","25","75","3","9","10","40","30","120","73","20","[""White""]","No","Male","1832472","null","null","","","","clear_screen","","","","","","","","","","","","","","","","","","","","","","","","","",""
"","","","","","canvas-keyboard-response","99","228547","0.0-12.0-2.17","2d_cat_multi_stim_exp1","2022-4-29","15:7:3","25","75","3","9","10","40","30","120","73","20","[""White""]","No","Male","1832472","1557","i","learn","","","learn_trial","22.9268","81.5052","in","0","0","","","","","","","","","","","","","","","","","","","","",""
"","","","","","canvas-keyboard-response","100","229557","0.0-12.0-3.17","2d_cat_multi_stim_exp1","2022-4-29","15:7:3","25","75","3","9","10","40","30","120","73","20","[""White""]","No","Male","1832472","null","null","learn_feedback","","","learn_feedback","22.9268","81.5052","in","","","","","","","","","","","","","","","","","","","","","","",""
"","","","","","canvas-keyboard-response","101","229620","0.0-12.0-4.17","2d_cat_multi_stim_exp1","2022-4-29","15:7:3","25","75","3","9","10","40","30","120","73","20","[""White""]","No","Male","1832472","null","null","","","","clear_screen","","","","","","","","","","","","","","","","","","","","","","","","","",""
"","","","","","canvas-keyboard-response","102","230129","0.0-12.0-0.18","2d_cat_multi_stim_exp1","2022-4-29","15:7:3","25","75","3","9","10","40","30","120","73","20","[""White""]","No","Male","1832472","null","null","","","","fixation","","","","","","","","","","","","","","","","","","","","","","","","","",""
"","","","","","canvas-keyboard-response","103","230639","0.0-12.0-1.18","2d_cat_multi_stim_exp1","2022-4-29","15:7:3","25","75","3","9","10","40","30","120","73","20","[""White""]","No","Male","1832472","null","null","","","","clear_screen","","","","","","","","","","","","","","","","","","","","","","","","","",""
"","","","","","canvas-keyboard-response","104","231826","0.0-12.0-2.18","2d_cat_multi_stim_exp1","2022-4-29","15:7:3","25","75","3","9","10","40","30","120","73","20","[""White""]","No","Male","1832472","1177","u","learn","","","learn_trial","25","93","in","1","1","","","","","","","","","","","","","","","","","","","","",""
"","","","","","canvas-keyboard-response","105","232336","0.0-12.0-3.18","2d_cat_multi_stim_exp1","2022-4-29","15:7:3","25","75","3","9","10","40","30","120","73","20","[""White""]","No","Male","1832472","null","null","learn_feedback","","","learn_feedback","25","93","in","","","","","","","","","","","","","","","","","","","","","","",""
"","","","","","canvas-keyboard-response","106","232396","0.0-12.0-4.18","2d_cat_multi_stim_exp1","2022-4-29","15:7:3","25","75","3","9","10","40","30","120","73","20","[""White""]","No","Male","1832472","null","null","","","","clear_screen","","","","","","","","","","","","","","","","","","","","","","","","","",""
"","","","","","canvas-keyboard-response","107","232908","0.0-12.0-0.19","2d_cat_multi_stim_exp1","2022-4-29","15:7:3","25","75","3","9","10","40","30","120","73","20","[""White""]","No","Male","1832472","null","null","","","","fixation","","","","","","","","","","","","","","","","","","","","","","","","","",""
"","","","","","canvas-keyboard-response","108","233421","0.0-12.0-1.19","2d_cat_multi_stim_exp1","2022-4-29","15:7:3","25","75","3","9","10","40","30","120","73","20","[""White""]","No","Male","1832472","null","null","","","","clear_screen","","","","","","","","","","","","","","","","","","","","","","","","","",""
"","","","","","canvas-keyboard-response","109","234322","0.0-12.0-2.19","2d_cat_multi_stim_exp1","2022-4-29","15:7:3","25","75","3","9","10","40","30","120","73","20","[""White""]","No","Male","1832472","891","i","learn","","","learn_trial","25","75","in","0","0","","","","","","","","","","","","","","","","","","","","",""
"","","","","","canvas-keyboard-response","110","235332","0.0-12.0-3.19","2d_cat_multi_stim_exp1","2022-4-29","15:7:3","25","75","3","9","10","40","30","120","73","20","[""White""]","No","Male","1832472","null","null","learn_feedback","","","learn_feedback","25","75","in","","","","","","","","","","","","","","","","","","","","","","",""
"","","","","","canvas-keyboard-response","111","235392","0.0-12.0-4.19","2d_cat_multi_stim_exp1","2022-4-29","15:7:3","25","75","3","9","10","40","30","120","73","20","[""White""]","No","Male","1832472","null","null","","","","clear_screen","","","","","","","","","","","","","","","","","","","","","","","","","",""
"","","","","","canvas-keyboard-response","112","235901","0.0-12.0-0.20","2d_cat_multi_stim_exp1","2022-4-29","15:7:3","25","75","3","9","10","40","30","120","73","20","[""White""]","No","Male","1832472","null","null","","","","fixation","","","","","","","","","","","","","","","","","","","","","","","","","",""
"","","","","","canvas-keyboard-response","113","236414","0.0-12.0-1.20","2d_cat_multi_stim_exp1","2022-4-29","15:7:3","25","75","3","9","10","40","30","120","73","20","[""White""]","No","Male","1832472","null","null","","","","clear_screen","","","","","","","","","","","","","","","","","","","","","","","","","",""
"","","","","","canvas-keyboard-response","114","237323","0.0-12.0-2.20","2d_cat_multi_stim_exp1","2022-4-29","15:7:3","25","75","3","9","10","40","30","120","73","20","[""White""]","No","Male","1832472","897","i","learn","","","learn_trial","13.3333","70","out","0","1","","","","","","","","","","","","","","","","","","","","",""
"","","","","","canvas-keyboard-response","115","237833","0.0-12.0-3.20","2d_cat_multi_stim_exp1","2022-4-29","15:7:3","25","75","3","9","10","40","30","120","73","20","[""White""]","No","Male","1832472","null","null","learn_feedback","","","learn_feedback","13.3333","70","out","","","","","","","","","","","","","","","","","","","","","","",""
"","","","","","canvas-keyboard-response","116","237896","0.0-12.0-4.20","2d_cat_multi_stim_exp1","2022-4-29","15:7:3","25","75","3","9","10","40","30","120","73","20","[""White""]","No","Male","1832472","null","null","","","","clear_screen","","","","","","","","","","","","","","","","","","","","","","","","","",""
"","","","","","canvas-keyboard-response","117","238407","0.0-12.0-0.21","2d_cat_multi_stim_exp1","2022-4-29","15:7:3","25","75","3","9","10","40","30","120","73","20","[""White""]","No","Male","1832472","null","null","","","","fixation","","","","","","","","","","","","","","","","","","","","","","","","","",""
"","","","","","canvas-keyboard-response","118","238919","0.0-12.0-1.21","2d_cat_multi_stim_exp1","2022-4-29","15:7:3","25","75","3","9","10","40","30","120","73","20","[""White""]","No","Male","1832472","null","null","","","","clear_screen","","","","","","","","","","","","","","","","","","","","","","","","","",""
"","","","","","canvas-keyboard-response","119","239546","0.0-12.0-2.21","2d_cat_multi_stim_exp1","2022-4-29","15:7:3","25","75","3","9","10","40","30","120","73","20","[""White""]","No","Male","1832472","617","i","learn","","","learn_trial","13.3333","80","out","0","1","","","","","","","","","","","","","","","","","","","","",""
"","","","","","canvas-keyboard-response","120","240058","0.0-12.0-3.21","2d_cat_multi_stim_exp1","2022-4-29","15:7:3","25","75","3","9","10","40","30","120","73","20","[""White""]","No","Male","1832472","null","null","learn_feedback","","","learn_feedback","13.3333","80","out","","","","","","","","","","","","","","","","","","","","","","",""
"","","","","","canvas-keyboard-response","121","240122","0.0-12.0-4.21","2d_cat_multi_stim_exp1","2022-4-29","15:7:3","25","75","3","9","10","40","30","120","73","20","[""White""]","No","Male","1832472","null","null","","","","clear_screen","","","","","","","","","","","","","","","","","","","","","","","","","",""
"","","","","","canvas-keyboard-response","122","240631","0.0-12.0-0.22","2d_cat_multi_stim_exp1","2022-4-29","15:7:3","25","75","3","9","10","40","30","120","73","20","[""White""]","No","Male","1832472","null","null","","","","fixation","","","","","","","","","","","","","","","","","","","","","","","","","",""
"","","","","","canvas-keyboard-response","123","241142","0.0-12.0-1.22","2d_cat_multi_stim_exp1","2022-4-29","15:7:3","25","75","3","9","10","40","30","120","73","20","[""White""]","No","Male","1832472","null","null","","","","clear_screen","","","","","","","","","","","","","","","","","","","","","","","","","",""
"","","","","","canvas-keyboard-response","124","242211","0.0-12.0-2.22","2d_cat_multi_stim_exp1","2022-4-29","15:7:3","25","75","3","9","10","40","30","120","73","20","[""White""]","No","Male","1832472","1060","i","learn","","","learn_trial","30","30","out","0","1","","","","","","","","","","","","","","","","","","","","",""
"","","","","","canvas-keyboard-response","125","242720","0.0-12.0-3.22","2d_cat_multi_stim_exp1","2022-4-29","15:7:3","25","75","3","9","10","40","30","120","73","20","[""White""]","No","Male","1832472","null","null","learn_feedback","","","learn_feedback","30","30","out","","","","","","","","","","","","","","","","","","","","","","",""
"","","","","","canvas-keyboard-response","126","242782","0.0-12.0-4.22","2d_cat_multi_stim_exp1","2022-4-29","15:7:3","25","75","3","9","10","40","30","120","73","20","[""White""]","No","Male","1832472","null","null","","","","clear_screen","","","","","","","","","","","","","","","","","","","","","","","","","",""
"","","","","","canvas-keyboard-response","127","243297","0.0-12.0-0.23","2d_cat_multi_stim_exp1","2022-4-29","15:7:3","25","75","3","9","10","40","30","120","73","20","[""White""]","No","Male","1832472","null","null","","","","fixation","","","","","","","","","","","","","","","","","","","","","","","","","",""
"","","","","","canvas-keyboard-response","128","243810","0.0-12.0-1.23","2d_cat_multi_stim_exp1","2022-4-29","15:7:3","25","75","3","9","10","40","30","120","73","20","[""White""]","No","Male","1832472","null","null","","","","clear_screen","","","","","","","","","","","","","","","","","","","","","","","","","",""
"","","","","","canvas-keyboard-response","129","244531","0.0-12.0-2.23","2d_cat_multi_stim_exp1","2022-4-29","15:7:3","25","75","3","9","10","40","30","120","73","20","[""White""]","No","Male","1832472","712","i","learn","","","learn_trial","33.3333","60","out","0","1","","","","","","","","","","","","","","","","","","","","",""
"","","","","","canvas-keyboard-response","130","245040","0.0-12.0-3.23","2d_cat_multi_stim_exp1","2022-4-29","15:7:3","25","75","3","9","10","40","30","120","73","20","[""White""]","No","Male","1832472","null","null","learn_feedback","","","learn_feedback","33.3333","60","out","","","","","","","","","","","","","","","","","","","","","","",""
"","","","","","canvas-keyboard-response","131","245101","0.0-12.0-4.23","2d_cat_multi_stim_exp1","2022-4-29","15:7:3","25","75","3","9","10","40","30","120","73","20","[""White""]","No","Male","1832472","null","null","","","","clear_screen","","","","","","","","","","","","","","","","","","","","","","","","","",""
"","","","","","canvas-keyboard-response","132","245609","0.0-12.0-0.24","2d_cat_multi_stim_exp1","2022-4-29","15:7:3","25","75","3","9","10","40","30","120","73","20","[""White""]","No","Male","1832472","null","null","","","","fixation","","","","","","","","","","","","","","","","","","","","","","","","","",""
"","","","","","canvas-keyboard-response","133","246121","0.0-12.0-1.24","2d_cat_multi_stim_exp1","2022-4-29","15:7:3","25","75","3","9","10","40","30","120","73","20","[""White""]","No","Male","1832472","null","null","","","","clear_screen","","","","","","","","","","","","","","","","","","","","","","","","","",""
"","","","","","canvas-keyboard-response","134","247122","0.0-12.0-2.24","2d_cat_multi_stim_exp1","2022-4-29","15:7:3","25","75","3","9","10","40","30","120","73","20","[""White""]","No","Male","1832472","989","i","learn","","","learn_trial","25","75","in","0","0","","","","","","","","","","","","","","","","","","","","",""
"","","","","","canvas-keyboard-response","135","248131","0.0-12.0-3.24","2d_cat_multi_stim_exp1","2022-4-29","15:7:3","25","75","3","9","10","40","30","120","73","20","[""White""]","No","Male","1832472","null","null","learn_feedback","","","learn_feedback","25","75","in","","","","","","","","","","","","","","","","","","","","","","",""
"","","","","","canvas-keyboard-response","136","248193","0.0-12.0-4.24","2d_cat_multi_stim_exp1","2022-4-29","15:7:3","25","75","3","9","10","40","30","120","73","20","[""White""]","No","Male","1832472","null","null","","","","clear_screen","","","","","","","","","","","","","","","","","","","","","","","","","",""
"","","","","","canvas-keyboard-response","137","248702","0.0-12.0-0.25","2d_cat_multi_stim_exp1","2022-4-29","15:7:3","25","75","3","9","10","40","30","120","73","20","[""White""]","No","Male","1832472","null","null","","","","fixation","","","","","","","","","","","","","","","","","","","","","","","","","",""
"","","","","","canvas-keyboard-response","138","249211","0.0-12.0-1.25","2d_cat_multi_stim_exp1","2022-4-29","15:7:3","25","75","3","9","10","40","30","120","73","20","[""White""]","No","Male","1832472","null","null","","","","clear_screen","","","","","","","","","","","","","","","","","","","","","","","","","",""
"","","","","","canvas-keyboard-response","139","250250","0.0-12.0-2.25","2d_cat_multi_stim_exp1","2022-4-29","15:7:3","25","75","3","9","10","40","30","120","73","20","[""White""]","No","Male","1832472","1029","u","learn","","","learn_trial","25","75","in","1","1","","","","","","","","","","","","","","","","","","","","",""
"","","","","","canvas-keyboard-response","140","250761","0.0-12.0-3.25","2d_cat_multi_stim_exp1","2022-4-29","15:7:3","25","75","3","9","10","40","30","120","73","20","[""White""]","No","Male","1832472","null","null","learn_feedback","","","learn_feedback","25","75","in","","","","","","","","","","","","","","","","","","","","","","",""
"","","","","","canvas-keyboard-response","141","250822","0.0-12.0-4.25","2d_cat_multi_stim_exp1","2022-4-29","15:7:3","25","75","3","9","10","40","30","120","73","20","[""White""]","No","Male","1832472","null","null","","","","clear_screen","","","","","","","","","","","","","","","","","","","","","","","","","",""
"","","","","","canvas-keyboard-response","142","251335","0.0-12.0-0.26","2d_cat_multi_stim_exp1","2022-4-29","15:7:3","25","75","3","9","10","40","30","120","73","20","[""White""]","No","Male","1832472","null","null","","","","fixation","","","","","","","","","","","","","","","","","","","","","","","","","",""
"","","","","","canvas-keyboard-response","143","251854","0.0-12.0-1.26","2d_cat_multi_stim_exp1","2022-4-29","15:7:3","25","75","3","9","10","40","30","120","73","20","[""White""]","No","Male","1832472","null","null","","","","clear_screen","","","","","","","","","","","","","","","","","","","","","","","","","",""
"","","","","","canvas-keyboard-response","144","252890","0.0-12.0-2.26","2d_cat_multi_stim_exp1","2022-4-29","15:7:3","25","75","3","9","10","40","30","120","73","20","[""White""]","No","Male","1832472","1023","i","learn","","","learn_trial","22.1081","72.6057","in","0","0","","","","","","","","","","","","","","","","","","","","",""
"","","","","","canvas-keyboard-response","145","253904","0.0-12.0-3.26","2d_cat_multi_stim_exp1","2022-4-29","15:7:3","25","75","3","9","10","40","30","120","73","20","[""White""]","No","Male","1832472","null","null","learn_feedback","","","learn_feedback","22.1081","72.6057","in","","","","","","","","","","","","","","","","","","","","","","",""
"","","","","","canvas-keyboard-response","146","253968","0.0-12.0-4.26","2d_cat_multi_stim_exp1","2022-4-29","15:7:3","25","75","3","9","10","40","30","120","73","20","[""White""]","No","Male","1832472","null","null","","","","clear_screen","","","","","","","","","","","","","","","","","","","","","","","","","",""
"","","","","","canvas-keyboard-response","147","254479","0.0-12.0-0.27","2d_cat_multi_stim_exp1","2022-4-29","15:7:3","25","75","3","9","10","40","30","120","73","20","[""White""]","No","Male","1832472","null","null","","","","fixation","","","","","","","","","","","","","","","","","","","","","","","","","",""
"","","","","","canvas-keyboard-response","148","254989","0.0-12.0-1.27","2d_cat_multi_stim_exp1","2022-4-29","15:7:3","25","75","3","9","10","40","30","120","73","20","[""White""]","No","Male","1832472","null","null","","","","clear_screen","","","","","","","","","","","","","","","","","","","","","","","","","",""
"","","","","","canvas-keyboard-response","149","255658","0.0-12.0-2.27","2d_cat_multi_stim_exp1","2022-4-29","15:7:3","25","75","3","9","10","40","30","120","73","20","[""White""]","No","Male","1832472","656","u","learn","","","learn_trial","25","75","in","1","1","","","","","","","","","","","","","","","","","","","","",""
"","","","","","canvas-keyboard-response","150","256171","0.0-12.0-3.27","2d_cat_multi_stim_exp1","2022-4-29","15:7:3","25","75","3","9","10","40","30","120","73","20","[""White""]","No","Male","1832472","null","null","learn_feedback","","","learn_feedback","25","75","in","","","","","","","","","","","","","","","","","","","","","","",""
"","","","","","canvas-keyboard-response","151","256230","0.0-12.0-4.27","2d_cat_multi_stim_exp1","2022-4-29","15:7:3","25","75","3","9","10","40","30","120","73","20","[""White""]","No","Male","1832472","null","null","","","","clear_screen","","","","","","","","","","","","","","","","","","","","","","","","","",""
"","","","","","canvas-keyboard-response","152","256741","0.0-12.0-0.28","2d_cat_multi_stim_exp1","2022-4-29","15:7:3","25","75","3","9","10","40","30","120","73","20","[""White""]","No","Male","1832472","null","null","","","","fixation","","","","","","","","","","","","","","","","","","","","","","","","","",""
"","","","","","canvas-keyboard-response","153","257253","0.0-12.0-1.28","2d_cat_multi_stim_exp1","2022-4-29","15:7:3","25","75","3","9","10","40","30","120","73","20","[""White""]","No","Male","1832472","null","null","","","","clear_screen","","","","","","","","","","","","","","","","","","","","","","","","","",""
"","","","","","canvas-keyboard-response","154","258010","0.0-12.0-2.28","2d_cat_multi_stim_exp1","2022-4-29","15:7:3","25","75","3","9","10","40","30","120","73","20","[""White""]","No","Male","1832472","747","i","learn","","","learn_trial","16.6667","120","out","0","1","","","","","","","","","","","","","","","","","","","","",""
"","","","","","canvas-keyboard-response","155","258522","0.0-12.0-3.28","2d_cat_multi_stim_exp1","2022-4-29","15:7:3","25","75","3","9","10","40","30","120","73","20","[""White""]","No","Male","1832472","null","null","learn_feedback","","","learn_feedback","16.6667","120","out","","","","","","","","","","","","","","","","","","","","","","",""
"","","","","","canvas-keyboard-response","156","258580","0.0-12.0-4.28","2d_cat_multi_stim_exp1","2022-4-29","15:7:3","25","75","3","9","10","40","30","120","73","20","[""White""]","No","Male","1832472","null","null","","","","clear_screen","","","","","","","","","","","","","","","","","","","","","","","","","",""
"","","","","","canvas-keyboard-response","157","259092","0.0-12.0-0.29","2d_cat_multi_stim_exp1","2022-4-29","15:7:3","25","75","3","9","10","40","30","120","73","20","[""White""]","No","Male","1832472","null","null","","","","fixation","","","","","","","","","","","","","","","","","","","","","","","","","",""
"","","","","","canvas-keyboard-response","158","259607","0.0-12.0-1.29","2d_cat_multi_stim_exp1","2022-4-29","15:7:3","25","75","3","9","10","40","30","120","73","20","[""White""]","No","Male","1832472","null","null","","","","clear_screen","","","","","","","","","","","","","","","","","","","","","","","","","",""
"","","","","","canvas-keyboard-response","159","260202","0.0-12.0-2.29","2d_cat_multi_stim_exp1","2022-4-29","15:7:3","25","75","3","9","10","40","30","120","73","20","[""White""]","No","Male","1832472","586","u","learn","","","learn_trial","27.5753","70.3839","in","1","1","","","","","","","","","","","","","","","","","","","","",""
"","","","","","canvas-keyboard-response","160","260713","0.0-12.0-3.29","2d_cat_multi_stim_exp1","2022-4-29","15:7:3","25","75","3","9","10","40","30","120","73","20","[""White""]","No","Male","1832472","null","null","learn_feedback","","","learn_feedback","27.5753","70.3839","in","","","","","","","","","","","","","","","","","","","","","","",""
"","","","","","canvas-keyboard-response","161","260774","0.0-12.0-4.29","2d_cat_multi_stim_exp1","2022-4-29","15:7:3","25","75","3","9","10","40","30","120","73","20","[""White""]","No","Male","1832472","null","null","","","","clear_screen","","","","","","","","","","","","","","","","","","","","","","","","","",""
"","","","","","canvas-keyboard-response","162","261287","0.0-12.0-0.30","2d_cat_multi_stim_exp1","2022-4-29","15:7:3","25","75","3","9","10","40","30","120","73","20","[""White""]","No","Male","1832472","null","null","","","","fixation","","","","","","","","","","","","","","","","","","","","","","","","","",""
"","","","","","canvas-keyboard-response","163","261797","0.0-12.0-1.30","2d_cat_multi_stim_exp1","2022-4-29","15:7:3","25","75","3","9","10","40","30","120","73","20","[""White""]","No","Male","1832472","null","null","","","","clear_screen","","","","","","","","","","","","","","","","","","","","","","","","","",""
"","","","","","canvas-keyboard-response","164","262794","0.0-12.0-2.30","2d_cat_multi_stim_exp1","2022-4-29","15:7:3","25","75","3","9","10","40","30","120","73","20","[""White""]","No","Male","1832472","989","i","learn","","","learn_trial","33.3333","110","out","0","1","","","","","","","","","","","","","","","","","","","","",""
"","","","","","canvas-keyboard-response","165","263308","0.0-12.0-3.30","2d_cat_multi_stim_exp1","2022-4-29","15:7:3","25","75","3","9","10","40","30","120","73","20","[""White""]","No","Male","1832472","null","null","learn_feedback","","","learn_feedback","33.3333","110","out","","","","","","","","","","","","","","","","","","","","","","",""
"","","","","","canvas-keyboard-response","166","263370","0.0-12.0-4.30","2d_cat_multi_stim_exp1","2022-4-29","15:7:3","25","75","3","9","10","40","30","120","73","20","[""White""]","No","Male","1832472","null","null","","","","clear_screen","","","","","","","","","","","","","","","","","","","","","","","","","",""
"","","","","","canvas-keyboard-response","167","263880","0.0-12.0-0.31","2d_cat_multi_stim_exp1","2022-4-29","15:7:3","25","75","3","9","10","40","30","120","73","20","[""White""]","No","Male","1832472","null","null","","","","fixation","","","","","","","","","","","","","","","","","","","","","","","","","",""
"","","","","","canvas-keyboard-response","168","264391","0.0-12.0-1.31","2d_cat_multi_stim_exp1","2022-4-29","15:7:3","25","75","3","9","10","40","30","120","73","20","[""White""]","No","Male","1832472","null","null","","","","clear_screen","","","","","","","","","","","","","","","","","","","","","","","","","",""
"","","","","","canvas-keyboard-response","169","265058","0.0-12.0-2.31","2d_cat_multi_stim_exp1","2022-4-29","15:7:3","25","75","3","9","10","40","30","120","73","20","[""White""]","No","Male","1832472","658","u","learn","","","learn_trial","25","75","in","1","1","","","","","","","","","","","","","","","","","","","","",""
"","","","","","canvas-keyboard-response","170","265567","0.0-12.0-3.31","2d_cat_multi_stim_exp1","2022-4-29","15:7:3","25","75","3","9","10","40","30","120","73","20","[""White""]","No","Male","1832472","null","null","learn_feedback","","","learn_feedback","25","75","in","","","","","","","","","","","","","","","","","","","","","","",""
"","","","","","canvas-keyboard-response","171","265626","0.0-12.0-4.31","2d_cat_multi_stim_exp1","2022-4-29","15:7:3","25","75","3","9","10","40","30","120","73","20","[""White""]","No","Male","1832472","null","null","","","","clear_screen","","","","","","","","","","","","","","","","","","","","","","","","","",""
"","","","","","canvas-keyboard-response","172","266138","0.0-12.0-0.32","2d_cat_multi_stim_exp1","2022-4-29","15:7:3","25","75","3","9","10","40","30","120","73","20","[""White""]","No","Male","1832472","null","null","","","","fixation","","","","","","","","","","","","","","","","","","","","","","","","","",""
"","","","","","canvas-keyboard-response","173","266653","0.0-12.0-1.32","2d_cat_multi_stim_exp1","2022-4-29","15:7:3","25","75","3","9","10","40","30","120","73","20","[""White""]","No","Male","1832472","null","null","","","","clear_screen","","","","","","","","","","","","","","","","","","","","","","","","","",""
"","","","","","canvas-keyboard-response","174","267330","0.0-12.0-2.32","2d_cat_multi_stim_exp1","2022-4-29","15:7:3","25","75","3","9","10","40","30","120","73","20","[""White""]","No","Male","1832472","668","u","learn","","","learn_trial","25","75","in","1","1","","","","","","","","","","","","","","","","","","","","",""
"","","","","","canvas-keyboard-response","175","267842","0.0-12.0-3.32","2d_cat_multi_stim_exp1","2022-4-29","15:7:3","25","75","3","9","10","40","30","120","73","20","[""White""]","No","Male","1832472","null","null","learn_feedback","","","learn_feedback","25","75","in","","","","","","","","","","","","","","","","","","","","","","",""
"","","","","","canvas-keyboard-response","176","267906","0.0-12.0-4.32","2d_cat_multi_stim_exp1","2022-4-29","15:7:3","25","75","3","9","10","40","30","120","73","20","[""White""]","No","Male","1832472","null","null","","","","clear_screen","","","","","","","","","","","","","","","","","","","","","","","","","",""
"","","","","","canvas-keyboard-response","177","268418","0.0-12.0-0.33","2d_cat_multi_stim_exp1","2022-4-29","15:7:3","25","75","3","9","10","40","30","120","73","20","[""White""]","No","Male","1832472","null","null","","","","fixation","","","","","","","","","","","","","","","","","","","","","","","","","",""
"","","","","","canvas-keyboard-response","178","268932","0.0-12.0-1.33","2d_cat_multi_stim_exp1","2022-4-29","15:7:3","25","75","3","9","10","40","30","120","73","20","[""White""]","No","Male","1832472","null","null","","","","clear_screen","","","","","","","","","","","","","","","","","","","","","","","","","",""
"","","","","","canvas-keyboard-response","179","269578","0.0-12.0-2.33","2d_cat_multi_stim_exp1","2022-4-29","15:7:3","25","75","3","9","10","40","30","120","73","20","[""White""]","No","Male","1832472","636","u","learn","","","learn_trial","25","75","in","1","1","","","","","","","","","","","","","","","","","","","","",""
"","","","","","canvas-keyboard-response","180","270089","0.0-12.0-3.33","2d_cat_multi_stim_exp1","2022-4-29","15:7:3","25","75","3","9","10","40","30","120","73","20","[""White""]","No","Male","1832472","null","null","learn_feedback","","","learn_feedback","25","75","in","","","","","","","","","","","","","","","","","","","","","","",""
"","","","","","canvas-keyboard-response","181","270148","0.0-12.0-4.33","2d_cat_multi_stim_exp1","2022-4-29","15:7:3","25","75","3","9","10","40","30","120","73","20","[""White""]","No","Male","1832472","null","null","","","","clear_screen","","","","","","","","","","","","","","","","","","","","","","","","","",""
"","","","","","canvas-keyboard-response","182","270660","0.0-12.0-0.34","2d_cat_multi_stim_exp1","2022-4-29","15:7:3","25","75","3","9","10","40","30","120","73","20","[""White""]","No","Male","1832472","null","null","","","","fixation","","","","","","","","","","","","","","","","","","","","","","","","","",""
"","","","","","canvas-keyboard-response","183","271170","0.0-12.0-1.34","2d_cat_multi_stim_exp1","2022-4-29","15:7:3","25","75","3","9","10","40","30","120","73","20","[""White""]","No","Male","1832472","null","null","","","","clear_screen","","","","","","","","","","","","","","","","","","","","","","","","","",""
"","","","","","canvas-keyboard-response","184","272714","0.0-12.0-2.34","2d_cat_multi_stim_exp1","2022-4-29","15:7:3","25","75","3","9","10","40","30","120","73","20","[""White""]","No","Male","1832472","1536","i","learn","","","learn_trial","25","75","in","0","0","","","","","","","","","","","","","","","","","","","","",""
"","","","","","canvas-keyboard-response","185","273725","0.0-12.0-3.34","2d_cat_multi_stim_exp1","2022-4-29","15:7:3","25","75","3","9","10","40","30","120","73","20","[""White""]","No","Male","1832472","null","null","learn_feedback","","","learn_feedback","25","75","in","","","","","","","","","","","","","","","","","","","","","","",""
"","","","","","canvas-keyboard-response","186","273785","0.0-12.0-4.34","2d_cat_multi_stim_exp1","2022-4-29","15:7:3","25","75","3","9","10","40","30","120","73","20","[""White""]","No","Male","1832472","null","null","","","","clear_screen","","","","","","","","","","","","","","","","","","","","","","","","","",""
"","","","","","canvas-keyboard-response","187","274295","0.0-12.0-0.35","2d_cat_multi_stim_exp1","2022-4-29","15:7:3","25","75","3","9","10","40","30","120","73","20","[""White""]","No","Male","1832472","null","null","","","","fixation","","","","","","","","","","","","","","","","","","","","","","","","","",""
"","","","","","canvas-keyboard-response","188","274810","0.0-12.0-1.35","2d_cat_multi_stim_exp1","2022-4-29","15:7:3","25","75","3","9","10","40","30","120","73","20","[""White""]","No","Male","1832472","null","null","","","","clear_screen","","","","","","","","","","","","","","","","","","","","","","","","","",""
"","","","","","canvas-keyboard-response","189","275858","0.0-12.0-2.35","2d_cat_multi_stim_exp1","2022-4-29","15:7:3","25","75","3","9","10","40","30","120","73","20","[""White""]","No","Male","1832472","1037","i","learn","","","learn_trial","30","50","out","0","1","","","","","","","","","","","","","","","","","","","","",""
"","","","","","canvas-keyboard-response","190","276368","0.0-12.0-3.35","2d_cat_multi_stim_exp1","2022-4-29","15:7:3","25","75","3","9","10","40","30","120","73","20","[""White""]","No","Male","1832472","null","null","learn_feedback","","","learn_feedback","30","50","out","","","","","","","","","","","","","","","","","","","","","","",""
"","","","","","canvas-keyboard-response","191","276430","0.0-12.0-4.35","2d_cat_multi_stim_exp1","2022-4-29","15:7:3","25","75","3","9","10","40","30","120","73","20","[""White""]","No","Male","1832472","null","null","","","","clear_screen","","","","","","","","","","","","","","","","","","","","","","","","","",""
"","","","","","canvas-keyboard-response","192","276940","0.0-12.0-0.36","2d_cat_multi_stim_exp1","2022-4-29","15:7:3","25","75","3","9","10","40","30","120","73","20","[""White""]","No","Male","1832472","null","null","","","","fixation","","","","","","","","","","","","","","","","","","","","","","","","","",""
"","","","","","canvas-keyboard-response","193","277451","0.0-12.0-1.36","2d_cat_multi_stim_exp1","2022-4-29","15:7:3","25","75","3","9","10","40","30","120","73","20","[""White""]","No","Male","1832472","null","null","","","","clear_screen","","","","","","","","","","","","","","","","","","","","","","","","","",""
"","","","","","canvas-keyboard-response","194","282227","0.0-12.0-2.36","2d_cat_multi_stim_exp1","2022-4-29","15:7:3","25","75","3","9","10","40","30","120","73","20","[""White""]","No","Male","1832472","4766","u","learn","","","learn_trial","22.0121","75.8068","in","1","1","","","","","","","","","","","","","","","","","","","","",""
"","","","","","canvas-keyboard-response","195","282736","0.0-12.0-3.36","2d_cat_multi_stim_exp1","2022-4-29","15:7:3","25","75","3","9","10","40","30","120","73","20","[""White""]","No","Male","1832472","null","null","learn_feedback","","","learn_feedback","22.0121","75.8068","in","","","","","","","","","","","","","","","","","","","","","","",""
"","","","","","canvas-keyboard-response","196","282796","0.0-12.0-4.36","2d_cat_multi_stim_exp1","2022-4-29","15:7:3","25","75","3","9","10","40","30","120","73","20","[""White""]","No","Male","1832472","null","null","","","","clear_screen","","","","","","","","","","","","","","","","","","","","","","","","","",""
"","","","","","canvas-keyboard-response","197","283307","0.0-12.0-0.37","2d_cat_multi_stim_exp1","2022-4-29","15:7:3","25","75","3","9","10","40","30","120","73","20","[""White""]","No","Male","1832472","null","null","","","","fixation","","","","","","","","","","","","","","","","","","","","","","","","","",""
"","","","","","canvas-keyboard-response","198","283822","0.0-12.0-1.37","2d_cat_multi_stim_exp1","2022-4-29","15:7:3","25","75","3","9","10","40","30","120","73","20","[""White""]","No","Male","1832472","null","null","","","","clear_screen","","","","","","","","","","","","","","","","","","","","","","","","","",""
"","","","","","canvas-keyboard-response","199","284490","0.0-12.0-2.37","2d_cat_multi_stim_exp1","2022-4-29","15:7:3","25","75","3","9","10","40","30","120","73","20","[""White""]","No","Male","1832472","658","i","learn","","","learn_trial","33.3333","90","out","0","1","","","","","","","","","","","","","","","","","","","","",""
"","","","","","canvas-keyboard-response","200","285001","0.0-12.0-3.37","2d_cat_multi_stim_exp1","2022-4-29","15:7:3","25","75","3","9","10","40","30","120","73","20","[""White""]","No","Male","1832472","null","null","learn_feedback","","","learn_feedback","33.3333","90","out","","","","","","","","","","","","","","","","","","","","","","",""
"","","","","","canvas-keyboard-response","201","285062","0.0-12.0-4.37","2d_cat_multi_stim_exp1","2022-4-29","15:7:3","25","75","3","9","10","40","30","120","73","20","[""White""]","No","Male","1832472","null","null","","","","clear_screen","","","","","","","","","","","","","","","","","","","","","","","","","",""
"","","","","","canvas-keyboard-response","202","285574","0.0-12.0-0.38","2d_cat_multi_stim_exp1","2022-4-29","15:7:3","25","75","3","9","10","40","30","120","73","20","[""White""]","No","Male","1832472","null","null","","","","fixation","","","","","","","","","","","","","","","","","","","","","","","","","",""
"","","","","","canvas-keyboard-response","203","286084","0.0-12.0-1.38","2d_cat_multi_stim_exp1","2022-4-29","15:7:3","25","75","3","9","10","40","30","120","73","20","[""White""]","No","Male","1832472","null","null","","","","clear_screen","","","","","","","","","","","","","","","","","","","","","","","","","",""
"","","","","","canvas-keyboard-response","204","287026","0.0-12.0-2.38","2d_cat_multi_stim_exp1","2022-4-29","15:7:3","25","75","3","9","10","40","30","120","73","20","[""White""]","No","Male","1832472","934","u","learn","","","learn_trial","24.3324","66.2256","in","1","1","","","","","","","","","","","","","","","","","","","","",""
"","","","","","canvas-keyboard-response","205","287540","0.0-12.0-3.38","2d_cat_multi_stim_exp1","2022-4-29","15:7:3","25","75","3","9","10","40","30","120","73","20","[""White""]","No","Male","1832472","null","null","learn_feedback","","","learn_feedback","24.3324","66.2256","in","","","","","","","","","","","","","","","","","","","","","","",""
"","","","","","canvas-keyboard-response","206","287603","0.0-12.0-4.38","2d_cat_multi_stim_exp1","2022-4-29","15:7:3","25","75","3","9","10","40","30","120","73","20","[""White""]","No","Male","1832472","null","null","","","","clear_screen","","","","","","","","","","","","","","","","","","","","","","","","","",""
"","","","","","canvas-keyboard-response","207","288117","0.0-12.0-0.39","2d_cat_multi_stim_exp1","2022-4-29","15:7:3","25","75","3","9","10","40","30","120","73","20","[""White""]","No","Male","1832472","null","null","","","","fixation","","","","","","","","","","","","","","","","","","","","","","","","","",""
"","","","","","canvas-keyboard-response","208","288634","0.0-12.0-1.39","2d_cat_multi_stim_exp1","2022-4-29","15:7:3","25","75","3","9","10","40","30","120","73","20","[""White""]","No","Male","1832472","null","null","","","","clear_screen","","","","","","","","","","","","","","","","","","","","","","","","","",""
"","","","","","canvas-keyboard-response","209","289859","0.0-12.0-2.39","2d_cat_multi_stim_exp1","2022-4-29","15:7:3","25","75","3","9","10","40","30","120","73","20","[""White""]","No","Male","1832472","1211","u","learn","","","learn_trial","26.8705","82.0365","in","1","1","","","","","","","","","","","","","","","","","","","","",""
"","","","","","canvas-keyboard-response","210","290370","0.0-12.0-3.39","2d_cat_multi_stim_exp1","2022-4-29","15:7:3","25","75","3","9","10","40","30","120","73","20","[""White""]","No","Male","1832472","null","null","learn_feedback","","","learn_feedback","26.8705","82.0365","in","","","","","","","","","","","","","","","","","","","","","","",""
"","","","","","canvas-keyboard-response","211","290432","0.0-12.0-4.39","2d_cat_multi_stim_exp1","2022-4-29","15:7:3","25","75","3","9","10","40","30","120","73","20","[""White""]","No","Male","1832472","null","null","","","","clear_screen","","","","","","","","","","","","","","","","","","","","","","","","","",""
"","","","","","canvas-keyboard-response","212","290943","0.0-12.0-0.40","2d_cat_multi_stim_exp1","2022-4-29","15:7:3","25","75","3","9","10","40","30","120","73","20","[""White""]","No","Male","1832472","null","null","","","","fixation","","","","","","","","","","","","","","","","","","","","","","","","","",""
"","","","","","canvas-keyboard-response","213","291458","0.0-12.0-1.40","2d_cat_multi_stim_exp1","2022-4-29","15:7:3","25","75","3","9","10","40","30","120","73","20","[""White""]","No","Male","1832472","null","null","","","","clear_screen","","","","","","","","","","","","","","","","","","","","","","","","","",""
"","","","","","canvas-keyboard-response","214","292330","0.0-12.0-2.40","2d_cat_multi_stim_exp1","2022-4-29","15:7:3","25","75","3","9","10","40","30","120","73","20","[""White""]","No","Male","1832472","859","u","learn","","","learn_trial","25","75","in","1","1","","","","","","","","","","","","","","","","","","","","",""
"","","","","","canvas-keyboard-response","215","292842","0.0-12.0-3.40","2d_cat_multi_stim_exp1","2022-4-29","15:7:3","25","75","3","9","10","40","30","120","73","20","[""White""]","No","Male","1832472","null","null","learn_feedback","","","learn_feedback","25","75","in","","","","","","","","","","","","","","","","","","","","","","",""
"","","","","","canvas-keyboard-response","216","292903","0.0-12.0-4.40","2d_cat_multi_stim_exp1","2022-4-29","15:7:3","25","75","3","9","10","40","30","120","73","20","[""White""]","No","Male","1832472","null","null","","","","clear_screen","","","","","","","","","","","","","","","","","","","","","","","","","",""
"","","","","","canvas-keyboard-response","217","293415","0.0-12.0-0.41","2d_cat_multi_stim_exp1","2022-4-29","15:7:3","25","75","3","9","10","40","30","120","73","20","[""White""]","No","Male","1832472","null","null","","","","fixation","","","","","","","","","","","","","","","","","","","","","","","","","",""
"","","","","","canvas-keyboard-response","218","293927","0.0-12.0-1.41","2d_cat_multi_stim_exp1","2022-4-29","15:7:3","25","75","3","9","10","40","30","120","73","20","[""White""]","No","Male","1832472","null","null","","","","clear_screen","","","","","","","","","","","","","","","","","","","","","","","","","",""
"","","","","","canvas-keyboard-response","219","294978","0.0-12.0-2.41","2d_cat_multi_stim_exp1","2022-4-29","15:7:3","25","75","3","9","10","40","30","120","73","20","[""White""]","No","Male","1832472","1041","u","learn","","","learn_trial","25","75","in","1","1","","","","","","","","","","","","","","","","","","","","",""
"","","","","","canvas-keyboard-response","220","295488","0.0-12.0-3.41","2d_cat_multi_stim_exp1","2022-4-29","15:7:3","25","75","3","9","10","40","30","120","73","20","[""White""]","No","Male","1832472","null","null","learn_feedback","","","learn_feedback","25","75","in","","","","","","","","","","","","","","","","","","","","","","",""
"","","","","","canvas-keyboard-response","221","295547","0.0-12.0-4.41","2d_cat_multi_stim_exp1","2022-4-29","15:7:3","25","75","3","9","10","40","30","120","73","20","[""White""]","No","Male","1832472","null","null","","","","clear_screen","","","","","","","","","","","","","","","","","","","","","","","","","",""
"","","","","","canvas-keyboard-response","222","296059","0.0-12.0-0.42","2d_cat_multi_stim_exp1","2022-4-29","15:7:3","25","75","3","9","10","40","30","120","73","20","[""White""]","No","Male","1832472","null","null","","","","fixation","","","","","","","","","","","","","","","","","","","","","","","","","",""
"","","","","","canvas-keyboard-response","223","296573","0.0-12.0-1.42","2d_cat_multi_stim_exp1","2022-4-29","15:7:3","25","75","3","9","10","40","30","120","73","20","[""White""]","No","Male","1832472","null","null","","","","clear_screen","","","","","","","","","","","","","","","","","","","","","","","","","",""
"","","","","","canvas-keyboard-response","224","297298","0.0-12.0-2.42","2d_cat_multi_stim_exp1","2022-4-29","15:7:3","25","75","3","9","10","40","30","120","73","20","[""White""]","No","Male","1832472","716","u","learn","","","learn_trial","25.9271","83.5595","in","1","1","","","","","","","","","","","","","","","","","","","","",""
"","","","","","canvas-keyboard-response","225","297807","0.0-12.0-3.42","2d_cat_multi_stim_exp1","2022-4-29","15:7:3","25","75","3","9","10","40","30","120","73","20","[""White""]","No","Male","1832472","null","null","learn_feedback","","","learn_feedback","25.9271","83.5595","in","","","","","","","","","","","","","","","","","","","","","","",""
"","","","","","canvas-keyboard-response","226","297870","0.0-12.0-4.42","2d_cat_multi_stim_exp1","2022-4-29","15:7:3","25","75","3","9","10","40","30","120","73","20","[""White""]","No","Male","1832472","null","null","","","","clear_screen","","","","","","","","","","","","","","","","","","","","","","","","","",""
"","","","","","canvas-keyboard-response","227","298381","0.0-12.0-0.43","2d_cat_multi_stim_exp1","2022-4-29","15:7:3","25","75","3","9","10","40","30","120","73","20","[""White""]","No","Male","1832472","null","null","","","","fixation","","","","","","","","","","","","","","","","","","","","","","","","","",""
"","","","","","canvas-keyboard-response","228","298892","0.0-12.0-1.43","2d_cat_multi_stim_exp1","2022-4-29","15:7:3","25","75","3","9","10","40","30","120","73","20","[""White""]","No","Male","1832472","null","null","","","","clear_screen","","","","","","","","","","","","","","","","","","","","","","","","","",""
"","","","","","canvas-keyboard-response","229","299587","0.0-12.0-2.43","2d_cat_multi_stim_exp1","2022-4-29","15:7:3","25","75","3","9","10","40","30","120","73","20","[""White""]","No","Male","1832472","686","i","learn","","","learn_trial","10","40","out","0","1","","","","","","","","","","","","","","","","","","","","",""
"","","","","","canvas-keyboard-response","230","300098","0.0-12.0-3.43","2d_cat_multi_stim_exp1","2022-4-29","15:7:3","25","75","3","9","10","40","30","120","73","20","[""White""]","No","Male","1832472","null","null","learn_feedback","","","learn_feedback","10","40","out","","","","","","","","","","","","","","","","","","","","","","",""
"","","","","","canvas-keyboard-response","231","300159","0.0-12.0-4.43","2d_cat_multi_stim_exp1","2022-4-29","15:7:3","25","75","3","9","10","40","30","120","73","20","[""White""]","No","Male","1832472","null","null","","","","clear_screen","","","","","","","","","","","","","","","","","","","","","","","","","",""
"","","","","","canvas-keyboard-response","232","300671","0.0-12.0-0.44","2d_cat_multi_stim_exp1","2022-4-29","15:7:3","25","75","3","9","10","40","30","120","73","20","[""White""]","No","Male","1832472","null","null","","","","fixation","","","","","","","","","","","","","","","","","","","","","","","","","",""
"","","","","","canvas-keyboard-response","233","301183","0.0-12.0-1.44","2d_cat_multi_stim_exp1","2022-4-29","15:7:3","25","75","3","9","10","40","30","120","73","20","[""White""]","No","Male","1832472","null","null","","","","clear_screen","","","","","","","","","","","","","","","","","","","","","","","","","",""
"","","","","","canvas-keyboard-response","234","301802","0.0-12.0-2.44","2d_cat_multi_stim_exp1","2022-4-29","15:7:3","25","75","3","9","10","40","30","120","73","20","[""White""]","No","Male","1832472","609","i","learn","","","learn_trial","23.3333","120","out","0","1","","","","","","","","","","","","","","","","","","","","",""
"","","","","","canvas-keyboard-response","235","302312","0.0-12.0-3.44","2d_cat_multi_stim_exp1","2022-4-29","15:7:3","25","75","3","9","10","40","30","120","73","20","[""White""]","No","Male","1832472","null","null","learn_feedback","","","learn_feedback","23.3333","120","out","","","","","","","","","","","","","","","","","","","","","","",""
"","","","","","canvas-keyboard-response","236","302373","0.0-12.0-4.44","2d_cat_multi_stim_exp1","2022-4-29","15:7:3","25","75","3","9","10","40","30","120","73","20","[""White""]","No","Male","1832472","null","null","","","","clear_screen","","","","","","","","","","","","","","","","","","","","","","","","","",""
"","","","","","canvas-keyboard-response","237","302884","0.0-12.0-0.45","2d_cat_multi_stim_exp1","2022-4-29","15:7:3","25","75","3","9","10","40","30","120","73","20","[""White""]","No","Male","1832472","null","null","","","","fixation","","","","","","","","","","","","","","","","","","","","","","","","","",""
"","","","","","canvas-keyboard-response","238","303395","0.0-12.0-1.45","2d_cat_multi_stim_exp1","2022-4-29","15:7:3","25","75","3","9","10","40","30","120","73","20","[""White""]","No","Male","1832472","null","null","","","","clear_screen","","","","","","","","","","","","","","","","","","","","","","","","","",""
"","","","","","canvas-keyboard-response","239","305618","0.0-12.0-2.45","2d_cat_multi_stim_exp1","2022-4-29","15:7:3","25","75","3","9","10","40","30","120","73","20","[""White""]","No","Male","1832472","2214","i","learn","","","learn_trial","30","80","out","0","1","","","","","","","","","","","","","","","","","","","","",""
"","","","","","canvas-keyboard-response","240","306128","0.0-12.0-3.45","2d_cat_multi_stim_exp1","2022-4-29","15:7:3","25","75","3","9","10","40","30","120","73","20","[""White""]","No","Male","1832472","null","null","learn_feedback","","","learn_feedback","30","80","out","","","","","","","","","","","","","","","","","","","","","","",""
"","","","","","canvas-keyboard-response","241","306193","0.0-12.0-4.45","2d_cat_multi_stim_exp1","2022-4-29","15:7:3","25","75","3","9","10","40","30","120","73","20","[""White""]","No","Male","1832472","null","null","","","","clear_screen","","","","","","","","","","","","","","","","","","","","","","","","","",""
"","","","","","canvas-keyboard-response","242","306704","0.0-12.0-0.46","2d_cat_multi_stim_exp1","2022-4-29","15:7:3","25","75","3","9","10","40","30","120","73","20","[""White""]","No","Male","1832472","null","null","","","","fixation","","","","","","","","","","","","","","","","","","","","","","","","","",""
"","","","","","canvas-keyboard-response","243","307214","0.0-12.0-1.46","2d_cat_multi_stim_exp1","2022-4-29","15:7:3","25","75","3","9","10","40","30","120","73","20","[""White""]","No","Male","1832472","null","null","","","","clear_screen","","","","","","","","","","","","","","","","","","","","","","","","","",""
"","","","","","canvas-keyboard-response","244","308522","0.0-12.0-2.46","2d_cat_multi_stim_exp1","2022-4-29","15:7:3","25","75","3","9","10","40","30","120","73","20","[""White""]","No","Male","1832472","1298","u","learn","","","learn_trial","20","70","out","1","0","","","","","","","","","","","","","","","","","","","","",""
"","","","","","canvas-keyboard-response","245","309533","0.0-12.0-3.46","2d_cat_multi_stim_exp1","2022-4-29","15:7:3","25","75","3","9","10","40","30","120","73","20","[""White""]","No","Male","1832472","null","null","learn_feedback","","","learn_feedback","20","70","out","","","","","","","","","","","","","","","","","","","","","","",""
"","","","","","canvas-keyboard-response","246","309595","0.0-12.0-4.46","2d_cat_multi_stim_exp1","2022-4-29","15:7:3","25","75","3","9","10","40","30","120","73","20","[""White""]","No","Male","1832472","null","null","","","","clear_screen","","","","","","","","","","","","","","","","","","","","","","","","","",""
"","","","","","canvas-keyboard-response","247","310104","0.0-12.0-0.47","2d_cat_multi_stim_exp1","2022-4-29","15:7:3","25","75","3","9","10","40","30","120","73","20","[""White""]","No","Male","1832472","null","null","","","","fixation","","","","","","","","","","","","","","","","","","","","","","","","","",""
"","","","","","canvas-keyboard-response","248","310614","0.0-12.0-1.47","2d_cat_multi_stim_exp1","2022-4-29","15:7:3","25","75","3","9","10","40","30","120","73","20","[""White""]","No","Male","1832472","null","null","","","","clear_screen","","","","","","","","","","","","","","","","","","","","","","","","","",""
"","","","","","canvas-keyboard-response","249","314050","0.0-12.0-2.47","2d_cat_multi_stim_exp1","2022-4-29","15:7:3","25","75","3","9","10","40","30","120","73","20","[""White""]","No","Male","1832472","3426","u","learn","","","learn_trial","25","75","in","1","1","","","","","","","","","","","","","","","","","","","","",""
"","","","","","canvas-keyboard-response","250","314560","0.0-12.0-3.47","2d_cat_multi_stim_exp1","2022-4-29","15:7:3","25","75","3","9","10","40","30","120","73","20","[""White""]","No","Male","1832472","null","null","learn_feedback","","","learn_feedback","25","75","in","","","","","","","","","","","","","","","","","","","","","","",""
"","","","","","canvas-keyboard-response","251","314622","0.0-12.0-4.47","2d_cat_multi_stim_exp1","2022-4-29","15:7:3","25","75","3","9","10","40","30","120","73","20","[""White""]","No","Male","1832472","null","null","","","","clear_screen","","","","","","","","","","","","","","","","","","","","","","","","","",""
"","","","","","canvas-keyboard-response","252","315132","0.0-12.0-0.48","2d_cat_multi_stim_exp1","2022-4-29","15:7:3","25","75","3","9","10","40","30","120","73","20","[""White""]","No","Male","1832472","null","null","","","","fixation","","","","","","","","","","","","","","","","","","","","","","","","","",""
"","","","","","canvas-keyboard-response","253","315641","0.0-12.0-1.48","2d_cat_multi_stim_exp1","2022-4-29","15:7:3","25","75","3","9","10","40","30","120","73","20","[""White""]","No","Male","1832472","null","null","","","","clear_screen","","","","","","","","","","","","","","","","","","","","","","","","","",""
"","","","","","canvas-keyboard-response","254","317578","0.0-12.0-2.48","2d_cat_multi_stim_exp1","2022-4-29","15:7:3","25","75","3","9","10","40","30","120","73","20","[""White""]","No","Male","1832472","1926","i","learn","","","learn_trial","22.2971","71.095","in","0","0","","","","","","","","","","","","","","","","","","","","",""
"","","","","","canvas-keyboard-response","255","318587","0.0-12.0-3.48","2d_cat_multi_stim_exp1","2022-4-29","15:7:3","25","75","3","9","10","40","30","120","73","20","[""White""]","No","Male","1832472","null","null","learn_feedback","","","learn_feedback","22.2971","71.095","in","","","","","","","","","","","","","","","","","","","","","","",""
"","","","","","canvas-keyboard-response","256","318647","0.0-12.0-4.48","2d_cat_multi_stim_exp1","2022-4-29","15:7:3","25","75","3","9","10","40","30","120","73","20","[""White""]","No","Male","1832472","null","null","","","","clear_screen","","","","","","","","","","","","","","","","","","","","","","","","","",""
"","","","","","canvas-keyboard-response","257","319158","0.0-12.0-0.49","2d_cat_multi_stim_exp1","2022-4-29","15:7:3","25","75","3","9","10","40","30","120","73","20","[""White""]","No","Male","1832472","null","null","","","","fixation","","","","","","","","","","","","","","","","","","","","","","","","","",""
"","","","","","canvas-keyboard-response","258","319669","0.0-12.0-1.49","2d_cat_multi_stim_exp1","2022-4-29","15:7:3","25","75","3","9","10","40","30","120","73","20","[""White""]","No","Male","1832472","null","null","","","","clear_screen","","","","","","","","","","","","","","","","","","","","","","","","","",""
"","","","","","canvas-keyboard-response","259","320211","0.0-12.0-2.49","2d_cat_multi_stim_exp1","2022-4-29","15:7:3","25","75","3","9","10","40","30","120","73","20","[""White""]","No","Male","1832472","531","u","learn","","","learn_trial","25","75","in","1","1","","","","","","","","","","","","","","","","","","","","",""
"","","","","","canvas-keyboard-response","260","320722","0.0-12.0-3.49","2d_cat_multi_stim_exp1","2022-4-29","15:7:3","25","75","3","9","10","40","30","120","73","20","[""White""]","No","Male","1832472","null","null","learn_feedback","","","learn_feedback","25","75","in","","","","","","","","","","","","","","","","","","","","","","",""
"","","","","","canvas-keyboard-response","261","320783","0.0-12.0-4.49","2d_cat_multi_stim_exp1","2022-4-29","15:7:3","25","75","3","9","10","40","30","120","73","20","[""White""]","No","Male","1832472","null","null","","","","clear_screen","","","","","","","","","","","","","","","","","","","","","","","","","",""
"","","","","","canvas-keyboard-response","262","321296","0.0-12.0-0.50","2d_cat_multi_stim_exp1","2022-4-29","15:7:3","25","75","3","9","10","40","30","120","73","20","[""White""]","No","Male","1832472","null","null","","","","fixation","","","","","","","","","","","","","","","","","","","","","","","","","",""
"","","","","","canvas-keyboard-response","263","321808","0.0-12.0-1.50","2d_cat_multi_stim_exp1","2022-4-29","15:7:3","25","75","3","9","10","40","30","120","73","20","[""White""]","No","Male","1832472","null","null","","","","clear_screen","","","","","","","","","","","","","","","","","","","","","","","","","",""
"","","","","","canvas-keyboard-response","264","322571","0.0-12.0-2.50","2d_cat_multi_stim_exp1","2022-4-29","15:7:3","25","75","3","9","10","40","30","120","73","20","[""White""]","No","Male","1832472","750","i","learn","","","learn_trial","33.3333","120","out","0","1","","","","","","","","","","","","","","","","","","","","",""
"","","","","","canvas-keyboard-response","265","323082","0.0-12.0-3.50","2d_cat_multi_stim_exp1","2022-4-29","15:7:3","25","75","3","9","10","40","30","120","73","20","[""White""]","No","Male","1832472","null","null","learn_feedback","","","learn_feedback","33.3333","120","out","","","","","","","","","","","","","","","","","","","","","","",""
"","","","","","canvas-keyboard-response","266","323146","0.0-12.0-4.50","2d_cat_multi_stim_exp1","2022-4-29","15:7:3","25","75","3","9","10","40","30","120","73","20","[""White""]","No","Male","1832472","null","null","","","","clear_screen","","","","","","","","","","","","","","","","","","","","","","","","","",""
"","","","","","canvas-keyboard-response","267","323655","0.0-12.0-0.51","2d_cat_multi_stim_exp1","2022-4-29","15:7:3","25","75","3","9","10","40","30","120","73","20","[""White""]","No","Male","1832472","null","null","","","","fixation","","","","","","","","","","","","","","","","","","","","","","","","","",""
"","","","","","canvas-keyboard-response","268","324167","0.0-12.0-1.51","2d_cat_multi_stim_exp1","2022-4-29","15:7:3","25","75","3","9","10","40","30","120","73","20","[""White""]","No","Male","1832472","null","null","","","","clear_screen","","","","","","","","","","","","","","","","","","","","","","","","","",""
"","","","","","canvas-keyboard-response","269","324915","0.0-12.0-2.51","2d_cat_multi_stim_exp1","2022-4-29","15:7:3","25","75","3","9","10","40","30","120","73","20","[""White""]","No","Male","1832472","739","i","learn","","","learn_trial","29.2426","62.2721","in","0","0","","","","","","","","","","","","","","","","","","","","",""
"","","","","","canvas-keyboard-response","270","325926","0.0-12.0-3.51","2d_cat_multi_stim_exp1","2022-4-29","15:7:3","25","75","3","9","10","40","30","120","73","20","[""White""]","No","Male","1832472","null","null","learn_feedback","","","learn_feedback","29.2426","62.2721","in","","","","","","","","","","","","","","","","","","","","","","",""
"","","","","","canvas-keyboard-response","271","325987","0.0-12.0-4.51","2d_cat_multi_stim_exp1","2022-4-29","15:7:3","25","75","3","9","10","40","30","120","73","20","[""White""]","No","Male","1832472","null","null","","","","clear_screen","","","","","","","","","","","","","","","","","","","","","","","","","",""
"","","","","","canvas-keyboard-response","272","326497","0.0-12.0-0.52","2d_cat_multi_stim_exp1","2022-4-29","15:7:3","25","75","3","9","10","40","30","120","73","20","[""White""]","No","Male","1832472","null","null","","","","fixation","","","","","","","","","","","","","","","","","","","","","","","","","",""
"","","","","","canvas-keyboard-response","273","327010","0.0-12.0-1.52","2d_cat_multi_stim_exp1","2022-4-29","15:7:3","25","75","3","9","10","40","30","120","73","20","[""White""]","No","Male","1832472","null","null","","","","clear_screen","","","","","","","","","","","","","","","","","","","","","","","","","",""
"","","","","","canvas-keyboard-response","274","328051","0.0-12.0-2.52","2d_cat_multi_stim_exp1","2022-4-29","15:7:3","25","75","3","9","10","40","30","120","73","20","[""White""]","No","Male","1832472","1028","u","learn","","","learn_trial","27.2592","80.9214","in","1","1","","","","","","","","","","","","","","","","","","","","",""
"","","","","","canvas-keyboard-response","275","328559","0.0-12.0-3.52","2d_cat_multi_stim_exp1","2022-4-29","15:7:3","25","75","3","9","10","40","30","120","73","20","[""White""]","No","Male","1832472","null","null","learn_feedback","","","learn_feedback","27.2592","80.9214","in","","","","","","","","","","","","","","","","","","","","","","",""
"","","","","","canvas-keyboard-response","276","328624","0.0-12.0-4.52","2d_cat_multi_stim_exp1","2022-4-29","15:7:3","25","75","3","9","10","40","30","120","73","20","[""White""]","No","Male","1832472","null","null","","","","clear_screen","","","","","","","","","","","","","","","","","","","","","","","","","",""
"","","","","","canvas-keyboard-response","277","329133","0.0-12.0-0.53","2d_cat_multi_stim_exp1","2022-4-29","15:7:3","25","75","3","9","10","40","30","120","73","20","[""White""]","No","Male","1832472","null","null","","","","fixation","","","","","","","","","","","","","","","","","","","","","","","","","",""
"","","","","","canvas-keyboard-response","278","329645","0.0-12.0-1.53","2d_cat_multi_stim_exp1","2022-4-29","15:7:3","25","75","3","9","10","40","30","120","73","20","[""White""]","No","Male","1832472","null","null","","","","clear_screen","","","","","","","","","","","","","","","","","","","","","","","","","",""
"","","","","","canvas-keyboard-response","279","330267","0.0-12.0-2.53","2d_cat_multi_stim_exp1","2022-4-29","15:7:3","25","75","3","9","10","40","30","120","73","20","[""White""]","No","Male","1832472","611","i","learn","","","learn_trial","20","30","out","0","1","","","","","","","","","","","","","","","","","","","","",""
"","","","","","canvas-keyboard-response","280","330780","0.0-12.0-3.53","2d_cat_multi_stim_exp1","2022-4-29","15:7:3","25","75","3","9","10","40","30","120","73","20","[""White""]","No","Male","1832472","null","null","learn_feedback","","","learn_feedback","20","30","out","","","","","","","","","","","","","","","","","","","","","","",""
"","","","","","canvas-keyboard-response","281","330843","0.0-12.0-4.53","2d_cat_multi_stim_exp1","2022-4-29","15:7:3","25","75","3","9","10","40","30","120","73","20","[""White""]","No","Male","1832472","null","null","","","","clear_screen","","","","","","","","","","","","","","","","","","","","","","","","","",""
"","","","","","canvas-keyboard-response","282","331354","0.0-12.0-0.54","2d_cat_multi_stim_exp1","2022-4-29","15:7:3","25","75","3","9","10","40","30","120","73","20","[""White""]","No","Male","1832472","null","null","","","","fixation","","","","","","","","","","","","","","","","","","","","","","","","","",""
"","","","","","canvas-keyboard-response","283","331863","0.0-12.0-1.54","2d_cat_multi_stim_exp1","2022-4-29","15:7:3","25","75","3","9","10","40","30","120","73","20","[""White""]","No","Male","1832472","null","null","","","","clear_screen","","","","","","","","","","","","","","","","","","","","","","","","","",""
"","","","","","canvas-keyboard-response","284","333074","0.0-12.0-2.54","2d_cat_multi_stim_exp1","2022-4-29","15:7:3","25","75","3","9","10","40","30","120","73","20","[""White""]","No","Male","1832472","1200","i","learn","","","learn_trial","36.6667","120","out","0","1","","","","","","","","","","","","","","","","","","","","",""
"","","","","","canvas-keyboard-response","285","333583","0.0-12.0-3.54","2d_cat_multi_stim_exp1","2022-4-29","15:7:3","25","75","3","9","10","40","30","120","73","20","[""White""]","No","Male","1832472","null","null","learn_feedback","","","learn_feedback","36.6667","120","out","","","","","","","","","","","","","","","","","","","","","","",""
"","","","","","canvas-keyboard-response","286","333646","0.0-12.0-4.54","2d_cat_multi_stim_exp1","2022-4-29","15:7:3","25","75","3","9","10","40","30","120","73","20","[""White""]","No","Male","1832472","null","null","","","","clear_screen","","","","","","","","","","","","","","","","","","","","","","","","","",""
"","","","","","canvas-keyboard-response","287","334155","0.0-12.0-0.55","2d_cat_multi_stim_exp1","2022-4-29","15:7:3","25","75","3","9","10","40","30","120","73","20","[""White""]","No","Male","1832472","null","null","","","","fixation","","","","","","","","","","","","","","","","","","","","","","","","","",""
"","","","","","canvas-keyboard-response","288","334670","0.0-12.0-1.55","2d_cat_multi_stim_exp1","2022-4-29","15:7:3","25","75","3","9","10","40","30","120","73","20","[""White""]","No","Male","1832472","null","null","","","","clear_screen","","","","","","","","","","","","","","","","","","","","","","","","","",""
"","","","","","canvas-keyboard-response","289","335858","0.0-12.0-2.55","2d_cat_multi_stim_exp1","2022-4-29","15:7:3","25","75","3","9","10","40","30","120","73","20","[""White""]","No","Male","1832472","1176","u","learn","","","learn_trial","25","75","in","1","1","","","","","","","","","","","","","","","","","","","","",""
"","","","","","canvas-keyboard-response","290","336369","0.0-12.0-3.55","2d_cat_multi_stim_exp1","2022-4-29","15:7:3","25","75","3","9","10","40","30","120","73","20","[""White""]","No","Male","1832472","null","null","learn_feedback","","","learn_feedback","25","75","in","","","","","","","","","","","","","","","","","","","","","","",""
"","","","","","canvas-keyboard-response","291","336433","0.0-12.0-4.55","2d_cat_multi_stim_exp1","2022-4-29","15:7:3","25","75","3","9","10","40","30","120","73","20","[""White""]","No","Male","1832472","null","null","","","","clear_screen","","","","","","","","","","","","","","","","","","","","","","","","","",""
"","","","","","canvas-keyboard-response","292","336942","0.0-12.0-0.56","2d_cat_multi_stim_exp1","2022-4-29","15:7:3","25","75","3","9","10","40","30","120","73","20","[""White""]","No","Male","1832472","null","null","","","","fixation","","","","","","","","","","","","","","","","","","","","","","","","","",""
"","","","","","canvas-keyboard-response","293","337455","0.0-12.0-1.56","2d_cat_multi_stim_exp1","2022-4-29","15:7:3","25","75","3","9","10","40","30","120","73","20","[""White""]","No","Male","1832472","null","null","","","","clear_screen","","","","","","","","","","","","","","","","","","","","","","","","","",""
"","","","","","canvas-keyboard-response","294","338610","0.0-12.0-2.56","2d_cat_multi_stim_exp1","2022-4-29","15:7:3","25","75","3","9","10","40","30","120","73","20","[""White""]","No","Male","1832472","1145","i","learn","","","learn_trial","16.6667","100","out","0","1","","","","","","","","","","","","","","","","","","","","",""
"","","","","","canvas-keyboard-response","295","339120","0.0-12.0-3.56","2d_cat_multi_stim_exp1","2022-4-29","15:7:3","25","75","3","9","10","40","30","120","73","20","[""White""]","No","Male","1832472","null","null","learn_feedback","","","learn_feedback","16.6667","100","out","","","","","","","","","","","","","","","","","","","","","","",""
"","","","","","canvas-keyboard-response","296","339180","0.0-12.0-4.56","2d_cat_multi_stim_exp1","2022-4-29","15:7:3","25","75","3","9","10","40","30","120","73","20","[""White""]","No","Male","1832472","null","null","","","","clear_screen","","","","","","","","","","","","","","","","","","","","","","","","","",""
"","","","","","canvas-keyboard-response","297","339692","0.0-12.0-0.57","2d_cat_multi_stim_exp1","2022-4-29","15:7:3","25","75","3","9","10","40","30","120","73","20","[""White""]","No","Male","1832472","null","null","","","","fixation","","","","","","","","","","","","","","","","","","","","","","","","","",""
"","","","","","canvas-keyboard-response","298","340203","0.0-12.0-1.57","2d_cat_multi_stim_exp1","2022-4-29","15:7:3","25","75","3","9","10","40","30","120","73","20","[""White""]","No","Male","1832472","null","null","","","","clear_screen","","","","","","","","","","","","","","","","","","","","","","","","","",""
