"success","timeout","failed_images","failed_audio","failed_video","trial_type","trial_index","time_elapsed","internal_node_id","exp_name","date","time","angle_mean_in","radius_mean_in","angle_sd_in","radius_sd_in","angle_min_out","angle_max_out","radius_min_out","radius_max_out","sub_n","age","race","ethnicity","gender","exp_duration","rt","stimulus","response","exp_trial_type","view_history","screen_id","angle","radius","distribution","choice","correct","order","angle_a","radius_a","angle_b","radius_b","angle_c","radius_c","jkl_correct","transfer_trial_type","choice_set","abc_correct","tc_correct","tdc_a","tdc_b","tdc_c","pair","category_a","category_b","category_c","question_order"
"true","false","[]","[]","[]","preload","0","34","0.0-0.0","2d_cat_multi_stim_exp1","2022-3-28","10:49:53","25","75","3","9","10","40","30","120","1","18","[""Asian""]","No","Female","1699139","","","","","","","","","","","","","","","","","","","","","","","","","","","","","","",""
"","","","","","html-button-response","1","3456","0.0-1.0","2d_cat_multi_stim_exp1","2022-3-28","10:49:53","25","75","3","9","10","40","30","120","1","18","[""Asian""]","No","Female","1699139","3420","<p><b>WAIT!</b></p></p><p>Did you mean to start this experiment? Only Walker, Esther, and Sean are running participants on this experiment.</p>","0","","","","","","","","","","","","","","","","","","","","","","","","","","","",""
"","","","","","survey-html-form","2","12923","0.0-2.0","2d_cat_multi_stim_exp1","2022-3-28","10:49:53","25","75","3","9","10","40","30","120","1","18","[""Asian""]","No","Female","1699139","9460","","{""response"":""1""}","enter-sub-number","","","","","","","","","","","","","","","","","","","","","","","","","","",""
"true","","","","","fullscreen","3","22503","0.0-3.0","2d_cat_multi_stim_exp1","2022-3-28","10:49:53","25","75","3","9","10","40","30","120","1","18","[""Asian""]","No","Female","1699139","","","","","","","","","","","","","","","","","","","","","","","","","","","","","","",""
"","","","","","image-button-response","4","70616","0.0-4.0","2d_cat_multi_stim_exp1","2022-3-28","10:49:53","25","75","3","9","10","40","30","120","1","18","[""Asian""]","No","Female","1699139","48104","consent.png","0","","","","","","","","","","","","","","","","","","","","","","","","","","","",""
"","","","","","html-button-response","5","74425","0.0-5.0","2d_cat_multi_stim_exp1","2022-3-28","10:49:53","25","75","3","9","10","40","30","120","1","18","[""Asian""]","No","Female","1699139","3802","<div style= ""font-size:25px;"" <p> <strong> Welcome to the experiment! </strong><br> <p style=""color:#8B0000; font-size:25px;""><strong> Please do NOT exit full screen until you are done with the experiment. </strong> </p><p style=""font-size:25px;color:#8B0000;""> <strong> The experiment will be canceled and your data will be lost <br> if you try to go back or refresh the page at any point during the experiment.</strong> </p><br><p> <strong> Thanks in advance for your contribution to our research! </strong></p>","0","","","","","","","","","","","","","","","","","","","","","","","","","","","",""
"","","","","","instructions","6","126697","0.0-6.0","2d_cat_multi_stim_exp1","2022-3-28","10:49:53","25","75","3","9","10","40","30","120","1","18","[""Asian""]","No","Female","1699139","52268","","","","[{""page_index"":0,""viewing_time"":7001},{""page_index"":1,""viewing_time"":2865},{""page_index"":0,""viewing_time"":5992},{""page_index"":1,""viewing_time"":2664},{""page_index"":0,""viewing_time"":1560},{""page_index"":1,""viewing_time"":1673},{""page_index"":2,""viewing_time"":18255},{""page_index"":3,""viewing_time"":12257}]","instructions_1","","","","","","","","","","","","","","","","","","","","","","","","",""
"","","","","","instructions","7","128415","0.0-7.0","2d_cat_multi_stim_exp1","2022-3-28","10:49:53","25","75","3","9","10","40","30","120","1","18","[""Asian""]","No","Female","1699139","1714","","","","[{""page_index"":0,""viewing_time"":1714}]","Click to see the kinds of turtles that will appear in the study.","","","","","","","","","","","","","","","","","","","","","","","","",""
"","","","","","canvas-keyboard-response","8","143432","0.0-8.0","2d_cat_multi_stim_exp1","2022-3-28","10:49:53","25","75","3","9","10","40","30","120","1","18","[""Asian""]","No","Female","1699139","null","","null","","","demo_range","","","","","","","","","","","","","","","","","","","","","","","","",""
"","","","","","instructions","9","145806","0.0-9.0","2d_cat_multi_stim_exp1","2022-3-28","10:49:53","25","75","3","9","10","40","30","120","1","18","[""Asian""]","No","Female","1699139","1874","","","","[{""page_index"":0,""viewing_time"":1872}]","Click to see some turtles in the subspecies.","","","","","","","","","","","","","","","","","","","","","","","","",""
"","","","","","canvas-keyboard-response","10","160823","0.0-10.0","2d_cat_multi_stim_exp1","2022-3-28","10:49:53","25","75","3","9","10","40","30","120","1","18","[""Asian""]","No","Female","1699139","null","","null","","","demo_in","","","","","","","","","","","","","","","","","","","","","","","","",""
"","","","","","instructions","11","202745","0.0-11.0","2d_cat_multi_stim_exp1","2022-3-28","10:49:53","25","75","3","9","10","40","30","120","1","18","[""Asian""]","No","Female","1699139","41419","","","","[{""page_index"":0,""viewing_time"":6577},{""page_index"":1,""viewing_time"":31322},{""page_index"":2,""viewing_time"":3519}]","instructions_2","","","","","","","","","","","","","","","","","","","","","","","","",""
"","","","","","instructions","12","204327","0.0-12.0","2d_cat_multi_stim_exp1","2022-3-28","10:49:53","25","75","3","9","10","40","30","120","1","18","[""Asian""]","No","Female","1699139","1580","","","","[{""page_index"":0,""viewing_time"":1580}]","Click to begin the first phase of the experiment.","","","","","","","","","","","","","","","","","","","","","","","","",""
"","","","","","canvas-keyboard-response","13","204839","0.0-13.0-0.0","2d_cat_multi_stim_exp1","2022-3-28","10:49:53","25","75","3","9","10","40","30","120","1","18","[""Asian""]","No","Female","1699139","null","","null","","","fixation","","","","","","","","","","","","","","","","","","","","","","","","",""
"","","","","","canvas-keyboard-response","14","205349","0.0-13.0-1.0","2d_cat_multi_stim_exp1","2022-3-28","10:49:53","25","75","3","9","10","40","30","120","1","18","[""Asian""]","No","Female","1699139","null","","null","","","clear_screen","","","","","","","","","","","","","","","","","","","","","","","","",""
"","","","","","canvas-keyboard-response","15","207895","0.0-13.0-2.0","2d_cat_multi_stim_exp1","2022-3-28","10:49:53","25","75","3","9","10","40","30","120","1","18","[""Asian""]","No","Female","1699139","2535","","u","learn","","learn_trial","25","75","in","1","1","","","","","","","","","","","","","","","","","","","",""
"","","","","","canvas-keyboard-response","16","208405","0.0-13.0-3.0","2d_cat_multi_stim_exp1","2022-3-28","10:49:53","25","75","3","9","10","40","30","120","1","18","[""Asian""]","No","Female","1699139","null","","null","learn_feedback","","learn_feedback","25","75","in","","","","","","","","","","","","","","","","","","","","","",""
"","","","","","canvas-keyboard-response","17","208467","0.0-13.0-4.0","2d_cat_multi_stim_exp1","2022-3-28","10:49:53","25","75","3","9","10","40","30","120","1","18","[""Asian""]","No","Female","1699139","null","","null","","","clear_screen","","","","","","","","","","","","","","","","","","","","","","","","",""
"","","","","","canvas-keyboard-response","18","208976","0.0-13.0-0.1","2d_cat_multi_stim_exp1","2022-3-28","10:49:53","25","75","3","9","10","40","30","120","1","18","[""Asian""]","No","Female","1699139","null","","null","","","fixation","","","","","","","","","","","","","","","","","","","","","","","","",""
"","","","","","canvas-keyboard-response","19","209489","0.0-13.0-1.1","2d_cat_multi_stim_exp1","2022-3-28","10:49:53","25","75","3","9","10","40","30","120","1","18","[""Asian""]","No","Female","1699139","null","","null","","","clear_screen","","","","","","","","","","","","","","","","","","","","","","","","",""
"","","","","","canvas-keyboard-response","20","210999","0.0-13.0-2.1","2d_cat_multi_stim_exp1","2022-3-28","10:49:53","25","75","3","9","10","40","30","120","1","18","[""Asian""]","No","Female","1699139","1498","","u","learn","","learn_trial","25","75","in","1","1","","","","","","","","","","","","","","","","","","","",""
"","","","","","canvas-keyboard-response","21","211509","0.0-13.0-3.1","2d_cat_multi_stim_exp1","2022-3-28","10:49:53","25","75","3","9","10","40","30","120","1","18","[""Asian""]","No","Female","1699139","null","","null","learn_feedback","","learn_feedback","25","75","in","","","","","","","","","","","","","","","","","","","","","",""
"","","","","","canvas-keyboard-response","22","211573","0.0-13.0-4.1","2d_cat_multi_stim_exp1","2022-3-28","10:49:53","25","75","3","9","10","40","30","120","1","18","[""Asian""]","No","Female","1699139","null","","null","","","clear_screen","","","","","","","","","","","","","","","","","","","","","","","","",""
"","","","","","canvas-keyboard-response","23","212083","0.0-13.0-0.2","2d_cat_multi_stim_exp1","2022-3-28","10:49:53","25","75","3","9","10","40","30","120","1","18","[""Asian""]","No","Female","1699139","null","","null","","","fixation","","","","","","","","","","","","","","","","","","","","","","","","",""
"","","","","","canvas-keyboard-response","24","212593","0.0-13.0-1.2","2d_cat_multi_stim_exp1","2022-3-28","10:49:53","25","75","3","9","10","40","30","120","1","18","[""Asian""]","No","Female","1699139","null","","null","","","clear_screen","","","","","","","","","","","","","","","","","","","","","","","","",""
"","","","","","canvas-keyboard-response","25","214135","0.0-13.0-2.2","2d_cat_multi_stim_exp1","2022-3-28","10:49:53","25","75","3","9","10","40","30","120","1","18","[""Asian""]","No","Female","1699139","1534","","u","learn","","learn_trial","40","90","out","1","0","","","","","","","","","","","","","","","","","","","",""
"","","","","","canvas-keyboard-response","26","215148","0.0-13.0-3.2","2d_cat_multi_stim_exp1","2022-3-28","10:49:53","25","75","3","9","10","40","30","120","1","18","[""Asian""]","No","Female","1699139","null","","null","learn_feedback","","learn_feedback","40","90","out","","","","","","","","","","","","","","","","","","","","","",""
"","","","","","canvas-keyboard-response","27","215207","0.0-13.0-4.2","2d_cat_multi_stim_exp1","2022-3-28","10:49:53","25","75","3","9","10","40","30","120","1","18","[""Asian""]","No","Female","1699139","null","","null","","","clear_screen","","","","","","","","","","","","","","","","","","","","","","","","",""
"","","","","","canvas-keyboard-response","28","215719","0.0-13.0-0.3","2d_cat_multi_stim_exp1","2022-3-28","10:49:53","25","75","3","9","10","40","30","120","1","18","[""Asian""]","No","Female","1699139","null","","null","","","fixation","","","","","","","","","","","","","","","","","","","","","","","","",""
"","","","","","canvas-keyboard-response","29","216230","0.0-13.0-1.3","2d_cat_multi_stim_exp1","2022-3-28","10:49:53","25","75","3","9","10","40","30","120","1","18","[""Asian""]","No","Female","1699139","null","","null","","","clear_screen","","","","","","","","","","","","","","","","","","","","","","","","",""
"","","","","","canvas-keyboard-response","30","218239","0.0-13.0-2.3","2d_cat_multi_stim_exp1","2022-3-28","10:49:53","25","75","3","9","10","40","30","120","1","18","[""Asian""]","No","Female","1699139","2002","","i","learn","","learn_trial","16.6667","30","out","0","1","","","","","","","","","","","","","","","","","","","",""
"","","","","","canvas-keyboard-response","31","218750","0.0-13.0-3.3","2d_cat_multi_stim_exp1","2022-3-28","10:49:53","25","75","3","9","10","40","30","120","1","18","[""Asian""]","No","Female","1699139","null","","null","learn_feedback","","learn_feedback","16.6667","30","out","","","","","","","","","","","","","","","","","","","","","",""
"","","","","","canvas-keyboard-response","32","218809","0.0-13.0-4.3","2d_cat_multi_stim_exp1","2022-3-28","10:49:53","25","75","3","9","10","40","30","120","1","18","[""Asian""]","No","Female","1699139","null","","null","","","clear_screen","","","","","","","","","","","","","","","","","","","","","","","","",""
"","","","","","canvas-keyboard-response","33","219318","0.0-13.0-0.4","2d_cat_multi_stim_exp1","2022-3-28","10:49:53","25","75","3","9","10","40","30","120","1","18","[""Asian""]","No","Female","1699139","null","","null","","","fixation","","","","","","","","","","","","","","","","","","","","","","","","",""
"","","","","","canvas-keyboard-response","34","219828","0.0-13.0-1.4","2d_cat_multi_stim_exp1","2022-3-28","10:49:53","25","75","3","9","10","40","30","120","1","18","[""Asian""]","No","Female","1699139","null","","null","","","clear_screen","","","","","","","","","","","","","","","","","","","","","","","","",""
"","","","","","canvas-keyboard-response","35","220752","0.0-13.0-2.4","2d_cat_multi_stim_exp1","2022-3-28","10:49:53","25","75","3","9","10","40","30","120","1","18","[""Asian""]","No","Female","1699139","912","","u","learn","","learn_trial","10","70","out","1","0","","","","","","","","","","","","","","","","","","","",""
"","","","","","canvas-keyboard-response","36","221764","0.0-13.0-3.4","2d_cat_multi_stim_exp1","2022-3-28","10:49:53","25","75","3","9","10","40","30","120","1","18","[""Asian""]","No","Female","1699139","null","","null","learn_feedback","","learn_feedback","10","70","out","","","","","","","","","","","","","","","","","","","","","",""
"","","","","","canvas-keyboard-response","37","221826","0.0-13.0-4.4","2d_cat_multi_stim_exp1","2022-3-28","10:49:53","25","75","3","9","10","40","30","120","1","18","[""Asian""]","No","Female","1699139","null","","null","","","clear_screen","","","","","","","","","","","","","","","","","","","","","","","","",""
"","","","","","canvas-keyboard-response","38","222335","0.0-13.0-0.5","2d_cat_multi_stim_exp1","2022-3-28","10:49:53","25","75","3","9","10","40","30","120","1","18","[""Asian""]","No","Female","1699139","null","","null","","","fixation","","","","","","","","","","","","","","","","","","","","","","","","",""
"","","","","","canvas-keyboard-response","39","222847","0.0-13.0-1.5","2d_cat_multi_stim_exp1","2022-3-28","10:49:53","25","75","3","9","10","40","30","120","1","18","[""Asian""]","No","Female","1699139","null","","null","","","clear_screen","","","","","","","","","","","","","","","","","","","","","","","","",""
"","","","","","canvas-keyboard-response","40","223935","0.0-13.0-2.5","2d_cat_multi_stim_exp1","2022-3-28","10:49:53","25","75","3","9","10","40","30","120","1","18","[""Asian""]","No","Female","1699139","1079","","u","learn","","learn_trial","36.6667","70","out","1","0","","","","","","","","","","","","","","","","","","","",""
"","","","","","canvas-keyboard-response","41","224946","0.0-13.0-3.5","2d_cat_multi_stim_exp1","2022-3-28","10:49:53","25","75","3","9","10","40","30","120","1","18","[""Asian""]","No","Female","1699139","null","","null","learn_feedback","","learn_feedback","36.6667","70","out","","","","","","","","","","","","","","","","","","","","","",""
"","","","","","canvas-keyboard-response","42","225008","0.0-13.0-4.5","2d_cat_multi_stim_exp1","2022-3-28","10:49:53","25","75","3","9","10","40","30","120","1","18","[""Asian""]","No","Female","1699139","null","","null","","","clear_screen","","","","","","","","","","","","","","","","","","","","","","","","",""
"","","","","","canvas-keyboard-response","43","225520","0.0-13.0-0.6","2d_cat_multi_stim_exp1","2022-3-28","10:49:53","25","75","3","9","10","40","30","120","1","18","[""Asian""]","No","Female","1699139","null","","null","","","fixation","","","","","","","","","","","","","","","","","","","","","","","","",""
"","","","","","canvas-keyboard-response","44","226032","0.0-13.0-1.6","2d_cat_multi_stim_exp1","2022-3-28","10:49:53","25","75","3","9","10","40","30","120","1","18","[""Asian""]","No","Female","1699139","null","","null","","","clear_screen","","","","","","","","","","","","","","","","","","","","","","","","",""
"","","","","","canvas-keyboard-response","45","226599","0.0-13.0-2.6","2d_cat_multi_stim_exp1","2022-3-28","10:49:53","25","75","3","9","10","40","30","120","1","18","[""Asian""]","No","Female","1699139","557","","u","learn","","learn_trial","25","75","in","1","1","","","","","","","","","","","","","","","","","","","",""
"","","","","","canvas-keyboard-response","46","227108","0.0-13.0-3.6","2d_cat_multi_stim_exp1","2022-3-28","10:49:53","25","75","3","9","10","40","30","120","1","18","[""Asian""]","No","Female","1699139","null","","null","learn_feedback","","learn_feedback","25","75","in","","","","","","","","","","","","","","","","","","","","","",""
"","","","","","canvas-keyboard-response","47","227168","0.0-13.0-4.6","2d_cat_multi_stim_exp1","2022-3-28","10:49:53","25","75","3","9","10","40","30","120","1","18","[""Asian""]","No","Female","1699139","null","","null","","","clear_screen","","","","","","","","","","","","","","","","","","","","","","","","",""
"","","","","","canvas-keyboard-response","48","227677","0.0-13.0-0.7","2d_cat_multi_stim_exp1","2022-3-28","10:49:53","25","75","3","9","10","40","30","120","1","18","[""Asian""]","No","Female","1699139","null","","null","","","fixation","","","","","","","","","","","","","","","","","","","","","","","","",""
"","","","","","canvas-keyboard-response","49","228192","0.0-13.0-1.7","2d_cat_multi_stim_exp1","2022-3-28","10:49:53","25","75","3","9","10","40","30","120","1","18","[""Asian""]","No","Female","1699139","null","","null","","","clear_screen","","","","","","","","","","","","","","","","","","","","","","","","",""
"","","","","","canvas-keyboard-response","50","229135","0.0-13.0-2.7","2d_cat_multi_stim_exp1","2022-3-28","10:49:53","25","75","3","9","10","40","30","120","1","18","[""Asian""]","No","Female","1699139","933","","u","learn","","learn_trial","25","75","in","1","1","","","","","","","","","","","","","","","","","","","",""
"","","","","","canvas-keyboard-response","51","229648","0.0-13.0-3.7","2d_cat_multi_stim_exp1","2022-3-28","10:49:53","25","75","3","9","10","40","30","120","1","18","[""Asian""]","No","Female","1699139","null","","null","learn_feedback","","learn_feedback","25","75","in","","","","","","","","","","","","","","","","","","","","","",""
"","","","","","canvas-keyboard-response","52","229710","0.0-13.0-4.7","2d_cat_multi_stim_exp1","2022-3-28","10:49:53","25","75","3","9","10","40","30","120","1","18","[""Asian""]","No","Female","1699139","null","","null","","","clear_screen","","","","","","","","","","","","","","","","","","","","","","","","",""
"","","","","","canvas-keyboard-response","53","230215","0.0-13.0-0.8","2d_cat_multi_stim_exp1","2022-3-28","10:49:53","25","75","3","9","10","40","30","120","1","18","[""Asian""]","No","Female","1699139","null","","null","","","fixation","","","","","","","","","","","","","","","","","","","","","","","","",""
"","","","","","canvas-keyboard-response","54","230726","0.0-13.0-1.8","2d_cat_multi_stim_exp1","2022-3-28","10:49:53","25","75","3","9","10","40","30","120","1","18","[""Asian""]","No","Female","1699139","null","","null","","","clear_screen","","","","","","","","","","","","","","","","","","","","","","","","",""
"","","","","","canvas-keyboard-response","55","231599","0.0-13.0-2.8","2d_cat_multi_stim_exp1","2022-3-28","10:49:53","25","75","3","9","10","40","30","120","1","18","[""Asian""]","No","Female","1699139","862","","i","learn","","learn_trial","20","60","out","0","1","","","","","","","","","","","","","","","","","","","",""
"","","","","","canvas-keyboard-response","56","232111","0.0-13.0-3.8","2d_cat_multi_stim_exp1","2022-3-28","10:49:53","25","75","3","9","10","40","30","120","1","18","[""Asian""]","No","Female","1699139","null","","null","learn_feedback","","learn_feedback","20","60","out","","","","","","","","","","","","","","","","","","","","","",""
"","","","","","canvas-keyboard-response","57","232170","0.0-13.0-4.8","2d_cat_multi_stim_exp1","2022-3-28","10:49:53","25","75","3","9","10","40","30","120","1","18","[""Asian""]","No","Female","1699139","null","","null","","","clear_screen","","","","","","","","","","","","","","","","","","","","","","","","",""
"","","","","","canvas-keyboard-response","58","232678","0.0-13.0-0.9","2d_cat_multi_stim_exp1","2022-3-28","10:49:53","25","75","3","9","10","40","30","120","1","18","[""Asian""]","No","Female","1699139","null","","null","","","fixation","","","","","","","","","","","","","","","","","","","","","","","","",""
"","","","","","canvas-keyboard-response","59","233187","0.0-13.0-1.9","2d_cat_multi_stim_exp1","2022-3-28","10:49:53","25","75","3","9","10","40","30","120","1","18","[""Asian""]","No","Female","1699139","null","","null","","","clear_screen","","","","","","","","","","","","","","","","","","","","","","","","",""
"","","","","","canvas-keyboard-response","60","233830","0.0-13.0-2.9","2d_cat_multi_stim_exp1","2022-3-28","10:49:53","25","75","3","9","10","40","30","120","1","18","[""Asian""]","No","Female","1699139","633","","u","learn","","learn_trial","25","75","in","1","1","","","","","","","","","","","","","","","","","","","",""
"","","","","","canvas-keyboard-response","61","234343","0.0-13.0-3.9","2d_cat_multi_stim_exp1","2022-3-28","10:49:53","25","75","3","9","10","40","30","120","1","18","[""Asian""]","No","Female","1699139","null","","null","learn_feedback","","learn_feedback","25","75","in","","","","","","","","","","","","","","","","","","","","","",""
"","","","","","canvas-keyboard-response","62","234402","0.0-13.0-4.9","2d_cat_multi_stim_exp1","2022-3-28","10:49:53","25","75","3","9","10","40","30","120","1","18","[""Asian""]","No","Female","1699139","null","","null","","","clear_screen","","","","","","","","","","","","","","","","","","","","","","","","",""
"","","","","","canvas-keyboard-response","63","234908","0.0-13.0-0.10","2d_cat_multi_stim_exp1","2022-3-28","10:49:53","25","75","3","9","10","40","30","120","1","18","[""Asian""]","No","Female","1699139","null","","null","","","fixation","","","","","","","","","","","","","","","","","","","","","","","","",""
"","","","","","canvas-keyboard-response","64","235421","0.0-13.0-1.10","2d_cat_multi_stim_exp1","2022-3-28","10:49:53","25","75","3","9","10","40","30","120","1","18","[""Asian""]","No","Female","1699139","null","","null","","","clear_screen","","","","","","","","","","","","","","","","","","","","","","","","",""
"","","","","","canvas-keyboard-response","65","236375","0.0-13.0-2.10","2d_cat_multi_stim_exp1","2022-3-28","10:49:53","25","75","3","9","10","40","30","120","1","18","[""Asian""]","No","Female","1699139","946","","u","learn","","learn_trial","25","75","in","1","1","","","","","","","","","","","","","","","","","","","",""
"","","","","","canvas-keyboard-response","66","236884","0.0-13.0-3.10","2d_cat_multi_stim_exp1","2022-3-28","10:49:53","25","75","3","9","10","40","30","120","1","18","[""Asian""]","No","Female","1699139","null","","null","learn_feedback","","learn_feedback","25","75","in","","","","","","","","","","","","","","","","","","","","","",""
"","","","","","canvas-keyboard-response","67","236946","0.0-13.0-4.10","2d_cat_multi_stim_exp1","2022-3-28","10:49:53","25","75","3","9","10","40","30","120","1","18","[""Asian""]","No","Female","1699139","null","","null","","","clear_screen","","","","","","","","","","","","","","","","","","","","","","","","",""
"","","","","","canvas-keyboard-response","68","237459","0.0-13.0-0.11","2d_cat_multi_stim_exp1","2022-3-28","10:49:53","25","75","3","9","10","40","30","120","1","18","[""Asian""]","No","Female","1699139","null","","null","","","fixation","","","","","","","","","","","","","","","","","","","","","","","","",""
"","","","","","canvas-keyboard-response","69","237972","0.0-13.0-1.11","2d_cat_multi_stim_exp1","2022-3-28","10:49:53","25","75","3","9","10","40","30","120","1","18","[""Asian""]","No","Female","1699139","null","","null","","","clear_screen","","","","","","","","","","","","","","","","","","","","","","","","",""
"","","","","","canvas-keyboard-response","70","238934","0.0-13.0-2.11","2d_cat_multi_stim_exp1","2022-3-28","10:49:53","25","75","3","9","10","40","30","120","1","18","[""Asian""]","No","Female","1699139","952","","u","learn","","learn_trial","27.9518","76.607","in","1","1","","","","","","","","","","","","","","","","","","","",""
"","","","","","canvas-keyboard-response","71","239444","0.0-13.0-3.11","2d_cat_multi_stim_exp1","2022-3-28","10:49:53","25","75","3","9","10","40","30","120","1","18","[""Asian""]","No","Female","1699139","null","","null","learn_feedback","","learn_feedback","27.9518","76.607","in","","","","","","","","","","","","","","","","","","","","","",""
"","","","","","canvas-keyboard-response","72","239506","0.0-13.0-4.11","2d_cat_multi_stim_exp1","2022-3-28","10:49:53","25","75","3","9","10","40","30","120","1","18","[""Asian""]","No","Female","1699139","null","","null","","","clear_screen","","","","","","","","","","","","","","","","","","","","","","","","",""
"","","","","","canvas-keyboard-response","73","240015","0.0-13.0-0.12","2d_cat_multi_stim_exp1","2022-3-28","10:49:53","25","75","3","9","10","40","30","120","1","18","[""Asian""]","No","Female","1699139","null","","null","","","fixation","","","","","","","","","","","","","","","","","","","","","","","","",""
"","","","","","canvas-keyboard-response","74","240528","0.0-13.0-1.12","2d_cat_multi_stim_exp1","2022-3-28","10:49:53","25","75","3","9","10","40","30","120","1","18","[""Asian""]","No","Female","1699139","null","","null","","","clear_screen","","","","","","","","","","","","","","","","","","","","","","","","",""
"","","","","","canvas-keyboard-response","75","241102","0.0-13.0-2.12","2d_cat_multi_stim_exp1","2022-3-28","10:49:53","25","75","3","9","10","40","30","120","1","18","[""Asian""]","No","Female","1699139","568","","u","learn","","learn_trial","25","75","in","1","1","","","","","","","","","","","","","","","","","","","",""
"","","","","","canvas-keyboard-response","76","241612","0.0-13.0-3.12","2d_cat_multi_stim_exp1","2022-3-28","10:49:53","25","75","3","9","10","40","30","120","1","18","[""Asian""]","No","Female","1699139","null","","null","learn_feedback","","learn_feedback","25","75","in","","","","","","","","","","","","","","","","","","","","","",""
"","","","","","canvas-keyboard-response","77","241675","0.0-13.0-4.12","2d_cat_multi_stim_exp1","2022-3-28","10:49:53","25","75","3","9","10","40","30","120","1","18","[""Asian""]","No","Female","1699139","null","","null","","","clear_screen","","","","","","","","","","","","","","","","","","","","","","","","",""
"","","","","","canvas-keyboard-response","78","242183","0.0-13.0-0.13","2d_cat_multi_stim_exp1","2022-3-28","10:49:53","25","75","3","9","10","40","30","120","1","18","[""Asian""]","No","Female","1699139","null","","null","","","fixation","","","","","","","","","","","","","","","","","","","","","","","","",""
"","","","","","canvas-keyboard-response","79","242695","0.0-13.0-1.13","2d_cat_multi_stim_exp1","2022-3-28","10:49:53","25","75","3","9","10","40","30","120","1","18","[""Asian""]","No","Female","1699139","null","","null","","","clear_screen","","","","","","","","","","","","","","","","","","","","","","","","",""
"","","","","","canvas-keyboard-response","80","243223","0.0-13.0-2.13","2d_cat_multi_stim_exp1","2022-3-28","10:49:53","25","75","3","9","10","40","30","120","1","18","[""Asian""]","No","Female","1699139","520","","u","learn","","learn_trial","25","75","in","1","1","","","","","","","","","","","","","","","","","","","",""
"","","","","","canvas-keyboard-response","81","243735","0.0-13.0-3.13","2d_cat_multi_stim_exp1","2022-3-28","10:49:53","25","75","3","9","10","40","30","120","1","18","[""Asian""]","No","Female","1699139","null","","null","learn_feedback","","learn_feedback","25","75","in","","","","","","","","","","","","","","","","","","","","","",""
"","","","","","canvas-keyboard-response","82","243797","0.0-13.0-4.13","2d_cat_multi_stim_exp1","2022-3-28","10:49:53","25","75","3","9","10","40","30","120","1","18","[""Asian""]","No","Female","1699139","null","","null","","","clear_screen","","","","","","","","","","","","","","","","","","","","","","","","",""
"","","","","","canvas-keyboard-response","83","244307","0.0-13.0-0.14","2d_cat_multi_stim_exp1","2022-3-28","10:49:53","25","75","3","9","10","40","30","120","1","18","[""Asian""]","No","Female","1699139","null","","null","","","fixation","","","","","","","","","","","","","","","","","","","","","","","","",""
"","","","","","canvas-keyboard-response","84","244816","0.0-13.0-1.14","2d_cat_multi_stim_exp1","2022-3-28","10:49:53","25","75","3","9","10","40","30","120","1","18","[""Asian""]","No","Female","1699139","null","","null","","","clear_screen","","","","","","","","","","","","","","","","","","","","","","","","",""
"","","","","","canvas-keyboard-response","85","246079","0.0-13.0-2.14","2d_cat_multi_stim_exp1","2022-3-28","10:49:53","25","75","3","9","10","40","30","120","1","18","[""Asian""]","No","Female","1699139","1250","","u","learn","","learn_trial","13.3333","120","out","1","0","","","","","","","","","","","","","","","","","","","",""
"","","","","","canvas-keyboard-response","86","247091","0.0-13.0-3.14","2d_cat_multi_stim_exp1","2022-3-28","10:49:53","25","75","3","9","10","40","30","120","1","18","[""Asian""]","No","Female","1699139","null","","null","learn_feedback","","learn_feedback","13.3333","120","out","","","","","","","","","","","","","","","","","","","","","",""
"","","","","","canvas-keyboard-response","87","247150","0.0-13.0-4.14","2d_cat_multi_stim_exp1","2022-3-28","10:49:53","25","75","3","9","10","40","30","120","1","18","[""Asian""]","No","Female","1699139","null","","null","","","clear_screen","","","","","","","","","","","","","","","","","","","","","","","","",""
"","","","","","canvas-keyboard-response","88","247658","0.0-13.0-0.15","2d_cat_multi_stim_exp1","2022-3-28","10:49:53","25","75","3","9","10","40","30","120","1","18","[""Asian""]","No","Female","1699139","null","","null","","","fixation","","","","","","","","","","","","","","","","","","","","","","","","",""
"","","","","","canvas-keyboard-response","89","248168","0.0-13.0-1.15","2d_cat_multi_stim_exp1","2022-3-28","10:49:53","25","75","3","9","10","40","30","120","1","18","[""Asian""]","No","Female","1699139","null","","null","","","clear_screen","","","","","","","","","","","","","","","","","","","","","","","","",""
"","","","","","canvas-keyboard-response","90","249607","0.0-13.0-2.15","2d_cat_multi_stim_exp1","2022-3-28","10:49:53","25","75","3","9","10","40","30","120","1","18","[""Asian""]","No","Female","1699139","1428","","u","learn","","learn_trial","13.3333","70","out","1","0","","","","","","","","","","","","","","","","","","","",""
"","","","","","canvas-keyboard-response","91","250615","0.0-13.0-3.15","2d_cat_multi_stim_exp1","2022-3-28","10:49:53","25","75","3","9","10","40","30","120","1","18","[""Asian""]","No","Female","1699139","null","","null","learn_feedback","","learn_feedback","13.3333","70","out","","","","","","","","","","","","","","","","","","","","","",""
"","","","","","canvas-keyboard-response","92","250675","0.0-13.0-4.15","2d_cat_multi_stim_exp1","2022-3-28","10:49:53","25","75","3","9","10","40","30","120","1","18","[""Asian""]","No","Female","1699139","null","","null","","","clear_screen","","","","","","","","","","","","","","","","","","","","","","","","",""
"","","","","","canvas-keyboard-response","93","251183","0.0-13.0-0.16","2d_cat_multi_stim_exp1","2022-3-28","10:49:53","25","75","3","9","10","40","30","120","1","18","[""Asian""]","No","Female","1699139","null","","null","","","fixation","","","","","","","","","","","","","","","","","","","","","","","","",""
"","","","","","canvas-keyboard-response","94","251693","0.0-13.0-1.16","2d_cat_multi_stim_exp1","2022-3-28","10:49:53","25","75","3","9","10","40","30","120","1","18","[""Asian""]","No","Female","1699139","null","","null","","","clear_screen","","","","","","","","","","","","","","","","","","","","","","","","",""
"","","","","","canvas-keyboard-response","95","252854","0.0-13.0-2.16","2d_cat_multi_stim_exp1","2022-3-28","10:49:53","25","75","3","9","10","40","30","120","1","18","[""Asian""]","No","Female","1699139","1151","","u","learn","","learn_trial","25","93","in","1","1","","","","","","","","","","","","","","","","","","","",""
"","","","","","canvas-keyboard-response","96","253366","0.0-13.0-3.16","2d_cat_multi_stim_exp1","2022-3-28","10:49:53","25","75","3","9","10","40","30","120","1","18","[""Asian""]","No","Female","1699139","null","","null","learn_feedback","","learn_feedback","25","93","in","","","","","","","","","","","","","","","","","","","","","",""
"","","","","","canvas-keyboard-response","97","253424","0.0-13.0-4.16","2d_cat_multi_stim_exp1","2022-3-28","10:49:53","25","75","3","9","10","40","30","120","1","18","[""Asian""]","No","Female","1699139","null","","null","","","clear_screen","","","","","","","","","","","","","","","","","","","","","","","","",""
"","","","","","canvas-keyboard-response","98","253932","0.0-13.0-0.17","2d_cat_multi_stim_exp1","2022-3-28","10:49:53","25","75","3","9","10","40","30","120","1","18","[""Asian""]","No","Female","1699139","null","","null","","","fixation","","","","","","","","","","","","","","","","","","","","","","","","",""
"","","","","","canvas-keyboard-response","99","254443","0.0-13.0-1.17","2d_cat_multi_stim_exp1","2022-3-28","10:49:53","25","75","3","9","10","40","30","120","1","18","[""Asian""]","No","Female","1699139","null","","null","","","clear_screen","","","","","","","","","","","","","","","","","","","","","","","","",""
"","","","","","canvas-keyboard-response","100","255065","0.0-13.0-2.17","2d_cat_multi_stim_exp1","2022-3-28","10:49:53","25","75","3","9","10","40","30","120","1","18","[""Asian""]","No","Female","1699139","613","","u","learn","","learn_trial","25","75","in","1","1","","","","","","","","","","","","","","","","","","","",""
"","","","","","canvas-keyboard-response","101","255577","0.0-13.0-3.17","2d_cat_multi_stim_exp1","2022-3-28","10:49:53","25","75","3","9","10","40","30","120","1","18","[""Asian""]","No","Female","1699139","null","","null","learn_feedback","","learn_feedback","25","75","in","","","","","","","","","","","","","","","","","","","","","",""
"","","","","","canvas-keyboard-response","102","255636","0.0-13.0-4.17","2d_cat_multi_stim_exp1","2022-3-28","10:49:53","25","75","3","9","10","40","30","120","1","18","[""Asian""]","No","Female","1699139","null","","null","","","clear_screen","","","","","","","","","","","","","","","","","","","","","","","","",""
"","","","","","canvas-keyboard-response","103","256147","0.0-13.0-0.18","2d_cat_multi_stim_exp1","2022-3-28","10:49:53","25","75","3","9","10","40","30","120","1","18","[""Asian""]","No","Female","1699139","null","","null","","","fixation","","","","","","","","","","","","","","","","","","","","","","","","",""
"","","","","","canvas-keyboard-response","104","256658","0.0-13.0-1.18","2d_cat_multi_stim_exp1","2022-3-28","10:49:53","25","75","3","9","10","40","30","120","1","18","[""Asian""]","No","Female","1699139","null","","null","","","clear_screen","","","","","","","","","","","","","","","","","","","","","","","","",""
"","","","","","canvas-keyboard-response","105","259526","0.0-13.0-2.18","2d_cat_multi_stim_exp1","2022-3-28","10:49:53","25","75","3","9","10","40","30","120","1","18","[""Asian""]","No","Female","1699139","2860","","i","learn","","learn_trial","36.6667","50","out","0","1","","","","","","","","","","","","","","","","","","","",""
"","","","","","canvas-keyboard-response","106","260039","0.0-13.0-3.18","2d_cat_multi_stim_exp1","2022-3-28","10:49:53","25","75","3","9","10","40","30","120","1","18","[""Asian""]","No","Female","1699139","null","","null","learn_feedback","","learn_feedback","36.6667","50","out","","","","","","","","","","","","","","","","","","","","","",""
"","","","","","canvas-keyboard-response","107","260100","0.0-13.0-4.18","2d_cat_multi_stim_exp1","2022-3-28","10:49:53","25","75","3","9","10","40","30","120","1","18","[""Asian""]","No","Female","1699139","null","","null","","","clear_screen","","","","","","","","","","","","","","","","","","","","","","","","",""
"","","","","","canvas-keyboard-response","108","260610","0.0-13.0-0.19","2d_cat_multi_stim_exp1","2022-3-28","10:49:53","25","75","3","9","10","40","30","120","1","18","[""Asian""]","No","Female","1699139","null","","null","","","fixation","","","","","","","","","","","","","","","","","","","","","","","","",""
"","","","","","canvas-keyboard-response","109","261124","0.0-13.0-1.19","2d_cat_multi_stim_exp1","2022-3-28","10:49:53","25","75","3","9","10","40","30","120","1","18","[""Asian""]","No","Female","1699139","null","","null","","","clear_screen","","","","","","","","","","","","","","","","","","","","","","","","",""
"","","","","","canvas-keyboard-response","110","262015","0.0-13.0-2.19","2d_cat_multi_stim_exp1","2022-3-28","10:49:53","25","75","3","9","10","40","30","120","1","18","[""Asian""]","No","Female","1699139","880","","u","learn","","learn_trial","25","75","in","1","1","","","","","","","","","","","","","","","","","","","",""
"","","","","","canvas-keyboard-response","111","262524","0.0-13.0-3.19","2d_cat_multi_stim_exp1","2022-3-28","10:49:53","25","75","3","9","10","40","30","120","1","18","[""Asian""]","No","Female","1699139","null","","null","learn_feedback","","learn_feedback","25","75","in","","","","","","","","","","","","","","","","","","","","","",""
"","","","","","canvas-keyboard-response","112","262584","0.0-13.0-4.19","2d_cat_multi_stim_exp1","2022-3-28","10:49:53","25","75","3","9","10","40","30","120","1","18","[""Asian""]","No","Female","1699139","null","","null","","","clear_screen","","","","","","","","","","","","","","","","","","","","","","","","",""
"","","","","","canvas-keyboard-response","113","263093","0.0-13.0-0.20","2d_cat_multi_stim_exp1","2022-3-28","10:49:53","25","75","3","9","10","40","30","120","1","18","[""Asian""]","No","Female","1699139","null","","null","","","fixation","","","","","","","","","","","","","","","","","","","","","","","","",""
"","","","","","canvas-keyboard-response","114","263608","0.0-13.0-1.20","2d_cat_multi_stim_exp1","2022-3-28","10:49:53","25","75","3","9","10","40","30","120","1","18","[""Asian""]","No","Female","1699139","null","","null","","","clear_screen","","","","","","","","","","","","","","","","","","","","","","","","",""
"","","","","","canvas-keyboard-response","115","264487","0.0-13.0-2.20","2d_cat_multi_stim_exp1","2022-3-28","10:49:53","25","75","3","9","10","40","30","120","1","18","[""Asian""]","No","Female","1699139","869","","u","learn","","learn_trial","25","75","in","1","1","","","","","","","","","","","","","","","","","","","",""
"","","","","","canvas-keyboard-response","116","264997","0.0-13.0-3.20","2d_cat_multi_stim_exp1","2022-3-28","10:49:53","25","75","3","9","10","40","30","120","1","18","[""Asian""]","No","Female","1699139","null","","null","learn_feedback","","learn_feedback","25","75","in","","","","","","","","","","","","","","","","","","","","","",""
"","","","","","canvas-keyboard-response","117","265060","0.0-13.0-4.20","2d_cat_multi_stim_exp1","2022-3-28","10:49:53","25","75","3","9","10","40","30","120","1","18","[""Asian""]","No","Female","1699139","null","","null","","","clear_screen","","","","","","","","","","","","","","","","","","","","","","","","",""
"","","","","","canvas-keyboard-response","118","265568","0.0-13.0-0.21","2d_cat_multi_stim_exp1","2022-3-28","10:49:53","25","75","3","9","10","40","30","120","1","18","[""Asian""]","No","Female","1699139","null","","null","","","fixation","","","","","","","","","","","","","","","","","","","","","","","","",""
"","","","","","canvas-keyboard-response","119","266078","0.0-13.0-1.21","2d_cat_multi_stim_exp1","2022-3-28","10:49:53","25","75","3","9","10","40","30","120","1","18","[""Asian""]","No","Female","1699139","null","","null","","","clear_screen","","","","","","","","","","","","","","","","","","","","","","","","",""
"","","","","","canvas-keyboard-response","120","266815","0.0-13.0-2.21","2d_cat_multi_stim_exp1","2022-3-28","10:49:53","25","75","3","9","10","40","30","120","1","18","[""Asian""]","No","Female","1699139","728","","i","learn","","learn_trial","40","30","out","0","1","","","","","","","","","","","","","","","","","","","",""
"","","","","","canvas-keyboard-response","121","267325","0.0-13.0-3.21","2d_cat_multi_stim_exp1","2022-3-28","10:49:53","25","75","3","9","10","40","30","120","1","18","[""Asian""]","No","Female","1699139","null","","null","learn_feedback","","learn_feedback","40","30","out","","","","","","","","","","","","","","","","","","","","","",""
"","","","","","canvas-keyboard-response","122","267388","0.0-13.0-4.21","2d_cat_multi_stim_exp1","2022-3-28","10:49:53","25","75","3","9","10","40","30","120","1","18","[""Asian""]","No","Female","1699139","null","","null","","","clear_screen","","","","","","","","","","","","","","","","","","","","","","","","",""
"","","","","","canvas-keyboard-response","123","267897","0.0-13.0-0.22","2d_cat_multi_stim_exp1","2022-3-28","10:49:53","25","75","3","9","10","40","30","120","1","18","[""Asian""]","No","Female","1699139","null","","null","","","fixation","","","","","","","","","","","","","","","","","","","","","","","","",""
"","","","","","canvas-keyboard-response","124","268408","0.0-13.0-1.22","2d_cat_multi_stim_exp1","2022-3-28","10:49:53","25","75","3","9","10","40","30","120","1","18","[""Asian""]","No","Female","1699139","null","","null","","","clear_screen","","","","","","","","","","","","","","","","","","","","","","","","",""
"","","","","","canvas-keyboard-response","125","269271","0.0-13.0-2.22","2d_cat_multi_stim_exp1","2022-3-28","10:49:53","25","75","3","9","10","40","30","120","1","18","[""Asian""]","No","Female","1699139","852","","u","learn","","learn_trial","25","75","in","1","1","","","","","","","","","","","","","","","","","","","",""
"","","","","","canvas-keyboard-response","126","269779","0.0-13.0-3.22","2d_cat_multi_stim_exp1","2022-3-28","10:49:53","25","75","3","9","10","40","30","120","1","18","[""Asian""]","No","Female","1699139","null","","null","learn_feedback","","learn_feedback","25","75","in","","","","","","","","","","","","","","","","","","","","","",""
"","","","","","canvas-keyboard-response","127","269840","0.0-13.0-4.22","2d_cat_multi_stim_exp1","2022-3-28","10:49:53","25","75","3","9","10","40","30","120","1","18","[""Asian""]","No","Female","1699139","null","","null","","","clear_screen","","","","","","","","","","","","","","","","","","","","","","","","",""
"","","","","","canvas-keyboard-response","128","270351","0.0-13.0-0.23","2d_cat_multi_stim_exp1","2022-3-28","10:49:53","25","75","3","9","10","40","30","120","1","18","[""Asian""]","No","Female","1699139","null","","null","","","fixation","","","","","","","","","","","","","","","","","","","","","","","","",""
"","","","","","canvas-keyboard-response","129","270861","0.0-13.0-1.23","2d_cat_multi_stim_exp1","2022-3-28","10:49:53","25","75","3","9","10","40","30","120","1","18","[""Asian""]","No","Female","1699139","null","","null","","","clear_screen","","","","","","","","","","","","","","","","","","","","","","","","",""
"","","","","","canvas-keyboard-response","130","271718","0.0-13.0-2.23","2d_cat_multi_stim_exp1","2022-3-28","10:49:53","25","75","3","9","10","40","30","120","1","18","[""Asian""]","No","Female","1699139","850","","i","learn","","learn_trial","40","70","out","0","1","","","","","","","","","","","","","","","","","","","",""
"","","","","","canvas-keyboard-response","131","272228","0.0-13.0-3.23","2d_cat_multi_stim_exp1","2022-3-28","10:49:53","25","75","3","9","10","40","30","120","1","18","[""Asian""]","No","Female","1699139","null","","null","learn_feedback","","learn_feedback","40","70","out","","","","","","","","","","","","","","","","","","","","","",""
"","","","","","canvas-keyboard-response","132","272290","0.0-13.0-4.23","2d_cat_multi_stim_exp1","2022-3-28","10:49:53","25","75","3","9","10","40","30","120","1","18","[""Asian""]","No","Female","1699139","null","","null","","","clear_screen","","","","","","","","","","","","","","","","","","","","","","","","",""
"","","","","","canvas-keyboard-response","133","272797","0.0-13.0-0.24","2d_cat_multi_stim_exp1","2022-3-28","10:49:53","25","75","3","9","10","40","30","120","1","18","[""Asian""]","No","Female","1699139","null","","null","","","fixation","","","","","","","","","","","","","","","","","","","","","","","","",""
"","","","","","canvas-keyboard-response","134","273310","0.0-13.0-1.24","2d_cat_multi_stim_exp1","2022-3-28","10:49:53","25","75","3","9","10","40","30","120","1","18","[""Asian""]","No","Female","1699139","null","","null","","","clear_screen","","","","","","","","","","","","","","","","","","","","","","","","",""
"","","","","","canvas-keyboard-response","135","274590","0.0-13.0-2.24","2d_cat_multi_stim_exp1","2022-3-28","10:49:53","25","75","3","9","10","40","30","120","1","18","[""Asian""]","No","Female","1699139","1271","","u","learn","","learn_trial","23.3473","67.4888","in","1","1","","","","","","","","","","","","","","","","","","","",""
"","","","","","canvas-keyboard-response","136","275103","0.0-13.0-3.24","2d_cat_multi_stim_exp1","2022-3-28","10:49:53","25","75","3","9","10","40","30","120","1","18","[""Asian""]","No","Female","1699139","null","","null","learn_feedback","","learn_feedback","23.3473","67.4888","in","","","","","","","","","","","","","","","","","","","","","",""
"","","","","","canvas-keyboard-response","137","275162","0.0-13.0-4.24","2d_cat_multi_stim_exp1","2022-3-28","10:49:53","25","75","3","9","10","40","30","120","1","18","[""Asian""]","No","Female","1699139","null","","null","","","clear_screen","","","","","","","","","","","","","","","","","","","","","","","","",""
"","","","","","canvas-keyboard-response","138","275670","0.0-13.0-0.25","2d_cat_multi_stim_exp1","2022-3-28","10:49:53","25","75","3","9","10","40","30","120","1","18","[""Asian""]","No","Female","1699139","null","","null","","","fixation","","","","","","","","","","","","","","","","","","","","","","","","",""
"","","","","","canvas-keyboard-response","139","276179","0.0-13.0-1.25","2d_cat_multi_stim_exp1","2022-3-28","10:49:53","25","75","3","9","10","40","30","120","1","18","[""Asian""]","No","Female","1699139","null","","null","","","clear_screen","","","","","","","","","","","","","","","","","","","","","","","","",""
"","","","","","canvas-keyboard-response","140","278742","0.0-13.0-2.25","2d_cat_multi_stim_exp1","2022-3-28","10:49:53","25","75","3","9","10","40","30","120","1","18","[""Asian""]","No","Female","1699139","2555","","u","learn","","learn_trial","26.4216","82.9254","in","1","1","","","","","","","","","","","","","","","","","","","",""
"","","","","","canvas-keyboard-response","141","279251","0.0-13.0-3.25","2d_cat_multi_stim_exp1","2022-3-28","10:49:53","25","75","3","9","10","40","30","120","1","18","[""Asian""]","No","Female","1699139","null","","null","learn_feedback","","learn_feedback","26.4216","82.9254","in","","","","","","","","","","","","","","","","","","","","","",""
"","","","","","canvas-keyboard-response","142","279313","0.0-13.0-4.25","2d_cat_multi_stim_exp1","2022-3-28","10:49:53","25","75","3","9","10","40","30","120","1","18","[""Asian""]","No","Female","1699139","null","","null","","","clear_screen","","","","","","","","","","","","","","","","","","","","","","","","",""
"","","","","","canvas-keyboard-response","143","279824","0.0-13.0-0.26","2d_cat_multi_stim_exp1","2022-3-28","10:49:53","25","75","3","9","10","40","30","120","1","18","[""Asian""]","No","Female","1699139","null","","null","","","fixation","","","","","","","","","","","","","","","","","","","","","","","","",""
"","","","","","canvas-keyboard-response","144","280337","0.0-13.0-1.26","2d_cat_multi_stim_exp1","2022-3-28","10:49:53","25","75","3","9","10","40","30","120","1","18","[""Asian""]","No","Female","1699139","null","","null","","","clear_screen","","","","","","","","","","","","","","","","","","","","","","","","",""
"","","","","","canvas-keyboard-response","145","281031","0.0-13.0-2.26","2d_cat_multi_stim_exp1","2022-3-28","10:49:53","25","75","3","9","10","40","30","120","1","18","[""Asian""]","No","Female","1699139","685","","u","learn","","learn_trial","16.6667","80","out","1","0","","","","","","","","","","","","","","","","","","","",""
"","","","","","canvas-keyboard-response","146","282043","0.0-13.0-3.26","2d_cat_multi_stim_exp1","2022-3-28","10:49:53","25","75","3","9","10","40","30","120","1","18","[""Asian""]","No","Female","1699139","null","","null","learn_feedback","","learn_feedback","16.6667","80","out","","","","","","","","","","","","","","","","","","","","","",""
"","","","","","canvas-keyboard-response","147","282105","0.0-13.0-4.26","2d_cat_multi_stim_exp1","2022-3-28","10:49:53","25","75","3","9","10","40","30","120","1","18","[""Asian""]","No","Female","1699139","null","","null","","","clear_screen","","","","","","","","","","","","","","","","","","","","","","","","",""
"","","","","","canvas-keyboard-response","148","282614","0.0-13.0-0.27","2d_cat_multi_stim_exp1","2022-3-28","10:49:53","25","75","3","9","10","40","30","120","1","18","[""Asian""]","No","Female","1699139","null","","null","","","fixation","","","","","","","","","","","","","","","","","","","","","","","","",""
"","","","","","canvas-keyboard-response","149","283124","0.0-13.0-1.27","2d_cat_multi_stim_exp1","2022-3-28","10:49:53","25","75","3","9","10","40","30","120","1","18","[""Asian""]","No","Female","1699139","null","","null","","","clear_screen","","","","","","","","","","","","","","","","","","","","","","","","",""
"","","","","","canvas-keyboard-response","150","284223","0.0-13.0-2.27","2d_cat_multi_stim_exp1","2022-3-28","10:49:53","25","75","3","9","10","40","30","120","1","18","[""Asian""]","No","Female","1699139","1088","","u","learn","","learn_trial","23.3333","60","out","1","0","","","","","","","","","","","","","","","","","","","",""
"","","","","","canvas-keyboard-response","151","285231","0.0-13.0-3.27","2d_cat_multi_stim_exp1","2022-3-28","10:49:53","25","75","3","9","10","40","30","120","1","18","[""Asian""]","No","Female","1699139","null","","null","learn_feedback","","learn_feedback","23.3333","60","out","","","","","","","","","","","","","","","","","","","","","",""
"","","","","","canvas-keyboard-response","152","285290","0.0-13.0-4.27","2d_cat_multi_stim_exp1","2022-3-28","10:49:53","25","75","3","9","10","40","30","120","1","18","[""Asian""]","No","Female","1699139","null","","null","","","clear_screen","","","","","","","","","","","","","","","","","","","","","","","","",""
"","","","","","canvas-keyboard-response","153","285802","0.0-13.0-0.28","2d_cat_multi_stim_exp1","2022-3-28","10:49:53","25","75","3","9","10","40","30","120","1","18","[""Asian""]","No","Female","1699139","null","","null","","","fixation","","","","","","","","","","","","","","","","","","","","","","","","",""
"","","","","","canvas-keyboard-response","154","286314","0.0-13.0-1.28","2d_cat_multi_stim_exp1","2022-3-28","10:49:53","25","75","3","9","10","40","30","120","1","18","[""Asian""]","No","Female","1699139","null","","null","","","clear_screen","","","","","","","","","","","","","","","","","","","","","","","","",""
"","","","","","canvas-keyboard-response","155","286774","0.0-13.0-2.28","2d_cat_multi_stim_exp1","2022-3-28","10:49:53","25","75","3","9","10","40","30","120","1","18","[""Asian""]","No","Female","1699139","451","","u","learn","","learn_trial","27.5753","79.6161","in","1","1","","","","","","","","","","","","","","","","","","","",""
"","","","","","canvas-keyboard-response","156","287284","0.0-13.0-3.28","2d_cat_multi_stim_exp1","2022-3-28","10:49:53","25","75","3","9","10","40","30","120","1","18","[""Asian""]","No","Female","1699139","null","","null","learn_feedback","","learn_feedback","27.5753","79.6161","in","","","","","","","","","","","","","","","","","","","","","",""
"","","","","","canvas-keyboard-response","157","287345","0.0-13.0-4.28","2d_cat_multi_stim_exp1","2022-3-28","10:49:53","25","75","3","9","10","40","30","120","1","18","[""Asian""]","No","Female","1699139","null","","null","","","clear_screen","","","","","","","","","","","","","","","","","","","","","","","","",""
"","","","","","canvas-keyboard-response","158","287853","0.0-13.0-0.29","2d_cat_multi_stim_exp1","2022-3-28","10:49:53","25","75","3","9","10","40","30","120","1","18","[""Asian""]","No","Female","1699139","null","","null","","","fixation","","","","","","","","","","","","","","","","","","","","","","","","",""
"","","","","","canvas-keyboard-response","159","288365","0.0-13.0-1.29","2d_cat_multi_stim_exp1","2022-3-28","10:49:53","25","75","3","9","10","40","30","120","1","18","[""Asian""]","No","Female","1699139","null","","null","","","clear_screen","","","","","","","","","","","","","","","","","","","","","","","","",""
"","","","","","canvas-keyboard-response","160","289167","0.0-13.0-2.29","2d_cat_multi_stim_exp1","2022-3-28","10:49:53","25","75","3","9","10","40","30","120","1","18","[""Asian""]","No","Female","1699139","790","","u","learn","","learn_trial","25","75","in","1","1","","","","","","","","","","","","","","","","","","","",""
"","","","","","canvas-keyboard-response","161","289677","0.0-13.0-3.29","2d_cat_multi_stim_exp1","2022-3-28","10:49:53","25","75","3","9","10","40","30","120","1","18","[""Asian""]","No","Female","1699139","null","","null","learn_feedback","","learn_feedback","25","75","in","","","","","","","","","","","","","","","","","","","","","",""
"","","","","","canvas-keyboard-response","162","289737","0.0-13.0-4.29","2d_cat_multi_stim_exp1","2022-3-28","10:49:53","25","75","3","9","10","40","30","120","1","18","[""Asian""]","No","Female","1699139","null","","null","","","clear_screen","","","","","","","","","","","","","","","","","","","","","","","","",""
"","","","","","canvas-keyboard-response","163","290246","0.0-13.0-0.30","2d_cat_multi_stim_exp1","2022-3-28","10:49:53","25","75","3","9","10","40","30","120","1","18","[""Asian""]","No","Female","1699139","null","","null","","","fixation","","","","","","","","","","","","","","","","","","","","","","","","",""
"","","","","","canvas-keyboard-response","164","290759","0.0-13.0-1.30","2d_cat_multi_stim_exp1","2022-3-28","10:49:53","25","75","3","9","10","40","30","120","1","18","[""Asian""]","No","Female","1699139","null","","null","","","clear_screen","","","","","","","","","","","","","","","","","","","","","","","","",""
"","","","","","canvas-keyboard-response","165","291511","0.0-13.0-2.30","2d_cat_multi_stim_exp1","2022-3-28","10:49:53","25","75","3","9","10","40","30","120","1","18","[""Asian""]","No","Female","1699139","738","","u","learn","","learn_trial","25","75","in","1","1","","","","","","","","","","","","","","","","","","","",""
"","","","","","canvas-keyboard-response","166","292020","0.0-13.0-3.30","2d_cat_multi_stim_exp1","2022-3-28","10:49:53","25","75","3","9","10","40","30","120","1","18","[""Asian""]","No","Female","1699139","null","","null","learn_feedback","","learn_feedback","25","75","in","","","","","","","","","","","","","","","","","","","","","",""
"","","","","","canvas-keyboard-response","167","292083","0.0-13.0-4.30","2d_cat_multi_stim_exp1","2022-3-28","10:49:53","25","75","3","9","10","40","30","120","1","18","[""Asian""]","No","Female","1699139","null","","null","","","clear_screen","","","","","","","","","","","","","","","","","","","","","","","","",""
"","","","","","canvas-keyboard-response","168","292589","0.0-13.0-0.31","2d_cat_multi_stim_exp1","2022-3-28","10:49:53","25","75","3","9","10","40","30","120","1","18","[""Asian""]","No","Female","1699139","null","","null","","","fixation","","","","","","","","","","","","","","","","","","","","","","","","",""
"","","","","","canvas-keyboard-response","169","293100","0.0-13.0-1.31","2d_cat_multi_stim_exp1","2022-3-28","10:49:53","25","75","3","9","10","40","30","120","1","18","[""Asian""]","No","Female","1699139","null","","null","","","clear_screen","","","","","","","","","","","","","","","","","","","","","","","","",""
"","","","","","canvas-keyboard-response","170","293663","0.0-13.0-2.31","2d_cat_multi_stim_exp1","2022-3-28","10:49:53","25","75","3","9","10","40","30","120","1","18","[""Asian""]","No","Female","1699139","552","","u","learn","","learn_trial","30","110","out","1","0","","","","","","","","","","","","","","","","","","","",""
"","","","","","canvas-keyboard-response","171","294675","0.0-13.0-3.31","2d_cat_multi_stim_exp1","2022-3-28","10:49:53","25","75","3","9","10","40","30","120","1","18","[""Asian""]","No","Female","1699139","null","","null","learn_feedback","","learn_feedback","30","110","out","","","","","","","","","","","","","","","","","","","","","",""
"","","","","","canvas-keyboard-response","172","294738","0.0-13.0-4.31","2d_cat_multi_stim_exp1","2022-3-28","10:49:53","25","75","3","9","10","40","30","120","1","18","[""Asian""]","No","Female","1699139","null","","null","","","clear_screen","","","","","","","","","","","","","","","","","","","","","","","","",""
"","","","","","canvas-keyboard-response","173","295247","0.0-13.0-0.32","2d_cat_multi_stim_exp1","2022-3-28","10:49:53","25","75","3","9","10","40","30","120","1","18","[""Asian""]","No","Female","1699139","null","","null","","","fixation","","","","","","","","","","","","","","","","","","","","","","","","",""
"","","","","","canvas-keyboard-response","174","295758","0.0-13.0-1.32","2d_cat_multi_stim_exp1","2022-3-28","10:49:53","25","75","3","9","10","40","30","120","1","18","[""Asian""]","No","Female","1699139","null","","null","","","clear_screen","","","","","","","","","","","","","","","","","","","","","","","","",""
"","","","","","canvas-keyboard-response","175","296287","0.0-13.0-2.32","2d_cat_multi_stim_exp1","2022-3-28","10:49:53","25","75","3","9","10","40","30","120","1","18","[""Asian""]","No","Female","1699139","524","","u","learn","","learn_trial","23.3333","50","out","1","0","","","","","","","","","","","","","","","","","","","",""
"","","","","","canvas-keyboard-response","176","297297","0.0-13.0-3.32","2d_cat_multi_stim_exp1","2022-3-28","10:49:53","25","75","3","9","10","40","30","120","1","18","[""Asian""]","No","Female","1699139","null","","null","learn_feedback","","learn_feedback","23.3333","50","out","","","","","","","","","","","","","","","","","","","","","",""
"","","","","","canvas-keyboard-response","177","297361","0.0-13.0-4.32","2d_cat_multi_stim_exp1","2022-3-28","10:49:53","25","75","3","9","10","40","30","120","1","18","[""Asian""]","No","Female","1699139","null","","null","","","clear_screen","","","","","","","","","","","","","","","","","","","","","","","","",""
"","","","","","canvas-keyboard-response","178","297872","0.0-13.0-0.33","2d_cat_multi_stim_exp1","2022-3-28","10:49:53","25","75","3","9","10","40","30","120","1","18","[""Asian""]","No","Female","1699139","null","","null","","","fixation","","","","","","","","","","","","","","","","","","","","","","","","",""
"","","","","","canvas-keyboard-response","179","298383","0.0-13.0-1.33","2d_cat_multi_stim_exp1","2022-3-28","10:49:53","25","75","3","9","10","40","30","120","1","18","[""Asian""]","No","Female","1699139","null","","null","","","clear_screen","","","","","","","","","","","","","","","","","","","","","","","","",""
"","","","","","canvas-keyboard-response","180","298982","0.0-13.0-2.33","2d_cat_multi_stim_exp1","2022-3-28","10:49:53","25","75","3","9","10","40","30","120","1","18","[""Asian""]","No","Female","1699139","586","","u","learn","","learn_trial","31","75","in","1","1","","","","","","","","","","","","","","","","","","","",""
"","","","","","canvas-keyboard-response","181","299490","0.0-13.0-3.33","2d_cat_multi_stim_exp1","2022-3-28","10:49:53","25","75","3","9","10","40","30","120","1","18","[""Asian""]","No","Female","1699139","null","","null","learn_feedback","","learn_feedback","31","75","in","","","","","","","","","","","","","","","","","","","","","",""
"","","","","","canvas-keyboard-response","182","299547","0.0-13.0-4.33","2d_cat_multi_stim_exp1","2022-3-28","10:49:53","25","75","3","9","10","40","30","120","1","18","[""Asian""]","No","Female","1699139","null","","null","","","clear_screen","","","","","","","","","","","","","","","","","","","","","","","","",""
"","","","","","canvas-keyboard-response","183","300061","0.0-13.0-0.34","2d_cat_multi_stim_exp1","2022-3-28","10:49:53","25","75","3","9","10","40","30","120","1","18","[""Asian""]","No","Female","1699139","null","","null","","","fixation","","","","","","","","","","","","","","","","","","","","","","","","",""
"","","","","","canvas-keyboard-response","184","300575","0.0-13.0-1.34","2d_cat_multi_stim_exp1","2022-3-28","10:49:53","25","75","3","9","10","40","30","120","1","18","[""Asian""]","No","Female","1699139","null","","null","","","clear_screen","","","","","","","","","","","","","","","","","","","","","","","","",""
"","","","","","canvas-keyboard-response","185","301671","0.0-13.0-2.34","2d_cat_multi_stim_exp1","2022-3-28","10:49:53","25","75","3","9","10","40","30","120","1","18","[""Asian""]","No","Female","1699139","1086","","i","learn","","learn_trial","10","80","out","0","1","","","","","","","","","","","","","","","","","","","",""
"","","","","","canvas-keyboard-response","186","302182","0.0-13.0-3.34","2d_cat_multi_stim_exp1","2022-3-28","10:49:53","25","75","3","9","10","40","30","120","1","18","[""Asian""]","No","Female","1699139","null","","null","learn_feedback","","learn_feedback","10","80","out","","","","","","","","","","","","","","","","","","","","","",""
"","","","","","canvas-keyboard-response","187","302244","0.0-13.0-4.34","2d_cat_multi_stim_exp1","2022-3-28","10:49:53","25","75","3","9","10","40","30","120","1","18","[""Asian""]","No","Female","1699139","null","","null","","","clear_screen","","","","","","","","","","","","","","","","","","","","","","","","",""
"","","","","","canvas-keyboard-response","188","302755","0.0-13.0-0.35","2d_cat_multi_stim_exp1","2022-3-28","10:49:53","25","75","3","9","10","40","30","120","1","18","[""Asian""]","No","Female","1699139","null","","null","","","fixation","","","","","","","","","","","","","","","","","","","","","","","","",""
"","","","","","canvas-keyboard-response","189","303268","0.0-13.0-1.35","2d_cat_multi_stim_exp1","2022-3-28","10:49:53","25","75","3","9","10","40","30","120","1","18","[""Asian""]","No","Female","1699139","null","","null","","","clear_screen","","","","","","","","","","","","","","","","","","","","","","","","",""
"","","","","","canvas-keyboard-response","190","303975","0.0-13.0-2.35","2d_cat_multi_stim_exp1","2022-3-28","10:49:53","25","75","3","9","10","40","30","120","1","18","[""Asian""]","No","Female","1699139","697","","u","learn","","learn_trial","30","90","out","1","0","","","","","","","","","","","","","","","","","","","",""
"","","","","","canvas-keyboard-response","191","304984","0.0-13.0-3.35","2d_cat_multi_stim_exp1","2022-3-28","10:49:53","25","75","3","9","10","40","30","120","1","18","[""Asian""]","No","Female","1699139","null","","null","learn_feedback","","learn_feedback","30","90","out","","","","","","","","","","","","","","","","","","","","","",""
"","","","","","canvas-keyboard-response","192","305044","0.0-13.0-4.35","2d_cat_multi_stim_exp1","2022-3-28","10:49:53","25","75","3","9","10","40","30","120","1","18","[""Asian""]","No","Female","1699139","null","","null","","","clear_screen","","","","","","","","","","","","","","","","","","","","","","","","",""
"","","","","","canvas-keyboard-response","193","305552","0.0-13.0-0.36","2d_cat_multi_stim_exp1","2022-3-28","10:49:53","25","75","3","9","10","40","30","120","1","18","[""Asian""]","No","Female","1699139","null","","null","","","fixation","","","","","","","","","","","","","","","","","","","","","","","","",""
"","","","","","canvas-keyboard-response","194","306063","0.0-13.0-1.36","2d_cat_multi_stim_exp1","2022-3-28","10:49:53","25","75","3","9","10","40","30","120","1","18","[""Asian""]","No","Female","1699139","null","","null","","","clear_screen","","","","","","","","","","","","","","","","","","","","","","","","",""
"","","","","","canvas-keyboard-response","195","307270","0.0-13.0-2.36","2d_cat_multi_stim_exp1","2022-3-28","10:49:53","25","75","3","9","10","40","30","120","1","18","[""Asian""]","No","Female","1699139","1199","","i","learn","","learn_trial","26.6667","30","out","0","1","","","","","","","","","","","","","","","","","","","",""
"","","","","","canvas-keyboard-response","196","307781","0.0-13.0-3.36","2d_cat_multi_stim_exp1","2022-3-28","10:49:53","25","75","3","9","10","40","30","120","1","18","[""Asian""]","No","Female","1699139","null","","null","learn_feedback","","learn_feedback","26.6667","30","out","","","","","","","","","","","","","","","","","","","","","",""
"","","","","","canvas-keyboard-response","197","307842","0.0-13.0-4.36","2d_cat_multi_stim_exp1","2022-3-28","10:49:53","25","75","3","9","10","40","30","120","1","18","[""Asian""]","No","Female","1699139","null","","null","","","clear_screen","","","","","","","","","","","","","","","","","","","","","","","","",""
"","","","","","canvas-keyboard-response","198","308351","0.0-13.0-0.37","2d_cat_multi_stim_exp1","2022-3-28","10:49:53","25","75","3","9","10","40","30","120","1","18","[""Asian""]","No","Female","1699139","null","","null","","","fixation","","","","","","","","","","","","","","","","","","","","","","","","",""
"","","","","","canvas-keyboard-response","199","308862","0.0-13.0-1.37","2d_cat_multi_stim_exp1","2022-3-28","10:49:53","25","75","3","9","10","40","30","120","1","18","[""Asian""]","No","Female","1699139","null","","null","","","clear_screen","","","","","","","","","","","","","","","","","","","","","","","","",""
"","","","","","canvas-keyboard-response","200","310270","0.0-13.0-2.37","2d_cat_multi_stim_exp1","2022-3-28","10:49:53","25","75","3","9","10","40","30","120","1","18","[""Asian""]","No","Female","1699139","1399","","u","learn","","learn_trial","25","75","in","1","1","","","","","","","","","","","","","","","","","","","",""
"","","","","","canvas-keyboard-response","201","310780","0.0-13.0-3.37","2d_cat_multi_stim_exp1","2022-3-28","10:49:53","25","75","3","9","10","40","30","120","1","18","[""Asian""]","No","Female","1699139","null","","null","learn_feedback","","learn_feedback","25","75","in","","","","","","","","","","","","","","","","","","","","","",""
"","","","","","canvas-keyboard-response","202","310844","0.0-13.0-4.37","2d_cat_multi_stim_exp1","2022-3-28","10:49:53","25","75","3","9","10","40","30","120","1","18","[""Asian""]","No","Female","1699139","null","","null","","","clear_screen","","","","","","","","","","","","","","","","","","","","","","","","",""
"","","","","","canvas-keyboard-response","203","311354","0.0-13.0-0.38","2d_cat_multi_stim_exp1","2022-3-28","10:49:53","25","75","3","9","10","40","30","120","1","18","[""Asian""]","No","Female","1699139","null","","null","","","fixation","","","","","","","","","","","","","","","","","","","","","","","","",""
"","","","","","canvas-keyboard-response","204","311868","0.0-13.0-1.38","2d_cat_multi_stim_exp1","2022-3-28","10:49:53","25","75","3","9","10","40","30","120","1","18","[""Asian""]","No","Female","1699139","null","","null","","","clear_screen","","","","","","","","","","","","","","","","","","","","","","","","",""
"","","","","","canvas-keyboard-response","205","312927","0.0-13.0-2.38","2d_cat_multi_stim_exp1","2022-3-28","10:49:53","25","75","3","9","10","40","30","120","1","18","[""Asian""]","No","Female","1699139","1050","","u","learn","","learn_trial","25","75","in","1","1","","","","","","","","","","","","","","","","","","","",""
"","","","","","canvas-keyboard-response","206","313436","0.0-13.0-3.38","2d_cat_multi_stim_exp1","2022-3-28","10:49:53","25","75","3","9","10","40","30","120","1","18","[""Asian""]","No","Female","1699139","null","","null","learn_feedback","","learn_feedback","25","75","in","","","","","","","","","","","","","","","","","","","","","",""
"","","","","","canvas-keyboard-response","207","313500","0.0-13.0-4.38","2d_cat_multi_stim_exp1","2022-3-28","10:49:53","25","75","3","9","10","40","30","120","1","18","[""Asian""]","No","Female","1699139","null","","null","","","clear_screen","","","","","","","","","","","","","","","","","","","","","","","","",""
"","","","","","canvas-keyboard-response","208","314011","0.0-13.0-0.39","2d_cat_multi_stim_exp1","2022-3-28","10:49:53","25","75","3","9","10","40","30","120","1","18","[""Asian""]","No","Female","1699139","null","","null","","","fixation","","","","","","","","","","","","","","","","","","","","","","","","",""
"","","","","","canvas-keyboard-response","209","314522","0.0-13.0-1.39","2d_cat_multi_stim_exp1","2022-3-28","10:49:53","25","75","3","9","10","40","30","120","1","18","[""Asian""]","No","Female","1699139","null","","null","","","clear_screen","","","","","","","","","","","","","","","","","","","","","","","","",""
"","","","","","canvas-keyboard-response","210","315079","0.0-13.0-2.39","2d_cat_multi_stim_exp1","2022-3-28","10:49:53","25","75","3","9","10","40","30","120","1","18","[""Asian""]","No","Female","1699139","546","","u","learn","","learn_trial","20","70","out","1","0","","","","","","","","","","","","","","","","","","","",""
"","","","","","canvas-keyboard-response","211","316089","0.0-13.0-3.39","2d_cat_multi_stim_exp1","2022-3-28","10:49:53","25","75","3","9","10","40","30","120","1","18","[""Asian""]","No","Female","1699139","null","","null","learn_feedback","","learn_feedback","20","70","out","","","","","","","","","","","","","","","","","","","","","",""
"","","","","","canvas-keyboard-response","212","316147","0.0-13.0-4.39","2d_cat_multi_stim_exp1","2022-3-28","10:49:53","25","75","3","9","10","40","30","120","1","18","[""Asian""]","No","Female","1699139","null","","null","","","clear_screen","","","","","","","","","","","","","","","","","","","","","","","","",""
"","","","","","canvas-keyboard-response","213","316658","0.0-13.0-0.40","2d_cat_multi_stim_exp1","2022-3-28","10:49:53","25","75","3","9","10","40","30","120","1","18","[""Asian""]","No","Female","1699139","null","","null","","","fixation","","","","","","","","","","","","","","","","","","","","","","","","",""
"","","","","","canvas-keyboard-response","214","317167","0.0-13.0-1.40","2d_cat_multi_stim_exp1","2022-3-28","10:49:53","25","75","3","9","10","40","30","120","1","18","[""Asian""]","No","Female","1699139","null","","null","","","clear_screen","","","","","","","","","","","","","","","","","","","","","","","","",""
"","","","","","canvas-keyboard-response","215","318127","0.0-13.0-2.40","2d_cat_multi_stim_exp1","2022-3-28","10:49:53","25","75","3","9","10","40","30","120","1","18","[""Asian""]","No","Female","1699139","946","","i","learn","","learn_trial","36.6667","60","out","0","1","","","","","","","","","","","","","","","","","","","",""
"","","","","","canvas-keyboard-response","216","318637","0.0-13.0-3.40","2d_cat_multi_stim_exp1","2022-3-28","10:49:53","25","75","3","9","10","40","30","120","1","18","[""Asian""]","No","Female","1699139","null","","null","learn_feedback","","learn_feedback","36.6667","60","out","","","","","","","","","","","","","","","","","","","","","",""
"","","","","","canvas-keyboard-response","217","318697","0.0-13.0-4.40","2d_cat_multi_stim_exp1","2022-3-28","10:49:53","25","75","3","9","10","40","30","120","1","18","[""Asian""]","No","Female","1699139","null","","null","","","clear_screen","","","","","","","","","","","","","","","","","","","","","","","","",""
"","","","","","canvas-keyboard-response","218","319206","0.0-13.0-0.41","2d_cat_multi_stim_exp1","2022-3-28","10:49:53","25","75","3","9","10","40","30","120","1","18","[""Asian""]","No","Female","1699139","null","","null","","","fixation","","","","","","","","","","","","","","","","","","","","","","","","",""
"","","","","","canvas-keyboard-response","219","319715","0.0-13.0-1.41","2d_cat_multi_stim_exp1","2022-3-28","10:49:53","25","75","3","9","10","40","30","120","1","18","[""Asian""]","No","Female","1699139","null","","null","","","clear_screen","","","","","","","","","","","","","","","","","","","","","","","","",""
"","","","","","canvas-keyboard-response","220","321102","0.0-13.0-2.41","2d_cat_multi_stim_exp1","2022-3-28","10:49:53","25","75","3","9","10","40","30","120","1","18","[""Asian""]","No","Female","1699139","1378","","i","learn","","learn_trial","33.3333","50","out","0","1","","","","","","","","","","","","","","","","","","","",""
"","","","","","canvas-keyboard-response","221","321612","0.0-13.0-3.41","2d_cat_multi_stim_exp1","2022-3-28","10:49:53","25","75","3","9","10","40","30","120","1","18","[""Asian""]","No","Female","1699139","null","","null","learn_feedback","","learn_feedback","33.3333","50","out","","","","","","","","","","","","","","","","","","","","","",""
"","","","","","canvas-keyboard-response","222","321670","0.0-13.0-4.41","2d_cat_multi_stim_exp1","2022-3-28","10:49:53","25","75","3","9","10","40","30","120","1","18","[""Asian""]","No","Female","1699139","null","","null","","","clear_screen","","","","","","","","","","","","","","","","","","","","","","","","",""
"","","","","","canvas-keyboard-response","223","322183","0.0-13.0-0.42","2d_cat_multi_stim_exp1","2022-3-28","10:49:53","25","75","3","9","10","40","30","120","1","18","[""Asian""]","No","Female","1699139","null","","null","","","fixation","","","","","","","","","","","","","","","","","","","","","","","","",""
"","","","","","canvas-keyboard-response","224","322693","0.0-13.0-1.42","2d_cat_multi_stim_exp1","2022-3-28","10:49:53","25","75","3","9","10","40","30","120","1","18","[""Asian""]","No","Female","1699139","null","","null","","","clear_screen","","","","","","","","","","","","","","","","","","","","","","","","",""
"","","","","","canvas-keyboard-response","225","323375","0.0-13.0-2.42","2d_cat_multi_stim_exp1","2022-3-28","10:49:53","25","75","3","9","10","40","30","120","1","18","[""Asian""]","No","Female","1699139","674","","u","learn","","learn_trial","24.8654","83.9909","in","1","1","","","","","","","","","","","","","","","","","","","",""
"","","","","","canvas-keyboard-response","226","323886","0.0-13.0-3.42","2d_cat_multi_stim_exp1","2022-3-28","10:49:53","25","75","3","9","10","40","30","120","1","18","[""Asian""]","No","Female","1699139","null","","null","learn_feedback","","learn_feedback","24.8654","83.9909","in","","","","","","","","","","","","","","","","","","","","","",""
"","","","","","canvas-keyboard-response","227","323946","0.0-13.0-4.42","2d_cat_multi_stim_exp1","2022-3-28","10:49:53","25","75","3","9","10","40","30","120","1","18","[""Asian""]","No","Female","1699139","null","","null","","","clear_screen","","","","","","","","","","","","","","","","","","","","","","","","",""
"","","","","","canvas-keyboard-response","228","324456","0.0-13.0-0.43","2d_cat_multi_stim_exp1","2022-3-28","10:49:53","25","75","3","9","10","40","30","120","1","18","[""Asian""]","No","Female","1699139","null","","null","","","fixation","","","","","","","","","","","","","","","","","","","","","","","","",""
"","","","","","canvas-keyboard-response","229","324969","0.0-13.0-1.43","2d_cat_multi_stim_exp1","2022-3-28","10:49:53","25","75","3","9","10","40","30","120","1","18","[""Asian""]","No","Female","1699139","null","","null","","","clear_screen","","","","","","","","","","","","","","","","","","","","","","","","",""
"","","","","","canvas-keyboard-response","230","325895","0.0-13.0-2.43","2d_cat_multi_stim_exp1","2022-3-28","10:49:53","25","75","3","9","10","40","30","120","1","18","[""Asian""]","No","Female","1699139","916","","i","learn","","learn_trial","40","80","out","0","1","","","","","","","","","","","","","","","","","","","",""
"","","","","","canvas-keyboard-response","231","326404","0.0-13.0-3.43","2d_cat_multi_stim_exp1","2022-3-28","10:49:53","25","75","3","9","10","40","30","120","1","18","[""Asian""]","No","Female","1699139","null","","null","learn_feedback","","learn_feedback","40","80","out","","","","","","","","","","","","","","","","","","","","","",""
"","","","","","canvas-keyboard-response","232","326468","0.0-13.0-4.43","2d_cat_multi_stim_exp1","2022-3-28","10:49:53","25","75","3","9","10","40","30","120","1","18","[""Asian""]","No","Female","1699139","null","","null","","","clear_screen","","","","","","","","","","","","","","","","","","","","","","","","",""
"","","","","","canvas-keyboard-response","233","326977","0.0-13.0-0.44","2d_cat_multi_stim_exp1","2022-3-28","10:49:53","25","75","3","9","10","40","30","120","1","18","[""Asian""]","No","Female","1699139","null","","null","","","fixation","","","","","","","","","","","","","","","","","","","","","","","","",""
"","","","","","canvas-keyboard-response","234","327490","0.0-13.0-1.44","2d_cat_multi_stim_exp1","2022-3-28","10:49:53","25","75","3","9","10","40","30","120","1","18","[""Asian""]","No","Female","1699139","null","","null","","","clear_screen","","","","","","","","","","","","","","","","","","","","","","","","",""
"","","","","","canvas-keyboard-response","235","328510","0.0-13.0-2.44","2d_cat_multi_stim_exp1","2022-3-28","10:49:53","25","75","3","9","10","40","30","120","1","18","[""Asian""]","No","Female","1699139","1011","","u","learn","","learn_trial","22.5729","80.2901","in","1","1","","","","","","","","","","","","","","","","","","","",""
"","","","","","canvas-keyboard-response","236","329018","0.0-13.0-3.44","2d_cat_multi_stim_exp1","2022-3-28","10:49:53","25","75","3","9","10","40","30","120","1","18","[""Asian""]","No","Female","1699139","null","","null","learn_feedback","","learn_feedback","22.5729","80.2901","in","","","","","","","","","","","","","","","","","","","","","",""
"","","","","","canvas-keyboard-response","237","329079","0.0-13.0-4.44","2d_cat_multi_stim_exp1","2022-3-28","10:49:53","25","75","3","9","10","40","30","120","1","18","[""Asian""]","No","Female","1699139","null","","null","","","clear_screen","","","","","","","","","","","","","","","","","","","","","","","","",""
"","","","","","canvas-keyboard-response","238","329587","0.0-13.0-0.45","2d_cat_multi_stim_exp1","2022-3-28","10:49:53","25","75","3","9","10","40","30","120","1","18","[""Asian""]","No","Female","1699139","null","","null","","","fixation","","","","","","","","","","","","","","","","","","","","","","","","",""
"","","","","","canvas-keyboard-response","239","330097","0.0-13.0-1.45","2d_cat_multi_stim_exp1","2022-3-28","10:49:53","25","75","3","9","10","40","30","120","1","18","[""Asian""]","No","Female","1699139","null","","null","","","clear_screen","","","","","","","","","","","","","","","","","","","","","","","","",""
"","","","","","canvas-keyboard-response","240","330935","0.0-13.0-2.45","2d_cat_multi_stim_exp1","2022-3-28","10:49:53","25","75","3","9","10","40","30","120","1","18","[""Asian""]","No","Female","1699139","828","","i","learn","","learn_trial","23.3333","30","out","0","1","","","","","","","","","","","","","","","","","","","",""
"","","","","","canvas-keyboard-response","241","331446","0.0-13.0-3.45","2d_cat_multi_stim_exp1","2022-3-28","10:49:53","25","75","3","9","10","40","30","120","1","18","[""Asian""]","No","Female","1699139","null","","null","learn_feedback","","learn_feedback","23.3333","30","out","","","","","","","","","","","","","","","","","","","","","",""
"","","","","","canvas-keyboard-response","242","331508","0.0-13.0-4.45","2d_cat_multi_stim_exp1","2022-3-28","10:49:53","25","75","3","9","10","40","30","120","1","18","[""Asian""]","No","Female","1699139","null","","null","","","clear_screen","","","","","","","","","","","","","","","","","","","","","","","","",""
"","","","","","canvas-keyboard-response","243","332018","0.0-13.0-0.46","2d_cat_multi_stim_exp1","2022-3-28","10:49:53","25","75","3","9","10","40","30","120","1","18","[""Asian""]","No","Female","1699139","null","","null","","","fixation","","","","","","","","","","","","","","","","","","","","","","","","",""
"","","","","","canvas-keyboard-response","244","332531","0.0-13.0-1.46","2d_cat_multi_stim_exp1","2022-3-28","10:49:53","25","75","3","9","10","40","30","120","1","18","[""Asian""]","No","Female","1699139","null","","null","","","clear_screen","","","","","","","","","","","","","","","","","","","","","","","","",""
"","","","","","canvas-keyboard-response","245","333535","0.0-13.0-2.46","2d_cat_multi_stim_exp1","2022-3-28","10:49:53","25","75","3","9","10","40","30","120","1","18","[""Asian""]","No","Female","1699139","992","","u","learn","","learn_trial","13.3333","40","out","1","0","","","","","","","","","","","","","","","","","","","",""
"","","","","","canvas-keyboard-response","246","334543","0.0-13.0-3.46","2d_cat_multi_stim_exp1","2022-3-28","10:49:53","25","75","3","9","10","40","30","120","1","18","[""Asian""]","No","Female","1699139","null","","null","learn_feedback","","learn_feedback","13.3333","40","out","","","","","","","","","","","","","","","","","","","","","",""
"","","","","","canvas-keyboard-response","247","334605","0.0-13.0-4.46","2d_cat_multi_stim_exp1","2022-3-28","10:49:53","25","75","3","9","10","40","30","120","1","18","[""Asian""]","No","Female","1699139","null","","null","","","clear_screen","","","","","","","","","","","","","","","","","","","","","","","","",""
"","","","","","canvas-keyboard-response","248","335117","0.0-13.0-0.47","2d_cat_multi_stim_exp1","2022-3-28","10:49:53","25","75","3","9","10","40","30","120","1","18","[""Asian""]","No","Female","1699139","null","","null","","","fixation","","","","","","","","","","","","","","","","","","","","","","","","",""
"","","","","","canvas-keyboard-response","249","335627","0.0-13.0-1.47","2d_cat_multi_stim_exp1","2022-3-28","10:49:53","25","75","3","9","10","40","30","120","1","18","[""Asian""]","No","Female","1699139","null","","null","","","clear_screen","","","","","","","","","","","","","","","","","","","","","","","","",""
"","","","","","canvas-keyboard-response","250","336287","0.0-13.0-2.47","2d_cat_multi_stim_exp1","2022-3-28","10:49:53","25","75","3","9","10","40","30","120","1","18","[""Asian""]","No","Female","1699139","647","","i","learn","","learn_trial","36.6667","40","out","0","1","","","","","","","","","","","","","","","","","","","",""
"","","","","","canvas-keyboard-response","251","336796","0.0-13.0-3.47","2d_cat_multi_stim_exp1","2022-3-28","10:49:53","25","75","3","9","10","40","30","120","1","18","[""Asian""]","No","Female","1699139","null","","null","learn_feedback","","learn_feedback","36.6667","40","out","","","","","","","","","","","","","","","","","","","","","",""
"","","","","","canvas-keyboard-response","252","336855","0.0-13.0-4.47","2d_cat_multi_stim_exp1","2022-3-28","10:49:53","25","75","3","9","10","40","30","120","1","18","[""Asian""]","No","Female","1699139","null","","null","","","clear_screen","","","","","","","","","","","","","","","","","","","","","","","","",""
"","","","","","canvas-keyboard-response","253","337366","0.0-13.0-0.48","2d_cat_multi_stim_exp1","2022-3-28","10:49:53","25","75","3","9","10","40","30","120","1","18","[""Asian""]","No","Female","1699139","null","","null","","","fixation","","","","","","","","","","","","","","","","","","","","","","","","",""
"","","","","","canvas-keyboard-response","254","337880","0.0-13.0-1.48","2d_cat_multi_stim_exp1","2022-3-28","10:49:53","25","75","3","9","10","40","30","120","1","18","[""Asian""]","No","Female","1699139","null","","null","","","clear_screen","","","","","","","","","","","","","","","","","","","","","","","","",""
"","","","","","canvas-keyboard-response","255","338718","0.0-13.0-2.48","2d_cat_multi_stim_exp1","2022-3-28","10:49:53","25","75","3","9","10","40","30","120","1","18","[""Asian""]","No","Female","1699139","831","","u","learn","","learn_trial","25","75","in","1","1","","","","","","","","","","","","","","","","","","","",""
"","","","","","canvas-keyboard-response","256","339228","0.0-13.0-3.48","2d_cat_multi_stim_exp1","2022-3-28","10:49:53","25","75","3","9","10","40","30","120","1","18","[""Asian""]","No","Female","1699139","null","","null","learn_feedback","","learn_feedback","25","75","in","","","","","","","","","","","","","","","","","","","","","",""
"","","","","","canvas-keyboard-response","257","339282","0.0-13.0-4.48","2d_cat_multi_stim_exp1","2022-3-28","10:49:53","25","75","3","9","10","40","30","120","1","18","[""Asian""]","No","Female","1699139","null","","null","","","clear_screen","","","","","","","","","","","","","","","","","","","","","","","","",""
"","","","","","canvas-keyboard-response","258","339791","0.0-13.0-0.49","2d_cat_multi_stim_exp1","2022-3-28","10:49:53","25","75","3","9","10","40","30","120","1","18","[""Asian""]","No","Female","1699139","null","","null","","","fixation","","","","","","","","","","","","","","","","","","","","","","","","",""
"","","","","","canvas-keyboard-response","259","340302","0.0-13.0-1.49","2d_cat_multi_stim_exp1","2022-3-28","10:49:53","25","75","3","9","10","40","30","120","1","18","[""Asian""]","No","Female","1699139","null","","null","","","clear_screen","","","","","","","","","","","","","","","","","","","","","","","","",""
"","","","","","canvas-keyboard-response","260","341446","0.0-13.0-2.49","2d_cat_multi_stim_exp1","2022-3-28","10:49:53","25","75","3","9","10","40","30","120","1","18","[""Asian""]","No","Female","1699139","1133","","u","learn","","learn_trial","25","75","in","1","1","","","","","","","","","","","","","","","","","","","",""
"","","","","","canvas-keyboard-response","261","341956","0.0-13.0-3.49","2d_cat_multi_stim_exp1","2022-3-28","10:49:53","25","75","3","9","10","40","30","120","1","18","[""Asian""]","No","Female","1699139","null","","null","learn_feedback","","learn_feedback","25","75","in","","","","","","","","","","","","","","","","","","","","","",""
"","","","","","canvas-keyboard-response","262","342019","0.0-13.0-4.49","2d_cat_multi_stim_exp1","2022-3-28","10:49:53","25","75","3","9","10","40","30","120","1","18","[""Asian""]","No","Female","1699139","null","","null","","","clear_screen","","","","","","","","","","","","","","","","","","","","","","","","",""
"","","","","","canvas-keyboard-response","263","342529","0.0-13.0-0.50","2d_cat_multi_stim_exp1","2022-3-28","10:49:53","25","75","3","9","10","40","30","120","1","18","[""Asian""]","No","Female","1699139","null","","null","","","fixation","","","","","","","","","","","","","","","","","","","","","","","","",""
"","","","","","canvas-keyboard-response","264","343040","0.0-13.0-1.50","2d_cat_multi_stim_exp1","2022-3-28","10:49:53","25","75","3","9","10","40","30","120","1","18","[""Asian""]","No","Female","1699139","null","","null","","","clear_screen","","","","","","","","","","","","","","","","","","","","","","","","",""
"","","","","","canvas-keyboard-response","265","343743","0.0-13.0-2.50","2d_cat_multi_stim_exp1","2022-3-28","10:49:53","25","75","3","9","10","40","30","120","1","18","[""Asian""]","No","Female","1699139","691","","u","learn","","learn_trial","26.6667","90","out","1","0","","","","","","","","","","","","","","","","","","","",""
"","","","","","canvas-keyboard-response","266","344754","0.0-13.0-3.50","2d_cat_multi_stim_exp1","2022-3-28","10:49:53","25","75","3","9","10","40","30","120","1","18","[""Asian""]","No","Female","1699139","null","","null","learn_feedback","","learn_feedback","26.6667","90","out","","","","","","","","","","","","","","","","","","","","","",""
"","","","","","canvas-keyboard-response","267","344818","0.0-13.0-4.50","2d_cat_multi_stim_exp1","2022-3-28","10:49:53","25","75","3","9","10","40","30","120","1","18","[""Asian""]","No","Female","1699139","null","","null","","","clear_screen","","","","","","","","","","","","","","","","","","","","","","","","",""
"","","","","","canvas-keyboard-response","268","345328","0.0-13.0-0.51","2d_cat_multi_stim_exp1","2022-3-28","10:49:53","25","75","3","9","10","40","30","120","1","18","[""Asian""]","No","Female","1699139","null","","null","","","fixation","","","","","","","","","","","","","","","","","","","","","","","","",""
"","","","","","canvas-keyboard-response","269","345838","0.0-13.0-1.51","2d_cat_multi_stim_exp1","2022-3-28","10:49:53","25","75","3","9","10","40","30","120","1","18","[""Asian""]","No","Female","1699139","null","","null","","","clear_screen","","","","","","","","","","","","","","","","","","","","","","","","",""
"","","","","","canvas-keyboard-response","270","346711","0.0-13.0-2.51","2d_cat_multi_stim_exp1","2022-3-28","10:49:53","25","75","3","9","10","40","30","120","1","18","[""Asian""]","No","Female","1699139","864","","u","learn","","learn_trial","23.3333","90","out","1","0","","","","","","","","","","","","","","","","","","","",""
"","","","","","canvas-keyboard-response","271","347720","0.0-13.0-3.51","2d_cat_multi_stim_exp1","2022-3-28","10:49:53","25","75","3","9","10","40","30","120","1","18","[""Asian""]","No","Female","1699139","null","","null","learn_feedback","","learn_feedback","23.3333","90","out","","","","","","","","","","","","","","","","","","","","","",""
"","","","","","canvas-keyboard-response","272","347784","0.0-13.0-4.51","2d_cat_multi_stim_exp1","2022-3-28","10:49:53","25","75","3","9","10","40","30","120","1","18","[""Asian""]","No","Female","1699139","null","","null","","","clear_screen","","","","","","","","","","","","","","","","","","","","","","","","",""
"","","","","","canvas-keyboard-response","273","348294","0.0-13.0-0.52","2d_cat_multi_stim_exp1","2022-3-28","10:49:53","25","75","3","9","10","40","30","120","1","18","[""Asian""]","No","Female","1699139","null","","null","","","fixation","","","","","","","","","","","","","","","","","","","","","","","","",""
"","","","","","canvas-keyboard-response","274","348804","0.0-13.0-1.52","2d_cat_multi_stim_exp1","2022-3-28","10:49:53","25","75","3","9","10","40","30","120","1","18","[""Asian""]","No","Female","1699139","null","","null","","","clear_screen","","","","","","","","","","","","","","","","","","","","","","","","",""
"","","","","","canvas-keyboard-response","275","351103","0.0-13.0-2.52","2d_cat_multi_stim_exp1","2022-3-28","10:49:53","25","75","3","9","10","40","30","120","1","18","[""Asian""]","No","Female","1699139","2287","","i","learn","","learn_trial","22.9268","68.4948","in","0","0","","","","","","","","","","","","","","","","","","","",""
"","","","","","canvas-keyboard-response","276","352115","0.0-13.0-3.52","2d_cat_multi_stim_exp1","2022-3-28","10:49:53","25","75","3","9","10","40","30","120","1","18","[""Asian""]","No","Female","1699139","null","","null","learn_feedback","","learn_feedback","22.9268","68.4948","in","","","","","","","","","","","","","","","","","","","","","",""
"","","","","","canvas-keyboard-response","277","352179","0.0-13.0-4.52","2d_cat_multi_stim_exp1","2022-3-28","10:49:53","25","75","3","9","10","40","30","120","1","18","[""Asian""]","No","Female","1699139","null","","null","","","clear_screen","","","","","","","","","","","","","","","","","","","","","","","","",""
"","","","","","canvas-keyboard-response","278","352687","0.0-13.0-0.53","2d_cat_multi_stim_exp1","2022-3-28","10:49:53","25","75","3","9","10","40","30","120","1","18","[""Asian""]","No","Female","1699139","null","","null","","","fixation","","","","","","","","","","","","","","","","","","","","","","","","",""
"","","","","","canvas-keyboard-response","279","353197","0.0-13.0-1.53","2d_cat_multi_stim_exp1","2022-3-28","10:49:53","25","75","3","9","10","40","30","120","1","18","[""Asian""]","No","Female","1699139","null","","null","","","clear_screen","","","","","","","","","","","","","","","","","","","","","","","","",""
"","","","","","canvas-keyboard-response","280","354415","0.0-13.0-2.53","2d_cat_multi_stim_exp1","2022-3-28","10:49:53","25","75","3","9","10","40","30","120","1","18","[""Asian""]","No","Female","1699139","1207","","i","learn","","learn_trial","10","100","out","0","1","","","","","","","","","","","","","","","","","","","",""
"","","","","","canvas-keyboard-response","281","354924","0.0-13.0-3.53","2d_cat_multi_stim_exp1","2022-3-28","10:49:53","25","75","3","9","10","40","30","120","1","18","[""Asian""]","No","Female","1699139","null","","null","learn_feedback","","learn_feedback","10","100","out","","","","","","","","","","","","","","","","","","","","","",""
"","","","","","canvas-keyboard-response","282","354985","0.0-13.0-4.53","2d_cat_multi_stim_exp1","2022-3-28","10:49:53","25","75","3","9","10","40","30","120","1","18","[""Asian""]","No","Female","1699139","null","","null","","","clear_screen","","","","","","","","","","","","","","","","","","","","","","","","",""
"","","","","","canvas-keyboard-response","283","355493","0.0-13.0-0.54","2d_cat_multi_stim_exp1","2022-3-28","10:49:53","25","75","3","9","10","40","30","120","1","18","[""Asian""]","No","Female","1699139","null","","null","","","fixation","","","","","","","","","","","","","","","","","","","","","","","","",""
"","","","","","canvas-keyboard-response","284","356006","0.0-13.0-1.54","2d_cat_multi_stim_exp1","2022-3-28","10:49:53","25","75","3","9","10","40","30","120","1","18","[""Asian""]","No","Female","1699139","null","","null","","","clear_screen","","","","","","","","","","","","","","","","","","","","","","","","",""
"","","","","","canvas-keyboard-response","285","356679","0.0-13.0-2.54","2d_cat_multi_stim_exp1","2022-3-28","10:49:53","25","75","3","9","10","40","30","120","1","18","[""Asian""]","No","Female","1699139","663","","u","learn","","learn_trial","23.3473","82.5112","in","1","1","","","","","","","","","","","","","","","","","","","",""
"","","","","","canvas-keyboard-response","286","357187","0.0-13.0-3.54","2d_cat_multi_stim_exp1","2022-3-28","10:49:53","25","75","3","9","10","40","30","120","1","18","[""Asian""]","No","Female","1699139","null","","null","learn_feedback","","learn_feedback","23.3473","82.5112","in","","","","","","","","","","","","","","","","","","","","","",""
"","","","","","canvas-keyboard-response","287","357248","0.0-13.0-4.54","2d_cat_multi_stim_exp1","2022-3-28","10:49:53","25","75","3","9","10","40","30","120","1","18","[""Asian""]","No","Female","1699139","null","","null","","","clear_screen","","","","","","","","","","","","","","","","","","","","","","","","",""
"","","","","","canvas-keyboard-response","288","357758","0.0-13.0-0.55","2d_cat_multi_stim_exp1","2022-3-28","10:49:53","25","75","3","9","10","40","30","120","1","18","[""Asian""]","No","Female","1699139","null","","null","","","fixation","","","","","","","","","","","","","","","","","","","","","","","","",""
"","","","","","canvas-keyboard-response","289","358271","0.0-13.0-1.55","2d_cat_multi_stim_exp1","2022-3-28","10:49:53","25","75","3","9","10","40","30","120","1","18","[""Asian""]","No","Female","1699139","null","","null","","","clear_screen","","","","","","","","","","","","","","","","","","","","","","","","",""
"","","","","","canvas-keyboard-response","290","358895","0.0-13.0-2.55","2d_cat_multi_stim_exp1","2022-3-28","10:49:53","25","75","3","9","10","40","30","120","1","18","[""Asian""]","No","Female","1699139","616","","u","learn","","learn_trial","25","75","in","1","1","","","","","","","","","","","","","","","","","","","",""
"","","","","","canvas-keyboard-response","291","359407","0.0-13.0-3.55","2d_cat_multi_stim_exp1","2022-3-28","10:49:53","25","75","3","9","10","40","30","120","1","18","[""Asian""]","No","Female","1699139","null","","null","learn_feedback","","learn_feedback","25","75","in","","","","","","","","","","","","","","","","","","","","","",""
"","","","","","canvas-keyboard-response","292","359466","0.0-13.0-4.55","2d_cat_multi_stim_exp1","2022-3-28","10:49:53","25","75","3","9","10","40","30","120","1","18","[""Asian""]","No","Female","1699139","null","","null","","","clear_screen","","","","","","","","","","","","","","","","","","","","","","","","",""
"","","","","","canvas-keyboard-response","293","359977","0.0-13.0-0.56","2d_cat_multi_stim_exp1","2022-3-28","10:49:53","25","75","3","9","10","40","30","120","1","18","[""Asian""]","No","Female","1699139","null","","null","","","fixation","","","","","","","","","","","","","","","","","","","","","","","","",""
"","","","","","canvas-keyboard-response","294","360490","0.0-13.0-1.56","2d_cat_multi_stim_exp1","2022-3-28","10:49:53","25","75","3","9","10","40","30","120","1","18","[""Asian""]","No","Female","1699139","null","","null","","","clear_screen","","","","","","","","","","","","","","","","","","","","","","","","",""
"","","","","","canvas-keyboard-response","295","362054","0.0-13.0-2.56","2d_cat_multi_stim_exp1","2022-3-28","10:49:53","25","75","3","9","10","40","30","120","1","18","[""Asian""]","No","Female","1699139","1556","","i","learn","","learn_trial","16.6667","120","out","0","1","","","","","","","","","","","","","","","","","","","",""
"","","","","","canvas-keyboard-response","296","362563","0.0-13.0-3.56","2d_cat_multi_stim_exp1","2022-3-28","10:49:53","25","75","3","9","10","40","30","120","1","18","[""Asian""]","No","Female","1699139","null","","null","learn_feedback","","learn_feedback","16.6667","120","out","","","","","","","","","","","","","","","","","","","","","",""
"","","","","","canvas-keyboard-response","297","362623","0.0-13.0-4.56","2d_cat_multi_stim_exp1","2022-3-28","10:49:53","25","75","3","9","10","40","30","120","1","18","[""Asian""]","No","Female","1699139","null","","null","","","clear_screen","","","","","","","","","","","","","","","","","","","","","","","","",""
"","","","","","canvas-keyboard-response","298","363131","0.0-13.0-0.57","2d_cat_multi_stim_exp1","2022-3-28","10:49:53","25","75","3","9","10","40","30","120","1","18","[""Asian""]","No","Female","1699139","null","","null","","","fixation","","","","","","","","","","","","","","","","","","","","","","","","",""
"","","","","","canvas-keyboard-response","299","363641","0.0-13.0-1.57","2d_cat_multi_stim_exp1","2022-3-28","10:49:53","25","75","3","9","10","40","30","120","1","18","[""Asian""]","No","Female","1699139","null","","null","","","clear_screen","","","","","","","","","","","","","","","","","","","","","","","","",""
