"success","timeout","failed_images","failed_audio","failed_video","trial_type","trial_index","time_elapsed","internal_node_id","exp_name","date","time","angle_mean_in","radius_mean_in","angle_sd_in","radius_sd_in","angle_min_out","angle_max_out","radius_min_out","radius_max_out","sub_n","age","race","ethnicity","gender","exp_duration","rt","stimulus","response","exp_trial_type","view_history","screen_id","angle","radius","distribution","choice","correct","order","angle_a","radius_a","angle_b","radius_b","angle_c","radius_c","jkl_correct","transfer_trial_type","choice_set","abc_correct","tc_correct","tdc_a","tdc_b","tdc_c","pair","category_a","category_b","category_c","question_order"
"true","false","[]","[]","[]","preload","0","32","0.0-0.0","2d_cat_multi_stim_exp1","2022-3-28","10:32:14","25","75","3","9","10","40","30","120","2","19","[""White""]","No","Male","1834844","","","","","","","","","","","","","","","","","","","","","","","","","","","","","","",""
"","","","","","html-button-response","1","3329","0.0-1.0","2d_cat_multi_stim_exp1","2022-3-28","10:32:14","25","75","3","9","10","40","30","120","2","19","[""White""]","No","Male","1834844","3293","<p><b>WAIT!</b></p></p><p>Did you mean to start this experiment? Only Walker, Esther, and Sean are running participants on this experiment.</p>","0","","","","","","","","","","","","","","","","","","","","","","","","","","","",""
"","","","","","survey-html-form","2","5828","0.0-2.0","2d_cat_multi_stim_exp1","2022-3-28","10:32:14","25","75","3","9","10","40","30","120","2","19","[""White""]","No","Male","1834844","2489","","{""response"":""2""}","enter-sub-number","","","","","","","","","","","","","","","","","","","","","","","","","","",""
"true","","","","","fullscreen","3","25007","0.0-3.0","2d_cat_multi_stim_exp1","2022-3-28","10:32:14","25","75","3","9","10","40","30","120","2","19","[""White""]","No","Male","1834844","","","","","","","","","","","","","","","","","","","","","","","","","","","","","","",""
"","","","","","image-button-response","4","28759","0.0-4.0","2d_cat_multi_stim_exp1","2022-3-28","10:32:14","25","75","3","9","10","40","30","120","2","19","[""White""]","No","Male","1834844","3744","consent.png","0","","","","","","","","","","","","","","","","","","","","","","","","","","","",""
"","","","","","html-button-response","5","34271","0.0-5.0","2d_cat_multi_stim_exp1","2022-3-28","10:32:14","25","75","3","9","10","40","30","120","2","19","[""White""]","No","Male","1834844","5507","<div style= ""font-size:25px;"" <p> <strong> Welcome to the experiment! </strong><br> <p style=""color:#8B0000; font-size:25px;""><strong> Please do NOT exit full screen until you are done with the experiment. </strong> </p><p style=""font-size:25px;color:#8B0000;""> <strong> The experiment will be canceled and your data will be lost <br> if you try to go back or refresh the page at any point during the experiment.</strong> </p><br><p> <strong> Thanks in advance for your contribution to our research! </strong></p>","0","","","","","","","","","","","","","","","","","","","","","","","","","","","",""
"","","","","","instructions","6","66870","0.0-6.0","2d_cat_multi_stim_exp1","2022-3-28","10:32:14","25","75","3","9","10","40","30","120","2","19","[""White""]","No","Male","1834844","32595","","","","[{""page_index"":0,""viewing_time"":7779},{""page_index"":1,""viewing_time"":3080},{""page_index"":2,""viewing_time"":10384},{""page_index"":3,""viewing_time"":11352}]","instructions_1","","","","","","","","","","","","","","","","","","","","","","","","",""
"","","","","","instructions","7","69246","0.0-7.0","2d_cat_multi_stim_exp1","2022-3-28","10:32:14","25","75","3","9","10","40","30","120","2","19","[""White""]","No","Male","1834844","2375","","","","[{""page_index"":0,""viewing_time"":2374}]","Click to see the kinds of turtles that will appear in the study.","","","","","","","","","","","","","","","","","","","","","","","","",""
"","","","","","canvas-keyboard-response","8","84267","0.0-8.0","2d_cat_multi_stim_exp1","2022-3-28","10:32:14","25","75","3","9","10","40","30","120","2","19","[""White""]","No","Male","1834844","null","","null","","","demo_range","","","","","","","","","","","","","","","","","","","","","","","","",""
"","","","","","instructions","9","86439","0.0-9.0","2d_cat_multi_stim_exp1","2022-3-28","10:32:14","25","75","3","9","10","40","30","120","2","19","[""White""]","No","Male","1834844","1670","","","","[{""page_index"":0,""viewing_time"":1669}]","Click to see some turtles in the subspecies.","","","","","","","","","","","","","","","","","","","","","","","","",""
"","","","","","canvas-keyboard-response","10","101460","0.0-10.0","2d_cat_multi_stim_exp1","2022-3-28","10:32:14","25","75","3","9","10","40","30","120","2","19","[""White""]","No","Male","1834844","null","","null","","","demo_in","","","","","","","","","","","","","","","","","","","","","","","","",""
"","","","","","instructions","11","133694","0.0-11.0","2d_cat_multi_stim_exp1","2022-3-28","10:32:14","25","75","3","9","10","40","30","120","2","19","[""White""]","No","Male","1834844","31731","","","","[{""page_index"":0,""viewing_time"":12026},{""page_index"":1,""viewing_time"":14921},{""page_index"":2,""viewing_time"":4784}]","instructions_2","","","","","","","","","","","","","","","","","","","","","","","","",""
"","","","","","instructions","12","135183","0.0-12.0","2d_cat_multi_stim_exp1","2022-3-28","10:32:14","25","75","3","9","10","40","30","120","2","19","[""White""]","No","Male","1834844","1486","","","","[{""page_index"":0,""viewing_time"":1485}]","Click to begin the first phase of the experiment.","","","","","","","","","","","","","","","","","","","","","","","","",""
"","","","","","canvas-keyboard-response","13","135692","0.0-13.0-0.0","2d_cat_multi_stim_exp1","2022-3-28","10:32:14","25","75","3","9","10","40","30","120","2","19","[""White""]","No","Male","1834844","null","","null","","","fixation","","","","","","","","","","","","","","","","","","","","","","","","",""
"","","","","","canvas-keyboard-response","14","136201","0.0-13.0-1.0","2d_cat_multi_stim_exp1","2022-3-28","10:32:14","25","75","3","9","10","40","30","120","2","19","[""White""]","No","Male","1834844","null","","null","","","clear_screen","","","","","","","","","","","","","","","","","","","","","","","","",""
"","","","","","canvas-keyboard-response","15","141927","0.0-13.0-2.0","2d_cat_multi_stim_exp1","2022-3-28","10:32:14","25","75","3","9","10","40","30","120","2","19","[""White""]","No","Male","1834844","5717","","u","learn","","learn_trial","10","60","out","1","0","","","","","","","","","","","","","","","","","","","",""
"","","","","","canvas-keyboard-response","16","142943","0.0-13.0-3.0","2d_cat_multi_stim_exp1","2022-3-28","10:32:14","25","75","3","9","10","40","30","120","2","19","[""White""]","No","Male","1834844","null","","null","learn_feedback","","learn_feedback","10","60","out","","","","","","","","","","","","","","","","","","","","","",""
"","","","","","canvas-keyboard-response","17","143001","0.0-13.0-4.0","2d_cat_multi_stim_exp1","2022-3-28","10:32:14","25","75","3","9","10","40","30","120","2","19","[""White""]","No","Male","1834844","null","","null","","","clear_screen","","","","","","","","","","","","","","","","","","","","","","","","",""
"","","","","","canvas-keyboard-response","18","143510","0.0-13.0-0.1","2d_cat_multi_stim_exp1","2022-3-28","10:32:14","25","75","3","9","10","40","30","120","2","19","[""White""]","No","Male","1834844","null","","null","","","fixation","","","","","","","","","","","","","","","","","","","","","","","","",""
"","","","","","canvas-keyboard-response","19","144019","0.0-13.0-1.1","2d_cat_multi_stim_exp1","2022-3-28","10:32:14","25","75","3","9","10","40","30","120","2","19","[""White""]","No","Male","1834844","null","","null","","","clear_screen","","","","","","","","","","","","","","","","","","","","","","","","",""
"","","","","","canvas-keyboard-response","20","145614","0.0-13.0-2.1","2d_cat_multi_stim_exp1","2022-3-28","10:32:14","25","75","3","9","10","40","30","120","2","19","[""White""]","No","Male","1834844","1586","","u","learn","","learn_trial","26.6667","110","out","1","0","","","","","","","","","","","","","","","","","","","",""
"","","","","","canvas-keyboard-response","21","146625","0.0-13.0-3.1","2d_cat_multi_stim_exp1","2022-3-28","10:32:14","25","75","3","9","10","40","30","120","2","19","[""White""]","No","Male","1834844","null","","null","learn_feedback","","learn_feedback","26.6667","110","out","","","","","","","","","","","","","","","","","","","","","",""
"","","","","","canvas-keyboard-response","22","146683","0.0-13.0-4.1","2d_cat_multi_stim_exp1","2022-3-28","10:32:14","25","75","3","9","10","40","30","120","2","19","[""White""]","No","Male","1834844","null","","null","","","clear_screen","","","","","","","","","","","","","","","","","","","","","","","","",""
"","","","","","canvas-keyboard-response","23","147192","0.0-13.0-0.2","2d_cat_multi_stim_exp1","2022-3-28","10:32:14","25","75","3","9","10","40","30","120","2","19","[""White""]","No","Male","1834844","null","","null","","","fixation","","","","","","","","","","","","","","","","","","","","","","","","",""
"","","","","","canvas-keyboard-response","24","147700","0.0-13.0-1.2","2d_cat_multi_stim_exp1","2022-3-28","10:32:14","25","75","3","9","10","40","30","120","2","19","[""White""]","No","Male","1834844","null","","null","","","clear_screen","","","","","","","","","","","","","","","","","","","","","","","","",""
"","","","","","canvas-keyboard-response","25","150255","0.0-13.0-2.2","2d_cat_multi_stim_exp1","2022-3-28","10:32:14","25","75","3","9","10","40","30","120","2","19","[""White""]","No","Male","1834844","2547","","u","learn","","learn_trial","16.6667","60","out","1","0","","","","","","","","","","","","","","","","","","","",""
"","","","","","canvas-keyboard-response","26","151264","0.0-13.0-3.2","2d_cat_multi_stim_exp1","2022-3-28","10:32:14","25","75","3","9","10","40","30","120","2","19","[""White""]","No","Male","1834844","null","","null","learn_feedback","","learn_feedback","16.6667","60","out","","","","","","","","","","","","","","","","","","","","","",""
"","","","","","canvas-keyboard-response","27","151323","0.0-13.0-4.2","2d_cat_multi_stim_exp1","2022-3-28","10:32:14","25","75","3","9","10","40","30","120","2","19","[""White""]","No","Male","1834844","null","","null","","","clear_screen","","","","","","","","","","","","","","","","","","","","","","","","",""
"","","","","","canvas-keyboard-response","28","151832","0.0-13.0-0.3","2d_cat_multi_stim_exp1","2022-3-28","10:32:14","25","75","3","9","10","40","30","120","2","19","[""White""]","No","Male","1834844","null","","null","","","fixation","","","","","","","","","","","","","","","","","","","","","","","","",""
"","","","","","canvas-keyboard-response","29","152340","0.0-13.0-1.3","2d_cat_multi_stim_exp1","2022-3-28","10:32:14","25","75","3","9","10","40","30","120","2","19","[""White""]","No","Male","1834844","null","","null","","","clear_screen","","","","","","","","","","","","","","","","","","","","","","","","",""
"","","","","","canvas-keyboard-response","30","152894","0.0-13.0-2.3","2d_cat_multi_stim_exp1","2022-3-28","10:32:14","25","75","3","9","10","40","30","120","2","19","[""White""]","No","Male","1834844","545","","i","learn","","learn_trial","29.2426","62.2721","in","0","0","","","","","","","","","","","","","","","","","","","",""
"","","","","","canvas-keyboard-response","31","153906","0.0-13.0-3.3","2d_cat_multi_stim_exp1","2022-3-28","10:32:14","25","75","3","9","10","40","30","120","2","19","[""White""]","No","Male","1834844","null","","null","learn_feedback","","learn_feedback","29.2426","62.2721","in","","","","","","","","","","","","","","","","","","","","","",""
"","","","","","canvas-keyboard-response","32","153965","0.0-13.0-4.3","2d_cat_multi_stim_exp1","2022-3-28","10:32:14","25","75","3","9","10","40","30","120","2","19","[""White""]","No","Male","1834844","null","","null","","","clear_screen","","","","","","","","","","","","","","","","","","","","","","","","",""
"","","","","","canvas-keyboard-response","33","154473","0.0-13.0-0.4","2d_cat_multi_stim_exp1","2022-3-28","10:32:14","25","75","3","9","10","40","30","120","2","19","[""White""]","No","Male","1834844","null","","null","","","fixation","","","","","","","","","","","","","","","","","","","","","","","","",""
"","","","","","canvas-keyboard-response","34","154981","0.0-13.0-1.4","2d_cat_multi_stim_exp1","2022-3-28","10:32:14","25","75","3","9","10","40","30","120","2","19","[""White""]","No","Male","1834844","null","","null","","","clear_screen","","","","","","","","","","","","","","","","","","","","","","","","",""
"","","","","","canvas-keyboard-response","35","155407","0.0-13.0-2.4","2d_cat_multi_stim_exp1","2022-3-28","10:32:14","25","75","3","9","10","40","30","120","2","19","[""White""]","No","Male","1834844","416","","u","learn","","learn_trial","25","75","in","1","1","","","","","","","","","","","","","","","","","","","",""
"","","","","","canvas-keyboard-response","36","155915","0.0-13.0-3.4","2d_cat_multi_stim_exp1","2022-3-28","10:32:14","25","75","3","9","10","40","30","120","2","19","[""White""]","No","Male","1834844","null","","null","learn_feedback","","learn_feedback","25","75","in","","","","","","","","","","","","","","","","","","","","","",""
"","","","","","canvas-keyboard-response","37","155973","0.0-13.0-4.4","2d_cat_multi_stim_exp1","2022-3-28","10:32:14","25","75","3","9","10","40","30","120","2","19","[""White""]","No","Male","1834844","null","","null","","","clear_screen","","","","","","","","","","","","","","","","","","","","","","","","",""
"","","","","","canvas-keyboard-response","38","156481","0.0-13.0-0.5","2d_cat_multi_stim_exp1","2022-3-28","10:32:14","25","75","3","9","10","40","30","120","2","19","[""White""]","No","Male","1834844","null","","null","","","fixation","","","","","","","","","","","","","","","","","","","","","","","","",""
"","","","","","canvas-keyboard-response","39","156990","0.0-13.0-1.5","2d_cat_multi_stim_exp1","2022-3-28","10:32:14","25","75","3","9","10","40","30","120","2","19","[""White""]","No","Male","1834844","null","","null","","","clear_screen","","","","","","","","","","","","","","","","","","","","","","","","",""
"","","","","","canvas-keyboard-response","40","158222","0.0-13.0-2.5","2d_cat_multi_stim_exp1","2022-3-28","10:32:14","25","75","3","9","10","40","30","120","2","19","[""White""]","No","Male","1834844","1223","","u","learn","","learn_trial","13.3333","100","out","1","0","","","","","","","","","","","","","","","","","","","",""
"","","","","","canvas-keyboard-response","41","159232","0.0-13.0-3.5","2d_cat_multi_stim_exp1","2022-3-28","10:32:14","25","75","3","9","10","40","30","120","2","19","[""White""]","No","Male","1834844","null","","null","learn_feedback","","learn_feedback","13.3333","100","out","","","","","","","","","","","","","","","","","","","","","",""
"","","","","","canvas-keyboard-response","42","159290","0.0-13.0-4.5","2d_cat_multi_stim_exp1","2022-3-28","10:32:14","25","75","3","9","10","40","30","120","2","19","[""White""]","No","Male","1834844","null","","null","","","clear_screen","","","","","","","","","","","","","","","","","","","","","","","","",""
"","","","","","canvas-keyboard-response","43","159798","0.0-13.0-0.6","2d_cat_multi_stim_exp1","2022-3-28","10:32:14","25","75","3","9","10","40","30","120","2","19","[""White""]","No","Male","1834844","null","","null","","","fixation","","","","","","","","","","","","","","","","","","","","","","","","",""
"","","","","","canvas-keyboard-response","44","160306","0.0-13.0-1.6","2d_cat_multi_stim_exp1","2022-3-28","10:32:14","25","75","3","9","10","40","30","120","2","19","[""White""]","No","Male","1834844","null","","null","","","clear_screen","","","","","","","","","","","","","","","","","","","","","","","","",""
"","","","","","canvas-keyboard-response","45","160918","0.0-13.0-2.6","2d_cat_multi_stim_exp1","2022-3-28","10:32:14","25","75","3","9","10","40","30","120","2","19","[""White""]","No","Male","1834844","603","","i","learn","","learn_trial","23.8209","83.2757","in","0","0","","","","","","","","","","","","","","","","","","","",""
"","","","","","canvas-keyboard-response","46","161930","0.0-13.0-3.6","2d_cat_multi_stim_exp1","2022-3-28","10:32:14","25","75","3","9","10","40","30","120","2","19","[""White""]","No","Male","1834844","null","","null","learn_feedback","","learn_feedback","23.8209","83.2757","in","","","","","","","","","","","","","","","","","","","","","",""
"","","","","","canvas-keyboard-response","47","161990","0.0-13.0-4.6","2d_cat_multi_stim_exp1","2022-3-28","10:32:14","25","75","3","9","10","40","30","120","2","19","[""White""]","No","Male","1834844","null","","null","","","clear_screen","","","","","","","","","","","","","","","","","","","","","","","","",""
"","","","","","canvas-keyboard-response","48","162498","0.0-13.0-0.7","2d_cat_multi_stim_exp1","2022-3-28","10:32:14","25","75","3","9","10","40","30","120","2","19","[""White""]","No","Male","1834844","null","","null","","","fixation","","","","","","","","","","","","","","","","","","","","","","","","",""
"","","","","","canvas-keyboard-response","49","163006","0.0-13.0-1.7","2d_cat_multi_stim_exp1","2022-3-28","10:32:14","25","75","3","9","10","40","30","120","2","19","[""White""]","No","Male","1834844","null","","null","","","clear_screen","","","","","","","","","","","","","","","","","","","","","","","","",""
"","","","","","canvas-keyboard-response","50","163295","0.0-13.0-2.7","2d_cat_multi_stim_exp1","2022-3-28","10:32:14","25","75","3","9","10","40","30","120","2","19","[""White""]","No","Male","1834844","280","","u","learn","","learn_trial","33.3333","40","out","1","0","","","","","","","","","","","","","","","","","","","",""
"","","","","","canvas-keyboard-response","51","164303","0.0-13.0-3.7","2d_cat_multi_stim_exp1","2022-3-28","10:32:14","25","75","3","9","10","40","30","120","2","19","[""White""]","No","Male","1834844","null","","null","learn_feedback","","learn_feedback","33.3333","40","out","","","","","","","","","","","","","","","","","","","","","",""
"","","","","","canvas-keyboard-response","52","164362","0.0-13.0-4.7","2d_cat_multi_stim_exp1","2022-3-28","10:32:14","25","75","3","9","10","40","30","120","2","19","[""White""]","No","Male","1834844","null","","null","","","clear_screen","","","","","","","","","","","","","","","","","","","","","","","","",""
"","","","","","canvas-keyboard-response","53","164870","0.0-13.0-0.8","2d_cat_multi_stim_exp1","2022-3-28","10:32:14","25","75","3","9","10","40","30","120","2","19","[""White""]","No","Male","1834844","null","","null","","","fixation","","","","","","","","","","","","","","","","","","","","","","","","",""
"","","","","","canvas-keyboard-response","54","165379","0.0-13.0-1.8","2d_cat_multi_stim_exp1","2022-3-28","10:32:14","25","75","3","9","10","40","30","120","2","19","[""White""]","No","Male","1834844","null","","null","","","clear_screen","","","","","","","","","","","","","","","","","","","","","","","","",""
"","","","","","canvas-keyboard-response","55","166015","0.0-13.0-2.8","2d_cat_multi_stim_exp1","2022-3-28","10:32:14","25","75","3","9","10","40","30","120","2","19","[""White""]","No","Male","1834844","627","","u","learn","","learn_trial","22.9268","68.4948","in","1","1","","","","","","","","","","","","","","","","","","","",""
"","","","","","canvas-keyboard-response","56","166525","0.0-13.0-3.8","2d_cat_multi_stim_exp1","2022-3-28","10:32:14","25","75","3","9","10","40","30","120","2","19","[""White""]","No","Male","1834844","null","","null","learn_feedback","","learn_feedback","22.9268","68.4948","in","","","","","","","","","","","","","","","","","","","","","",""
"","","","","","canvas-keyboard-response","57","166582","0.0-13.0-4.8","2d_cat_multi_stim_exp1","2022-3-28","10:32:14","25","75","3","9","10","40","30","120","2","19","[""White""]","No","Male","1834844","null","","null","","","clear_screen","","","","","","","","","","","","","","","","","","","","","","","","",""
"","","","","","canvas-keyboard-response","58","167090","0.0-13.0-0.9","2d_cat_multi_stim_exp1","2022-3-28","10:32:14","25","75","3","9","10","40","30","120","2","19","[""White""]","No","Male","1834844","null","","null","","","fixation","","","","","","","","","","","","","","","","","","","","","","","","",""
"","","","","","canvas-keyboard-response","59","167599","0.0-13.0-1.9","2d_cat_multi_stim_exp1","2022-3-28","10:32:14","25","75","3","9","10","40","30","120","2","19","[""White""]","No","Male","1834844","null","","null","","","clear_screen","","","","","","","","","","","","","","","","","","","","","","","","",""
"","","","","","canvas-keyboard-response","60","168431","0.0-13.0-2.9","2d_cat_multi_stim_exp1","2022-3-28","10:32:14","25","75","3","9","10","40","30","120","2","19","[""White""]","No","Male","1834844","822","","u","learn","","learn_trial","16.6667","70","out","1","0","","","","","","","","","","","","","","","","","","","",""
"","","","","","canvas-keyboard-response","61","169440","0.0-13.0-3.9","2d_cat_multi_stim_exp1","2022-3-28","10:32:14","25","75","3","9","10","40","30","120","2","19","[""White""]","No","Male","1834844","null","","null","learn_feedback","","learn_feedback","16.6667","70","out","","","","","","","","","","","","","","","","","","","","","",""
"","","","","","canvas-keyboard-response","62","169501","0.0-13.0-4.9","2d_cat_multi_stim_exp1","2022-3-28","10:32:14","25","75","3","9","10","40","30","120","2","19","[""White""]","No","Male","1834844","null","","null","","","clear_screen","","","","","","","","","","","","","","","","","","","","","","","","",""
"","","","","","canvas-keyboard-response","63","170012","0.0-13.0-0.10","2d_cat_multi_stim_exp1","2022-3-28","10:32:14","25","75","3","9","10","40","30","120","2","19","[""White""]","No","Male","1834844","null","","null","","","fixation","","","","","","","","","","","","","","","","","","","","","","","","",""
"","","","","","canvas-keyboard-response","64","170522","0.0-13.0-1.10","2d_cat_multi_stim_exp1","2022-3-28","10:32:14","25","75","3","9","10","40","30","120","2","19","[""White""]","No","Male","1834844","null","","null","","","clear_screen","","","","","","","","","","","","","","","","","","","","","","","","",""
"","","","","","canvas-keyboard-response","65","170887","0.0-13.0-2.10","2d_cat_multi_stim_exp1","2022-3-28","10:32:14","25","75","3","9","10","40","30","120","2","19","[""White""]","No","Male","1834844","354","","i","learn","","learn_trial","20.7574","62.2721","in","0","0","","","","","","","","","","","","","","","","","","","",""
"","","","","","canvas-keyboard-response","66","171897","0.0-13.0-3.10","2d_cat_multi_stim_exp1","2022-3-28","10:32:14","25","75","3","9","10","40","30","120","2","19","[""White""]","No","Male","1834844","null","","null","learn_feedback","","learn_feedback","20.7574","62.2721","in","","","","","","","","","","","","","","","","","","","","","",""
"","","","","","canvas-keyboard-response","67","171958","0.0-13.0-4.10","2d_cat_multi_stim_exp1","2022-3-28","10:32:14","25","75","3","9","10","40","30","120","2","19","[""White""]","No","Male","1834844","null","","null","","","clear_screen","","","","","","","","","","","","","","","","","","","","","","","","",""
"","","","","","canvas-keyboard-response","68","172467","0.0-13.0-0.11","2d_cat_multi_stim_exp1","2022-3-28","10:32:14","25","75","3","9","10","40","30","120","2","19","[""White""]","No","Male","1834844","null","","null","","","fixation","","","","","","","","","","","","","","","","","","","","","","","","",""
"","","","","","canvas-keyboard-response","69","172976","0.0-13.0-1.11","2d_cat_multi_stim_exp1","2022-3-28","10:32:14","25","75","3","9","10","40","30","120","2","19","[""White""]","No","Male","1834844","null","","null","","","clear_screen","","","","","","","","","","","","","","","","","","","","","","","","",""
"","","","","","canvas-keyboard-response","70","173543","0.0-13.0-2.11","2d_cat_multi_stim_exp1","2022-3-28","10:32:14","25","75","3","9","10","40","30","120","2","19","[""White""]","No","Male","1834844","557","","i","learn","","learn_trial","25","75","in","0","0","","","","","","","","","","","","","","","","","","","",""
"","","","","","canvas-keyboard-response","71","174553","0.0-13.0-3.11","2d_cat_multi_stim_exp1","2022-3-28","10:32:14","25","75","3","9","10","40","30","120","2","19","[""White""]","No","Male","1834844","null","","null","learn_feedback","","learn_feedback","25","75","in","","","","","","","","","","","","","","","","","","","","","",""
"","","","","","canvas-keyboard-response","72","174612","0.0-13.0-4.11","2d_cat_multi_stim_exp1","2022-3-28","10:32:14","25","75","3","9","10","40","30","120","2","19","[""White""]","No","Male","1834844","null","","null","","","clear_screen","","","","","","","","","","","","","","","","","","","","","","","","",""
"","","","","","canvas-keyboard-response","73","175120","0.0-13.0-0.12","2d_cat_multi_stim_exp1","2022-3-28","10:32:14","25","75","3","9","10","40","30","120","2","19","[""White""]","No","Male","1834844","null","","null","","","fixation","","","","","","","","","","","","","","","","","","","","","","","","",""
"","","","","","canvas-keyboard-response","74","175629","0.0-13.0-1.12","2d_cat_multi_stim_exp1","2022-3-28","10:32:14","25","75","3","9","10","40","30","120","2","19","[""White""]","No","Male","1834844","null","","null","","","clear_screen","","","","","","","","","","","","","","","","","","","","","","","","",""
"","","","","","canvas-keyboard-response","75","176519","0.0-13.0-2.12","2d_cat_multi_stim_exp1","2022-3-28","10:32:14","25","75","3","9","10","40","30","120","2","19","[""White""]","No","Male","1834844","880","","i","learn","","learn_trial","26.6667","50","out","0","1","","","","","","","","","","","","","","","","","","","",""
"","","","","","canvas-keyboard-response","76","177028","0.0-13.0-3.12","2d_cat_multi_stim_exp1","2022-3-28","10:32:14","25","75","3","9","10","40","30","120","2","19","[""White""]","No","Male","1834844","null","","null","learn_feedback","","learn_feedback","26.6667","50","out","","","","","","","","","","","","","","","","","","","","","",""
"","","","","","canvas-keyboard-response","77","177086","0.0-13.0-4.12","2d_cat_multi_stim_exp1","2022-3-28","10:32:14","25","75","3","9","10","40","30","120","2","19","[""White""]","No","Male","1834844","null","","null","","","clear_screen","","","","","","","","","","","","","","","","","","","","","","","","",""
"","","","","","canvas-keyboard-response","78","177594","0.0-13.0-0.13","2d_cat_multi_stim_exp1","2022-3-28","10:32:14","25","75","3","9","10","40","30","120","2","19","[""White""]","No","Male","1834844","null","","null","","","fixation","","","","","","","","","","","","","","","","","","","","","","","","",""
"","","","","","canvas-keyboard-response","79","178104","0.0-13.0-1.13","2d_cat_multi_stim_exp1","2022-3-28","10:32:14","25","75","3","9","10","40","30","120","2","19","[""White""]","No","Male","1834844","null","","null","","","clear_screen","","","","","","","","","","","","","","","","","","","","","","","","",""
"","","","","","canvas-keyboard-response","80","181334","0.0-13.0-2.13","2d_cat_multi_stim_exp1","2022-3-28","10:32:14","25","75","3","9","10","40","30","120","2","19","[""White""]","No","Male","1834844","3222","","i","learn","","learn_trial","13.3333","30","out","0","1","","","","","","","","","","","","","","","","","","","",""
"","","","","","canvas-keyboard-response","81","181843","0.0-13.0-3.13","2d_cat_multi_stim_exp1","2022-3-28","10:32:14","25","75","3","9","10","40","30","120","2","19","[""White""]","No","Male","1834844","null","","null","learn_feedback","","learn_feedback","13.3333","30","out","","","","","","","","","","","","","","","","","","","","","",""
"","","","","","canvas-keyboard-response","82","181901","0.0-13.0-4.13","2d_cat_multi_stim_exp1","2022-3-28","10:32:14","25","75","3","9","10","40","30","120","2","19","[""White""]","No","Male","1834844","null","","null","","","clear_screen","","","","","","","","","","","","","","","","","","","","","","","","",""
"","","","","","canvas-keyboard-response","83","182410","0.0-13.0-0.14","2d_cat_multi_stim_exp1","2022-3-28","10:32:14","25","75","3","9","10","40","30","120","2","19","[""White""]","No","Male","1834844","null","","null","","","fixation","","","","","","","","","","","","","","","","","","","","","","","","",""
"","","","","","canvas-keyboard-response","84","182918","0.0-13.0-1.14","2d_cat_multi_stim_exp1","2022-3-28","10:32:14","25","75","3","9","10","40","30","120","2","19","[""White""]","No","Male","1834844","null","","null","","","clear_screen","","","","","","","","","","","","","","","","","","","","","","","","",""
"","","","","","canvas-keyboard-response","85","184382","0.0-13.0-2.14","2d_cat_multi_stim_exp1","2022-3-28","10:32:14","25","75","3","9","10","40","30","120","2","19","[""White""]","No","Male","1834844","1456","","u","learn","","learn_trial","20","30","out","1","0","","","","","","","","","","","","","","","","","","","",""
"","","","","","canvas-keyboard-response","86","185391","0.0-13.0-3.14","2d_cat_multi_stim_exp1","2022-3-28","10:32:14","25","75","3","9","10","40","30","120","2","19","[""White""]","No","Male","1834844","null","","null","learn_feedback","","learn_feedback","20","30","out","","","","","","","","","","","","","","","","","","","","","",""
"","","","","","canvas-keyboard-response","87","185449","0.0-13.0-4.14","2d_cat_multi_stim_exp1","2022-3-28","10:32:14","25","75","3","9","10","40","30","120","2","19","[""White""]","No","Male","1834844","null","","null","","","clear_screen","","","","","","","","","","","","","","","","","","","","","","","","",""
"","","","","","canvas-keyboard-response","88","185957","0.0-13.0-0.15","2d_cat_multi_stim_exp1","2022-3-28","10:32:14","25","75","3","9","10","40","30","120","2","19","[""White""]","No","Male","1834844","null","","null","","","fixation","","","","","","","","","","","","","","","","","","","","","","","","",""
"","","","","","canvas-keyboard-response","89","186465","0.0-13.0-1.15","2d_cat_multi_stim_exp1","2022-3-28","10:32:14","25","75","3","9","10","40","30","120","2","19","[""White""]","No","Male","1834844","null","","null","","","clear_screen","","","","","","","","","","","","","","","","","","","","","","","","",""
"","","","","","canvas-keyboard-response","90","186782","0.0-13.0-2.15","2d_cat_multi_stim_exp1","2022-3-28","10:32:14","25","75","3","9","10","40","30","120","2","19","[""White""]","No","Male","1834844","308","","u","learn","","learn_trial","26.6667","100","out","1","0","","","","","","","","","","","","","","","","","","","",""
"","","","","","canvas-keyboard-response","91","187791","0.0-13.0-3.15","2d_cat_multi_stim_exp1","2022-3-28","10:32:14","25","75","3","9","10","40","30","120","2","19","[""White""]","No","Male","1834844","null","","null","learn_feedback","","learn_feedback","26.6667","100","out","","","","","","","","","","","","","","","","","","","","","",""
"","","","","","canvas-keyboard-response","92","187849","0.0-13.0-4.15","2d_cat_multi_stim_exp1","2022-3-28","10:32:14","25","75","3","9","10","40","30","120","2","19","[""White""]","No","Male","1834844","null","","null","","","clear_screen","","","","","","","","","","","","","","","","","","","","","","","","",""
"","","","","","canvas-keyboard-response","93","188360","0.0-13.0-0.16","2d_cat_multi_stim_exp1","2022-3-28","10:32:14","25","75","3","9","10","40","30","120","2","19","[""White""]","No","Male","1834844","null","","null","","","fixation","","","","","","","","","","","","","","","","","","","","","","","","",""
"","","","","","canvas-keyboard-response","94","188869","0.0-13.0-1.16","2d_cat_multi_stim_exp1","2022-3-28","10:32:14","25","75","3","9","10","40","30","120","2","19","[""White""]","No","Male","1834844","null","","null","","","clear_screen","","","","","","","","","","","","","","","","","","","","","","","","",""
"","","","","","canvas-keyboard-response","95","189518","0.0-13.0-2.16","2d_cat_multi_stim_exp1","2022-3-28","10:32:14","25","75","3","9","10","40","30","120","2","19","[""White""]","No","Male","1834844","640","","u","learn","","learn_trial","25","75","in","1","1","","","","","","","","","","","","","","","","","","","",""
"","","","","","canvas-keyboard-response","96","190028","0.0-13.0-3.16","2d_cat_multi_stim_exp1","2022-3-28","10:32:14","25","75","3","9","10","40","30","120","2","19","[""White""]","No","Male","1834844","null","","null","learn_feedback","","learn_feedback","25","75","in","","","","","","","","","","","","","","","","","","","","","",""
"","","","","","canvas-keyboard-response","97","190085","0.0-13.0-4.16","2d_cat_multi_stim_exp1","2022-3-28","10:32:14","25","75","3","9","10","40","30","120","2","19","[""White""]","No","Male","1834844","null","","null","","","clear_screen","","","","","","","","","","","","","","","","","","","","","","","","",""
"","","","","","canvas-keyboard-response","98","190595","0.0-13.0-0.17","2d_cat_multi_stim_exp1","2022-3-28","10:32:14","25","75","3","9","10","40","30","120","2","19","[""White""]","No","Male","1834844","null","","null","","","fixation","","","","","","","","","","","","","","","","","","","","","","","","",""
"","","","","","canvas-keyboard-response","99","191103","0.0-13.0-1.17","2d_cat_multi_stim_exp1","2022-3-28","10:32:14","25","75","3","9","10","40","30","120","2","19","[""White""]","No","Male","1834844","null","","null","","","clear_screen","","","","","","","","","","","","","","","","","","","","","","","","",""
"","","","","","canvas-keyboard-response","100","192407","0.0-13.0-2.17","2d_cat_multi_stim_exp1","2022-3-28","10:32:14","25","75","3","9","10","40","30","120","2","19","[""White""]","No","Male","1834844","1295","","i","learn","","learn_trial","20.7574","87.7279","in","0","0","","","","","","","","","","","","","","","","","","","",""
"","","","","","canvas-keyboard-response","101","193415","0.0-13.0-3.17","2d_cat_multi_stim_exp1","2022-3-28","10:32:14","25","75","3","9","10","40","30","120","2","19","[""White""]","No","Male","1834844","null","","null","learn_feedback","","learn_feedback","20.7574","87.7279","in","","","","","","","","","","","","","","","","","","","","","",""
"","","","","","canvas-keyboard-response","102","193473","0.0-13.0-4.17","2d_cat_multi_stim_exp1","2022-3-28","10:32:14","25","75","3","9","10","40","30","120","2","19","[""White""]","No","Male","1834844","null","","null","","","clear_screen","","","","","","","","","","","","","","","","","","","","","","","","",""
"","","","","","canvas-keyboard-response","103","193981","0.0-13.0-0.18","2d_cat_multi_stim_exp1","2022-3-28","10:32:14","25","75","3","9","10","40","30","120","2","19","[""White""]","No","Male","1834844","null","","null","","","fixation","","","","","","","","","","","","","","","","","","","","","","","","",""
"","","","","","canvas-keyboard-response","104","194490","0.0-13.0-1.18","2d_cat_multi_stim_exp1","2022-3-28","10:32:14","25","75","3","9","10","40","30","120","2","19","[""White""]","No","Male","1834844","null","","null","","","clear_screen","","","","","","","","","","","","","","","","","","","","","","","","",""
"","","","","","canvas-keyboard-response","105","195046","0.0-13.0-2.18","2d_cat_multi_stim_exp1","2022-3-28","10:32:14","25","75","3","9","10","40","30","120","2","19","[""White""]","No","Male","1834844","548","","i","learn","","learn_trial","25","75","in","0","0","","","","","","","","","","","","","","","","","","","",""
"","","","","","canvas-keyboard-response","106","196055","0.0-13.0-3.18","2d_cat_multi_stim_exp1","2022-3-28","10:32:14","25","75","3","9","10","40","30","120","2","19","[""White""]","No","Male","1834844","null","","null","learn_feedback","","learn_feedback","25","75","in","","","","","","","","","","","","","","","","","","","","","",""
"","","","","","canvas-keyboard-response","107","196113","0.0-13.0-4.18","2d_cat_multi_stim_exp1","2022-3-28","10:32:14","25","75","3","9","10","40","30","120","2","19","[""White""]","No","Male","1834844","null","","null","","","clear_screen","","","","","","","","","","","","","","","","","","","","","","","","",""
"","","","","","canvas-keyboard-response","108","196620","0.0-13.0-0.19","2d_cat_multi_stim_exp1","2022-3-28","10:32:14","25","75","3","9","10","40","30","120","2","19","[""White""]","No","Male","1834844","null","","null","","","fixation","","","","","","","","","","","","","","","","","","","","","","","","",""
"","","","","","canvas-keyboard-response","109","197132","0.0-13.0-1.19","2d_cat_multi_stim_exp1","2022-3-28","10:32:14","25","75","3","9","10","40","30","120","2","19","[""White""]","No","Male","1834844","null","","null","","","clear_screen","","","","","","","","","","","","","","","","","","","","","","","","",""
"","","","","","canvas-keyboard-response","110","197446","0.0-13.0-2.19","2d_cat_multi_stim_exp1","2022-3-28","10:32:14","25","75","3","9","10","40","30","120","2","19","[""White""]","No","Male","1834844","308","","i","learn","","learn_trial","25","75","in","0","0","","","","","","","","","","","","","","","","","","","",""
"","","","","","canvas-keyboard-response","111","198455","0.0-13.0-3.19","2d_cat_multi_stim_exp1","2022-3-28","10:32:14","25","75","3","9","10","40","30","120","2","19","[""White""]","No","Male","1834844","null","","null","learn_feedback","","learn_feedback","25","75","in","","","","","","","","","","","","","","","","","","","","","",""
"","","","","","canvas-keyboard-response","112","198513","0.0-13.0-4.19","2d_cat_multi_stim_exp1","2022-3-28","10:32:14","25","75","3","9","10","40","30","120","2","19","[""White""]","No","Male","1834844","null","","null","","","clear_screen","","","","","","","","","","","","","","","","","","","","","","","","",""
"","","","","","canvas-keyboard-response","113","199021","0.0-13.0-0.20","2d_cat_multi_stim_exp1","2022-3-28","10:32:14","25","75","3","9","10","40","30","120","2","19","[""White""]","No","Male","1834844","null","","null","","","fixation","","","","","","","","","","","","","","","","","","","","","","","","",""
"","","","","","canvas-keyboard-response","114","199530","0.0-13.0-1.20","2d_cat_multi_stim_exp1","2022-3-28","10:32:14","25","75","3","9","10","40","30","120","2","19","[""White""]","No","Male","1834844","null","","null","","","clear_screen","","","","","","","","","","","","","","","","","","","","","","","","",""
"","","","","","canvas-keyboard-response","115","199951","0.0-13.0-2.20","2d_cat_multi_stim_exp1","2022-3-28","10:32:14","25","75","3","9","10","40","30","120","2","19","[""White""]","No","Male","1834844","413","","i","learn","","learn_trial","20","60","out","0","1","","","","","","","","","","","","","","","","","","","",""
"","","","","","canvas-keyboard-response","116","200460","0.0-13.0-3.20","2d_cat_multi_stim_exp1","2022-3-28","10:32:14","25","75","3","9","10","40","30","120","2","19","[""White""]","No","Male","1834844","null","","null","learn_feedback","","learn_feedback","20","60","out","","","","","","","","","","","","","","","","","","","","","",""
"","","","","","canvas-keyboard-response","117","200517","0.0-13.0-4.20","2d_cat_multi_stim_exp1","2022-3-28","10:32:14","25","75","3","9","10","40","30","120","2","19","[""White""]","No","Male","1834844","null","","null","","","clear_screen","","","","","","","","","","","","","","","","","","","","","","","","",""
"","","","","","canvas-keyboard-response","118","201026","0.0-13.0-0.21","2d_cat_multi_stim_exp1","2022-3-28","10:32:14","25","75","3","9","10","40","30","120","2","19","[""White""]","No","Male","1834844","null","","null","","","fixation","","","","","","","","","","","","","","","","","","","","","","","","",""
"","","","","","canvas-keyboard-response","119","201534","0.0-13.0-1.21","2d_cat_multi_stim_exp1","2022-3-28","10:32:14","25","75","3","9","10","40","30","120","2","19","[""White""]","No","Male","1834844","null","","null","","","clear_screen","","","","","","","","","","","","","","","","","","","","","","","","",""
"","","","","","canvas-keyboard-response","120","201958","0.0-13.0-2.21","2d_cat_multi_stim_exp1","2022-3-28","10:32:14","25","75","3","9","10","40","30","120","2","19","[""White""]","No","Male","1834844","415","","i","learn","","learn_trial","27.9518","76.607","in","0","0","","","","","","","","","","","","","","","","","","","",""
"","","","","","canvas-keyboard-response","121","202967","0.0-13.0-3.21","2d_cat_multi_stim_exp1","2022-3-28","10:32:14","25","75","3","9","10","40","30","120","2","19","[""White""]","No","Male","1834844","null","","null","learn_feedback","","learn_feedback","27.9518","76.607","in","","","","","","","","","","","","","","","","","","","","","",""
"","","","","","canvas-keyboard-response","122","203029","0.0-13.0-4.21","2d_cat_multi_stim_exp1","2022-3-28","10:32:14","25","75","3","9","10","40","30","120","2","19","[""White""]","No","Male","1834844","null","","null","","","clear_screen","","","","","","","","","","","","","","","","","","","","","","","","",""
"","","","","","canvas-keyboard-response","123","203539","0.0-13.0-0.22","2d_cat_multi_stim_exp1","2022-3-28","10:32:14","25","75","3","9","10","40","30","120","2","19","[""White""]","No","Male","1834844","null","","null","","","fixation","","","","","","","","","","","","","","","","","","","","","","","","",""
"","","","","","canvas-keyboard-response","124","204050","0.0-13.0-1.22","2d_cat_multi_stim_exp1","2022-3-28","10:32:14","25","75","3","9","10","40","30","120","2","19","[""White""]","No","Male","1834844","null","","null","","","clear_screen","","","","","","","","","","","","","","","","","","","","","","","","",""
"","","","","","canvas-keyboard-response","125","204967","0.0-13.0-2.22","2d_cat_multi_stim_exp1","2022-3-28","10:32:14","25","75","3","9","10","40","30","120","2","19","[""White""]","No","Male","1834844","907","","u","learn","","learn_trial","36.6667","90","out","1","0","","","","","","","","","","","","","","","","","","","",""
"","","","","","canvas-keyboard-response","126","205976","0.0-13.0-3.22","2d_cat_multi_stim_exp1","2022-3-28","10:32:14","25","75","3","9","10","40","30","120","2","19","[""White""]","No","Male","1834844","null","","null","learn_feedback","","learn_feedback","36.6667","90","out","","","","","","","","","","","","","","","","","","","","","",""
"","","","","","canvas-keyboard-response","127","206034","0.0-13.0-4.22","2d_cat_multi_stim_exp1","2022-3-28","10:32:14","25","75","3","9","10","40","30","120","2","19","[""White""]","No","Male","1834844","null","","null","","","clear_screen","","","","","","","","","","","","","","","","","","","","","","","","",""
"","","","","","canvas-keyboard-response","128","206544","0.0-13.0-0.23","2d_cat_multi_stim_exp1","2022-3-28","10:32:14","25","75","3","9","10","40","30","120","2","19","[""White""]","No","Male","1834844","null","","null","","","fixation","","","","","","","","","","","","","","","","","","","","","","","","",""
"","","","","","canvas-keyboard-response","129","207052","0.0-13.0-1.23","2d_cat_multi_stim_exp1","2022-3-28","10:32:14","25","75","3","9","10","40","30","120","2","19","[""White""]","No","Male","1834844","null","","null","","","clear_screen","","","","","","","","","","","","","","","","","","","","","","","","",""
"","","","","","canvas-keyboard-response","130","207671","0.0-13.0-2.23","2d_cat_multi_stim_exp1","2022-3-28","10:32:14","25","75","3","9","10","40","30","120","2","19","[""White""]","No","Male","1834844","609","","u","learn","","learn_trial","25","75","in","1","1","","","","","","","","","","","","","","","","","","","",""
"","","","","","canvas-keyboard-response","131","208181","0.0-13.0-3.23","2d_cat_multi_stim_exp1","2022-3-28","10:32:14","25","75","3","9","10","40","30","120","2","19","[""White""]","No","Male","1834844","null","","null","learn_feedback","","learn_feedback","25","75","in","","","","","","","","","","","","","","","","","","","","","",""
"","","","","","canvas-keyboard-response","132","208240","0.0-13.0-4.23","2d_cat_multi_stim_exp1","2022-3-28","10:32:14","25","75","3","9","10","40","30","120","2","19","[""White""]","No","Male","1834844","null","","null","","","clear_screen","","","","","","","","","","","","","","","","","","","","","","","","",""
"","","","","","canvas-keyboard-response","133","208749","0.0-13.0-0.24","2d_cat_multi_stim_exp1","2022-3-28","10:32:14","25","75","3","9","10","40","30","120","2","19","[""White""]","No","Male","1834844","null","","null","","","fixation","","","","","","","","","","","","","","","","","","","","","","","","",""
"","","","","","canvas-keyboard-response","134","209259","0.0-13.0-1.24","2d_cat_multi_stim_exp1","2022-3-28","10:32:14","25","75","3","9","10","40","30","120","2","19","[""White""]","No","Male","1834844","null","","null","","","clear_screen","","","","","","","","","","","","","","","","","","","","","","","","",""
"","","","","","canvas-keyboard-response","135","209846","0.0-13.0-2.24","2d_cat_multi_stim_exp1","2022-3-28","10:32:14","25","75","3","9","10","40","30","120","2","19","[""White""]","No","Male","1834844","579","","u","learn","","learn_trial","22.5729","69.7099","in","1","1","","","","","","","","","","","","","","","","","","","",""
"","","","","","canvas-keyboard-response","136","210356","0.0-13.0-3.24","2d_cat_multi_stim_exp1","2022-3-28","10:32:14","25","75","3","9","10","40","30","120","2","19","[""White""]","No","Male","1834844","null","","null","learn_feedback","","learn_feedback","22.5729","69.7099","in","","","","","","","","","","","","","","","","","","","","","",""
"","","","","","canvas-keyboard-response","137","210414","0.0-13.0-4.24","2d_cat_multi_stim_exp1","2022-3-28","10:32:14","25","75","3","9","10","40","30","120","2","19","[""White""]","No","Male","1834844","null","","null","","","clear_screen","","","","","","","","","","","","","","","","","","","","","","","","",""
"","","","","","canvas-keyboard-response","138","210922","0.0-13.0-0.25","2d_cat_multi_stim_exp1","2022-3-28","10:32:14","25","75","3","9","10","40","30","120","2","19","[""White""]","No","Male","1834844","null","","null","","","fixation","","","","","","","","","","","","","","","","","","","","","","","","",""
"","","","","","canvas-keyboard-response","139","211431","0.0-13.0-1.25","2d_cat_multi_stim_exp1","2022-3-28","10:32:14","25","75","3","9","10","40","30","120","2","19","[""White""]","No","Male","1834844","null","","null","","","clear_screen","","","","","","","","","","","","","","","","","","","","","","","","",""
"","","","","","canvas-keyboard-response","140","212262","0.0-13.0-2.25","2d_cat_multi_stim_exp1","2022-3-28","10:32:14","25","75","3","9","10","40","30","120","2","19","[""White""]","No","Male","1834844","823","","i","learn","","learn_trial","30","40","out","0","1","","","","","","","","","","","","","","","","","","","",""
"","","","","","canvas-keyboard-response","141","212771","0.0-13.0-3.25","2d_cat_multi_stim_exp1","2022-3-28","10:32:14","25","75","3","9","10","40","30","120","2","19","[""White""]","No","Male","1834844","null","","null","learn_feedback","","learn_feedback","30","40","out","","","","","","","","","","","","","","","","","","","","","",""
"","","","","","canvas-keyboard-response","142","212829","0.0-13.0-4.25","2d_cat_multi_stim_exp1","2022-3-28","10:32:14","25","75","3","9","10","40","30","120","2","19","[""White""]","No","Male","1834844","null","","null","","","clear_screen","","","","","","","","","","","","","","","","","","","","","","","","",""
"","","","","","canvas-keyboard-response","143","213338","0.0-13.0-0.26","2d_cat_multi_stim_exp1","2022-3-28","10:32:14","25","75","3","9","10","40","30","120","2","19","[""White""]","No","Male","1834844","null","","null","","","fixation","","","","","","","","","","","","","","","","","","","","","","","","",""
"","","","","","canvas-keyboard-response","144","213846","0.0-13.0-1.26","2d_cat_multi_stim_exp1","2022-3-28","10:32:14","25","75","3","9","10","40","30","120","2","19","[""White""]","No","Male","1834844","null","","null","","","clear_screen","","","","","","","","","","","","","","","","","","","","","","","","",""
"","","","","","canvas-keyboard-response","145","215198","0.0-13.0-2.26","2d_cat_multi_stim_exp1","2022-3-28","10:32:14","25","75","3","9","10","40","30","120","2","19","[""White""]","No","Male","1834844","1343","","i","learn","","learn_trial","27.8087","78.1624","in","0","0","","","","","","","","","","","","","","","","","","","",""
"","","","","","canvas-keyboard-response","146","216207","0.0-13.0-3.26","2d_cat_multi_stim_exp1","2022-3-28","10:32:14","25","75","3","9","10","40","30","120","2","19","[""White""]","No","Male","1834844","null","","null","learn_feedback","","learn_feedback","27.8087","78.1624","in","","","","","","","","","","","","","","","","","","","","","",""
"","","","","","canvas-keyboard-response","147","216265","0.0-13.0-4.26","2d_cat_multi_stim_exp1","2022-3-28","10:32:14","25","75","3","9","10","40","30","120","2","19","[""White""]","No","Male","1834844","null","","null","","","clear_screen","","","","","","","","","","","","","","","","","","","","","","","","",""
"","","","","","canvas-keyboard-response","148","216773","0.0-13.0-0.27","2d_cat_multi_stim_exp1","2022-3-28","10:32:14","25","75","3","9","10","40","30","120","2","19","[""White""]","No","Male","1834844","null","","null","","","fixation","","","","","","","","","","","","","","","","","","","","","","","","",""
"","","","","","canvas-keyboard-response","149","217282","0.0-13.0-1.27","2d_cat_multi_stim_exp1","2022-3-28","10:32:14","25","75","3","9","10","40","30","120","2","19","[""White""]","No","Male","1834844","null","","null","","","clear_screen","","","","","","","","","","","","","","","","","","","","","","","","",""
"","","","","","canvas-keyboard-response","150","218319","0.0-13.0-2.27","2d_cat_multi_stim_exp1","2022-3-28","10:32:14","25","75","3","9","10","40","30","120","2","19","[""White""]","No","Male","1834844","1027","","i","learn","","learn_trial","25","75","in","0","0","","","","","","","","","","","","","","","","","","","",""
"","","","","","canvas-keyboard-response","151","219326","0.0-13.0-3.27","2d_cat_multi_stim_exp1","2022-3-28","10:32:14","25","75","3","9","10","40","30","120","2","19","[""White""]","No","Male","1834844","null","","null","learn_feedback","","learn_feedback","25","75","in","","","","","","","","","","","","","","","","","","","","","",""
"","","","","","canvas-keyboard-response","152","219385","0.0-13.0-4.27","2d_cat_multi_stim_exp1","2022-3-28","10:32:14","25","75","3","9","10","40","30","120","2","19","[""White""]","No","Male","1834844","null","","null","","","clear_screen","","","","","","","","","","","","","","","","","","","","","","","","",""
"","","","","","canvas-keyboard-response","153","219892","0.0-13.0-0.28","2d_cat_multi_stim_exp1","2022-3-28","10:32:14","25","75","3","9","10","40","30","120","2","19","[""White""]","No","Male","1834844","null","","null","","","fixation","","","","","","","","","","","","","","","","","","","","","","","","",""
"","","","","","canvas-keyboard-response","154","220401","0.0-13.0-1.28","2d_cat_multi_stim_exp1","2022-3-28","10:32:14","25","75","3","9","10","40","30","120","2","19","[""White""]","No","Male","1834844","null","","null","","","clear_screen","","","","","","","","","","","","","","","","","","","","","","","","",""
"","","","","","canvas-keyboard-response","155","221023","0.0-13.0-2.28","2d_cat_multi_stim_exp1","2022-3-28","10:32:14","25","75","3","9","10","40","30","120","2","19","[""White""]","No","Male","1834844","612","","i","learn","","learn_trial","20","40","out","0","1","","","","","","","","","","","","","","","","","","","",""
"","","","","","canvas-keyboard-response","156","221532","0.0-13.0-3.28","2d_cat_multi_stim_exp1","2022-3-28","10:32:14","25","75","3","9","10","40","30","120","2","19","[""White""]","No","Male","1834844","null","","null","learn_feedback","","learn_feedback","20","40","out","","","","","","","","","","","","","","","","","","","","","",""
"","","","","","canvas-keyboard-response","157","221590","0.0-13.0-4.28","2d_cat_multi_stim_exp1","2022-3-28","10:32:14","25","75","3","9","10","40","30","120","2","19","[""White""]","No","Male","1834844","null","","null","","","clear_screen","","","","","","","","","","","","","","","","","","","","","","","","",""
"","","","","","canvas-keyboard-response","158","222098","0.0-13.0-0.29","2d_cat_multi_stim_exp1","2022-3-28","10:32:14","25","75","3","9","10","40","30","120","2","19","[""White""]","No","Male","1834844","null","","null","","","fixation","","","","","","","","","","","","","","","","","","","","","","","","",""
"","","","","","canvas-keyboard-response","159","222607","0.0-13.0-1.29","2d_cat_multi_stim_exp1","2022-3-28","10:32:14","25","75","3","9","10","40","30","120","2","19","[""White""]","No","Male","1834844","null","","null","","","clear_screen","","","","","","","","","","","","","","","","","","","","","","","","",""
"","","","","","canvas-keyboard-response","160","223150","0.0-13.0-2.29","2d_cat_multi_stim_exp1","2022-3-28","10:32:14","25","75","3","9","10","40","30","120","2","19","[""White""]","No","Male","1834844","534","","u","learn","","learn_trial","30","60","out","1","0","","","","","","","","","","","","","","","","","","","",""
"","","","","","canvas-keyboard-response","161","224160","0.0-13.0-3.29","2d_cat_multi_stim_exp1","2022-3-28","10:32:14","25","75","3","9","10","40","30","120","2","19","[""White""]","No","Male","1834844","null","","null","learn_feedback","","learn_feedback","30","60","out","","","","","","","","","","","","","","","","","","","","","",""
"","","","","","canvas-keyboard-response","162","224218","0.0-13.0-4.29","2d_cat_multi_stim_exp1","2022-3-28","10:32:14","25","75","3","9","10","40","30","120","2","19","[""White""]","No","Male","1834844","null","","null","","","clear_screen","","","","","","","","","","","","","","","","","","","","","","","","",""
"","","","","","canvas-keyboard-response","163","224727","0.0-13.0-0.30","2d_cat_multi_stim_exp1","2022-3-28","10:32:14","25","75","3","9","10","40","30","120","2","19","[""White""]","No","Male","1834844","null","","null","","","fixation","","","","","","","","","","","","","","","","","","","","","","","","",""
"","","","","","canvas-keyboard-response","164","225235","0.0-13.0-1.30","2d_cat_multi_stim_exp1","2022-3-28","10:32:14","25","75","3","9","10","40","30","120","2","19","[""White""]","No","Male","1834844","null","","null","","","clear_screen","","","","","","","","","","","","","","","","","","","","","","","","",""
"","","","","","canvas-keyboard-response","165","225846","0.0-13.0-2.30","2d_cat_multi_stim_exp1","2022-3-28","10:32:14","25","75","3","9","10","40","30","120","2","19","[""White""]","No","Male","1834844","603","","u","learn","","learn_trial","24.8654","66.0091","in","1","1","","","","","","","","","","","","","","","","","","","",""
"","","","","","canvas-keyboard-response","166","226355","0.0-13.0-3.30","2d_cat_multi_stim_exp1","2022-3-28","10:32:14","25","75","3","9","10","40","30","120","2","19","[""White""]","No","Male","1834844","null","","null","learn_feedback","","learn_feedback","24.8654","66.0091","in","","","","","","","","","","","","","","","","","","","","","",""
"","","","","","canvas-keyboard-response","167","226413","0.0-13.0-4.30","2d_cat_multi_stim_exp1","2022-3-28","10:32:14","25","75","3","9","10","40","30","120","2","19","[""White""]","No","Male","1834844","null","","null","","","clear_screen","","","","","","","","","","","","","","","","","","","","","","","","",""
"","","","","","canvas-keyboard-response","168","226922","0.0-13.0-0.31","2d_cat_multi_stim_exp1","2022-3-28","10:32:14","25","75","3","9","10","40","30","120","2","19","[""White""]","No","Male","1834844","null","","null","","","fixation","","","","","","","","","","","","","","","","","","","","","","","","",""
"","","","","","canvas-keyboard-response","169","227431","0.0-13.0-1.31","2d_cat_multi_stim_exp1","2022-3-28","10:32:14","25","75","3","9","10","40","30","120","2","19","[""White""]","No","Male","1834844","null","","null","","","clear_screen","","","","","","","","","","","","","","","","","","","","","","","","",""
"","","","","","canvas-keyboard-response","170","228191","0.0-13.0-2.31","2d_cat_multi_stim_exp1","2022-3-28","10:32:14","25","75","3","9","10","40","30","120","2","19","[""White""]","No","Male","1834844","750","","i","learn","","learn_trial","25","75","in","0","0","","","","","","","","","","","","","","","","","","","",""
"","","","","","canvas-keyboard-response","171","229199","0.0-13.0-3.31","2d_cat_multi_stim_exp1","2022-3-28","10:32:14","25","75","3","9","10","40","30","120","2","19","[""White""]","No","Male","1834844","null","","null","learn_feedback","","learn_feedback","25","75","in","","","","","","","","","","","","","","","","","","","","","",""
"","","","","","canvas-keyboard-response","172","229256","0.0-13.0-4.31","2d_cat_multi_stim_exp1","2022-3-28","10:32:14","25","75","3","9","10","40","30","120","2","19","[""White""]","No","Male","1834844","null","","null","","","clear_screen","","","","","","","","","","","","","","","","","","","","","","","","",""
"","","","","","canvas-keyboard-response","173","229765","0.0-13.0-0.32","2d_cat_multi_stim_exp1","2022-3-28","10:32:14","25","75","3","9","10","40","30","120","2","19","[""White""]","No","Male","1834844","null","","null","","","fixation","","","","","","","","","","","","","","","","","","","","","","","","",""
"","","","","","canvas-keyboard-response","174","230274","0.0-13.0-1.32","2d_cat_multi_stim_exp1","2022-3-28","10:32:14","25","75","3","9","10","40","30","120","2","19","[""White""]","No","Male","1834844","null","","null","","","clear_screen","","","","","","","","","","","","","","","","","","","","","","","","",""
"","","","","","canvas-keyboard-response","175","230678","0.0-13.0-2.32","2d_cat_multi_stim_exp1","2022-3-28","10:32:14","25","75","3","9","10","40","30","120","2","19","[""White""]","No","Male","1834844","397","","u","learn","","learn_trial","40","80","out","1","0","","","","","","","","","","","","","","","","","","","",""
"","","","","","canvas-keyboard-response","176","231690","0.0-13.0-3.32","2d_cat_multi_stim_exp1","2022-3-28","10:32:14","25","75","3","9","10","40","30","120","2","19","[""White""]","No","Male","1834844","null","","null","learn_feedback","","learn_feedback","40","80","out","","","","","","","","","","","","","","","","","","","","","",""
"","","","","","canvas-keyboard-response","177","231748","0.0-13.0-4.32","2d_cat_multi_stim_exp1","2022-3-28","10:32:14","25","75","3","9","10","40","30","120","2","19","[""White""]","No","Male","1834844","null","","null","","","clear_screen","","","","","","","","","","","","","","","","","","","","","","","","",""
"","","","","","canvas-keyboard-response","178","232256","0.0-13.0-0.33","2d_cat_multi_stim_exp1","2022-3-28","10:32:14","25","75","3","9","10","40","30","120","2","19","[""White""]","No","Male","1834844","null","","null","","","fixation","","","","","","","","","","","","","","","","","","","","","","","","",""
"","","","","","canvas-keyboard-response","179","232765","0.0-13.0-1.33","2d_cat_multi_stim_exp1","2022-3-28","10:32:14","25","75","3","9","10","40","30","120","2","19","[""White""]","No","Male","1834844","null","","null","","","clear_screen","","","","","","","","","","","","","","","","","","","","","","","","",""
"","","","","","canvas-keyboard-response","180","233031","0.0-13.0-2.33","2d_cat_multi_stim_exp1","2022-3-28","10:32:14","25","75","3","9","10","40","30","120","2","19","[""White""]","No","Male","1834844","257","","u","learn","","learn_trial","16.6667","100","out","1","0","","","","","","","","","","","","","","","","","","","",""
"","","","","","canvas-keyboard-response","181","234040","0.0-13.0-3.33","2d_cat_multi_stim_exp1","2022-3-28","10:32:14","25","75","3","9","10","40","30","120","2","19","[""White""]","No","Male","1834844","null","","null","learn_feedback","","learn_feedback","16.6667","100","out","","","","","","","","","","","","","","","","","","","","","",""
"","","","","","canvas-keyboard-response","182","234098","0.0-13.0-4.33","2d_cat_multi_stim_exp1","2022-3-28","10:32:14","25","75","3","9","10","40","30","120","2","19","[""White""]","No","Male","1834844","null","","null","","","clear_screen","","","","","","","","","","","","","","","","","","","","","","","","",""
"","","","","","canvas-keyboard-response","183","234606","0.0-13.0-0.34","2d_cat_multi_stim_exp1","2022-3-28","10:32:14","25","75","3","9","10","40","30","120","2","19","[""White""]","No","Male","1834844","null","","null","","","fixation","","","","","","","","","","","","","","","","","","","","","","","","",""
"","","","","","canvas-keyboard-response","184","235114","0.0-13.0-1.34","2d_cat_multi_stim_exp1","2022-3-28","10:32:14","25","75","3","9","10","40","30","120","2","19","[""White""]","No","Male","1834844","null","","null","","","clear_screen","","","","","","","","","","","","","","","","","","","","","","","","",""
"","","","","","canvas-keyboard-response","185","235822","0.0-13.0-2.34","2d_cat_multi_stim_exp1","2022-3-28","10:32:14","25","75","3","9","10","40","30","120","2","19","[""White""]","No","Male","1834844","700","","u","learn","","learn_trial","26.6667","40","out","1","0","","","","","","","","","","","","","","","","","","","",""
"","","","","","canvas-keyboard-response","186","236831","0.0-13.0-3.34","2d_cat_multi_stim_exp1","2022-3-28","10:32:14","25","75","3","9","10","40","30","120","2","19","[""White""]","No","Male","1834844","null","","null","learn_feedback","","learn_feedback","26.6667","40","out","","","","","","","","","","","","","","","","","","","","","",""
"","","","","","canvas-keyboard-response","187","236889","0.0-13.0-4.34","2d_cat_multi_stim_exp1","2022-3-28","10:32:14","25","75","3","9","10","40","30","120","2","19","[""White""]","No","Male","1834844","null","","null","","","clear_screen","","","","","","","","","","","","","","","","","","","","","","","","",""
"","","","","","canvas-keyboard-response","188","237397","0.0-13.0-0.35","2d_cat_multi_stim_exp1","2022-3-28","10:32:14","25","75","3","9","10","40","30","120","2","19","[""White""]","No","Male","1834844","null","","null","","","fixation","","","","","","","","","","","","","","","","","","","","","","","","",""
"","","","","","canvas-keyboard-response","189","237905","0.0-13.0-1.35","2d_cat_multi_stim_exp1","2022-3-28","10:32:14","25","75","3","9","10","40","30","120","2","19","[""White""]","No","Male","1834844","null","","null","","","clear_screen","","","","","","","","","","","","","","","","","","","","","","","","",""
"","","","","","canvas-keyboard-response","190","238382","0.0-13.0-2.35","2d_cat_multi_stim_exp1","2022-3-28","10:32:14","25","75","3","9","10","40","30","120","2","19","[""White""]","No","Male","1834844","468","","u","learn","","learn_trial","10","110","out","1","0","","","","","","","","","","","","","","","","","","","",""
"","","","","","canvas-keyboard-response","191","239392","0.0-13.0-3.35","2d_cat_multi_stim_exp1","2022-3-28","10:32:14","25","75","3","9","10","40","30","120","2","19","[""White""]","No","Male","1834844","null","","null","learn_feedback","","learn_feedback","10","110","out","","","","","","","","","","","","","","","","","","","","","",""
"","","","","","canvas-keyboard-response","192","239454","0.0-13.0-4.35","2d_cat_multi_stim_exp1","2022-3-28","10:32:14","25","75","3","9","10","40","30","120","2","19","[""White""]","No","Male","1834844","null","","null","","","clear_screen","","","","","","","","","","","","","","","","","","","","","","","","",""
"","","","","","canvas-keyboard-response","193","239964","0.0-13.0-0.36","2d_cat_multi_stim_exp1","2022-3-28","10:32:14","25","75","3","9","10","40","30","120","2","19","[""White""]","No","Male","1834844","null","","null","","","fixation","","","","","","","","","","","","","","","","","","","","","","","","",""
"","","","","","canvas-keyboard-response","194","240474","0.0-13.0-1.36","2d_cat_multi_stim_exp1","2022-3-28","10:32:14","25","75","3","9","10","40","30","120","2","19","[""White""]","No","Male","1834844","null","","null","","","clear_screen","","","","","","","","","","","","","","","","","","","","","","","","",""
"","","","","","canvas-keyboard-response","195","240910","0.0-13.0-2.36","2d_cat_multi_stim_exp1","2022-3-28","10:32:14","25","75","3","9","10","40","30","120","2","19","[""White""]","No","Male","1834844","426","","u","learn","","learn_trial","25","75","in","1","1","","","","","","","","","","","","","","","","","","","",""
"","","","","","canvas-keyboard-response","196","241420","0.0-13.0-3.36","2d_cat_multi_stim_exp1","2022-3-28","10:32:14","25","75","3","9","10","40","30","120","2","19","[""White""]","No","Male","1834844","null","","null","learn_feedback","","learn_feedback","25","75","in","","","","","","","","","","","","","","","","","","","","","",""
"","","","","","canvas-keyboard-response","197","241478","0.0-13.0-4.36","2d_cat_multi_stim_exp1","2022-3-28","10:32:14","25","75","3","9","10","40","30","120","2","19","[""White""]","No","Male","1834844","null","","null","","","clear_screen","","","","","","","","","","","","","","","","","","","","","","","","",""
"","","","","","canvas-keyboard-response","198","241987","0.0-13.0-0.37","2d_cat_multi_stim_exp1","2022-3-28","10:32:14","25","75","3","9","10","40","30","120","2","19","[""White""]","No","Male","1834844","null","","null","","","fixation","","","","","","","","","","","","","","","","","","","","","","","","",""
"","","","","","canvas-keyboard-response","199","242495","0.0-13.0-1.37","2d_cat_multi_stim_exp1","2022-3-28","10:32:14","25","75","3","9","10","40","30","120","2","19","[""White""]","No","Male","1834844","null","","null","","","clear_screen","","","","","","","","","","","","","","","","","","","","","","","","",""
"","","","","","canvas-keyboard-response","200","243070","0.0-13.0-2.37","2d_cat_multi_stim_exp1","2022-3-28","10:32:14","25","75","3","9","10","40","30","120","2","19","[""White""]","No","Male","1834844","565","","i","learn","","learn_trial","23.3333","120","out","0","1","","","","","","","","","","","","","","","","","","","",""
"","","","","","canvas-keyboard-response","201","243580","0.0-13.0-3.37","2d_cat_multi_stim_exp1","2022-3-28","10:32:14","25","75","3","9","10","40","30","120","2","19","[""White""]","No","Male","1834844","null","","null","learn_feedback","","learn_feedback","23.3333","120","out","","","","","","","","","","","","","","","","","","","","","",""
"","","","","","canvas-keyboard-response","202","243639","0.0-13.0-4.37","2d_cat_multi_stim_exp1","2022-3-28","10:32:14","25","75","3","9","10","40","30","120","2","19","[""White""]","No","Male","1834844","null","","null","","","clear_screen","","","","","","","","","","","","","","","","","","","","","","","","",""
"","","","","","canvas-keyboard-response","203","244149","0.0-13.0-0.38","2d_cat_multi_stim_exp1","2022-3-28","10:32:14","25","75","3","9","10","40","30","120","2","19","[""White""]","No","Male","1834844","null","","null","","","fixation","","","","","","","","","","","","","","","","","","","","","","","","",""
"","","","","","canvas-keyboard-response","204","244658","0.0-13.0-1.38","2d_cat_multi_stim_exp1","2022-3-28","10:32:14","25","75","3","9","10","40","30","120","2","19","[""White""]","No","Male","1834844","null","","null","","","clear_screen","","","","","","","","","","","","","","","","","","","","","","","","",""
"","","","","","canvas-keyboard-response","205","245014","0.0-13.0-2.38","2d_cat_multi_stim_exp1","2022-3-28","10:32:14","25","75","3","9","10","40","30","120","2","19","[""White""]","No","Male","1834844","347","","i","learn","","learn_trial","33.3333","70","out","0","1","","","","","","","","","","","","","","","","","","","",""
"","","","","","canvas-keyboard-response","206","245524","0.0-13.0-3.38","2d_cat_multi_stim_exp1","2022-3-28","10:32:14","25","75","3","9","10","40","30","120","2","19","[""White""]","No","Male","1834844","null","","null","learn_feedback","","learn_feedback","33.3333","70","out","","","","","","","","","","","","","","","","","","","","","",""
"","","","","","canvas-keyboard-response","207","245582","0.0-13.0-4.38","2d_cat_multi_stim_exp1","2022-3-28","10:32:14","25","75","3","9","10","40","30","120","2","19","[""White""]","No","Male","1834844","null","","null","","","clear_screen","","","","","","","","","","","","","","","","","","","","","","","","",""
"","","","","","canvas-keyboard-response","208","246090","0.0-13.0-0.39","2d_cat_multi_stim_exp1","2022-3-28","10:32:14","25","75","3","9","10","40","30","120","2","19","[""White""]","No","Male","1834844","null","","null","","","fixation","","","","","","","","","","","","","","","","","","","","","","","","",""
"","","","","","canvas-keyboard-response","209","246600","0.0-13.0-1.39","2d_cat_multi_stim_exp1","2022-3-28","10:32:14","25","75","3","9","10","40","30","120","2","19","[""White""]","No","Male","1834844","null","","null","","","clear_screen","","","","","","","","","","","","","","","","","","","","","","","","",""
"","","","","","canvas-keyboard-response","210","246879","0.0-13.0-2.39","2d_cat_multi_stim_exp1","2022-3-28","10:32:14","25","75","3","9","10","40","30","120","2","19","[""White""]","No","Male","1834844","270","","u","learn","","learn_trial","33.3333","80","out","1","0","","","","","","","","","","","","","","","","","","","",""
"","","","","","canvas-keyboard-response","211","247887","0.0-13.0-3.39","2d_cat_multi_stim_exp1","2022-3-28","10:32:14","25","75","3","9","10","40","30","120","2","19","[""White""]","No","Male","1834844","null","","null","learn_feedback","","learn_feedback","33.3333","80","out","","","","","","","","","","","","","","","","","","","","","",""
"","","","","","canvas-keyboard-response","212","247946","0.0-13.0-4.39","2d_cat_multi_stim_exp1","2022-3-28","10:32:14","25","75","3","9","10","40","30","120","2","19","[""White""]","No","Male","1834844","null","","null","","","clear_screen","","","","","","","","","","","","","","","","","","","","","","","","",""
"","","","","","canvas-keyboard-response","213","248453","0.0-13.0-0.40","2d_cat_multi_stim_exp1","2022-3-28","10:32:14","25","75","3","9","10","40","30","120","2","19","[""White""]","No","Male","1834844","null","","null","","","fixation","","","","","","","","","","","","","","","","","","","","","","","","",""
"","","","","","canvas-keyboard-response","214","248962","0.0-13.0-1.40","2d_cat_multi_stim_exp1","2022-3-28","10:32:14","25","75","3","9","10","40","30","120","2","19","[""White""]","No","Male","1834844","null","","null","","","clear_screen","","","","","","","","","","","","","","","","","","","","","","","","",""
"","","","","","canvas-keyboard-response","215","249254","0.0-13.0-2.40","2d_cat_multi_stim_exp1","2022-3-28","10:32:14","25","75","3","9","10","40","30","120","2","19","[""White""]","No","Male","1834844","284","","i","learn","","learn_trial","30","100","out","0","1","","","","","","","","","","","","","","","","","","","",""
"","","","","","canvas-keyboard-response","216","249763","0.0-13.0-3.40","2d_cat_multi_stim_exp1","2022-3-28","10:32:14","25","75","3","9","10","40","30","120","2","19","[""White""]","No","Male","1834844","null","","null","learn_feedback","","learn_feedback","30","100","out","","","","","","","","","","","","","","","","","","","","","",""
"","","","","","canvas-keyboard-response","217","249821","0.0-13.0-4.40","2d_cat_multi_stim_exp1","2022-3-28","10:32:14","25","75","3","9","10","40","30","120","2","19","[""White""]","No","Male","1834844","null","","null","","","clear_screen","","","","","","","","","","","","","","","","","","","","","","","","",""
"","","","","","canvas-keyboard-response","218","250329","0.0-13.0-0.41","2d_cat_multi_stim_exp1","2022-3-28","10:32:14","25","75","3","9","10","40","30","120","2","19","[""White""]","No","Male","1834844","null","","null","","","fixation","","","","","","","","","","","","","","","","","","","","","","","","",""
"","","","","","canvas-keyboard-response","219","250837","0.0-13.0-1.41","2d_cat_multi_stim_exp1","2022-3-28","10:32:14","25","75","3","9","10","40","30","120","2","19","[""White""]","No","Male","1834844","null","","null","","","clear_screen","","","","","","","","","","","","","","","","","","","","","","","","",""
"","","","","","canvas-keyboard-response","220","253286","0.0-13.0-2.41","2d_cat_multi_stim_exp1","2022-3-28","10:32:14","25","75","3","9","10","40","30","120","2","19","[""White""]","No","Male","1834844","2439","","i","learn","","learn_trial","25","75","in","0","0","","","","","","","","","","","","","","","","","","","",""
"","","","","","canvas-keyboard-response","221","254295","0.0-13.0-3.41","2d_cat_multi_stim_exp1","2022-3-28","10:32:14","25","75","3","9","10","40","30","120","2","19","[""White""]","No","Male","1834844","null","","null","learn_feedback","","learn_feedback","25","75","in","","","","","","","","","","","","","","","","","","","","","",""
"","","","","","canvas-keyboard-response","222","254353","0.0-13.0-4.41","2d_cat_multi_stim_exp1","2022-3-28","10:32:14","25","75","3","9","10","40","30","120","2","19","[""White""]","No","Male","1834844","null","","null","","","clear_screen","","","","","","","","","","","","","","","","","","","","","","","","",""
"","","","","","canvas-keyboard-response","223","254864","0.0-13.0-0.42","2d_cat_multi_stim_exp1","2022-3-28","10:32:14","25","75","3","9","10","40","30","120","2","19","[""White""]","No","Male","1834844","null","","null","","","fixation","","","","","","","","","","","","","","","","","","","","","","","","",""
"","","","","","canvas-keyboard-response","224","255373","0.0-13.0-1.42","2d_cat_multi_stim_exp1","2022-3-28","10:32:14","25","75","3","9","10","40","30","120","2","19","[""White""]","No","Male","1834844","null","","null","","","clear_screen","","","","","","","","","","","","","","","","","","","","","","","","",""
"","","","","","canvas-keyboard-response","225","255933","0.0-13.0-2.42","2d_cat_multi_stim_exp1","2022-3-28","10:32:14","25","75","3","9","10","40","30","120","2","19","[""White""]","No","Male","1834844","553","","u","learn","","learn_trial","33.3333","60","out","1","0","","","","","","","","","","","","","","","","","","","",""
"","","","","","canvas-keyboard-response","226","256944","0.0-13.0-3.42","2d_cat_multi_stim_exp1","2022-3-28","10:32:14","25","75","3","9","10","40","30","120","2","19","[""White""]","No","Male","1834844","null","","null","learn_feedback","","learn_feedback","33.3333","60","out","","","","","","","","","","","","","","","","","","","","","",""
"","","","","","canvas-keyboard-response","227","257001","0.0-13.0-4.42","2d_cat_multi_stim_exp1","2022-3-28","10:32:14","25","75","3","9","10","40","30","120","2","19","[""White""]","No","Male","1834844","null","","null","","","clear_screen","","","","","","","","","","","","","","","","","","","","","","","","",""
"","","","","","canvas-keyboard-response","228","257509","0.0-13.0-0.43","2d_cat_multi_stim_exp1","2022-3-28","10:32:14","25","75","3","9","10","40","30","120","2","19","[""White""]","No","Male","1834844","null","","null","","","fixation","","","","","","","","","","","","","","","","","","","","","","","","",""
"","","","","","canvas-keyboard-response","229","258018","0.0-13.0-1.43","2d_cat_multi_stim_exp1","2022-3-28","10:32:14","25","75","3","9","10","40","30","120","2","19","[""White""]","No","Male","1834844","null","","null","","","clear_screen","","","","","","","","","","","","","","","","","","","","","","","","",""
"","","","","","canvas-keyboard-response","230","258429","0.0-13.0-2.43","2d_cat_multi_stim_exp1","2022-3-28","10:32:14","25","75","3","9","10","40","30","120","2","19","[""White""]","No","Male","1834844","404","","i","learn","","learn_trial","10","70","out","0","1","","","","","","","","","","","","","","","","","","","",""
"","","","","","canvas-keyboard-response","231","258940","0.0-13.0-3.43","2d_cat_multi_stim_exp1","2022-3-28","10:32:14","25","75","3","9","10","40","30","120","2","19","[""White""]","No","Male","1834844","null","","null","learn_feedback","","learn_feedback","10","70","out","","","","","","","","","","","","","","","","","","","","","",""
"","","","","","canvas-keyboard-response","232","258997","0.0-13.0-4.43","2d_cat_multi_stim_exp1","2022-3-28","10:32:14","25","75","3","9","10","40","30","120","2","19","[""White""]","No","Male","1834844","null","","null","","","clear_screen","","","","","","","","","","","","","","","","","","","","","","","","",""
"","","","","","canvas-keyboard-response","233","259505","0.0-13.0-0.44","2d_cat_multi_stim_exp1","2022-3-28","10:32:14","25","75","3","9","10","40","30","120","2","19","[""White""]","No","Male","1834844","null","","null","","","fixation","","","","","","","","","","","","","","","","","","","","","","","","",""
"","","","","","canvas-keyboard-response","234","260014","0.0-13.0-1.44","2d_cat_multi_stim_exp1","2022-3-28","10:32:14","25","75","3","9","10","40","30","120","2","19","[""White""]","No","Male","1834844","null","","null","","","clear_screen","","","","","","","","","","","","","","","","","","","","","","","","",""
"","","","","","canvas-keyboard-response","235","260742","0.0-13.0-2.44","2d_cat_multi_stim_exp1","2022-3-28","10:32:14","25","75","3","9","10","40","30","120","2","19","[""White""]","No","Male","1834844","718","","i","learn","","learn_trial","25","75","in","0","0","","","","","","","","","","","","","","","","","","","",""
"","","","","","canvas-keyboard-response","236","261751","0.0-13.0-3.44","2d_cat_multi_stim_exp1","2022-3-28","10:32:14","25","75","3","9","10","40","30","120","2","19","[""White""]","No","Male","1834844","null","","null","learn_feedback","","learn_feedback","25","75","in","","","","","","","","","","","","","","","","","","","","","",""
"","","","","","canvas-keyboard-response","237","261809","0.0-13.0-4.44","2d_cat_multi_stim_exp1","2022-3-28","10:32:14","25","75","3","9","10","40","30","120","2","19","[""White""]","No","Male","1834844","null","","null","","","clear_screen","","","","","","","","","","","","","","","","","","","","","","","","",""
"","","","","","canvas-keyboard-response","238","262318","0.0-13.0-0.45","2d_cat_multi_stim_exp1","2022-3-28","10:32:14","25","75","3","9","10","40","30","120","2","19","[""White""]","No","Male","1834844","null","","null","","","fixation","","","","","","","","","","","","","","","","","","","","","","","","",""
"","","","","","canvas-keyboard-response","239","262826","0.0-13.0-1.45","2d_cat_multi_stim_exp1","2022-3-28","10:32:14","25","75","3","9","10","40","30","120","2","19","[""White""]","No","Male","1834844","null","","null","","","clear_screen","","","","","","","","","","","","","","","","","","","","","","","","",""
"","","","","","canvas-keyboard-response","240","263582","0.0-13.0-2.45","2d_cat_multi_stim_exp1","2022-3-28","10:32:14","25","75","3","9","10","40","30","120","2","19","[""White""]","No","Male","1834844","747","","u","learn","","learn_trial","25","75","in","1","1","","","","","","","","","","","","","","","","","","","",""
"","","","","","canvas-keyboard-response","241","264091","0.0-13.0-3.45","2d_cat_multi_stim_exp1","2022-3-28","10:32:14","25","75","3","9","10","40","30","120","2","19","[""White""]","No","Male","1834844","null","","null","learn_feedback","","learn_feedback","25","75","in","","","","","","","","","","","","","","","","","","","","","",""
"","","","","","canvas-keyboard-response","242","264148","0.0-13.0-4.45","2d_cat_multi_stim_exp1","2022-3-28","10:32:14","25","75","3","9","10","40","30","120","2","19","[""White""]","No","Male","1834844","null","","null","","","clear_screen","","","","","","","","","","","","","","","","","","","","","","","","",""
"","","","","","canvas-keyboard-response","243","264657","0.0-13.0-0.46","2d_cat_multi_stim_exp1","2022-3-28","10:32:14","25","75","3","9","10","40","30","120","2","19","[""White""]","No","Male","1834844","null","","null","","","fixation","","","","","","","","","","","","","","","","","","","","","","","","",""
"","","","","","canvas-keyboard-response","244","265166","0.0-13.0-1.46","2d_cat_multi_stim_exp1","2022-3-28","10:32:14","25","75","3","9","10","40","30","120","2","19","[""White""]","No","Male","1834844","null","","null","","","clear_screen","","","","","","","","","","","","","","","","","","","","","","","","",""
"","","","","","canvas-keyboard-response","245","265846","0.0-13.0-2.46","2d_cat_multi_stim_exp1","2022-3-28","10:32:14","25","75","3","9","10","40","30","120","2","19","[""White""]","No","Male","1834844","673","","u","learn","","learn_trial","25","75","in","1","1","","","","","","","","","","","","","","","","","","","",""
"","","","","","canvas-keyboard-response","246","266355","0.0-13.0-3.46","2d_cat_multi_stim_exp1","2022-3-28","10:32:14","25","75","3","9","10","40","30","120","2","19","[""White""]","No","Male","1834844","null","","null","learn_feedback","","learn_feedback","25","75","in","","","","","","","","","","","","","","","","","","","","","",""
"","","","","","canvas-keyboard-response","247","266413","0.0-13.0-4.46","2d_cat_multi_stim_exp1","2022-3-28","10:32:14","25","75","3","9","10","40","30","120","2","19","[""White""]","No","Male","1834844","null","","null","","","clear_screen","","","","","","","","","","","","","","","","","","","","","","","","",""
"","","","","","canvas-keyboard-response","248","266921","0.0-13.0-0.47","2d_cat_multi_stim_exp1","2022-3-28","10:32:14","25","75","3","9","10","40","30","120","2","19","[""White""]","No","Male","1834844","null","","null","","","fixation","","","","","","","","","","","","","","","","","","","","","","","","",""
"","","","","","canvas-keyboard-response","249","267430","0.0-13.0-1.47","2d_cat_multi_stim_exp1","2022-3-28","10:32:14","25","75","3","9","10","40","30","120","2","19","[""White""]","No","Male","1834844","null","","null","","","clear_screen","","","","","","","","","","","","","","","","","","","","","","","","",""
"","","","","","canvas-keyboard-response","250","268302","0.0-13.0-2.47","2d_cat_multi_stim_exp1","2022-3-28","10:32:14","25","75","3","9","10","40","30","120","2","19","[""White""]","No","Male","1834844","864","","i","learn","","learn_trial","20","90","out","0","1","","","","","","","","","","","","","","","","","","","",""
"","","","","","canvas-keyboard-response","251","268811","0.0-13.0-3.47","2d_cat_multi_stim_exp1","2022-3-28","10:32:14","25","75","3","9","10","40","30","120","2","19","[""White""]","No","Male","1834844","null","","null","learn_feedback","","learn_feedback","20","90","out","","","","","","","","","","","","","","","","","","","","","",""
"","","","","","canvas-keyboard-response","252","268869","0.0-13.0-4.47","2d_cat_multi_stim_exp1","2022-3-28","10:32:14","25","75","3","9","10","40","30","120","2","19","[""White""]","No","Male","1834844","null","","null","","","clear_screen","","","","","","","","","","","","","","","","","","","","","","","","",""
"","","","","","canvas-keyboard-response","253","269379","0.0-13.0-0.48","2d_cat_multi_stim_exp1","2022-3-28","10:32:14","25","75","3","9","10","40","30","120","2","19","[""White""]","No","Male","1834844","null","","null","","","fixation","","","","","","","","","","","","","","","","","","","","","","","","",""
"","","","","","canvas-keyboard-response","254","269891","0.0-13.0-1.48","2d_cat_multi_stim_exp1","2022-3-28","10:32:14","25","75","3","9","10","40","30","120","2","19","[""White""]","No","Male","1834844","null","","null","","","clear_screen","","","","","","","","","","","","","","","","","","","","","","","","",""
"","","","","","canvas-keyboard-response","255","270406","0.0-13.0-2.48","2d_cat_multi_stim_exp1","2022-3-28","10:32:14","25","75","3","9","10","40","30","120","2","19","[""White""]","No","Male","1834844","503","","i","learn","","learn_trial","25","57","in","0","0","","","","","","","","","","","","","","","","","","","",""
"","","","","","canvas-keyboard-response","256","271416","0.0-13.0-3.48","2d_cat_multi_stim_exp1","2022-3-28","10:32:14","25","75","3","9","10","40","30","120","2","19","[""White""]","No","Male","1834844","null","","null","learn_feedback","","learn_feedback","25","57","in","","","","","","","","","","","","","","","","","","","","","",""
"","","","","","canvas-keyboard-response","257","271475","0.0-13.0-4.48","2d_cat_multi_stim_exp1","2022-3-28","10:32:14","25","75","3","9","10","40","30","120","2","19","[""White""]","No","Male","1834844","null","","null","","","clear_screen","","","","","","","","","","","","","","","","","","","","","","","","",""
"","","","","","canvas-keyboard-response","258","271984","0.0-13.0-0.49","2d_cat_multi_stim_exp1","2022-3-28","10:32:14","25","75","3","9","10","40","30","120","2","19","[""White""]","No","Male","1834844","null","","null","","","fixation","","","","","","","","","","","","","","","","","","","","","","","","",""
"","","","","","canvas-keyboard-response","259","272493","0.0-13.0-1.49","2d_cat_multi_stim_exp1","2022-3-28","10:32:14","25","75","3","9","10","40","30","120","2","19","[""White""]","No","Male","1834844","null","","null","","","clear_screen","","","","","","","","","","","","","","","","","","","","","","","","",""
"","","","","","canvas-keyboard-response","260","273749","0.0-13.0-2.49","2d_cat_multi_stim_exp1","2022-3-28","10:32:14","25","75","3","9","10","40","30","120","2","19","[""White""]","No","Male","1834844","1247","","i","learn","","learn_trial","25","75","in","0","0","","","","","","","","","","","","","","","","","","","",""
"","","","","","canvas-keyboard-response","261","274760","0.0-13.0-3.49","2d_cat_multi_stim_exp1","2022-3-28","10:32:14","25","75","3","9","10","40","30","120","2","19","[""White""]","No","Male","1834844","null","","null","learn_feedback","","learn_feedback","25","75","in","","","","","","","","","","","","","","","","","","","","","",""
"","","","","","canvas-keyboard-response","262","274819","0.0-13.0-4.49","2d_cat_multi_stim_exp1","2022-3-28","10:32:14","25","75","3","9","10","40","30","120","2","19","[""White""]","No","Male","1834844","null","","null","","","clear_screen","","","","","","","","","","","","","","","","","","","","","","","","",""
"","","","","","canvas-keyboard-response","263","275327","0.0-13.0-0.50","2d_cat_multi_stim_exp1","2022-3-28","10:32:14","25","75","3","9","10","40","30","120","2","19","[""White""]","No","Male","1834844","null","","null","","","fixation","","","","","","","","","","","","","","","","","","","","","","","","",""
"","","","","","canvas-keyboard-response","264","275837","0.0-13.0-1.50","2d_cat_multi_stim_exp1","2022-3-28","10:32:14","25","75","3","9","10","40","30","120","2","19","[""White""]","No","Male","1834844","null","","null","","","clear_screen","","","","","","","","","","","","","","","","","","","","","","","","",""
"","","","","","canvas-keyboard-response","265","276366","0.0-13.0-2.50","2d_cat_multi_stim_exp1","2022-3-28","10:32:14","25","75","3","9","10","40","30","120","2","19","[""White""]","No","Male","1834844","519","","u","learn","","learn_trial","24.8654","83.9909","in","1","1","","","","","","","","","","","","","","","","","","","",""
"","","","","","canvas-keyboard-response","266","276876","0.0-13.0-3.50","2d_cat_multi_stim_exp1","2022-3-28","10:32:14","25","75","3","9","10","40","30","120","2","19","[""White""]","No","Male","1834844","null","","null","learn_feedback","","learn_feedback","24.8654","83.9909","in","","","","","","","","","","","","","","","","","","","","","",""
"","","","","","canvas-keyboard-response","267","276934","0.0-13.0-4.50","2d_cat_multi_stim_exp1","2022-3-28","10:32:14","25","75","3","9","10","40","30","120","2","19","[""White""]","No","Male","1834844","null","","null","","","clear_screen","","","","","","","","","","","","","","","","","","","","","","","","",""
"","","","","","canvas-keyboard-response","268","277442","0.0-13.0-0.51","2d_cat_multi_stim_exp1","2022-3-28","10:32:14","25","75","3","9","10","40","30","120","2","19","[""White""]","No","Male","1834844","null","","null","","","fixation","","","","","","","","","","","","","","","","","","","","","","","","",""
"","","","","","canvas-keyboard-response","269","277956","0.0-13.0-1.51","2d_cat_multi_stim_exp1","2022-3-28","10:32:14","25","75","3","9","10","40","30","120","2","19","[""White""]","No","Male","1834844","null","","null","","","clear_screen","","","","","","","","","","","","","","","","","","","","","","","","",""
"","","","","","canvas-keyboard-response","270","278525","0.0-13.0-2.51","2d_cat_multi_stim_exp1","2022-3-28","10:32:14","25","75","3","9","10","40","30","120","2","19","[""White""]","No","Male","1834844","561","","u","learn","","learn_trial","25","75","in","1","1","","","","","","","","","","","","","","","","","","","",""
"","","","","","canvas-keyboard-response","271","279034","0.0-13.0-3.51","2d_cat_multi_stim_exp1","2022-3-28","10:32:14","25","75","3","9","10","40","30","120","2","19","[""White""]","No","Male","1834844","null","","null","learn_feedback","","learn_feedback","25","75","in","","","","","","","","","","","","","","","","","","","","","",""
"","","","","","canvas-keyboard-response","272","279093","0.0-13.0-4.51","2d_cat_multi_stim_exp1","2022-3-28","10:32:14","25","75","3","9","10","40","30","120","2","19","[""White""]","No","Male","1834844","null","","null","","","clear_screen","","","","","","","","","","","","","","","","","","","","","","","","",""
"","","","","","canvas-keyboard-response","273","279601","0.0-13.0-0.52","2d_cat_multi_stim_exp1","2022-3-28","10:32:14","25","75","3","9","10","40","30","120","2","19","[""White""]","No","Male","1834844","null","","null","","","fixation","","","","","","","","","","","","","","","","","","","","","","","","",""
"","","","","","canvas-keyboard-response","274","280109","0.0-13.0-1.52","2d_cat_multi_stim_exp1","2022-3-28","10:32:14","25","75","3","9","10","40","30","120","2","19","[""White""]","No","Male","1834844","null","","null","","","clear_screen","","","","","","","","","","","","","","","","","","","","","","","","",""
"","","","","","canvas-keyboard-response","275","280933","0.0-13.0-2.52","2d_cat_multi_stim_exp1","2022-3-28","10:32:14","25","75","3","9","10","40","30","120","2","19","[""White""]","No","Male","1834844","815","","i","learn","","learn_trial","25","75","in","0","0","","","","","","","","","","","","","","","","","","","",""
"","","","","","canvas-keyboard-response","276","281942","0.0-13.0-3.52","2d_cat_multi_stim_exp1","2022-3-28","10:32:14","25","75","3","9","10","40","30","120","2","19","[""White""]","No","Male","1834844","null","","null","learn_feedback","","learn_feedback","25","75","in","","","","","","","","","","","","","","","","","","","","","",""
"","","","","","canvas-keyboard-response","277","282001","0.0-13.0-4.52","2d_cat_multi_stim_exp1","2022-3-28","10:32:14","25","75","3","9","10","40","30","120","2","19","[""White""]","No","Male","1834844","null","","null","","","clear_screen","","","","","","","","","","","","","","","","","","","","","","","","",""
"","","","","","canvas-keyboard-response","278","282509","0.0-13.0-0.53","2d_cat_multi_stim_exp1","2022-3-28","10:32:14","25","75","3","9","10","40","30","120","2","19","[""White""]","No","Male","1834844","null","","null","","","fixation","","","","","","","","","","","","","","","","","","","","","","","","",""
"","","","","","canvas-keyboard-response","279","283017","0.0-13.0-1.53","2d_cat_multi_stim_exp1","2022-3-28","10:32:14","25","75","3","9","10","40","30","120","2","19","[""White""]","No","Male","1834844","null","","null","","","clear_screen","","","","","","","","","","","","","","","","","","","","","","","","",""
"","","","","","canvas-keyboard-response","280","283589","0.0-13.0-2.53","2d_cat_multi_stim_exp1","2022-3-28","10:32:14","25","75","3","9","10","40","30","120","2","19","[""White""]","No","Male","1834844","564","","i","learn","","learn_trial","36.6667","30","out","0","1","","","","","","","","","","","","","","","","","","","",""
"","","","","","canvas-keyboard-response","281","284099","0.0-13.0-3.53","2d_cat_multi_stim_exp1","2022-3-28","10:32:14","25","75","3","9","10","40","30","120","2","19","[""White""]","No","Male","1834844","null","","null","learn_feedback","","learn_feedback","36.6667","30","out","","","","","","","","","","","","","","","","","","","","","",""
"","","","","","canvas-keyboard-response","282","284157","0.0-13.0-4.53","2d_cat_multi_stim_exp1","2022-3-28","10:32:14","25","75","3","9","10","40","30","120","2","19","[""White""]","No","Male","1834844","null","","null","","","clear_screen","","","","","","","","","","","","","","","","","","","","","","","","",""
"","","","","","canvas-keyboard-response","283","284665","0.0-13.0-0.54","2d_cat_multi_stim_exp1","2022-3-28","10:32:14","25","75","3","9","10","40","30","120","2","19","[""White""]","No","Male","1834844","null","","null","","","fixation","","","","","","","","","","","","","","","","","","","","","","","","",""
"","","","","","canvas-keyboard-response","284","285175","0.0-13.0-1.54","2d_cat_multi_stim_exp1","2022-3-28","10:32:14","25","75","3","9","10","40","30","120","2","19","[""White""]","No","Male","1834844","null","","null","","","clear_screen","","","","","","","","","","","","","","","","","","","","","","","","",""
"","","","","","canvas-keyboard-response","285","285846","0.0-13.0-2.54","2d_cat_multi_stim_exp1","2022-3-28","10:32:14","25","75","3","9","10","40","30","120","2","19","[""White""]","No","Male","1834844","662","","u","learn","","learn_trial","13.3333","120","out","1","0","","","","","","","","","","","","","","","","","","","",""
"","","","","","canvas-keyboard-response","286","286854","0.0-13.0-3.54","2d_cat_multi_stim_exp1","2022-3-28","10:32:14","25","75","3","9","10","40","30","120","2","19","[""White""]","No","Male","1834844","null","","null","learn_feedback","","learn_feedback","13.3333","120","out","","","","","","","","","","","","","","","","","","","","","",""
"","","","","","canvas-keyboard-response","287","286914","0.0-13.0-4.54","2d_cat_multi_stim_exp1","2022-3-28","10:32:14","25","75","3","9","10","40","30","120","2","19","[""White""]","No","Male","1834844","null","","null","","","clear_screen","","","","","","","","","","","","","","","","","","","","","","","","",""
"","","","","","canvas-keyboard-response","288","287422","0.0-13.0-0.55","2d_cat_multi_stim_exp1","2022-3-28","10:32:14","25","75","3","9","10","40","30","120","2","19","[""White""]","No","Male","1834844","null","","null","","","fixation","","","","","","","","","","","","","","","","","","","","","","","","",""
"","","","","","canvas-keyboard-response","289","287930","0.0-13.0-1.55","2d_cat_multi_stim_exp1","2022-3-28","10:32:14","25","75","3","9","10","40","30","120","2","19","[""White""]","No","Male","1834844","null","","null","","","clear_screen","","","","","","","","","","","","","","","","","","","","","","","","",""
"","","","","","canvas-keyboard-response","290","288318","0.0-13.0-2.55","2d_cat_multi_stim_exp1","2022-3-28","10:32:14","25","75","3","9","10","40","30","120","2","19","[""White""]","No","Male","1834844","378","","u","learn","","learn_trial","40","110","out","1","0","","","","","","","","","","","","","","","","","","","",""
"","","","","","canvas-keyboard-response","291","289326","0.0-13.0-3.55","2d_cat_multi_stim_exp1","2022-3-28","10:32:14","25","75","3","9","10","40","30","120","2","19","[""White""]","No","Male","1834844","null","","null","learn_feedback","","learn_feedback","40","110","out","","","","","","","","","","","","","","","","","","","","","",""
"","","","","","canvas-keyboard-response","292","289384","0.0-13.0-4.55","2d_cat_multi_stim_exp1","2022-3-28","10:32:14","25","75","3","9","10","40","30","120","2","19","[""White""]","No","Male","1834844","null","","null","","","clear_screen","","","","","","","","","","","","","","","","","","","","","","","","",""
"","","","","","canvas-keyboard-response","293","289893","0.0-13.0-0.56","2d_cat_multi_stim_exp1","2022-3-28","10:32:14","25","75","3","9","10","40","30","120","2","19","[""White""]","No","Male","1834844","null","","null","","","fixation","","","","","","","","","","","","","","","","","","","","","","","","",""
"","","","","","canvas-keyboard-response","294","290402","0.0-13.0-1.56","2d_cat_multi_stim_exp1","2022-3-28","10:32:14","25","75","3","9","10","40","30","120","2","19","[""White""]","No","Male","1834844","null","","null","","","clear_screen","","","","","","","","","","","","","","","","","","","","","","","","",""
"","","","","","canvas-keyboard-response","295","290719","0.0-13.0-2.56","2d_cat_multi_stim_exp1","2022-3-28","10:32:14","25","75","3","9","10","40","30","120","2","19","[""White""]","No","Male","1834844","308","","u","learn","","learn_trial","20","70","out","1","0","","","","","","","","","","","","","","","","","","","",""
"","","","","","canvas-keyboard-response","296","291726","0.0-13.0-3.56","2d_cat_multi_stim_exp1","2022-3-28","10:32:14","25","75","3","9","10","40","30","120","2","19","[""White""]","No","Male","1834844","null","","null","learn_feedback","","learn_feedback","20","70","out","","","","","","","","","","","","","","","","","","","","","",""
"","","","","","canvas-keyboard-response","297","291785","0.0-13.0-4.56","2d_cat_multi_stim_exp1","2022-3-28","10:32:14","25","75","3","9","10","40","30","120","2","19","[""White""]","No","Male","1834844","null","","null","","","clear_screen","","","","","","","","","","","","","","","","","","","","","","","","",""
"","","","","","canvas-keyboard-response","298","292293","0.0-13.0-0.57","2d_cat_multi_stim_exp1","2022-3-28","10:32:14","25","75","3","9","10","40","30","120","2","19","[""White""]","No","Male","1834844","null","","null","","","fixation","","","","","","","","","","","","","","","","","","","","","","","","",""
"","","","","","canvas-keyboard-response","299","292802","0.0-13.0-1.57","2d_cat_multi_stim_exp1","2022-3-28","10:32:14","25","75","3","9","10","40","30","120","2","19","[""White""]","No","Male","1834844","null","","null","","","clear_screen","","","","","","","","","","","","","","","","","","","","","","","","",""
"","","","","","canvas-keyboard-response","300","293157","0.0-13.0-2.57","2d_cat_multi_stim_exp1","2022-3-28","10:32:14","25","75","3","9","10","40","30","120","2","19","[""White""]","No","Male","1834844","346","","u","learn","","learn_trial","19","75","in","1","1","","","","","","","","","","","","","","","","","","","",""
"","","","","","canvas-keyboard-response","301","293667","0.0-13.0-3.57","2d_cat_multi_stim_exp1","2022-3-28","10:32:14","25","75","3","9","10","40","30","120","2","19","[""White""]","No","Male","1834844","null","","null","learn_feedback","","learn_feedback","19","75","in","","","","","","","","","","","","","","","","","","","","","",""
