"success","timeout","failed_images","failed_audio","failed_video","trial_type","trial_index","time_elapsed","internal_node_id","exp_name","date","time","angle_mean_in","radius_mean_in","angle_sd_in","radius_sd_in","angle_min_out","angle_max_out","radius_min_out","radius_max_out","sub_n","age","race","ethnicity","gender","exp_duration","rt","response","exp_trial_type","stimulus","view_history","screen_id","angle","radius","distribution","choice","correct","order","angle_a","radius_a","angle_b","radius_b","angle_c","radius_c","jkl_correct","transfer_trial_type","choice_set","abc_correct","tc_correct","tc_angle","tdc_a","tdc_b","tdc_c","pair","category_a","category_b","category_c","question_order"
"true","false","[]","[]","[]","preload","0","16","0.0-0.0","2d_cat_multi_stim_exp1","2022-4-5","15:32:31","25","75","3","9","10","40","30","120","13","18","[""White""]","No","Female","1974036","","","","","","","","","","","","","","","","","","","","","","","","","","","","","","","",""
"","","","","","survey-html-form","1","4526","0.0-1.0","2d_cat_multi_stim_exp1","2022-4-5","15:32:31","25","75","3","9","10","40","30","120","13","18","[""White""]","No","Female","1974036","4500","{""response"":""13""}","enter-sub-number","","","","","","","","","","","","","","","","","","","","","","","","","","","","",""
"true","","","","","fullscreen","2","7731","0.0-2.0","2d_cat_multi_stim_exp1","2022-4-5","15:32:31","25","75","3","9","10","40","30","120","13","18","[""White""]","No","Female","1974036","","","","","","","","","","","","","","","","","","","","","","","","","","","","","","","",""
"","","","","","image-button-response","3","146867","0.0-3.0","2d_cat_multi_stim_exp1","2022-4-5","15:32:31","25","75","3","9","10","40","30","120","13","18","[""White""]","No","Female","1974036","139127","0","","consent.png","","","","","","","","","","","","","","","","","","","","","","","","","","","",""
"","","","","","html-button-response","4","156667","0.0-4.0","2d_cat_multi_stim_exp1","2022-4-5","15:32:31","25","75","3","9","10","40","30","120","13","18","[""White""]","No","Female","1974036","9796","0","","<div style= ""font-size:25px;"" <p> <strong> Welcome to the experiment! </strong><br> <p style=""color:#8B0000; font-size:25px;""><strong> Please do NOT exit full screen until you are done with the experiment. </strong> </p><p style=""font-size:25px;color:#8B0000;""> <strong> The experiment will be canceled and your data will be lost <br> if you try to go back or refresh the page at any point during the experiment.</strong> </p><br><p> <strong> Thanks in advance for your contribution to our research! </strong></p>","","","","","","","","","","","","","","","","","","","","","","","","","","","",""
"","","","","","instructions","5","207073","0.0-5.0","2d_cat_multi_stim_exp1","2022-4-5","15:32:31","25","75","3","9","10","40","30","120","13","18","[""White""]","No","Female","1974036","50402","","","","[{""page_index"":0,""viewing_time"":8130},{""page_index"":1,""viewing_time"":3776},{""page_index"":2,""viewing_time"":15111},{""page_index"":3,""viewing_time"":23385}]","instructions_1","","","","","","","","","","","","","","","","","","","","","","","","","",""
"","","","","","instructions","6","209427","0.0-6.0","2d_cat_multi_stim_exp1","2022-4-5","15:32:31","25","75","3","9","10","40","30","120","13","18","[""White""]","No","Female","1974036","2350","","","","[{""page_index"":0,""viewing_time"":2349}]","Click to see the kinds of turtles that will appear in the study.","","","","","","","","","","","","","","","","","","","","","","","","","",""
"","","","","","canvas-keyboard-response","7","224445","0.0-7.0","2d_cat_multi_stim_exp1","2022-4-5","15:32:31","25","75","3","9","10","40","30","120","13","18","[""White""]","No","Female","1974036","null","null","","","","demo_range","","","","","","","","","","","","","","","","","","","","","","","","","",""
"","","","","","instructions","8","227218","0.0-8.0","2d_cat_multi_stim_exp1","2022-4-5","15:32:31","25","75","3","9","10","40","30","120","13","18","[""White""]","No","Female","1974036","2272","","","","[{""page_index"":0,""viewing_time"":2270}]","Click to see some turtles in the subspecies.","","","","","","","","","","","","","","","","","","","","","","","","","",""
"","","","","","canvas-keyboard-response","9","242233","0.0-9.0","2d_cat_multi_stim_exp1","2022-4-5","15:32:31","25","75","3","9","10","40","30","120","13","18","[""White""]","No","Female","1974036","null","null","","","","demo_in","","","","","","","","","","","","","","","","","","","","","","","","","",""
"","","","","","instructions","10","277682","0.0-10.0","2d_cat_multi_stim_exp1","2022-4-5","15:32:31","25","75","3","9","10","40","30","120","13","18","[""White""]","No","Female","1974036","34947","","","","[{""page_index"":0,""viewing_time"":8370},{""page_index"":1,""viewing_time"":18551},{""page_index"":2,""viewing_time"":8026}]","instructions_2","","","","","","","","","","","","","","","","","","","","","","","","","",""
"","","","","","instructions","11","279250","0.0-11.0","2d_cat_multi_stim_exp1","2022-4-5","15:32:31","25","75","3","9","10","40","30","120","13","18","[""White""]","No","Female","1974036","1566","","","","[{""page_index"":0,""viewing_time"":1565}]","Click to begin the first phase of the experiment.","","","","","","","","","","","","","","","","","","","","","","","","","",""
"","","","","","canvas-keyboard-response","12","279759","0.0-12.0-0.0","2d_cat_multi_stim_exp1","2022-4-5","15:32:31","25","75","3","9","10","40","30","120","13","18","[""White""]","No","Female","1974036","null","null","","","","fixation","","","","","","","","","","","","","","","","","","","","","","","","","",""
"","","","","","canvas-keyboard-response","13","280273","0.0-12.0-1.0","2d_cat_multi_stim_exp1","2022-4-5","15:32:31","25","75","3","9","10","40","30","120","13","18","[""White""]","No","Female","1974036","null","null","","","","clear_screen","","","","","","","","","","","","","","","","","","","","","","","","","",""
"","","","","","canvas-keyboard-response","14","282554","0.0-12.0-2.0","2d_cat_multi_stim_exp1","2022-4-5","15:32:31","25","75","3","9","10","40","30","120","13","18","[""White""]","No","Female","1974036","2269","i","learn","","","learn_trial","33.3333","50","out","0","1","","","","","","","","","","","","","","","","","","","","",""
"","","","","","canvas-keyboard-response","15","283068","0.0-12.0-3.0","2d_cat_multi_stim_exp1","2022-4-5","15:32:31","25","75","3","9","10","40","30","120","13","18","[""White""]","No","Female","1974036","null","null","learn_feedback","","","learn_feedback","33.3333","50","out","","","","","","","","","","","","","","","","","","","","","","",""
"","","","","","canvas-keyboard-response","16","283128","0.0-12.0-4.0","2d_cat_multi_stim_exp1","2022-4-5","15:32:31","25","75","3","9","10","40","30","120","13","18","[""White""]","No","Female","1974036","null","null","","","","clear_screen","","","","","","","","","","","","","","","","","","","","","","","","","",""
"","","","","","canvas-keyboard-response","17","283640","0.0-12.0-0.1","2d_cat_multi_stim_exp1","2022-4-5","15:32:31","25","75","3","9","10","40","30","120","13","18","[""White""]","No","Female","1974036","null","null","","","","fixation","","","","","","","","","","","","","","","","","","","","","","","","","",""
"","","","","","canvas-keyboard-response","18","284152","0.0-12.0-1.1","2d_cat_multi_stim_exp1","2022-4-5","15:32:31","25","75","3","9","10","40","30","120","13","18","[""White""]","No","Female","1974036","null","null","","","","clear_screen","","","","","","","","","","","","","","","","","","","","","","","","","",""
"","","","","","canvas-keyboard-response","19","285425","0.0-12.0-2.1","2d_cat_multi_stim_exp1","2022-4-5","15:32:31","25","75","3","9","10","40","30","120","13","18","[""White""]","No","Female","1974036","1260","u","learn","","","learn_trial","25","75","in","1","1","","","","","","","","","","","","","","","","","","","","",""
"","","","","","canvas-keyboard-response","20","285935","0.0-12.0-3.1","2d_cat_multi_stim_exp1","2022-4-5","15:32:31","25","75","3","9","10","40","30","120","13","18","[""White""]","No","Female","1974036","null","null","learn_feedback","","","learn_feedback","25","75","in","","","","","","","","","","","","","","","","","","","","","","",""
"","","","","","canvas-keyboard-response","21","286000","0.0-12.0-4.1","2d_cat_multi_stim_exp1","2022-4-5","15:32:31","25","75","3","9","10","40","30","120","13","18","[""White""]","No","Female","1974036","null","null","","","","clear_screen","","","","","","","","","","","","","","","","","","","","","","","","","",""
"","","","","","canvas-keyboard-response","22","286511","0.0-12.0-0.2","2d_cat_multi_stim_exp1","2022-4-5","15:32:31","25","75","3","9","10","40","30","120","13","18","[""White""]","No","Female","1974036","null","null","","","","fixation","","","","","","","","","","","","","","","","","","","","","","","","","",""
"","","","","","canvas-keyboard-response","23","287021","0.0-12.0-1.2","2d_cat_multi_stim_exp1","2022-4-5","15:32:31","25","75","3","9","10","40","30","120","13","18","[""White""]","No","Female","1974036","null","null","","","","clear_screen","","","","","","","","","","","","","","","","","","","","","","","","","",""
"","","","","","canvas-keyboard-response","24","288257","0.0-12.0-2.2","2d_cat_multi_stim_exp1","2022-4-5","15:32:31","25","75","3","9","10","40","30","120","13","18","[""White""]","No","Female","1974036","1224","u","learn","","","learn_trial","16.6667","60","out","1","0","","","","","","","","","","","","","","","","","","","","",""
"","","","","","canvas-keyboard-response","25","289272","0.0-12.0-3.2","2d_cat_multi_stim_exp1","2022-4-5","15:32:31","25","75","3","9","10","40","30","120","13","18","[""White""]","No","Female","1974036","null","null","learn_feedback","","","learn_feedback","16.6667","60","out","","","","","","","","","","","","","","","","","","","","","","",""
"","","","","","canvas-keyboard-response","26","289333","0.0-12.0-4.2","2d_cat_multi_stim_exp1","2022-4-5","15:32:31","25","75","3","9","10","40","30","120","13","18","[""White""]","No","Female","1974036","null","null","","","","clear_screen","","","","","","","","","","","","","","","","","","","","","","","","","",""
"","","","","","canvas-keyboard-response","27","289841","0.0-12.0-0.3","2d_cat_multi_stim_exp1","2022-4-5","15:32:31","25","75","3","9","10","40","30","120","13","18","[""White""]","No","Female","1974036","null","null","","","","fixation","","","","","","","","","","","","","","","","","","","","","","","","","",""
"","","","","","canvas-keyboard-response","28","290351","0.0-12.0-1.3","2d_cat_multi_stim_exp1","2022-4-5","15:32:31","25","75","3","9","10","40","30","120","13","18","[""White""]","No","Female","1974036","null","null","","","","clear_screen","","","","","","","","","","","","","","","","","","","","","","","","","",""
"","","","","","canvas-keyboard-response","29","291393","0.0-12.0-2.3","2d_cat_multi_stim_exp1","2022-4-5","15:32:31","25","75","3","9","10","40","30","120","13","18","[""White""]","No","Female","1974036","1032","u","learn","","","learn_trial","26.6667","80","out","1","0","","","","","","","","","","","","","","","","","","","","",""
"","","","","","canvas-keyboard-response","30","292402","0.0-12.0-3.3","2d_cat_multi_stim_exp1","2022-4-5","15:32:31","25","75","3","9","10","40","30","120","13","18","[""White""]","No","Female","1974036","null","null","learn_feedback","","","learn_feedback","26.6667","80","out","","","","","","","","","","","","","","","","","","","","","","",""
"","","","","","canvas-keyboard-response","31","292463","0.0-12.0-4.3","2d_cat_multi_stim_exp1","2022-4-5","15:32:31","25","75","3","9","10","40","30","120","13","18","[""White""]","No","Female","1974036","null","null","","","","clear_screen","","","","","","","","","","","","","","","","","","","","","","","","","",""
"","","","","","canvas-keyboard-response","32","292970","0.0-12.0-0.4","2d_cat_multi_stim_exp1","2022-4-5","15:32:31","25","75","3","9","10","40","30","120","13","18","[""White""]","No","Female","1974036","null","null","","","","fixation","","","","","","","","","","","","","","","","","","","","","","","","","",""
"","","","","","canvas-keyboard-response","33","293482","0.0-12.0-1.4","2d_cat_multi_stim_exp1","2022-4-5","15:32:31","25","75","3","9","10","40","30","120","13","18","[""White""]","No","Female","1974036","null","null","","","","clear_screen","","","","","","","","","","","","","","","","","","","","","","","","","",""
"","","","","","canvas-keyboard-response","34","294818","0.0-12.0-2.4","2d_cat_multi_stim_exp1","2022-4-5","15:32:31","25","75","3","9","10","40","30","120","13","18","[""White""]","No","Female","1974036","1328","i","learn","","","learn_trial","26.6667","120","out","0","1","","","","","","","","","","","","","","","","","","","","",""
"","","","","","canvas-keyboard-response","35","295327","0.0-12.0-3.4","2d_cat_multi_stim_exp1","2022-4-5","15:32:31","25","75","3","9","10","40","30","120","13","18","[""White""]","No","Female","1974036","null","null","learn_feedback","","","learn_feedback","26.6667","120","out","","","","","","","","","","","","","","","","","","","","","","",""
"","","","","","canvas-keyboard-response","36","295388","0.0-12.0-4.4","2d_cat_multi_stim_exp1","2022-4-5","15:32:31","25","75","3","9","10","40","30","120","13","18","[""White""]","No","Female","1974036","null","null","","","","clear_screen","","","","","","","","","","","","","","","","","","","","","","","","","",""
"","","","","","canvas-keyboard-response","37","295897","0.0-12.0-0.5","2d_cat_multi_stim_exp1","2022-4-5","15:32:31","25","75","3","9","10","40","30","120","13","18","[""White""]","No","Female","1974036","null","null","","","","fixation","","","","","","","","","","","","","","","","","","","","","","","","","",""
"","","","","","canvas-keyboard-response","38","296410","0.0-12.0-1.5","2d_cat_multi_stim_exp1","2022-4-5","15:32:31","25","75","3","9","10","40","30","120","13","18","[""White""]","No","Female","1974036","null","null","","","","clear_screen","","","","","","","","","","","","","","","","","","","","","","","","","",""
"","","","","","canvas-keyboard-response","39","297641","0.0-12.0-2.5","2d_cat_multi_stim_exp1","2022-4-5","15:32:31","25","75","3","9","10","40","30","120","13","18","[""White""]","No","Female","1974036","1222","u","learn","","","learn_trial","24.8654","83.9909","in","1","1","","","","","","","","","","","","","","","","","","","","",""
"","","","","","canvas-keyboard-response","40","298151","0.0-12.0-3.5","2d_cat_multi_stim_exp1","2022-4-5","15:32:31","25","75","3","9","10","40","30","120","13","18","[""White""]","No","Female","1974036","null","null","learn_feedback","","","learn_feedback","24.8654","83.9909","in","","","","","","","","","","","","","","","","","","","","","","",""
"","","","","","canvas-keyboard-response","41","298210","0.0-12.0-4.5","2d_cat_multi_stim_exp1","2022-4-5","15:32:31","25","75","3","9","10","40","30","120","13","18","[""White""]","No","Female","1974036","null","null","","","","clear_screen","","","","","","","","","","","","","","","","","","","","","","","","","",""
"","","","","","canvas-keyboard-response","42","298720","0.0-12.0-0.6","2d_cat_multi_stim_exp1","2022-4-5","15:32:31","25","75","3","9","10","40","30","120","13","18","[""White""]","No","Female","1974036","null","null","","","","fixation","","","","","","","","","","","","","","","","","","","","","","","","","",""
"","","","","","canvas-keyboard-response","43","299232","0.0-12.0-1.6","2d_cat_multi_stim_exp1","2022-4-5","15:32:31","25","75","3","9","10","40","30","120","13","18","[""White""]","No","Female","1974036","null","null","","","","clear_screen","","","","","","","","","","","","","","","","","","","","","","","","","",""
"","","","","","canvas-keyboard-response","44","300393","0.0-12.0-2.6","2d_cat_multi_stim_exp1","2022-4-5","15:32:31","25","75","3","9","10","40","30","120","13","18","[""White""]","No","Female","1974036","1152","i","learn","","","learn_trial","26.6667","30","out","0","1","","","","","","","","","","","","","","","","","","","","",""
"","","","","","canvas-keyboard-response","45","300903","0.0-12.0-3.6","2d_cat_multi_stim_exp1","2022-4-5","15:32:31","25","75","3","9","10","40","30","120","13","18","[""White""]","No","Female","1974036","null","null","learn_feedback","","","learn_feedback","26.6667","30","out","","","","","","","","","","","","","","","","","","","","","","",""
"","","","","","canvas-keyboard-response","46","300964","0.0-12.0-4.6","2d_cat_multi_stim_exp1","2022-4-5","15:32:31","25","75","3","9","10","40","30","120","13","18","[""White""]","No","Female","1974036","null","null","","","","clear_screen","","","","","","","","","","","","","","","","","","","","","","","","","",""
"","","","","","canvas-keyboard-response","47","301468","0.0-12.0-0.7","2d_cat_multi_stim_exp1","2022-4-5","15:32:31","25","75","3","9","10","40","30","120","13","18","[""White""]","No","Female","1974036","null","null","","","","fixation","","","","","","","","","","","","","","","","","","","","","","","","","",""
"","","","","","canvas-keyboard-response","48","301982","0.0-12.0-1.7","2d_cat_multi_stim_exp1","2022-4-5","15:32:31","25","75","3","9","10","40","30","120","13","18","[""White""]","No","Female","1974036","null","null","","","","clear_screen","","","","","","","","","","","","","","","","","","","","","","","","","",""
"","","","","","canvas-keyboard-response","49","303513","0.0-12.0-2.7","2d_cat_multi_stim_exp1","2022-4-5","15:32:31","25","75","3","9","10","40","30","120","13","18","[""White""]","No","Female","1974036","1524","u","learn","","","learn_trial","25","75","in","1","1","","","","","","","","","","","","","","","","","","","","",""
"","","","","","canvas-keyboard-response","50","304025","0.0-12.0-3.7","2d_cat_multi_stim_exp1","2022-4-5","15:32:31","25","75","3","9","10","40","30","120","13","18","[""White""]","No","Female","1974036","null","null","learn_feedback","","","learn_feedback","25","75","in","","","","","","","","","","","","","","","","","","","","","","",""
"","","","","","canvas-keyboard-response","51","304088","0.0-12.0-4.7","2d_cat_multi_stim_exp1","2022-4-5","15:32:31","25","75","3","9","10","40","30","120","13","18","[""White""]","No","Female","1974036","null","null","","","","clear_screen","","","","","","","","","","","","","","","","","","","","","","","","","",""
"","","","","","canvas-keyboard-response","52","304597","0.0-12.0-0.8","2d_cat_multi_stim_exp1","2022-4-5","15:32:31","25","75","3","9","10","40","30","120","13","18","[""White""]","No","Female","1974036","null","null","","","","fixation","","","","","","","","","","","","","","","","","","","","","","","","","",""
"","","","","","canvas-keyboard-response","53","305106","0.0-12.0-1.8","2d_cat_multi_stim_exp1","2022-4-5","15:32:31","25","75","3","9","10","40","30","120","13","18","[""White""]","No","Female","1974036","null","null","","","","clear_screen","","","","","","","","","","","","","","","","","","","","","","","","","",""
"","","","","","canvas-keyboard-response","54","306186","0.0-12.0-2.8","2d_cat_multi_stim_exp1","2022-4-5","15:32:31","25","75","3","9","10","40","30","120","13","18","[""White""]","No","Female","1974036","1069","i","learn","","","learn_trial","26.6667","50","out","0","1","","","","","","","","","","","","","","","","","","","","",""
"","","","","","canvas-keyboard-response","55","306694","0.0-12.0-3.8","2d_cat_multi_stim_exp1","2022-4-5","15:32:31","25","75","3","9","10","40","30","120","13","18","[""White""]","No","Female","1974036","null","null","learn_feedback","","","learn_feedback","26.6667","50","out","","","","","","","","","","","","","","","","","","","","","","",""
"","","","","","canvas-keyboard-response","56","306756","0.0-12.0-4.8","2d_cat_multi_stim_exp1","2022-4-5","15:32:31","25","75","3","9","10","40","30","120","13","18","[""White""]","No","Female","1974036","null","null","","","","clear_screen","","","","","","","","","","","","","","","","","","","","","","","","","",""
"","","","","","canvas-keyboard-response","57","307264","0.0-12.0-0.9","2d_cat_multi_stim_exp1","2022-4-5","15:32:31","25","75","3","9","10","40","30","120","13","18","[""White""]","No","Female","1974036","null","null","","","","fixation","","","","","","","","","","","","","","","","","","","","","","","","","",""
"","","","","","canvas-keyboard-response","58","307774","0.0-12.0-1.9","2d_cat_multi_stim_exp1","2022-4-5","15:32:31","25","75","3","9","10","40","30","120","13","18","[""White""]","No","Female","1974036","null","null","","","","clear_screen","","","","","","","","","","","","","","","","","","","","","","","","","",""
"","","","","","canvas-keyboard-response","59","309033","0.0-12.0-2.9","2d_cat_multi_stim_exp1","2022-4-5","15:32:31","25","75","3","9","10","40","30","120","13","18","[""White""]","No","Female","1974036","1250","i","learn","","","learn_trial","40","100","out","0","1","","","","","","","","","","","","","","","","","","","","",""
"","","","","","canvas-keyboard-response","60","309546","0.0-12.0-3.9","2d_cat_multi_stim_exp1","2022-4-5","15:32:31","25","75","3","9","10","40","30","120","13","18","[""White""]","No","Female","1974036","null","null","learn_feedback","","","learn_feedback","40","100","out","","","","","","","","","","","","","","","","","","","","","","",""
"","","","","","canvas-keyboard-response","61","309605","0.0-12.0-4.9","2d_cat_multi_stim_exp1","2022-4-5","15:32:31","25","75","3","9","10","40","30","120","13","18","[""White""]","No","Female","1974036","null","null","","","","clear_screen","","","","","","","","","","","","","","","","","","","","","","","","","",""
"","","","","","canvas-keyboard-response","62","310115","0.0-12.0-0.10","2d_cat_multi_stim_exp1","2022-4-5","15:32:31","25","75","3","9","10","40","30","120","13","18","[""White""]","No","Female","1974036","null","null","","","","fixation","","","","","","","","","","","","","","","","","","","","","","","","","",""
"","","","","","canvas-keyboard-response","63","310625","0.0-12.0-1.10","2d_cat_multi_stim_exp1","2022-4-5","15:32:31","25","75","3","9","10","40","30","120","13","18","[""White""]","No","Female","1974036","null","null","","","","clear_screen","","","","","","","","","","","","","","","","","","","","","","","","","",""
"","","","","","canvas-keyboard-response","64","311946","0.0-12.0-2.10","2d_cat_multi_stim_exp1","2022-4-5","15:32:31","25","75","3","9","10","40","30","120","13","18","[""White""]","No","Female","1974036","1311","u","learn","","","learn_trial","25","75","in","1","1","","","","","","","","","","","","","","","","","","","","",""
"","","","","","canvas-keyboard-response","65","312456","0.0-12.0-3.10","2d_cat_multi_stim_exp1","2022-4-5","15:32:31","25","75","3","9","10","40","30","120","13","18","[""White""]","No","Female","1974036","null","null","learn_feedback","","","learn_feedback","25","75","in","","","","","","","","","","","","","","","","","","","","","","",""
"","","","","","canvas-keyboard-response","66","312516","0.0-12.0-4.10","2d_cat_multi_stim_exp1","2022-4-5","15:32:31","25","75","3","9","10","40","30","120","13","18","[""White""]","No","Female","1974036","null","null","","","","clear_screen","","","","","","","","","","","","","","","","","","","","","","","","","",""
"","","","","","canvas-keyboard-response","67","313025","0.0-12.0-0.11","2d_cat_multi_stim_exp1","2022-4-5","15:32:31","25","75","3","9","10","40","30","120","13","18","[""White""]","No","Female","1974036","null","null","","","","fixation","","","","","","","","","","","","","","","","","","","","","","","","","",""
"","","","","","canvas-keyboard-response","68","313536","0.0-12.0-1.11","2d_cat_multi_stim_exp1","2022-4-5","15:32:31","25","75","3","9","10","40","30","120","13","18","[""White""]","No","Female","1974036","null","null","","","","clear_screen","","","","","","","","","","","","","","","","","","","","","","","","","",""
"","","","","","canvas-keyboard-response","69","314617","0.0-12.0-2.11","2d_cat_multi_stim_exp1","2022-4-5","15:32:31","25","75","3","9","10","40","30","120","13","18","[""White""]","No","Female","1974036","1071","i","learn","","","learn_trial","13.3333","30","out","0","1","","","","","","","","","","","","","","","","","","","","",""
"","","","","","canvas-keyboard-response","70","315127","0.0-12.0-3.11","2d_cat_multi_stim_exp1","2022-4-5","15:32:31","25","75","3","9","10","40","30","120","13","18","[""White""]","No","Female","1974036","null","null","learn_feedback","","","learn_feedback","13.3333","30","out","","","","","","","","","","","","","","","","","","","","","","",""
"","","","","","canvas-keyboard-response","71","315188","0.0-12.0-4.11","2d_cat_multi_stim_exp1","2022-4-5","15:32:31","25","75","3","9","10","40","30","120","13","18","[""White""]","No","Female","1974036","null","null","","","","clear_screen","","","","","","","","","","","","","","","","","","","","","","","","","",""
"","","","","","canvas-keyboard-response","72","315696","0.0-12.0-0.12","2d_cat_multi_stim_exp1","2022-4-5","15:32:31","25","75","3","9","10","40","30","120","13","18","[""White""]","No","Female","1974036","null","null","","","","fixation","","","","","","","","","","","","","","","","","","","","","","","","","",""
"","","","","","canvas-keyboard-response","73","316208","0.0-12.0-1.12","2d_cat_multi_stim_exp1","2022-4-5","15:32:31","25","75","3","9","10","40","30","120","13","18","[""White""]","No","Female","1974036","null","null","","","","clear_screen","","","","","","","","","","","","","","","","","","","","","","","","","",""
"","","","","","canvas-keyboard-response","74","317457","0.0-12.0-2.12","2d_cat_multi_stim_exp1","2022-4-5","15:32:31","25","75","3","9","10","40","30","120","13","18","[""White""]","No","Female","1974036","1239","u","learn","","","learn_trial","25","75","in","1","1","","","","","","","","","","","","","","","","","","","","",""
"","","","","","canvas-keyboard-response","75","317965","0.0-12.0-3.12","2d_cat_multi_stim_exp1","2022-4-5","15:32:31","25","75","3","9","10","40","30","120","13","18","[""White""]","No","Female","1974036","null","null","learn_feedback","","","learn_feedback","25","75","in","","","","","","","","","","","","","","","","","","","","","","",""
"","","","","","canvas-keyboard-response","76","318027","0.0-12.0-4.12","2d_cat_multi_stim_exp1","2022-4-5","15:32:31","25","75","3","9","10","40","30","120","13","18","[""White""]","No","Female","1974036","null","null","","","","clear_screen","","","","","","","","","","","","","","","","","","","","","","","","","",""
"","","","","","canvas-keyboard-response","77","318537","0.0-12.0-0.13","2d_cat_multi_stim_exp1","2022-4-5","15:32:31","25","75","3","9","10","40","30","120","13","18","[""White""]","No","Female","1974036","null","null","","","","fixation","","","","","","","","","","","","","","","","","","","","","","","","","",""
"","","","","","canvas-keyboard-response","78","319052","0.0-12.0-1.13","2d_cat_multi_stim_exp1","2022-4-5","15:32:31","25","75","3","9","10","40","30","120","13","18","[""White""]","No","Female","1974036","null","null","","","","clear_screen","","","","","","","","","","","","","","","","","","","","","","","","","",""
"","","","","","canvas-keyboard-response","79","320057","0.0-12.0-2.13","2d_cat_multi_stim_exp1","2022-4-5","15:32:31","25","75","3","9","10","40","30","120","13","18","[""White""]","No","Female","1974036","995","i","learn","","","learn_trial","13.3333","50","out","0","1","","","","","","","","","","","","","","","","","","","","",""
"","","","","","canvas-keyboard-response","80","320568","0.0-12.0-3.13","2d_cat_multi_stim_exp1","2022-4-5","15:32:31","25","75","3","9","10","40","30","120","13","18","[""White""]","No","Female","1974036","null","null","learn_feedback","","","learn_feedback","13.3333","50","out","","","","","","","","","","","","","","","","","","","","","","",""
"","","","","","canvas-keyboard-response","81","320629","0.0-12.0-4.13","2d_cat_multi_stim_exp1","2022-4-5","15:32:31","25","75","3","9","10","40","30","120","13","18","[""White""]","No","Female","1974036","null","null","","","","clear_screen","","","","","","","","","","","","","","","","","","","","","","","","","",""
"","","","","","canvas-keyboard-response","82","321140","0.0-12.0-0.14","2d_cat_multi_stim_exp1","2022-4-5","15:32:31","25","75","3","9","10","40","30","120","13","18","[""White""]","No","Female","1974036","null","null","","","","fixation","","","","","","","","","","","","","","","","","","","","","","","","","",""
"","","","","","canvas-keyboard-response","83","321650","0.0-12.0-1.14","2d_cat_multi_stim_exp1","2022-4-5","15:32:31","25","75","3","9","10","40","30","120","13","18","[""White""]","No","Female","1974036","null","null","","","","clear_screen","","","","","","","","","","","","","","","","","","","","","","","","","",""
"","","","","","canvas-keyboard-response","84","322833","0.0-12.0-2.14","2d_cat_multi_stim_exp1","2022-4-5","15:32:31","25","75","3","9","10","40","30","120","13","18","[""White""]","No","Female","1974036","1177","i","learn","","","learn_trial","23.3333","40","out","0","1","","","","","","","","","","","","","","","","","","","","",""
"","","","","","canvas-keyboard-response","85","323341","0.0-12.0-3.14","2d_cat_multi_stim_exp1","2022-4-5","15:32:31","25","75","3","9","10","40","30","120","13","18","[""White""]","No","Female","1974036","null","null","learn_feedback","","","learn_feedback","23.3333","40","out","","","","","","","","","","","","","","","","","","","","","","",""
"","","","","","canvas-keyboard-response","86","323405","0.0-12.0-4.14","2d_cat_multi_stim_exp1","2022-4-5","15:32:31","25","75","3","9","10","40","30","120","13","18","[""White""]","No","Female","1974036","null","null","","","","clear_screen","","","","","","","","","","","","","","","","","","","","","","","","","",""
"","","","","","canvas-keyboard-response","87","323911","0.0-12.0-0.15","2d_cat_multi_stim_exp1","2022-4-5","15:32:31","25","75","3","9","10","40","30","120","13","18","[""White""]","No","Female","1974036","null","null","","","","fixation","","","","","","","","","","","","","","","","","","","","","","","","","",""
"","","","","","canvas-keyboard-response","88","324425","0.0-12.0-1.15","2d_cat_multi_stim_exp1","2022-4-5","15:32:31","25","75","3","9","10","40","30","120","13","18","[""White""]","No","Female","1974036","null","null","","","","clear_screen","","","","","","","","","","","","","","","","","","","","","","","","","",""
"","","","","","canvas-keyboard-response","89","325522","0.0-12.0-2.15","2d_cat_multi_stim_exp1","2022-4-5","15:32:31","25","75","3","9","10","40","30","120","13","18","[""White""]","No","Female","1974036","1087","u","learn","","","learn_trial","25","75","in","1","1","","","","","","","","","","","","","","","","","","","","",""
"","","","","","canvas-keyboard-response","90","326032","0.0-12.0-3.15","2d_cat_multi_stim_exp1","2022-4-5","15:32:31","25","75","3","9","10","40","30","120","13","18","[""White""]","No","Female","1974036","null","null","learn_feedback","","","learn_feedback","25","75","in","","","","","","","","","","","","","","","","","","","","","","",""
"","","","","","canvas-keyboard-response","91","326090","0.0-12.0-4.15","2d_cat_multi_stim_exp1","2022-4-5","15:32:31","25","75","3","9","10","40","30","120","13","18","[""White""]","No","Female","1974036","null","null","","","","clear_screen","","","","","","","","","","","","","","","","","","","","","","","","","",""
"","","","","","canvas-keyboard-response","92","326598","0.0-12.0-0.16","2d_cat_multi_stim_exp1","2022-4-5","15:32:31","25","75","3","9","10","40","30","120","13","18","[""White""]","No","Female","1974036","null","null","","","","fixation","","","","","","","","","","","","","","","","","","","","","","","","","",""
"","","","","","canvas-keyboard-response","93","327111","0.0-12.0-1.16","2d_cat_multi_stim_exp1","2022-4-5","15:32:31","25","75","3","9","10","40","30","120","13","18","[""White""]","No","Female","1974036","null","null","","","","clear_screen","","","","","","","","","","","","","","","","","","","","","","","","","",""
"","","","","","canvas-keyboard-response","94","328377","0.0-12.0-2.16","2d_cat_multi_stim_exp1","2022-4-5","15:32:31","25","75","3","9","10","40","30","120","13","18","[""White""]","No","Female","1974036","1255","u","learn","","","learn_trial","22.0121","75.8068","in","1","1","","","","","","","","","","","","","","","","","","","","",""
"","","","","","canvas-keyboard-response","95","328889","0.0-12.0-3.16","2d_cat_multi_stim_exp1","2022-4-5","15:32:31","25","75","3","9","10","40","30","120","13","18","[""White""]","No","Female","1974036","null","null","learn_feedback","","","learn_feedback","22.0121","75.8068","in","","","","","","","","","","","","","","","","","","","","","","",""
"","","","","","canvas-keyboard-response","96","328949","0.0-12.0-4.16","2d_cat_multi_stim_exp1","2022-4-5","15:32:31","25","75","3","9","10","40","30","120","13","18","[""White""]","No","Female","1974036","null","null","","","","clear_screen","","","","","","","","","","","","","","","","","","","","","","","","","",""
"","","","","","canvas-keyboard-response","97","329458","0.0-12.0-0.17","2d_cat_multi_stim_exp1","2022-4-5","15:32:31","25","75","3","9","10","40","30","120","13","18","[""White""]","No","Female","1974036","null","null","","","","fixation","","","","","","","","","","","","","","","","","","","","","","","","","",""
"","","","","","canvas-keyboard-response","98","329969","0.0-12.0-1.17","2d_cat_multi_stim_exp1","2022-4-5","15:32:31","25","75","3","9","10","40","30","120","13","18","[""White""]","No","Female","1974036","null","null","","","","clear_screen","","","","","","","","","","","","","","","","","","","","","","","","","",""
"","","","","","canvas-keyboard-response","99","331042","0.0-12.0-2.17","2d_cat_multi_stim_exp1","2022-4-5","15:32:31","25","75","3","9","10","40","30","120","13","18","[""White""]","No","Female","1974036","1065","u","learn","","","learn_trial","27.9518","73.393","in","1","1","","","","","","","","","","","","","","","","","","","","",""
"","","","","","canvas-keyboard-response","100","331554","0.0-12.0-3.17","2d_cat_multi_stim_exp1","2022-4-5","15:32:31","25","75","3","9","10","40","30","120","13","18","[""White""]","No","Female","1974036","null","null","learn_feedback","","","learn_feedback","27.9518","73.393","in","","","","","","","","","","","","","","","","","","","","","","",""
"","","","","","canvas-keyboard-response","101","331612","0.0-12.0-4.17","2d_cat_multi_stim_exp1","2022-4-5","15:32:31","25","75","3","9","10","40","30","120","13","18","[""White""]","No","Female","1974036","null","null","","","","clear_screen","","","","","","","","","","","","","","","","","","","","","","","","","",""
"","","","","","canvas-keyboard-response","102","332121","0.0-12.0-0.18","2d_cat_multi_stim_exp1","2022-4-5","15:32:31","25","75","3","9","10","40","30","120","13","18","[""White""]","No","Female","1974036","null","null","","","","fixation","","","","","","","","","","","","","","","","","","","","","","","","","",""
"","","","","","canvas-keyboard-response","103","332634","0.0-12.0-1.18","2d_cat_multi_stim_exp1","2022-4-5","15:32:31","25","75","3","9","10","40","30","120","13","18","[""White""]","No","Female","1974036","null","null","","","","clear_screen","","","","","","","","","","","","","","","","","","","","","","","","","",""
"","","","","","canvas-keyboard-response","104","333521","0.0-12.0-2.18","2d_cat_multi_stim_exp1","2022-4-5","15:32:31","25","75","3","9","10","40","30","120","13","18","[""White""]","No","Female","1974036","878","i","learn","","","learn_trial","25","93","in","0","0","","","","","","","","","","","","","","","","","","","","",""
"","","","","","canvas-keyboard-response","105","334530","0.0-12.0-3.18","2d_cat_multi_stim_exp1","2022-4-5","15:32:31","25","75","3","9","10","40","30","120","13","18","[""White""]","No","Female","1974036","null","null","learn_feedback","","","learn_feedback","25","93","in","","","","","","","","","","","","","","","","","","","","","","",""
"","","","","","canvas-keyboard-response","106","334589","0.0-12.0-4.18","2d_cat_multi_stim_exp1","2022-4-5","15:32:31","25","75","3","9","10","40","30","120","13","18","[""White""]","No","Female","1974036","null","null","","","","clear_screen","","","","","","","","","","","","","","","","","","","","","","","","","",""
"","","","","","canvas-keyboard-response","107","335098","0.0-12.0-0.19","2d_cat_multi_stim_exp1","2022-4-5","15:32:31","25","75","3","9","10","40","30","120","13","18","[""White""]","No","Female","1974036","null","null","","","","fixation","","","","","","","","","","","","","","","","","","","","","","","","","",""
"","","","","","canvas-keyboard-response","108","335611","0.0-12.0-1.19","2d_cat_multi_stim_exp1","2022-4-5","15:32:31","25","75","3","9","10","40","30","120","13","18","[""White""]","No","Female","1974036","null","null","","","","clear_screen","","","","","","","","","","","","","","","","","","","","","","","","","",""
"","","","","","canvas-keyboard-response","109","336794","0.0-12.0-2.19","2d_cat_multi_stim_exp1","2022-4-5","15:32:31","25","75","3","9","10","40","30","120","13","18","[""White""]","No","Female","1974036","1171","i","learn","","","learn_trial","20.7574","87.7279","in","0","0","","","","","","","","","","","","","","","","","","","","",""
"","","","","","canvas-keyboard-response","110","337803","0.0-12.0-3.19","2d_cat_multi_stim_exp1","2022-4-5","15:32:31","25","75","3","9","10","40","30","120","13","18","[""White""]","No","Female","1974036","null","null","learn_feedback","","","learn_feedback","20.7574","87.7279","in","","","","","","","","","","","","","","","","","","","","","","",""
"","","","","","canvas-keyboard-response","111","337862","0.0-12.0-4.19","2d_cat_multi_stim_exp1","2022-4-5","15:32:31","25","75","3","9","10","40","30","120","13","18","[""White""]","No","Female","1974036","null","null","","","","clear_screen","","","","","","","","","","","","","","","","","","","","","","","","","",""
"","","","","","canvas-keyboard-response","112","338374","0.0-12.0-0.20","2d_cat_multi_stim_exp1","2022-4-5","15:32:31","25","75","3","9","10","40","30","120","13","18","[""White""]","No","Female","1974036","null","null","","","","fixation","","","","","","","","","","","","","","","","","","","","","","","","","",""
"","","","","","canvas-keyboard-response","113","338883","0.0-12.0-1.20","2d_cat_multi_stim_exp1","2022-4-5","15:32:31","25","75","3","9","10","40","30","120","13","18","[""White""]","No","Female","1974036","null","null","","","","clear_screen","","","","","","","","","","","","","","","","","","","","","","","","","",""
"","","","","","canvas-keyboard-response","114","339874","0.0-12.0-2.20","2d_cat_multi_stim_exp1","2022-4-5","15:32:31","25","75","3","9","10","40","30","120","13","18","[""White""]","No","Female","1974036","982","i","learn","","","learn_trial","40","50","out","0","1","","","","","","","","","","","","","","","","","","","","",""
"","","","","","canvas-keyboard-response","115","340383","0.0-12.0-3.20","2d_cat_multi_stim_exp1","2022-4-5","15:32:31","25","75","3","9","10","40","30","120","13","18","[""White""]","No","Female","1974036","null","null","learn_feedback","","","learn_feedback","40","50","out","","","","","","","","","","","","","","","","","","","","","","",""
"","","","","","canvas-keyboard-response","116","340442","0.0-12.0-4.20","2d_cat_multi_stim_exp1","2022-4-5","15:32:31","25","75","3","9","10","40","30","120","13","18","[""White""]","No","Female","1974036","null","null","","","","clear_screen","","","","","","","","","","","","","","","","","","","","","","","","","",""
"","","","","","canvas-keyboard-response","117","340951","0.0-12.0-0.21","2d_cat_multi_stim_exp1","2022-4-5","15:32:31","25","75","3","9","10","40","30","120","13","18","[""White""]","No","Female","1974036","null","null","","","","fixation","","","","","","","","","","","","","","","","","","","","","","","","","",""
"","","","","","canvas-keyboard-response","118","341465","0.0-12.0-1.21","2d_cat_multi_stim_exp1","2022-4-5","15:32:31","25","75","3","9","10","40","30","120","13","18","[""White""]","No","Female","1974036","null","null","","","","clear_screen","","","","","","","","","","","","","","","","","","","","","","","","","",""
"","","","","","canvas-keyboard-response","119","342521","0.0-12.0-2.21","2d_cat_multi_stim_exp1","2022-4-5","15:32:31","25","75","3","9","10","40","30","120","13","18","[""White""]","No","Female","1974036","1048","u","learn","","","learn_trial","25","75","in","1","1","","","","","","","","","","","","","","","","","","","","",""
"","","","","","canvas-keyboard-response","120","343031","0.0-12.0-3.21","2d_cat_multi_stim_exp1","2022-4-5","15:32:31","25","75","3","9","10","40","30","120","13","18","[""White""]","No","Female","1974036","null","null","learn_feedback","","","learn_feedback","25","75","in","","","","","","","","","","","","","","","","","","","","","","",""
"","","","","","canvas-keyboard-response","121","343091","0.0-12.0-4.21","2d_cat_multi_stim_exp1","2022-4-5","15:32:31","25","75","3","9","10","40","30","120","13","18","[""White""]","No","Female","1974036","null","null","","","","clear_screen","","","","","","","","","","","","","","","","","","","","","","","","","",""
"","","","","","canvas-keyboard-response","122","343600","0.0-12.0-0.22","2d_cat_multi_stim_exp1","2022-4-5","15:32:31","25","75","3","9","10","40","30","120","13","18","[""White""]","No","Female","1974036","null","null","","","","fixation","","","","","","","","","","","","","","","","","","","","","","","","","",""
"","","","","","canvas-keyboard-response","123","344112","0.0-12.0-1.22","2d_cat_multi_stim_exp1","2022-4-5","15:32:31","25","75","3","9","10","40","30","120","13","18","[""White""]","No","Female","1974036","null","null","","","","clear_screen","","","","","","","","","","","","","","","","","","","","","","","","","",""
"","","","","","canvas-keyboard-response","124","344929","0.0-12.0-2.22","2d_cat_multi_stim_exp1","2022-4-5","15:32:31","25","75","3","9","10","40","30","120","13","18","[""White""]","No","Female","1974036","807","i","learn","","","learn_trial","36.6667","40","out","0","1","","","","","","","","","","","","","","","","","","","","",""
"","","","","","canvas-keyboard-response","125","345439","0.0-12.0-3.22","2d_cat_multi_stim_exp1","2022-4-5","15:32:31","25","75","3","9","10","40","30","120","13","18","[""White""]","No","Female","1974036","null","null","learn_feedback","","","learn_feedback","36.6667","40","out","","","","","","","","","","","","","","","","","","","","","","",""
"","","","","","canvas-keyboard-response","126","345500","0.0-12.0-4.22","2d_cat_multi_stim_exp1","2022-4-5","15:32:31","25","75","3","9","10","40","30","120","13","18","[""White""]","No","Female","1974036","null","null","","","","clear_screen","","","","","","","","","","","","","","","","","","","","","","","","","",""
"","","","","","canvas-keyboard-response","127","346009","0.0-12.0-0.23","2d_cat_multi_stim_exp1","2022-4-5","15:32:31","25","75","3","9","10","40","30","120","13","18","[""White""]","No","Female","1974036","null","null","","","","fixation","","","","","","","","","","","","","","","","","","","","","","","","","",""
"","","","","","canvas-keyboard-response","128","346524","0.0-12.0-1.23","2d_cat_multi_stim_exp1","2022-4-5","15:32:31","25","75","3","9","10","40","30","120","13","18","[""White""]","No","Female","1974036","null","null","","","","clear_screen","","","","","","","","","","","","","","","","","","","","","","","","","",""
"","","","","","canvas-keyboard-response","129","347811","0.0-12.0-2.23","2d_cat_multi_stim_exp1","2022-4-5","15:32:31","25","75","3","9","10","40","30","120","13","18","[""White""]","No","Female","1974036","1279","u","learn","","","learn_trial","25","75","in","1","1","","","","","","","","","","","","","","","","","","","","",""
"","","","","","canvas-keyboard-response","130","348318","0.0-12.0-3.23","2d_cat_multi_stim_exp1","2022-4-5","15:32:31","25","75","3","9","10","40","30","120","13","18","[""White""]","No","Female","1974036","null","null","learn_feedback","","","learn_feedback","25","75","in","","","","","","","","","","","","","","","","","","","","","","",""
"","","","","","canvas-keyboard-response","131","348380","0.0-12.0-4.23","2d_cat_multi_stim_exp1","2022-4-5","15:32:31","25","75","3","9","10","40","30","120","13","18","[""White""]","No","Female","1974036","null","null","","","","clear_screen","","","","","","","","","","","","","","","","","","","","","","","","","",""
"","","","","","canvas-keyboard-response","132","348887","0.0-12.0-0.24","2d_cat_multi_stim_exp1","2022-4-5","15:32:31","25","75","3","9","10","40","30","120","13","18","[""White""]","No","Female","1974036","null","null","","","","fixation","","","","","","","","","","","","","","","","","","","","","","","","","",""
"","","","","","canvas-keyboard-response","133","349399","0.0-12.0-1.24","2d_cat_multi_stim_exp1","2022-4-5","15:32:31","25","75","3","9","10","40","30","120","13","18","[""White""]","No","Female","1974036","null","null","","","","clear_screen","","","","","","","","","","","","","","","","","","","","","","","","","",""
"","","","","","canvas-keyboard-response","134","351513","0.0-12.0-2.24","2d_cat_multi_stim_exp1","2022-4-5","15:32:31","25","75","3","9","10","40","30","120","13","18","[""White""]","No","Female","1974036","2106","u","learn","","","learn_trial","30","70","out","1","0","","","","","","","","","","","","","","","","","","","","",""
"","","","","","canvas-keyboard-response","135","352524","0.0-12.0-3.24","2d_cat_multi_stim_exp1","2022-4-5","15:32:31","25","75","3","9","10","40","30","120","13","18","[""White""]","No","Female","1974036","null","null","learn_feedback","","","learn_feedback","30","70","out","","","","","","","","","","","","","","","","","","","","","","",""
"","","","","","canvas-keyboard-response","136","352587","0.0-12.0-4.24","2d_cat_multi_stim_exp1","2022-4-5","15:32:31","25","75","3","9","10","40","30","120","13","18","[""White""]","No","Female","1974036","null","null","","","","clear_screen","","","","","","","","","","","","","","","","","","","","","","","","","",""
"","","","","","canvas-keyboard-response","137","353095","0.0-12.0-0.25","2d_cat_multi_stim_exp1","2022-4-5","15:32:31","25","75","3","9","10","40","30","120","13","18","[""White""]","No","Female","1974036","null","null","","","","fixation","","","","","","","","","","","","","","","","","","","","","","","","","",""
"","","","","","canvas-keyboard-response","138","353605","0.0-12.0-1.25","2d_cat_multi_stim_exp1","2022-4-5","15:32:31","25","75","3","9","10","40","30","120","13","18","[""White""]","No","Female","1974036","null","null","","","","clear_screen","","","","","","","","","","","","","","","","","","","","","","","","","",""
"","","","","","canvas-keyboard-response","139","354625","0.0-12.0-2.25","2d_cat_multi_stim_exp1","2022-4-5","15:32:31","25","75","3","9","10","40","30","120","13","18","[""White""]","No","Female","1974036","1008","i","learn","","","learn_trial","22.2971","78.905","in","0","0","","","","","","","","","","","","","","","","","","","","",""
"","","","","","canvas-keyboard-response","140","355635","0.0-12.0-3.25","2d_cat_multi_stim_exp1","2022-4-5","15:32:31","25","75","3","9","10","40","30","120","13","18","[""White""]","No","Female","1974036","null","null","learn_feedback","","","learn_feedback","22.2971","78.905","in","","","","","","","","","","","","","","","","","","","","","","",""
"","","","","","canvas-keyboard-response","141","355696","0.0-12.0-4.25","2d_cat_multi_stim_exp1","2022-4-5","15:32:31","25","75","3","9","10","40","30","120","13","18","[""White""]","No","Female","1974036","null","null","","","","clear_screen","","","","","","","","","","","","","","","","","","","","","","","","","",""
"","","","","","canvas-keyboard-response","142","356204","0.0-12.0-0.26","2d_cat_multi_stim_exp1","2022-4-5","15:32:31","25","75","3","9","10","40","30","120","13","18","[""White""]","No","Female","1974036","null","null","","","","fixation","","","","","","","","","","","","","","","","","","","","","","","","","",""
"","","","","","canvas-keyboard-response","143","356716","0.0-12.0-1.26","2d_cat_multi_stim_exp1","2022-4-5","15:32:31","25","75","3","9","10","40","30","120","13","18","[""White""]","No","Female","1974036","null","null","","","","clear_screen","","","","","","","","","","","","","","","","","","","","","","","","","",""
"","","","","","canvas-keyboard-response","144","358083","0.0-12.0-2.26","2d_cat_multi_stim_exp1","2022-4-5","15:32:31","25","75","3","9","10","40","30","120","13","18","[""White""]","No","Female","1974036","1353","i","learn","","","learn_trial","13.3333","70","out","0","1","","","","","","","","","","","","","","","","","","","","",""
"","","","","","canvas-keyboard-response","145","358595","0.0-12.0-3.26","2d_cat_multi_stim_exp1","2022-4-5","15:32:31","25","75","3","9","10","40","30","120","13","18","[""White""]","No","Female","1974036","null","null","learn_feedback","","","learn_feedback","13.3333","70","out","","","","","","","","","","","","","","","","","","","","","","",""
"","","","","","canvas-keyboard-response","146","358654","0.0-12.0-4.26","2d_cat_multi_stim_exp1","2022-4-5","15:32:31","25","75","3","9","10","40","30","120","13","18","[""White""]","No","Female","1974036","null","null","","","","clear_screen","","","","","","","","","","","","","","","","","","","","","","","","","",""
"","","","","","canvas-keyboard-response","147","359164","0.0-12.0-0.27","2d_cat_multi_stim_exp1","2022-4-5","15:32:31","25","75","3","9","10","40","30","120","13","18","[""White""]","No","Female","1974036","null","null","","","","fixation","","","","","","","","","","","","","","","","","","","","","","","","","",""
"","","","","","canvas-keyboard-response","148","359675","0.0-12.0-1.27","2d_cat_multi_stim_exp1","2022-4-5","15:32:31","25","75","3","9","10","40","30","120","13","18","[""White""]","No","Female","1974036","null","null","","","","clear_screen","","","","","","","","","","","","","","","","","","","","","","","","","",""
"","","","","","canvas-keyboard-response","149","360513","0.0-12.0-2.27","2d_cat_multi_stim_exp1","2022-4-5","15:32:31","25","75","3","9","10","40","30","120","13","18","[""White""]","No","Female","1974036","826","u","learn","","","learn_trial","25","75","in","1","1","","","","","","","","","","","","","","","","","","","","",""
"","","","","","canvas-keyboard-response","150","361022","0.0-12.0-3.27","2d_cat_multi_stim_exp1","2022-4-5","15:32:31","25","75","3","9","10","40","30","120","13","18","[""White""]","No","Female","1974036","null","null","learn_feedback","","","learn_feedback","25","75","in","","","","","","","","","","","","","","","","","","","","","","",""
"","","","","","canvas-keyboard-response","151","361082","0.0-12.0-4.27","2d_cat_multi_stim_exp1","2022-4-5","15:32:31","25","75","3","9","10","40","30","120","13","18","[""White""]","No","Female","1974036","null","null","","","","clear_screen","","","","","","","","","","","","","","","","","","","","","","","","","",""
"","","","","","canvas-keyboard-response","152","361590","0.0-12.0-0.28","2d_cat_multi_stim_exp1","2022-4-5","15:32:31","25","75","3","9","10","40","30","120","13","18","[""White""]","No","Female","1974036","null","null","","","","fixation","","","","","","","","","","","","","","","","","","","","","","","","","",""
"","","","","","canvas-keyboard-response","153","362102","0.0-12.0-1.28","2d_cat_multi_stim_exp1","2022-4-5","15:32:31","25","75","3","9","10","40","30","120","13","18","[""White""]","No","Female","1974036","null","null","","","","clear_screen","","","","","","","","","","","","","","","","","","","","","","","","","",""
"","","","","","canvas-keyboard-response","154","362978","0.0-12.0-2.28","2d_cat_multi_stim_exp1","2022-4-5","15:32:31","25","75","3","9","10","40","30","120","13","18","[""White""]","No","Female","1974036","865","i","learn","","","learn_trial","36.6667","70","out","0","1","","","","","","","","","","","","","","","","","","","","",""
"","","","","","canvas-keyboard-response","155","363488","0.0-12.0-3.28","2d_cat_multi_stim_exp1","2022-4-5","15:32:31","25","75","3","9","10","40","30","120","13","18","[""White""]","No","Female","1974036","null","null","learn_feedback","","","learn_feedback","36.6667","70","out","","","","","","","","","","","","","","","","","","","","","","",""
"","","","","","canvas-keyboard-response","156","363551","0.0-12.0-4.28","2d_cat_multi_stim_exp1","2022-4-5","15:32:31","25","75","3","9","10","40","30","120","13","18","[""White""]","No","Female","1974036","null","null","","","","clear_screen","","","","","","","","","","","","","","","","","","","","","","","","","",""
"","","","","","canvas-keyboard-response","157","364063","0.0-12.0-0.29","2d_cat_multi_stim_exp1","2022-4-5","15:32:31","25","75","3","9","10","40","30","120","13","18","[""White""]","No","Female","1974036","null","null","","","","fixation","","","","","","","","","","","","","","","","","","","","","","","","","",""
"","","","","","canvas-keyboard-response","158","364577","0.0-12.0-1.29","2d_cat_multi_stim_exp1","2022-4-5","15:32:31","25","75","3","9","10","40","30","120","13","18","[""White""]","No","Female","1974036","null","null","","","","clear_screen","","","","","","","","","","","","","","","","","","","","","","","","","",""
"","","","","","canvas-keyboard-response","159","365490","0.0-12.0-2.29","2d_cat_multi_stim_exp1","2022-4-5","15:32:31","25","75","3","9","10","40","30","120","13","18","[""White""]","No","Female","1974036","903","i","learn","","","learn_trial","33.3333","120","out","0","1","","","","","","","","","","","","","","","","","","","","",""
"","","","","","canvas-keyboard-response","160","366001","0.0-12.0-3.29","2d_cat_multi_stim_exp1","2022-4-5","15:32:31","25","75","3","9","10","40","30","120","13","18","[""White""]","No","Female","1974036","null","null","learn_feedback","","","learn_feedback","33.3333","120","out","","","","","","","","","","","","","","","","","","","","","","",""
"","","","","","canvas-keyboard-response","161","366063","0.0-12.0-4.29","2d_cat_multi_stim_exp1","2022-4-5","15:32:31","25","75","3","9","10","40","30","120","13","18","[""White""]","No","Female","1974036","null","null","","","","clear_screen","","","","","","","","","","","","","","","","","","","","","","","","","",""
"","","","","","canvas-keyboard-response","162","366574","0.0-12.0-0.30","2d_cat_multi_stim_exp1","2022-4-5","15:32:31","25","75","3","9","10","40","30","120","13","18","[""White""]","No","Female","1974036","null","null","","","","fixation","","","","","","","","","","","","","","","","","","","","","","","","","",""
"","","","","","canvas-keyboard-response","163","367084","0.0-12.0-1.30","2d_cat_multi_stim_exp1","2022-4-5","15:32:31","25","75","3","9","10","40","30","120","13","18","[""White""]","No","Female","1974036","null","null","","","","clear_screen","","","","","","","","","","","","","","","","","","","","","","","","","",""
"","","","","","canvas-keyboard-response","164","368114","0.0-12.0-2.30","2d_cat_multi_stim_exp1","2022-4-5","15:32:31","25","75","3","9","10","40","30","120","13","18","[""White""]","No","Female","1974036","1018","u","learn","","","learn_trial","25","75","in","1","1","","","","","","","","","","","","","","","","","","","","",""
"","","","","","canvas-keyboard-response","165","368622","0.0-12.0-3.30","2d_cat_multi_stim_exp1","2022-4-5","15:32:31","25","75","3","9","10","40","30","120","13","18","[""White""]","No","Female","1974036","null","null","learn_feedback","","","learn_feedback","25","75","in","","","","","","","","","","","","","","","","","","","","","","",""
"","","","","","canvas-keyboard-response","166","368684","0.0-12.0-4.30","2d_cat_multi_stim_exp1","2022-4-5","15:32:31","25","75","3","9","10","40","30","120","13","18","[""White""]","No","Female","1974036","null","null","","","","clear_screen","","","","","","","","","","","","","","","","","","","","","","","","","",""
"","","","","","canvas-keyboard-response","167","369195","0.0-12.0-0.31","2d_cat_multi_stim_exp1","2022-4-5","15:32:31","25","75","3","9","10","40","30","120","13","18","[""White""]","No","Female","1974036","null","null","","","","fixation","","","","","","","","","","","","","","","","","","","","","","","","","",""
"","","","","","canvas-keyboard-response","168","369707","0.0-12.0-1.31","2d_cat_multi_stim_exp1","2022-4-5","15:32:31","25","75","3","9","10","40","30","120","13","18","[""White""]","No","Female","1974036","null","null","","","","clear_screen","","","","","","","","","","","","","","","","","","","","","","","","","",""
"","","","","","canvas-keyboard-response","169","370745","0.0-12.0-2.31","2d_cat_multi_stim_exp1","2022-4-5","15:32:31","25","75","3","9","10","40","30","120","13","18","[""White""]","No","Female","1974036","1034","u","learn","","","learn_trial","25","75","in","1","1","","","","","","","","","","","","","","","","","","","","",""
"","","","","","canvas-keyboard-response","170","371254","0.0-12.0-3.31","2d_cat_multi_stim_exp1","2022-4-5","15:32:31","25","75","3","9","10","40","30","120","13","18","[""White""]","No","Female","1974036","null","null","learn_feedback","","","learn_feedback","25","75","in","","","","","","","","","","","","","","","","","","","","","","",""
"","","","","","canvas-keyboard-response","171","371314","0.0-12.0-4.31","2d_cat_multi_stim_exp1","2022-4-5","15:32:31","25","75","3","9","10","40","30","120","13","18","[""White""]","No","Female","1974036","null","null","","","","clear_screen","","","","","","","","","","","","","","","","","","","","","","","","","",""
"","","","","","canvas-keyboard-response","172","371820","0.0-12.0-0.32","2d_cat_multi_stim_exp1","2022-4-5","15:32:31","25","75","3","9","10","40","30","120","13","18","[""White""]","No","Female","1974036","null","null","","","","fixation","","","","","","","","","","","","","","","","","","","","","","","","","",""
"","","","","","canvas-keyboard-response","173","372332","0.0-12.0-1.32","2d_cat_multi_stim_exp1","2022-4-5","15:32:31","25","75","3","9","10","40","30","120","13","18","[""White""]","No","Female","1974036","null","null","","","","clear_screen","","","","","","","","","","","","","","","","","","","","","","","","","",""
"","","","","","canvas-keyboard-response","174","373233","0.0-12.0-2.32","2d_cat_multi_stim_exp1","2022-4-5","15:32:31","25","75","3","9","10","40","30","120","13","18","[""White""]","No","Female","1974036","891","u","learn","","","learn_trial","25","75","in","1","1","","","","","","","","","","","","","","","","","","","","",""
"","","","","","canvas-keyboard-response","175","373743","0.0-12.0-3.32","2d_cat_multi_stim_exp1","2022-4-5","15:32:31","25","75","3","9","10","40","30","120","13","18","[""White""]","No","Female","1974036","null","null","learn_feedback","","","learn_feedback","25","75","in","","","","","","","","","","","","","","","","","","","","","","",""
"","","","","","canvas-keyboard-response","176","373802","0.0-12.0-4.32","2d_cat_multi_stim_exp1","2022-4-5","15:32:31","25","75","3","9","10","40","30","120","13","18","[""White""]","No","Female","1974036","null","null","","","","clear_screen","","","","","","","","","","","","","","","","","","","","","","","","","",""
"","","","","","canvas-keyboard-response","177","374310","0.0-12.0-0.33","2d_cat_multi_stim_exp1","2022-4-5","15:32:31","25","75","3","9","10","40","30","120","13","18","[""White""]","No","Female","1974036","null","null","","","","fixation","","","","","","","","","","","","","","","","","","","","","","","","","",""
"","","","","","canvas-keyboard-response","178","374821","0.0-12.0-1.33","2d_cat_multi_stim_exp1","2022-4-5","15:32:31","25","75","3","9","10","40","30","120","13","18","[""White""]","No","Female","1974036","null","null","","","","clear_screen","","","","","","","","","","","","","","","","","","","","","","","","","",""
"","","","","","canvas-keyboard-response","179","375938","0.0-12.0-2.33","2d_cat_multi_stim_exp1","2022-4-5","15:32:31","25","75","3","9","10","40","30","120","13","18","[""White""]","No","Female","1974036","1107","u","learn","","","learn_trial","23.3473","67.4888","in","1","1","","","","","","","","","","","","","","","","","","","","",""
"","","","","","canvas-keyboard-response","180","376448","0.0-12.0-3.33","2d_cat_multi_stim_exp1","2022-4-5","15:32:31","25","75","3","9","10","40","30","120","13","18","[""White""]","No","Female","1974036","null","null","learn_feedback","","","learn_feedback","23.3473","67.4888","in","","","","","","","","","","","","","","","","","","","","","","",""
"","","","","","canvas-keyboard-response","181","376509","0.0-12.0-4.33","2d_cat_multi_stim_exp1","2022-4-5","15:32:31","25","75","3","9","10","40","30","120","13","18","[""White""]","No","Female","1974036","null","null","","","","clear_screen","","","","","","","","","","","","","","","","","","","","","","","","","",""
"","","","","","canvas-keyboard-response","182","377017","0.0-12.0-0.34","2d_cat_multi_stim_exp1","2022-4-5","15:32:31","25","75","3","9","10","40","30","120","13","18","[""White""]","No","Female","1974036","null","null","","","","fixation","","","","","","","","","","","","","","","","","","","","","","","","","",""
"","","","","","canvas-keyboard-response","183","377530","0.0-12.0-1.34","2d_cat_multi_stim_exp1","2022-4-5","15:32:31","25","75","3","9","10","40","30","120","13","18","[""White""]","No","Female","1974036","null","null","","","","clear_screen","","","","","","","","","","","","","","","","","","","","","","","","","",""
"","","","","","canvas-keyboard-response","184","378417","0.0-12.0-2.34","2d_cat_multi_stim_exp1","2022-4-5","15:32:31","25","75","3","9","10","40","30","120","13","18","[""White""]","No","Female","1974036","878","i","learn","","","learn_trial","36.6667","80","out","0","1","","","","","","","","","","","","","","","","","","","","",""
"","","","","","canvas-keyboard-response","185","378926","0.0-12.0-3.34","2d_cat_multi_stim_exp1","2022-4-5","15:32:31","25","75","3","9","10","40","30","120","13","18","[""White""]","No","Female","1974036","null","null","learn_feedback","","","learn_feedback","36.6667","80","out","","","","","","","","","","","","","","","","","","","","","","",""
"","","","","","canvas-keyboard-response","186","378986","0.0-12.0-4.34","2d_cat_multi_stim_exp1","2022-4-5","15:32:31","25","75","3","9","10","40","30","120","13","18","[""White""]","No","Female","1974036","null","null","","","","clear_screen","","","","","","","","","","","","","","","","","","","","","","","","","",""
"","","","","","canvas-keyboard-response","187","379496","0.0-12.0-0.35","2d_cat_multi_stim_exp1","2022-4-5","15:32:31","25","75","3","9","10","40","30","120","13","18","[""White""]","No","Female","1974036","null","null","","","","fixation","","","","","","","","","","","","","","","","","","","","","","","","","",""
"","","","","","canvas-keyboard-response","188","380005","0.0-12.0-1.35","2d_cat_multi_stim_exp1","2022-4-5","15:32:31","25","75","3","9","10","40","30","120","13","18","[""White""]","No","Female","1974036","null","null","","","","clear_screen","","","","","","","","","","","","","","","","","","","","","","","","","",""
"","","","","","canvas-keyboard-response","189","380689","0.0-12.0-2.35","2d_cat_multi_stim_exp1","2022-4-5","15:32:31","25","75","3","9","10","40","30","120","13","18","[""White""]","No","Female","1974036","674","i","learn","","","learn_trial","36.6667","30","out","0","1","","","","","","","","","","","","","","","","","","","","",""
"","","","","","canvas-keyboard-response","190","381198","0.0-12.0-3.35","2d_cat_multi_stim_exp1","2022-4-5","15:32:31","25","75","3","9","10","40","30","120","13","18","[""White""]","No","Female","1974036","null","null","learn_feedback","","","learn_feedback","36.6667","30","out","","","","","","","","","","","","","","","","","","","","","","",""
"","","","","","canvas-keyboard-response","191","381260","0.0-12.0-4.35","2d_cat_multi_stim_exp1","2022-4-5","15:32:31","25","75","3","9","10","40","30","120","13","18","[""White""]","No","Female","1974036","null","null","","","","clear_screen","","","","","","","","","","","","","","","","","","","","","","","","","",""
"","","","","","canvas-keyboard-response","192","381767","0.0-12.0-0.36","2d_cat_multi_stim_exp1","2022-4-5","15:32:31","25","75","3","9","10","40","30","120","13","18","[""White""]","No","Female","1974036","null","null","","","","fixation","","","","","","","","","","","","","","","","","","","","","","","","","",""
"","","","","","canvas-keyboard-response","193","382278","0.0-12.0-1.36","2d_cat_multi_stim_exp1","2022-4-5","15:32:31","25","75","3","9","10","40","30","120","13","18","[""White""]","No","Female","1974036","null","null","","","","clear_screen","","","","","","","","","","","","","","","","","","","","","","","","","",""
"","","","","","canvas-keyboard-response","194","383258","0.0-12.0-2.36","2d_cat_multi_stim_exp1","2022-4-5","15:32:31","25","75","3","9","10","40","30","120","13","18","[""White""]","No","Female","1974036","971","u","learn","","","learn_trial","25","75","in","1","1","","","","","","","","","","","","","","","","","","","","",""
"","","","","","canvas-keyboard-response","195","383769","0.0-12.0-3.36","2d_cat_multi_stim_exp1","2022-4-5","15:32:31","25","75","3","9","10","40","30","120","13","18","[""White""]","No","Female","1974036","null","null","learn_feedback","","","learn_feedback","25","75","in","","","","","","","","","","","","","","","","","","","","","","",""
"","","","","","canvas-keyboard-response","196","383829","0.0-12.0-4.36","2d_cat_multi_stim_exp1","2022-4-5","15:32:31","25","75","3","9","10","40","30","120","13","18","[""White""]","No","Female","1974036","null","null","","","","clear_screen","","","","","","","","","","","","","","","","","","","","","","","","","",""
"","","","","","canvas-keyboard-response","197","384337","0.0-12.0-0.37","2d_cat_multi_stim_exp1","2022-4-5","15:32:31","25","75","3","9","10","40","30","120","13","18","[""White""]","No","Female","1974036","null","null","","","","fixation","","","","","","","","","","","","","","","","","","","","","","","","","",""
"","","","","","canvas-keyboard-response","198","384851","0.0-12.0-1.37","2d_cat_multi_stim_exp1","2022-4-5","15:32:31","25","75","3","9","10","40","30","120","13","18","[""White""]","No","Female","1974036","null","null","","","","clear_screen","","","","","","","","","","","","","","","","","","","","","","","","","",""
"","","","","","canvas-keyboard-response","199","385793","0.0-12.0-2.37","2d_cat_multi_stim_exp1","2022-4-5","15:32:31","25","75","3","9","10","40","30","120","13","18","[""White""]","No","Female","1974036","932","u","learn","","","learn_trial","26.6667","60","out","1","0","","","","","","","","","","","","","","","","","","","","",""
"","","","","","canvas-keyboard-response","200","386803","0.0-12.0-3.37","2d_cat_multi_stim_exp1","2022-4-5","15:32:31","25","75","3","9","10","40","30","120","13","18","[""White""]","No","Female","1974036","null","null","learn_feedback","","","learn_feedback","26.6667","60","out","","","","","","","","","","","","","","","","","","","","","","",""
"","","","","","canvas-keyboard-response","201","386866","0.0-12.0-4.37","2d_cat_multi_stim_exp1","2022-4-5","15:32:31","25","75","3","9","10","40","30","120","13","18","[""White""]","No","Female","1974036","null","null","","","","clear_screen","","","","","","","","","","","","","","","","","","","","","","","","","",""
"","","","","","canvas-keyboard-response","202","387374","0.0-12.0-0.38","2d_cat_multi_stim_exp1","2022-4-5","15:32:31","25","75","3","9","10","40","30","120","13","18","[""White""]","No","Female","1974036","null","null","","","","fixation","","","","","","","","","","","","","","","","","","","","","","","","","",""
"","","","","","canvas-keyboard-response","203","387886","0.0-12.0-1.38","2d_cat_multi_stim_exp1","2022-4-5","15:32:31","25","75","3","9","10","40","30","120","13","18","[""White""]","No","Female","1974036","null","null","","","","clear_screen","","","","","","","","","","","","","","","","","","","","","","","","","",""
"","","","","","canvas-keyboard-response","204","388904","0.0-12.0-2.38","2d_cat_multi_stim_exp1","2022-4-5","15:32:31","25","75","3","9","10","40","30","120","13","18","[""White""]","No","Female","1974036","1011","u","learn","","","learn_trial","26.4216","82.9254","in","1","1","","","","","","","","","","","","","","","","","","","","",""
"","","","","","canvas-keyboard-response","205","389415","0.0-12.0-3.38","2d_cat_multi_stim_exp1","2022-4-5","15:32:31","25","75","3","9","10","40","30","120","13","18","[""White""]","No","Female","1974036","null","null","learn_feedback","","","learn_feedback","26.4216","82.9254","in","","","","","","","","","","","","","","","","","","","","","","",""
"","","","","","canvas-keyboard-response","206","389474","0.0-12.0-4.38","2d_cat_multi_stim_exp1","2022-4-5","15:32:31","25","75","3","9","10","40","30","120","13","18","[""White""]","No","Female","1974036","null","null","","","","clear_screen","","","","","","","","","","","","","","","","","","","","","","","","","",""
"","","","","","canvas-keyboard-response","207","389984","0.0-12.0-0.39","2d_cat_multi_stim_exp1","2022-4-5","15:32:31","25","75","3","9","10","40","30","120","13","18","[""White""]","No","Female","1974036","null","null","","","","fixation","","","","","","","","","","","","","","","","","","","","","","","","","",""
"","","","","","canvas-keyboard-response","208","390497","0.0-12.0-1.39","2d_cat_multi_stim_exp1","2022-4-5","15:32:31","25","75","3","9","10","40","30","120","13","18","[""White""]","No","Female","1974036","null","null","","","","clear_screen","","","","","","","","","","","","","","","","","","","","","","","","","",""
"","","","","","canvas-keyboard-response","209","391385","0.0-12.0-2.39","2d_cat_multi_stim_exp1","2022-4-5","15:32:31","25","75","3","9","10","40","30","120","13","18","[""White""]","No","Female","1974036","878","i","learn","","","learn_trial","20","70","out","0","1","","","","","","","","","","","","","","","","","","","","",""
"","","","","","canvas-keyboard-response","210","391893","0.0-12.0-3.39","2d_cat_multi_stim_exp1","2022-4-5","15:32:31","25","75","3","9","10","40","30","120","13","18","[""White""]","No","Female","1974036","null","null","learn_feedback","","","learn_feedback","20","70","out","","","","","","","","","","","","","","","","","","","","","","",""
"","","","","","canvas-keyboard-response","211","391954","0.0-12.0-4.39","2d_cat_multi_stim_exp1","2022-4-5","15:32:31","25","75","3","9","10","40","30","120","13","18","[""White""]","No","Female","1974036","null","null","","","","clear_screen","","","","","","","","","","","","","","","","","","","","","","","","","",""
"","","","","","canvas-keyboard-response","212","392463","0.0-12.0-0.40","2d_cat_multi_stim_exp1","2022-4-5","15:32:31","25","75","3","9","10","40","30","120","13","18","[""White""]","No","Female","1974036","null","null","","","","fixation","","","","","","","","","","","","","","","","","","","","","","","","","",""
"","","","","","canvas-keyboard-response","213","392973","0.0-12.0-1.40","2d_cat_multi_stim_exp1","2022-4-5","15:32:31","25","75","3","9","10","40","30","120","13","18","[""White""]","No","Female","1974036","null","null","","","","clear_screen","","","","","","","","","","","","","","","","","","","","","","","","","",""
"","","","","","canvas-keyboard-response","214","393752","0.0-12.0-2.40","2d_cat_multi_stim_exp1","2022-4-5","15:32:31","25","75","3","9","10","40","30","120","13","18","[""White""]","No","Female","1974036","770","u","learn","","","learn_trial","23.3333","70","out","1","0","","","","","","","","","","","","","","","","","","","","",""
"","","","","","canvas-keyboard-response","215","394764","0.0-12.0-3.40","2d_cat_multi_stim_exp1","2022-4-5","15:32:31","25","75","3","9","10","40","30","120","13","18","[""White""]","No","Female","1974036","null","null","learn_feedback","","","learn_feedback","23.3333","70","out","","","","","","","","","","","","","","","","","","","","","","",""
"","","","","","canvas-keyboard-response","216","394825","0.0-12.0-4.40","2d_cat_multi_stim_exp1","2022-4-5","15:32:31","25","75","3","9","10","40","30","120","13","18","[""White""]","No","Female","1974036","null","null","","","","clear_screen","","","","","","","","","","","","","","","","","","","","","","","","","",""
"","","","","","canvas-keyboard-response","217","395335","0.0-12.0-0.41","2d_cat_multi_stim_exp1","2022-4-5","15:32:31","25","75","3","9","10","40","30","120","13","18","[""White""]","No","Female","1974036","null","null","","","","fixation","","","","","","","","","","","","","","","","","","","","","","","","","",""
"","","","","","canvas-keyboard-response","218","395845","0.0-12.0-1.41","2d_cat_multi_stim_exp1","2022-4-5","15:32:31","25","75","3","9","10","40","30","120","13","18","[""White""]","No","Female","1974036","null","null","","","","clear_screen","","","","","","","","","","","","","","","","","","","","","","","","","",""
"","","","","","canvas-keyboard-response","219","396969","0.0-12.0-2.41","2d_cat_multi_stim_exp1","2022-4-5","15:32:31","25","75","3","9","10","40","30","120","13","18","[""White""]","No","Female","1974036","1114","i","learn","","","learn_trial","40","110","out","0","1","","","","","","","","","","","","","","","","","","","","",""
"","","","","","canvas-keyboard-response","220","397477","0.0-12.0-3.41","2d_cat_multi_stim_exp1","2022-4-5","15:32:31","25","75","3","9","10","40","30","120","13","18","[""White""]","No","Female","1974036","null","null","learn_feedback","","","learn_feedback","40","110","out","","","","","","","","","","","","","","","","","","","","","","",""
"","","","","","canvas-keyboard-response","221","397538","0.0-12.0-4.41","2d_cat_multi_stim_exp1","2022-4-5","15:32:31","25","75","3","9","10","40","30","120","13","18","[""White""]","No","Female","1974036","null","null","","","","clear_screen","","","","","","","","","","","","","","","","","","","","","","","","","",""
"","","","","","canvas-keyboard-response","222","398048","0.0-12.0-0.42","2d_cat_multi_stim_exp1","2022-4-5","15:32:31","25","75","3","9","10","40","30","120","13","18","[""White""]","No","Female","1974036","null","null","","","","fixation","","","","","","","","","","","","","","","","","","","","","","","","","",""
"","","","","","canvas-keyboard-response","223","398561","0.0-12.0-1.42","2d_cat_multi_stim_exp1","2022-4-5","15:32:31","25","75","3","9","10","40","30","120","13","18","[""White""]","No","Female","1974036","null","null","","","","clear_screen","","","","","","","","","","","","","","","","","","","","","","","","","",""
"","","","","","canvas-keyboard-response","224","399586","0.0-12.0-2.42","2d_cat_multi_stim_exp1","2022-4-5","15:32:31","25","75","3","9","10","40","30","120","13","18","[""White""]","No","Female","1974036","1015","u","learn","","","learn_trial","26.6667","70","out","1","0","","","","","","","","","","","","","","","","","","","","",""
"","","","","","canvas-keyboard-response","225","400601","0.0-12.0-3.42","2d_cat_multi_stim_exp1","2022-4-5","15:32:31","25","75","3","9","10","40","30","120","13","18","[""White""]","No","Female","1974036","null","null","learn_feedback","","","learn_feedback","26.6667","70","out","","","","","","","","","","","","","","","","","","","","","","",""
"","","","","","canvas-keyboard-response","226","400661","0.0-12.0-4.42","2d_cat_multi_stim_exp1","2022-4-5","15:32:31","25","75","3","9","10","40","30","120","13","18","[""White""]","No","Female","1974036","null","null","","","","clear_screen","","","","","","","","","","","","","","","","","","","","","","","","","",""
"","","","","","canvas-keyboard-response","227","401171","0.0-12.0-0.43","2d_cat_multi_stim_exp1","2022-4-5","15:32:31","25","75","3","9","10","40","30","120","13","18","[""White""]","No","Female","1974036","null","null","","","","fixation","","","","","","","","","","","","","","","","","","","","","","","","","",""
"","","","","","canvas-keyboard-response","228","401684","0.0-12.0-1.43","2d_cat_multi_stim_exp1","2022-4-5","15:32:31","25","75","3","9","10","40","30","120","13","18","[""White""]","No","Female","1974036","null","null","","","","clear_screen","","","","","","","","","","","","","","","","","","","","","","","","","",""
"","","","","","canvas-keyboard-response","229","403921","0.0-12.0-2.43","2d_cat_multi_stim_exp1","2022-4-5","15:32:31","25","75","3","9","10","40","30","120","13","18","[""White""]","No","Female","1974036","2227","u","learn","","","learn_trial","20","50","out","1","0","","","","","","","","","","","","","","","","","","","","",""
"","","","","","canvas-keyboard-response","230","404932","0.0-12.0-3.43","2d_cat_multi_stim_exp1","2022-4-5","15:32:31","25","75","3","9","10","40","30","120","13","18","[""White""]","No","Female","1974036","null","null","learn_feedback","","","learn_feedback","20","50","out","","","","","","","","","","","","","","","","","","","","","","",""
"","","","","","canvas-keyboard-response","231","404995","0.0-12.0-4.43","2d_cat_multi_stim_exp1","2022-4-5","15:32:31","25","75","3","9","10","40","30","120","13","18","[""White""]","No","Female","1974036","null","null","","","","clear_screen","","","","","","","","","","","","","","","","","","","","","","","","","",""
"","","","","","canvas-keyboard-response","232","405505","0.0-12.0-0.44","2d_cat_multi_stim_exp1","2022-4-5","15:32:31","25","75","3","9","10","40","30","120","13","18","[""White""]","No","Female","1974036","null","null","","","","fixation","","","","","","","","","","","","","","","","","","","","","","","","","",""
"","","","","","canvas-keyboard-response","233","406019","0.0-12.0-1.44","2d_cat_multi_stim_exp1","2022-4-5","15:32:31","25","75","3","9","10","40","30","120","13","18","[""White""]","No","Female","1974036","null","null","","","","clear_screen","","","","","","","","","","","","","","","","","","","","","","","","","",""
"","","","","","canvas-keyboard-response","234","406810","0.0-12.0-2.44","2d_cat_multi_stim_exp1","2022-4-5","15:32:31","25","75","3","9","10","40","30","120","13","18","[""White""]","No","Female","1974036","779","i","learn","","","learn_trial","33.3333","40","out","0","1","","","","","","","","","","","","","","","","","","","","",""
"","","","","","canvas-keyboard-response","235","407320","0.0-12.0-3.44","2d_cat_multi_stim_exp1","2022-4-5","15:32:31","25","75","3","9","10","40","30","120","13","18","[""White""]","No","Female","1974036","null","null","learn_feedback","","","learn_feedback","33.3333","40","out","","","","","","","","","","","","","","","","","","","","","","",""
"","","","","","canvas-keyboard-response","236","407381","0.0-12.0-4.44","2d_cat_multi_stim_exp1","2022-4-5","15:32:31","25","75","3","9","10","40","30","120","13","18","[""White""]","No","Female","1974036","null","null","","","","clear_screen","","","","","","","","","","","","","","","","","","","","","","","","","",""
"","","","","","canvas-keyboard-response","237","407892","0.0-12.0-0.45","2d_cat_multi_stim_exp1","2022-4-5","15:32:31","25","75","3","9","10","40","30","120","13","18","[""White""]","No","Female","1974036","null","null","","","","fixation","","","","","","","","","","","","","","","","","","","","","","","","","",""
"","","","","","canvas-keyboard-response","238","408402","0.0-12.0-1.45","2d_cat_multi_stim_exp1","2022-4-5","15:32:31","25","75","3","9","10","40","30","120","13","18","[""White""]","No","Female","1974036","null","null","","","","clear_screen","","","","","","","","","","","","","","","","","","","","","","","","","",""
"","","","","","canvas-keyboard-response","239","409353","0.0-12.0-2.45","2d_cat_multi_stim_exp1","2022-4-5","15:32:31","25","75","3","9","10","40","30","120","13","18","[""White""]","No","Female","1974036","941","i","learn","","","learn_trial","13.3333","40","out","0","1","","","","","","","","","","","","","","","","","","","","",""
"","","","","","canvas-keyboard-response","240","409865","0.0-12.0-3.45","2d_cat_multi_stim_exp1","2022-4-5","15:32:31","25","75","3","9","10","40","30","120","13","18","[""White""]","No","Female","1974036","null","null","learn_feedback","","","learn_feedback","13.3333","40","out","","","","","","","","","","","","","","","","","","","","","","",""
"","","","","","canvas-keyboard-response","241","409927","0.0-12.0-4.45","2d_cat_multi_stim_exp1","2022-4-5","15:32:31","25","75","3","9","10","40","30","120","13","18","[""White""]","No","Female","1974036","null","null","","","","clear_screen","","","","","","","","","","","","","","","","","","","","","","","","","",""
"","","","","","canvas-keyboard-response","242","410437","0.0-12.0-0.46","2d_cat_multi_stim_exp1","2022-4-5","15:32:31","25","75","3","9","10","40","30","120","13","18","[""White""]","No","Female","1974036","null","null","","","","fixation","","","","","","","","","","","","","","","","","","","","","","","","","",""
"","","","","","canvas-keyboard-response","243","410951","0.0-12.0-1.46","2d_cat_multi_stim_exp1","2022-4-5","15:32:31","25","75","3","9","10","40","30","120","13","18","[""White""]","No","Female","1974036","null","null","","","","clear_screen","","","","","","","","","","","","","","","","","","","","","","","","","",""
"","","","","","canvas-keyboard-response","244","411714","0.0-12.0-2.46","2d_cat_multi_stim_exp1","2022-4-5","15:32:31","25","75","3","9","10","40","30","120","13","18","[""White""]","No","Female","1974036","752","i","learn","","","learn_trial","10","60","out","0","1","","","","","","","","","","","","","","","","","","","","",""
"","","","","","canvas-keyboard-response","245","412226","0.0-12.0-3.46","2d_cat_multi_stim_exp1","2022-4-5","15:32:31","25","75","3","9","10","40","30","120","13","18","[""White""]","No","Female","1974036","null","null","learn_feedback","","","learn_feedback","10","60","out","","","","","","","","","","","","","","","","","","","","","","",""
"","","","","","canvas-keyboard-response","246","412286","0.0-12.0-4.46","2d_cat_multi_stim_exp1","2022-4-5","15:32:31","25","75","3","9","10","40","30","120","13","18","[""White""]","No","Female","1974036","null","null","","","","clear_screen","","","","","","","","","","","","","","","","","","","","","","","","","",""
"","","","","","canvas-keyboard-response","247","412797","0.0-12.0-0.47","2d_cat_multi_stim_exp1","2022-4-5","15:32:31","25","75","3","9","10","40","30","120","13","18","[""White""]","No","Female","1974036","null","null","","","","fixation","","","","","","","","","","","","","","","","","","","","","","","","","",""
"","","","","","canvas-keyboard-response","248","413306","0.0-12.0-1.47","2d_cat_multi_stim_exp1","2022-4-5","15:32:31","25","75","3","9","10","40","30","120","13","18","[""White""]","No","Female","1974036","null","null","","","","clear_screen","","","","","","","","","","","","","","","","","","","","","","","","","",""
"","","","","","canvas-keyboard-response","249","414561","0.0-12.0-2.47","2d_cat_multi_stim_exp1","2022-4-5","15:32:31","25","75","3","9","10","40","30","120","13","18","[""White""]","No","Female","1974036","1246","u","learn","","","learn_trial","20","60","out","1","0","","","","","","","","","","","","","","","","","","","","",""
"","","","","","canvas-keyboard-response","250","415571","0.0-12.0-3.47","2d_cat_multi_stim_exp1","2022-4-5","15:32:31","25","75","3","9","10","40","30","120","13","18","[""White""]","No","Female","1974036","null","null","learn_feedback","","","learn_feedback","20","60","out","","","","","","","","","","","","","","","","","","","","","","",""
"","","","","","canvas-keyboard-response","251","415630","0.0-12.0-4.47","2d_cat_multi_stim_exp1","2022-4-5","15:32:31","25","75","3","9","10","40","30","120","13","18","[""White""]","No","Female","1974036","null","null","","","","clear_screen","","","","","","","","","","","","","","","","","","","","","","","","","",""
"","","","","","canvas-keyboard-response","252","416139","0.0-12.0-0.48","2d_cat_multi_stim_exp1","2022-4-5","15:32:31","25","75","3","9","10","40","30","120","13","18","[""White""]","No","Female","1974036","null","null","","","","fixation","","","","","","","","","","","","","","","","","","","","","","","","","",""
"","","","","","canvas-keyboard-response","253","416650","0.0-12.0-1.48","2d_cat_multi_stim_exp1","2022-4-5","15:32:31","25","75","3","9","10","40","30","120","13","18","[""White""]","No","Female","1974036","null","null","","","","clear_screen","","","","","","","","","","","","","","","","","","","","","","","","","",""
"","","","","","canvas-keyboard-response","254","417689","0.0-12.0-2.48","2d_cat_multi_stim_exp1","2022-4-5","15:32:31","25","75","3","9","10","40","30","120","13","18","[""White""]","No","Female","1974036","1027","i","learn","","","learn_trial","10","110","out","0","1","","","","","","","","","","","","","","","","","","","","",""
"","","","","","canvas-keyboard-response","255","418202","0.0-12.0-3.48","2d_cat_multi_stim_exp1","2022-4-5","15:32:31","25","75","3","9","10","40","30","120","13","18","[""White""]","No","Female","1974036","null","null","learn_feedback","","","learn_feedback","10","110","out","","","","","","","","","","","","","","","","","","","","","","",""
"","","","","","canvas-keyboard-response","256","418262","0.0-12.0-4.48","2d_cat_multi_stim_exp1","2022-4-5","15:32:31","25","75","3","9","10","40","30","120","13","18","[""White""]","No","Female","1974036","null","null","","","","clear_screen","","","","","","","","","","","","","","","","","","","","","","","","","",""
"","","","","","canvas-keyboard-response","257","418772","0.0-12.0-0.49","2d_cat_multi_stim_exp1","2022-4-5","15:32:31","25","75","3","9","10","40","30","120","13","18","[""White""]","No","Female","1974036","null","null","","","","fixation","","","","","","","","","","","","","","","","","","","","","","","","","",""
"","","","","","canvas-keyboard-response","258","419286","0.0-12.0-1.49","2d_cat_multi_stim_exp1","2022-4-5","15:32:31","25","75","3","9","10","40","30","120","13","18","[""White""]","No","Female","1974036","null","null","","","","clear_screen","","","","","","","","","","","","","","","","","","","","","","","","","",""
"","","","","","canvas-keyboard-response","259","420466","0.0-12.0-2.49","2d_cat_multi_stim_exp1","2022-4-5","15:32:31","25","75","3","9","10","40","30","120","13","18","[""White""]","No","Female","1974036","1168","i","learn","","","learn_trial","23.3333","120","out","0","1","","","","","","","","","","","","","","","","","","","","",""
"","","","","","canvas-keyboard-response","260","420974","0.0-12.0-3.49","2d_cat_multi_stim_exp1","2022-4-5","15:32:31","25","75","3","9","10","40","30","120","13","18","[""White""]","No","Female","1974036","null","null","learn_feedback","","","learn_feedback","23.3333","120","out","","","","","","","","","","","","","","","","","","","","","","",""
"","","","","","canvas-keyboard-response","261","421036","0.0-12.0-4.49","2d_cat_multi_stim_exp1","2022-4-5","15:32:31","25","75","3","9","10","40","30","120","13","18","[""White""]","No","Female","1974036","null","null","","","","clear_screen","","","","","","","","","","","","","","","","","","","","","","","","","",""
"","","","","","canvas-keyboard-response","262","421547","0.0-12.0-0.50","2d_cat_multi_stim_exp1","2022-4-5","15:32:31","25","75","3","9","10","40","30","120","13","18","[""White""]","No","Female","1974036","null","null","","","","fixation","","","","","","","","","","","","","","","","","","","","","","","","","",""
"","","","","","canvas-keyboard-response","263","422058","0.0-12.0-1.50","2d_cat_multi_stim_exp1","2022-4-5","15:32:31","25","75","3","9","10","40","30","120","13","18","[""White""]","No","Female","1974036","null","null","","","","clear_screen","","","","","","","","","","","","","","","","","","","","","","","","","",""
"","","","","","canvas-keyboard-response","264","423393","0.0-12.0-2.50","2d_cat_multi_stim_exp1","2022-4-5","15:32:31","25","75","3","9","10","40","30","120","13","18","[""White""]","No","Female","1974036","1324","i","learn","","","learn_trial","30","30","out","0","1","","","","","","","","","","","","","","","","","","","","",""
"","","","","","canvas-keyboard-response","265","423904","0.0-12.0-3.50","2d_cat_multi_stim_exp1","2022-4-5","15:32:31","25","75","3","9","10","40","30","120","13","18","[""White""]","No","Female","1974036","null","null","learn_feedback","","","learn_feedback","30","30","out","","","","","","","","","","","","","","","","","","","","","","",""
"","","","","","canvas-keyboard-response","266","423967","0.0-12.0-4.50","2d_cat_multi_stim_exp1","2022-4-5","15:32:31","25","75","3","9","10","40","30","120","13","18","[""White""]","No","Female","1974036","null","null","","","","clear_screen","","","","","","","","","","","","","","","","","","","","","","","","","",""
"","","","","","canvas-keyboard-response","267","424476","0.0-12.0-0.51","2d_cat_multi_stim_exp1","2022-4-5","15:32:31","25","75","3","9","10","40","30","120","13","18","[""White""]","No","Female","1974036","null","null","","","","fixation","","","","","","","","","","","","","","","","","","","","","","","","","",""
"","","","","","canvas-keyboard-response","268","424986","0.0-12.0-1.51","2d_cat_multi_stim_exp1","2022-4-5","15:32:31","25","75","3","9","10","40","30","120","13","18","[""White""]","No","Female","1974036","null","null","","","","clear_screen","","","","","","","","","","","","","","","","","","","","","","","","","",""
"","","","","","canvas-keyboard-response","269","425951","0.0-12.0-2.51","2d_cat_multi_stim_exp1","2022-4-5","15:32:31","25","75","3","9","10","40","30","120","13","18","[""White""]","No","Female","1974036","954","u","learn","","","learn_trial","25","75","in","1","1","","","","","","","","","","","","","","","","","","","","",""
"","","","","","canvas-keyboard-response","270","426456","0.0-12.0-3.51","2d_cat_multi_stim_exp1","2022-4-5","15:32:31","25","75","3","9","10","40","30","120","13","18","[""White""]","No","Female","1974036","null","null","learn_feedback","","","learn_feedback","25","75","in","","","","","","","","","","","","","","","","","","","","","","",""
"","","","","","canvas-keyboard-response","271","426519","0.0-12.0-4.51","2d_cat_multi_stim_exp1","2022-4-5","15:32:31","25","75","3","9","10","40","30","120","13","18","[""White""]","No","Female","1974036","null","null","","","","clear_screen","","","","","","","","","","","","","","","","","","","","","","","","","",""
"","","","","","canvas-keyboard-response","272","427029","0.0-12.0-0.52","2d_cat_multi_stim_exp1","2022-4-5","15:32:31","25","75","3","9","10","40","30","120","13","18","[""White""]","No","Female","1974036","null","null","","","","fixation","","","","","","","","","","","","","","","","","","","","","","","","","",""
"","","","","","canvas-keyboard-response","273","427543","0.0-12.0-1.52","2d_cat_multi_stim_exp1","2022-4-5","15:32:31","25","75","3","9","10","40","30","120","13","18","[""White""]","No","Female","1974036","null","null","","","","clear_screen","","","","","","","","","","","","","","","","","","","","","","","","","",""
"","","","","","canvas-keyboard-response","274","428170","0.0-12.0-2.52","2d_cat_multi_stim_exp1","2022-4-5","15:32:31","25","75","3","9","10","40","30","120","13","18","[""White""]","No","Female","1974036","616","i","learn","","","learn_trial","10","50","out","0","1","","","","","","","","","","","","","","","","","","","","",""
"","","","","","canvas-keyboard-response","275","428680","0.0-12.0-3.52","2d_cat_multi_stim_exp1","2022-4-5","15:32:31","25","75","3","9","10","40","30","120","13","18","[""White""]","No","Female","1974036","null","null","learn_feedback","","","learn_feedback","10","50","out","","","","","","","","","","","","","","","","","","","","","","",""
"","","","","","canvas-keyboard-response","276","428740","0.0-12.0-4.52","2d_cat_multi_stim_exp1","2022-4-5","15:32:31","25","75","3","9","10","40","30","120","13","18","[""White""]","No","Female","1974036","null","null","","","","clear_screen","","","","","","","","","","","","","","","","","","","","","","","","","",""
"","","","","","canvas-keyboard-response","277","429249","0.0-12.0-0.53","2d_cat_multi_stim_exp1","2022-4-5","15:32:31","25","75","3","9","10","40","30","120","13","18","[""White""]","No","Female","1974036","null","null","","","","fixation","","","","","","","","","","","","","","","","","","","","","","","","","",""
"","","","","","canvas-keyboard-response","278","429763","0.0-12.0-1.53","2d_cat_multi_stim_exp1","2022-4-5","15:32:31","25","75","3","9","10","40","30","120","13","18","[""White""]","No","Female","1974036","null","null","","","","clear_screen","","","","","","","","","","","","","","","","","","","","","","","","","",""
"","","","","","canvas-keyboard-response","279","430945","0.0-12.0-2.53","2d_cat_multi_stim_exp1","2022-4-5","15:32:31","25","75","3","9","10","40","30","120","13","18","[""White""]","No","Female","1974036","1173","i","learn","","","learn_trial","20","120","out","0","1","","","","","","","","","","","","","","","","","","","","",""
"","","","","","canvas-keyboard-response","280","431454","0.0-12.0-3.53","2d_cat_multi_stim_exp1","2022-4-5","15:32:31","25","75","3","9","10","40","30","120","13","18","[""White""]","No","Female","1974036","null","null","learn_feedback","","","learn_feedback","20","120","out","","","","","","","","","","","","","","","","","","","","","","",""
"","","","","","canvas-keyboard-response","281","431519","0.0-12.0-4.53","2d_cat_multi_stim_exp1","2022-4-5","15:32:31","25","75","3","9","10","40","30","120","13","18","[""White""]","No","Female","1974036","null","null","","","","clear_screen","","","","","","","","","","","","","","","","","","","","","","","","","",""
"","","","","","canvas-keyboard-response","282","432028","0.0-12.0-0.54","2d_cat_multi_stim_exp1","2022-4-5","15:32:31","25","75","3","9","10","40","30","120","13","18","[""White""]","No","Female","1974036","null","null","","","","fixation","","","","","","","","","","","","","","","","","","","","","","","","","",""
"","","","","","canvas-keyboard-response","283","432537","0.0-12.0-1.54","2d_cat_multi_stim_exp1","2022-4-5","15:32:31","25","75","3","9","10","40","30","120","13","18","[""White""]","No","Female","1974036","null","null","","","","clear_screen","","","","","","","","","","","","","","","","","","","","","","","","","",""
"","","","","","canvas-keyboard-response","284","433537","0.0-12.0-2.54","2d_cat_multi_stim_exp1","2022-4-5","15:32:31","25","75","3","9","10","40","30","120","13","18","[""White""]","No","Female","1974036","991","u","learn","","","learn_trial","25","75","in","1","1","","","","","","","","","","","","","","","","","","","","",""
"","","","","","canvas-keyboard-response","285","434046","0.0-12.0-3.54","2d_cat_multi_stim_exp1","2022-4-5","15:32:31","25","75","3","9","10","40","30","120","13","18","[""White""]","No","Female","1974036","null","null","learn_feedback","","","learn_feedback","25","75","in","","","","","","","","","","","","","","","","","","","","","","",""
"","","","","","canvas-keyboard-response","286","434104","0.0-12.0-4.54","2d_cat_multi_stim_exp1","2022-4-5","15:32:31","25","75","3","9","10","40","30","120","13","18","[""White""]","No","Female","1974036","null","null","","","","clear_screen","","","","","","","","","","","","","","","","","","","","","","","","","",""
"","","","","","canvas-keyboard-response","287","434615","0.0-12.0-0.55","2d_cat_multi_stim_exp1","2022-4-5","15:32:31","25","75","3","9","10","40","30","120","13","18","[""White""]","No","Female","1974036","null","null","","","","fixation","","","","","","","","","","","","","","","","","","","","","","","","","",""
"","","","","","canvas-keyboard-response","288","435126","0.0-12.0-1.55","2d_cat_multi_stim_exp1","2022-4-5","15:32:31","25","75","3","9","10","40","30","120","13","18","[""White""]","No","Female","1974036","null","null","","","","clear_screen","","","","","","","","","","","","","","","","","","","","","","","","","",""
"","","","","","canvas-keyboard-response","289","438546","0.0-12.0-2.55","2d_cat_multi_stim_exp1","2022-4-5","15:32:31","25","75","3","9","10","40","30","120","13","18","[""White""]","No","Female","1974036","3408","i","learn","","","learn_trial","29.2426","62.2721","in","0","0","","","","","","","","","","","","","","","","","","","","",""
"","","","","","canvas-keyboard-response","290","439558","0.0-12.0-3.55","2d_cat_multi_stim_exp1","2022-4-5","15:32:31","25","75","3","9","10","40","30","120","13","18","[""White""]","No","Female","1974036","null","null","learn_feedback","","","learn_feedback","29.2426","62.2721","in","","","","","","","","","","","","","","","","","","","","","","",""
"","","","","","canvas-keyboard-response","291","439620","0.0-12.0-4.55","2d_cat_multi_stim_exp1","2022-4-5","15:32:31","25","75","3","9","10","40","30","120","13","18","[""White""]","No","Female","1974036","null","null","","","","clear_screen","","","","","","","","","","","","","","","","","","","","","","","","","",""
"","","","","","canvas-keyboard-response","292","440132","0.0-12.0-0.56","2d_cat_multi_stim_exp1","2022-4-5","15:32:31","25","75","3","9","10","40","30","120","13","18","[""White""]","No","Female","1974036","null","null","","","","fixation","","","","","","","","","","","","","","","","","","","","","","","","","",""
"","","","","","canvas-keyboard-response","293","440642","0.0-12.0-1.56","2d_cat_multi_stim_exp1","2022-4-5","15:32:31","25","75","3","9","10","40","30","120","13","18","[""White""]","No","Female","1974036","null","null","","","","clear_screen","","","","","","","","","","","","","","","","","","","","","","","","","",""
"","","","","","canvas-keyboard-response","294","441345","0.0-12.0-2.56","2d_cat_multi_stim_exp1","2022-4-5","15:32:31","25","75","3","9","10","40","30","120","13","18","[""White""]","No","Female","1974036","691","u","learn","","","learn_trial","24.3324","66.2256","in","1","1","","","","","","","","","","","","","","","","","","","","",""
"","","","","","canvas-keyboard-response","295","441855","0.0-12.0-3.56","2d_cat_multi_stim_exp1","2022-4-5","15:32:31","25","75","3","9","10","40","30","120","13","18","[""White""]","No","Female","1974036","null","null","learn_feedback","","","learn_feedback","24.3324","66.2256","in","","","","","","","","","","","","","","","","","","","","","","",""
"","","","","","canvas-keyboard-response","296","441919","0.0-12.0-4.56","2d_cat_multi_stim_exp1","2022-4-5","15:32:31","25","75","3","9","10","40","30","120","13","18","[""White""]","No","Female","1974036","null","null","","","","clear_screen","","","","","","","","","","","","","","","","","","","","","","","","","",""
"","","","","","canvas-keyboard-response","297","442429","0.0-12.0-0.57","2d_cat_multi_stim_exp1","2022-4-5","15:32:31","25","75","3","9","10","40","30","120","13","18","[""White""]","No","Female","1974036","null","null","","","","fixation","","","","","","","","","","","","","","","","","","","","","","","","","",""
